#
# Results on Tuesday June 20 2023 17:20:24 UTC
# USER AGENT: Mozilla/5.0 (Windows NT 10.0; Win64; x64) AppleWebKit/537.36 (KHTML, like Gecko) Chrome/114.0.0.0 Safari/537.36
# Design number was non-random = 4
#
# Columns below this comment are as follows:
# 1. Results reception time.
# 2. MD5 hash of participant's IP address.
# 3. Controller name.
# 4. Order number of item.
# 5. Inner element number.
# 6. Label.
# 7. Latin Square Group.
# 8. PennElementType.
# 9. PennElementName.
# 10. Parameter.
# 11. Value.
# 12. EventTime.
# 13. PROLIFIC_ID.
# 14. Comments.
1687281624,d7faf2f804669785cd0e4c4d3e37a549,PennController,2,0,consent,NULL,PennController,0,_Trial_,Start,1687281329277,613acb9ff585d03306b131f2,NULL
1687281624,d7faf2f804669785cd0e4c4d3e37a549,PennController,2,0,consent,NULL,PennController,0,_Header_,Start,1687281329277,613acb9ff585d03306b131f2,NULL
1687281624,d7faf2f804669785cd0e4c4d3e37a549,PennController,2,0,consent,NULL,PennController,0,_Header_,End,1687281329277,613acb9ff585d03306b131f2,NULL
1687281624,d7faf2f804669785cd0e4c4d3e37a549,PennController,2,0,consent,NULL,PennController,0,_Trial_,End,1687281357184,613acb9ff585d03306b131f2,NULL
# Columns below this comment are as follows:
# 14. ID.
# 15. Comments.
1687281624,d7faf2f804669785cd0e4c4d3e37a549,PennController,3,0,intro,NULL,PennController,1,_Trial_,Start,1687281357185,613acb9ff585d03306b131f2,613acb9ff585d03306b131f2,NULL
1687281624,d7faf2f804669785cd0e4c4d3e37a549,PennController,3,0,intro,NULL,PennController,1,_Header_,Start,1687281357185,613acb9ff585d03306b131f2,613acb9ff585d03306b131f2,NULL
1687281624,d7faf2f804669785cd0e4c4d3e37a549,PennController,3,0,intro,NULL,PennController,1,_Header_,End,1687281357185,613acb9ff585d03306b131f2,613acb9ff585d03306b131f2,NULL
1687281624,d7faf2f804669785cd0e4c4d3e37a549,PennController,3,0,intro,NULL,PennController,1,_Trial_,End,1687281363643,613acb9ff585d03306b131f2,613acb9ff585d03306b131f2,NULL
# Columns below this comment are as follows:
# 15. item_number.
# 16. item.
# 17. type.
# 18. Group.
# 19. prog.
# 20. prev_image.
# 21. next_image.
# 22. height.
# 23. Comments.
1687281624,d7faf2f804669785cd0e4c4d3e37a549,PennController,26,0,experiment,NULL,PennController,25,_Trial_,Start,1687281363646,613acb9ff585d03306b131f2,613acb9ff585d03306b131f2,23,color,filler,B,75,color65.jpg,color85.jpg,nogoal,NULL
1687281624,d7faf2f804669785cd0e4c4d3e37a549,PennController,26,0,experiment,NULL,PennController,25,_Header_,Start,1687281363646,613acb9ff585d03306b131f2,613acb9ff585d03306b131f2,23,color,filler,B,75,color65.jpg,color85.jpg,nogoal,NULL
1687281624,d7faf2f804669785cd0e4c4d3e37a549,PennController,26,0,experiment,NULL,PennController,25,_Header_,End,1687281363646,613acb9ff585d03306b131f2,613acb9ff585d03306b131f2,23,color,filler,B,75,color65.jpg,color85.jpg,nogoal,NULL
1687281624,d7faf2f804669785cd0e4c4d3e37a549,PennController,26,0,experiment,NULL,Canvas,canvas6,Print,NA,1687281369327,613acb9ff585d03306b131f2,613acb9ff585d03306b131f2,23,color,filler,B,75,color65.jpg,color85.jpg,nogoal,NULL
1687281624,d7faf2f804669785cd0e4c4d3e37a549,PennController,26,0,experiment,NULL,Video,progression,buffer,0.002696,1687281365167,613acb9ff585d03306b131f2,613acb9ff585d03306b131f2,23,color,filler,B,75,color65.jpg,color85.jpg,nogoal,NULL
1687281624,d7faf2f804669785cd0e4c4d3e37a549,PennController,26,0,experiment,NULL,Selector,choice,Selection,option2,1687281384620,613acb9ff585d03306b131f2,613acb9ff585d03306b131f2,23,color,filler,B,75,color65.jpg,color85.jpg,nogoal,option2;option1
1687281624,d7faf2f804669785cd0e4c4d3e37a549,PennController,26,0,experiment,NULL,PennController,25,_Trial_,End,1687281384621,613acb9ff585d03306b131f2,613acb9ff585d03306b131f2,23,color,filler,B,75,color65.jpg,color85.jpg,nogoal,NULL
1687281624,d7faf2f804669785cd0e4c4d3e37a549,PennController,11,0,experiment,NULL,PennController,10,_Trial_,Start,1687281384622,613acb9ff585d03306b131f2,613acb9ff585d03306b131f2,8,cucumber,critical,B,75,cucumber66.jpg,cucumber84.jpg,nogoal,NULL
1687281624,d7faf2f804669785cd0e4c4d3e37a549,PennController,11,0,experiment,NULL,PennController,10,_Header_,Start,1687281384622,613acb9ff585d03306b131f2,613acb9ff585d03306b131f2,8,cucumber,critical,B,75,cucumber66.jpg,cucumber84.jpg,nogoal,NULL
1687281624,d7faf2f804669785cd0e4c4d3e37a549,PennController,11,0,experiment,NULL,PennController,10,_Header_,End,1687281384622,613acb9ff585d03306b131f2,613acb9ff585d03306b131f2,8,cucumber,critical,B,75,cucumber66.jpg,cucumber84.jpg,nogoal,NULL
1687281624,d7faf2f804669785cd0e4c4d3e37a549,PennController,11,0,experiment,NULL,Canvas,canvas6,Print,NA,1687281392295,613acb9ff585d03306b131f2,613acb9ff585d03306b131f2,8,cucumber,critical,B,75,cucumber66.jpg,cucumber84.jpg,nogoal,NULL
1687281624,d7faf2f804669785cd0e4c4d3e37a549,PennController,11,0,experiment,NULL,Video,progression,buffer,0.003,1687281386137,613acb9ff585d03306b131f2,613acb9ff585d03306b131f2,8,cucumber,critical,B,75,cucumber66.jpg,cucumber84.jpg,nogoal,NULL
1687281624,d7faf2f804669785cd0e4c4d3e37a549,PennController,11,0,experiment,NULL,Selector,choice,Selection,option2,1687281399605,613acb9ff585d03306b131f2,613acb9ff585d03306b131f2,8,cucumber,critical,B,75,cucumber66.jpg,cucumber84.jpg,nogoal,option1;option2
1687281624,d7faf2f804669785cd0e4c4d3e37a549,PennController,11,0,experiment,NULL,PennController,10,_Trial_,End,1687281399605,613acb9ff585d03306b131f2,613acb9ff585d03306b131f2,8,cucumber,critical,B,75,cucumber66.jpg,cucumber84.jpg,nogoal,NULL
1687281624,d7faf2f804669785cd0e4c4d3e37a549,PennController,7,0,experiment,NULL,PennController,6,_Trial_,Start,1687281399606,613acb9ff585d03306b131f2,613acb9ff585d03306b131f2,4,candy,critical,B,50,candy40.jpg,candy60.jpg,nogoal,NULL
1687281624,d7faf2f804669785cd0e4c4d3e37a549,PennController,7,0,experiment,NULL,PennController,6,_Header_,Start,1687281399606,613acb9ff585d03306b131f2,613acb9ff585d03306b131f2,4,candy,critical,B,50,candy40.jpg,candy60.jpg,nogoal,NULL
1687281624,d7faf2f804669785cd0e4c4d3e37a549,PennController,7,0,experiment,NULL,PennController,6,_Header_,End,1687281399606,613acb9ff585d03306b131f2,613acb9ff585d03306b131f2,4,candy,critical,B,50,candy40.jpg,candy60.jpg,nogoal,NULL
1687281624,d7faf2f804669785cd0e4c4d3e37a549,PennController,7,0,experiment,NULL,Canvas,canvas6,Print,NA,1687281404280,613acb9ff585d03306b131f2,613acb9ff585d03306b131f2,4,candy,critical,B,50,candy40.jpg,candy60.jpg,nogoal,NULL
1687281624,d7faf2f804669785cd0e4c4d3e37a549,PennController,7,0,experiment,NULL,Video,progression,buffer,0.003061,1687281401121,613acb9ff585d03306b131f2,613acb9ff585d03306b131f2,4,candy,critical,B,50,candy40.jpg,candy60.jpg,nogoal,NULL
1687281624,d7faf2f804669785cd0e4c4d3e37a549,PennController,7,0,experiment,NULL,Selector,choice,Selection,option1,1687281406284,613acb9ff585d03306b131f2,613acb9ff585d03306b131f2,4,candy,critical,B,50,candy40.jpg,candy60.jpg,nogoal,option1;option2
1687281624,d7faf2f804669785cd0e4c4d3e37a549,PennController,7,0,experiment,NULL,PennController,6,_Trial_,End,1687281406285,613acb9ff585d03306b131f2,613acb9ff585d03306b131f2,4,candy,critical,B,50,candy40.jpg,candy60.jpg,nogoal,NULL
1687281624,d7faf2f804669785cd0e4c4d3e37a549,PennController,16,0,experiment,NULL,PennController,15,_Trial_,Start,1687281406286,613acb9ff585d03306b131f2,613acb9ff585d03306b131f2,13,mix,critical,B,50,mix40.jpg,mix60.jpg,nogoal,NULL
1687281624,d7faf2f804669785cd0e4c4d3e37a549,PennController,16,0,experiment,NULL,PennController,15,_Header_,Start,1687281406286,613acb9ff585d03306b131f2,613acb9ff585d03306b131f2,13,mix,critical,B,50,mix40.jpg,mix60.jpg,nogoal,NULL
1687281624,d7faf2f804669785cd0e4c4d3e37a549,PennController,16,0,experiment,NULL,PennController,15,_Header_,End,1687281406286,613acb9ff585d03306b131f2,613acb9ff585d03306b131f2,13,mix,critical,B,50,mix40.jpg,mix60.jpg,nogoal,NULL
1687281624,d7faf2f804669785cd0e4c4d3e37a549,PennController,16,0,experiment,NULL,Canvas,canvas6,Print,NA,1687281410963,613acb9ff585d03306b131f2,613acb9ff585d03306b131f2,13,mix,critical,B,50,mix40.jpg,mix60.jpg,nogoal,NULL
1687281624,d7faf2f804669785cd0e4c4d3e37a549,PennController,16,0,experiment,NULL,Video,progression,buffer,0.00194,1687281407800,613acb9ff585d03306b131f2,613acb9ff585d03306b131f2,13,mix,critical,B,50,mix40.jpg,mix60.jpg,nogoal,NULL
1687281624,d7faf2f804669785cd0e4c4d3e37a549,PennController,16,0,experiment,NULL,Selector,choice,Selection,option2,1687281412829,613acb9ff585d03306b131f2,613acb9ff585d03306b131f2,13,mix,critical,B,50,mix40.jpg,mix60.jpg,nogoal,option2;option1
1687281624,d7faf2f804669785cd0e4c4d3e37a549,PennController,16,0,experiment,NULL,PennController,15,_Trial_,End,1687281412830,613acb9ff585d03306b131f2,613acb9ff585d03306b131f2,13,mix,critical,B,50,mix40.jpg,mix60.jpg,nogoal,NULL
1687281624,d7faf2f804669785cd0e4c4d3e37a549,PennController,25,0,experiment,NULL,PennController,24,_Trial_,Start,1687281412830,613acb9ff585d03306b131f2,613acb9ff585d03306b131f2,22,wall,filler,B,50,wall40.jpg,wall60.jpg,nogoal,NULL
1687281624,d7faf2f804669785cd0e4c4d3e37a549,PennController,25,0,experiment,NULL,PennController,24,_Header_,Start,1687281412830,613acb9ff585d03306b131f2,613acb9ff585d03306b131f2,22,wall,filler,B,50,wall40.jpg,wall60.jpg,nogoal,NULL
1687281624,d7faf2f804669785cd0e4c4d3e37a549,PennController,25,0,experiment,NULL,PennController,24,_Header_,End,1687281412830,613acb9ff585d03306b131f2,613acb9ff585d03306b131f2,22,wall,filler,B,50,wall40.jpg,wall60.jpg,nogoal,NULL
1687281624,d7faf2f804669785cd0e4c4d3e37a549,PennController,25,0,experiment,NULL,Canvas,canvas6,Print,NA,1687281417511,613acb9ff585d03306b131f2,613acb9ff585d03306b131f2,22,wall,filler,B,50,wall40.jpg,wall60.jpg,nogoal,NULL
1687281624,d7faf2f804669785cd0e4c4d3e37a549,PennController,25,0,experiment,NULL,Video,progression,buffer,0.002156,1687281414347,613acb9ff585d03306b131f2,613acb9ff585d03306b131f2,22,wall,filler,B,50,wall40.jpg,wall60.jpg,nogoal,NULL
1687281624,d7faf2f804669785cd0e4c4d3e37a549,PennController,25,0,experiment,NULL,Selector,choice,Selection,option2,1687281418908,613acb9ff585d03306b131f2,613acb9ff585d03306b131f2,22,wall,filler,B,50,wall40.jpg,wall60.jpg,nogoal,option2;option1
1687281624,d7faf2f804669785cd0e4c4d3e37a549,PennController,25,0,experiment,NULL,PennController,24,_Trial_,End,1687281418909,613acb9ff585d03306b131f2,613acb9ff585d03306b131f2,22,wall,filler,B,50,wall40.jpg,wall60.jpg,nogoal,NULL
1687281624,d7faf2f804669785cd0e4c4d3e37a549,PennController,4,0,experiment,NULL,PennController,3,_Trial_,Start,1687281418910,613acb9ff585d03306b131f2,613acb9ff585d03306b131f2,1,vase,critical,B,50,vase40.jpg,vase60.jpg,nogoal,NULL
1687281624,d7faf2f804669785cd0e4c4d3e37a549,PennController,4,0,experiment,NULL,PennController,3,_Header_,Start,1687281418910,613acb9ff585d03306b131f2,613acb9ff585d03306b131f2,1,vase,critical,B,50,vase40.jpg,vase60.jpg,nogoal,NULL
1687281624,d7faf2f804669785cd0e4c4d3e37a549,PennController,4,0,experiment,NULL,PennController,3,_Header_,End,1687281418910,613acb9ff585d03306b131f2,613acb9ff585d03306b131f2,1,vase,critical,B,50,vase40.jpg,vase60.jpg,nogoal,NULL
1687281624,d7faf2f804669785cd0e4c4d3e37a549,PennController,4,0,experiment,NULL,Canvas,canvas6,Print,NA,1687281423593,613acb9ff585d03306b131f2,613acb9ff585d03306b131f2,1,vase,critical,B,50,vase40.jpg,vase60.jpg,nogoal,NULL
1687281624,d7faf2f804669785cd0e4c4d3e37a549,PennController,4,0,experiment,NULL,Video,progression,buffer,0.003481,1687281420426,613acb9ff585d03306b131f2,613acb9ff585d03306b131f2,1,vase,critical,B,50,vase40.jpg,vase60.jpg,nogoal,NULL
1687281624,d7faf2f804669785cd0e4c4d3e37a549,PennController,4,0,experiment,NULL,Selector,choice,Selection,option2,1687281433116,613acb9ff585d03306b131f2,613acb9ff585d03306b131f2,1,vase,critical,B,50,vase40.jpg,vase60.jpg,nogoal,option1;option2
1687281624,d7faf2f804669785cd0e4c4d3e37a549,PennController,4,0,experiment,NULL,PennController,3,_Trial_,End,1687281433117,613acb9ff585d03306b131f2,613acb9ff585d03306b131f2,1,vase,critical,B,50,vase40.jpg,vase60.jpg,nogoal,NULL
1687281624,d7faf2f804669785cd0e4c4d3e37a549,PennController,13,0,experiment,NULL,PennController,12,_Trial_,Start,1687281433117,613acb9ff585d03306b131f2,613acb9ff585d03306b131f2,10,train,critical,B,50,train40.jpg,train60.jpg,nogoal,NULL
1687281624,d7faf2f804669785cd0e4c4d3e37a549,PennController,13,0,experiment,NULL,PennController,12,_Header_,Start,1687281433117,613acb9ff585d03306b131f2,613acb9ff585d03306b131f2,10,train,critical,B,50,train40.jpg,train60.jpg,nogoal,NULL
1687281624,d7faf2f804669785cd0e4c4d3e37a549,PennController,13,0,experiment,NULL,PennController,12,_Header_,End,1687281433117,613acb9ff585d03306b131f2,613acb9ff585d03306b131f2,10,train,critical,B,50,train40.jpg,train60.jpg,nogoal,NULL
1687281624,d7faf2f804669785cd0e4c4d3e37a549,PennController,13,0,experiment,NULL,Canvas,canvas6,Print,NA,1687281437793,613acb9ff585d03306b131f2,613acb9ff585d03306b131f2,10,train,critical,B,50,train40.jpg,train60.jpg,nogoal,NULL
1687281624,d7faf2f804669785cd0e4c4d3e37a549,PennController,13,0,experiment,NULL,Video,progression,buffer,0.002081,1687281434633,613acb9ff585d03306b131f2,613acb9ff585d03306b131f2,10,train,critical,B,50,train40.jpg,train60.jpg,nogoal,NULL
1687281624,d7faf2f804669785cd0e4c4d3e37a549,PennController,13,0,experiment,NULL,Selector,choice,Selection,option1,1687281439540,613acb9ff585d03306b131f2,613acb9ff585d03306b131f2,10,train,critical,B,50,train40.jpg,train60.jpg,nogoal,option2;option1
1687281624,d7faf2f804669785cd0e4c4d3e37a549,PennController,13,0,experiment,NULL,PennController,12,_Trial_,End,1687281439541,613acb9ff585d03306b131f2,613acb9ff585d03306b131f2,10,train,critical,B,50,train40.jpg,train60.jpg,nogoal,NULL
1687281624,d7faf2f804669785cd0e4c4d3e37a549,PennController,5,0,experiment,NULL,PennController,4,_Trial_,Start,1687281439541,613acb9ff585d03306b131f2,613acb9ff585d03306b131f2,2,door,critical,B,75,door65.jpg,door85.jpg,nogoal,NULL
1687281624,d7faf2f804669785cd0e4c4d3e37a549,PennController,5,0,experiment,NULL,PennController,4,_Header_,Start,1687281439541,613acb9ff585d03306b131f2,613acb9ff585d03306b131f2,2,door,critical,B,75,door65.jpg,door85.jpg,nogoal,NULL
1687281624,d7faf2f804669785cd0e4c4d3e37a549,PennController,5,0,experiment,NULL,PennController,4,_Header_,End,1687281439541,613acb9ff585d03306b131f2,613acb9ff585d03306b131f2,2,door,critical,B,75,door65.jpg,door85.jpg,nogoal,NULL
1687281624,d7faf2f804669785cd0e4c4d3e37a549,PennController,5,0,experiment,NULL,Canvas,canvas6,Print,NA,1687281445211,613acb9ff585d03306b131f2,613acb9ff585d03306b131f2,2,door,critical,B,75,door65.jpg,door85.jpg,nogoal,NULL
1687281624,d7faf2f804669785cd0e4c4d3e37a549,PennController,5,0,experiment,NULL,Video,progression,buffer,0.002244,1687281441052,613acb9ff585d03306b131f2,613acb9ff585d03306b131f2,2,door,critical,B,75,door65.jpg,door85.jpg,nogoal,NULL
1687281624,d7faf2f804669785cd0e4c4d3e37a549,PennController,5,0,experiment,NULL,Selector,choice,Selection,option2,1687281448316,613acb9ff585d03306b131f2,613acb9ff585d03306b131f2,2,door,critical,B,75,door65.jpg,door85.jpg,nogoal,option1;option2
1687281624,d7faf2f804669785cd0e4c4d3e37a549,PennController,5,0,experiment,NULL,PennController,4,_Trial_,End,1687281448317,613acb9ff585d03306b131f2,613acb9ff585d03306b131f2,2,door,critical,B,75,door65.jpg,door85.jpg,nogoal,NULL
1687281624,d7faf2f804669785cd0e4c4d3e37a549,PennController,30,0,experiment,NULL,PennController,29,_Trial_,Start,1687281448318,613acb9ff585d03306b131f2,613acb9ff585d03306b131f2,27,square,filler,B,25,square15.jpg,square35.jpg,nogoal,NULL
1687281624,d7faf2f804669785cd0e4c4d3e37a549,PennController,30,0,experiment,NULL,PennController,29,_Header_,Start,1687281448318,613acb9ff585d03306b131f2,613acb9ff585d03306b131f2,27,square,filler,B,25,square15.jpg,square35.jpg,nogoal,NULL
1687281624,d7faf2f804669785cd0e4c4d3e37a549,PennController,30,0,experiment,NULL,PennController,29,_Header_,End,1687281448318,613acb9ff585d03306b131f2,613acb9ff585d03306b131f2,27,square,filler,B,25,square15.jpg,square35.jpg,nogoal,NULL
1687281624,d7faf2f804669785cd0e4c4d3e37a549,PennController,30,0,experiment,NULL,Canvas,canvas6,Print,NA,1687281451995,613acb9ff585d03306b131f2,613acb9ff585d03306b131f2,27,square,filler,B,25,square15.jpg,square35.jpg,nogoal,NULL
1687281624,d7faf2f804669785cd0e4c4d3e37a549,PennController,30,0,experiment,NULL,Video,progression,buffer,0.002924,1687281449830,613acb9ff585d03306b131f2,613acb9ff585d03306b131f2,27,square,filler,B,25,square15.jpg,square35.jpg,nogoal,NULL
1687281624,d7faf2f804669785cd0e4c4d3e37a549,PennController,30,0,experiment,NULL,Selector,choice,Selection,option2,1687281453724,613acb9ff585d03306b131f2,613acb9ff585d03306b131f2,27,square,filler,B,25,square15.jpg,square35.jpg,nogoal,option2;option1
1687281624,d7faf2f804669785cd0e4c4d3e37a549,PennController,30,0,experiment,NULL,PennController,29,_Trial_,End,1687281453725,613acb9ff585d03306b131f2,613acb9ff585d03306b131f2,27,square,filler,B,25,square15.jpg,square35.jpg,nogoal,NULL
1687281624,d7faf2f804669785cd0e4c4d3e37a549,PennController,9,0,experiment,NULL,PennController,8,_Trial_,Start,1687281453725,613acb9ff585d03306b131f2,613acb9ff585d03306b131f2,6,flower,critical,B,25,flower15.jpg,flower35.jpg,nogoal,NULL
1687281624,d7faf2f804669785cd0e4c4d3e37a549,PennController,9,0,experiment,NULL,PennController,8,_Header_,Start,1687281453725,613acb9ff585d03306b131f2,613acb9ff585d03306b131f2,6,flower,critical,B,25,flower15.jpg,flower35.jpg,nogoal,NULL
1687281624,d7faf2f804669785cd0e4c4d3e37a549,PennController,9,0,experiment,NULL,PennController,8,_Header_,End,1687281453725,613acb9ff585d03306b131f2,613acb9ff585d03306b131f2,6,flower,critical,B,25,flower15.jpg,flower35.jpg,nogoal,NULL
1687281624,d7faf2f804669785cd0e4c4d3e37a549,PennController,9,0,experiment,NULL,Canvas,canvas6,Print,NA,1687281457393,613acb9ff585d03306b131f2,613acb9ff585d03306b131f2,6,flower,critical,B,25,flower15.jpg,flower35.jpg,nogoal,NULL
1687281624,d7faf2f804669785cd0e4c4d3e37a549,PennController,9,0,experiment,NULL,Video,progression,buffer,0.002048,1687281455235,613acb9ff585d03306b131f2,613acb9ff585d03306b131f2,6,flower,critical,B,25,flower15.jpg,flower35.jpg,nogoal,NULL
1687281624,d7faf2f804669785cd0e4c4d3e37a549,PennController,9,0,experiment,NULL,Selector,choice,Selection,option1,1687281459804,613acb9ff585d03306b131f2,613acb9ff585d03306b131f2,6,flower,critical,B,25,flower15.jpg,flower35.jpg,nogoal,option2;option1
1687281624,d7faf2f804669785cd0e4c4d3e37a549,PennController,9,0,experiment,NULL,PennController,8,_Trial_,End,1687281459805,613acb9ff585d03306b131f2,613acb9ff585d03306b131f2,6,flower,critical,B,25,flower15.jpg,flower35.jpg,nogoal,NULL
1687281624,d7faf2f804669785cd0e4c4d3e37a549,PennController,32,0,experiment,NULL,PennController,31,_Trial_,Start,1687281459806,613acb9ff585d03306b131f2,613acb9ff585d03306b131f2,29,frog,filler,B,75,frog65.jpg,frog85.jpg,nogoal,NULL
1687281624,d7faf2f804669785cd0e4c4d3e37a549,PennController,32,0,experiment,NULL,PennController,31,_Header_,Start,1687281459806,613acb9ff585d03306b131f2,613acb9ff585d03306b131f2,29,frog,filler,B,75,frog65.jpg,frog85.jpg,nogoal,NULL
1687281624,d7faf2f804669785cd0e4c4d3e37a549,PennController,32,0,experiment,NULL,PennController,31,_Header_,End,1687281459806,613acb9ff585d03306b131f2,613acb9ff585d03306b131f2,29,frog,filler,B,75,frog65.jpg,frog85.jpg,nogoal,NULL
1687281624,d7faf2f804669785cd0e4c4d3e37a549,PennController,32,0,experiment,NULL,Canvas,canvas6,Print,NA,1687281465480,613acb9ff585d03306b131f2,613acb9ff585d03306b131f2,29,frog,filler,B,75,frog65.jpg,frog85.jpg,nogoal,NULL
1687281624,d7faf2f804669785cd0e4c4d3e37a549,PennController,32,0,experiment,NULL,Video,progression,buffer,0.001976,1687281461316,613acb9ff585d03306b131f2,613acb9ff585d03306b131f2,29,frog,filler,B,75,frog65.jpg,frog85.jpg,nogoal,NULL
1687281624,d7faf2f804669785cd0e4c4d3e37a549,PennController,32,0,experiment,NULL,Selector,choice,Selection,option2,1687281467620,613acb9ff585d03306b131f2,613acb9ff585d03306b131f2,29,frog,filler,B,75,frog65.jpg,frog85.jpg,nogoal,option1;option2
1687281624,d7faf2f804669785cd0e4c4d3e37a549,PennController,32,0,experiment,NULL,PennController,31,_Trial_,End,1687281467621,613acb9ff585d03306b131f2,613acb9ff585d03306b131f2,29,frog,filler,B,75,frog65.jpg,frog85.jpg,nogoal,NULL
1687281624,d7faf2f804669785cd0e4c4d3e37a549,PennController,21,0,experiment,NULL,PennController,20,_Trial_,Start,1687281467622,613acb9ff585d03306b131f2,613acb9ff585d03306b131f2,18,ball,critical,B,25,ball15.jpg,ball35.jpg,nogoal,NULL
1687281624,d7faf2f804669785cd0e4c4d3e37a549,PennController,21,0,experiment,NULL,PennController,20,_Header_,Start,1687281467622,613acb9ff585d03306b131f2,613acb9ff585d03306b131f2,18,ball,critical,B,25,ball15.jpg,ball35.jpg,nogoal,NULL
1687281624,d7faf2f804669785cd0e4c4d3e37a549,PennController,21,0,experiment,NULL,PennController,20,_Header_,End,1687281467622,613acb9ff585d03306b131f2,613acb9ff585d03306b131f2,18,ball,critical,B,25,ball15.jpg,ball35.jpg,nogoal,NULL
1687281624,d7faf2f804669785cd0e4c4d3e37a549,PennController,21,0,experiment,NULL,Canvas,canvas6,Print,NA,1687281471294,613acb9ff585d03306b131f2,613acb9ff585d03306b131f2,18,ball,critical,B,25,ball15.jpg,ball35.jpg,nogoal,NULL
1687281624,d7faf2f804669785cd0e4c4d3e37a549,PennController,21,0,experiment,NULL,Video,progression,buffer,0.002252,1687281469138,613acb9ff585d03306b131f2,613acb9ff585d03306b131f2,18,ball,critical,B,25,ball15.jpg,ball35.jpg,nogoal,NULL
1687281624,d7faf2f804669785cd0e4c4d3e37a549,PennController,21,0,experiment,NULL,Selector,choice,Selection,option1,1687281477916,613acb9ff585d03306b131f2,613acb9ff585d03306b131f2,18,ball,critical,B,25,ball15.jpg,ball35.jpg,nogoal,option2;option1
1687281624,d7faf2f804669785cd0e4c4d3e37a549,PennController,21,0,experiment,NULL,PennController,20,_Trial_,End,1687281477917,613acb9ff585d03306b131f2,613acb9ff585d03306b131f2,18,ball,critical,B,25,ball15.jpg,ball35.jpg,nogoal,NULL
1687281624,d7faf2f804669785cd0e4c4d3e37a549,PennController,22,0,experiment,NULL,PennController,21,_Trial_,Start,1687281477918,613acb9ff585d03306b131f2,613acb9ff585d03306b131f2,19,cup,filler,B,50,cup40.jpg,cup60.jpg,nogoal,NULL
1687281624,d7faf2f804669785cd0e4c4d3e37a549,PennController,22,0,experiment,NULL,PennController,21,_Header_,Start,1687281477918,613acb9ff585d03306b131f2,613acb9ff585d03306b131f2,19,cup,filler,B,50,cup40.jpg,cup60.jpg,nogoal,NULL
1687281624,d7faf2f804669785cd0e4c4d3e37a549,PennController,22,0,experiment,NULL,PennController,21,_Header_,End,1687281477918,613acb9ff585d03306b131f2,613acb9ff585d03306b131f2,19,cup,filler,B,50,cup40.jpg,cup60.jpg,nogoal,NULL
1687281624,d7faf2f804669785cd0e4c4d3e37a549,PennController,22,0,experiment,NULL,Canvas,canvas6,Print,NA,1687281482595,613acb9ff585d03306b131f2,613acb9ff585d03306b131f2,19,cup,filler,B,50,cup40.jpg,cup60.jpg,nogoal,NULL
1687281624,d7faf2f804669785cd0e4c4d3e37a549,PennController,22,0,experiment,NULL,Video,progression,buffer,0.001964,1687281479429,613acb9ff585d03306b131f2,613acb9ff585d03306b131f2,19,cup,filler,B,50,cup40.jpg,cup60.jpg,nogoal,NULL
1687281624,d7faf2f804669785cd0e4c4d3e37a549,PennController,22,0,experiment,NULL,Selector,choice,Selection,option1,1687281486140,613acb9ff585d03306b131f2,613acb9ff585d03306b131f2,19,cup,filler,B,50,cup40.jpg,cup60.jpg,nogoal,option2;option1
1687281624,d7faf2f804669785cd0e4c4d3e37a549,PennController,22,0,experiment,NULL,PennController,21,_Trial_,End,1687281486141,613acb9ff585d03306b131f2,613acb9ff585d03306b131f2,19,cup,filler,B,50,cup40.jpg,cup60.jpg,nogoal,NULL
1687281624,d7faf2f804669785cd0e4c4d3e37a549,PennController,31,0,experiment,NULL,PennController,30,_Trial_,Start,1687281486141,613acb9ff585d03306b131f2,613acb9ff585d03306b131f2,28,sort,filler,B,50,sort40.jpg,sort60.jpg,nogoal,NULL
1687281624,d7faf2f804669785cd0e4c4d3e37a549,PennController,31,0,experiment,NULL,PennController,30,_Header_,Start,1687281486141,613acb9ff585d03306b131f2,613acb9ff585d03306b131f2,28,sort,filler,B,50,sort40.jpg,sort60.jpg,nogoal,NULL
1687281624,d7faf2f804669785cd0e4c4d3e37a549,PennController,31,0,experiment,NULL,PennController,30,_Header_,End,1687281486141,613acb9ff585d03306b131f2,613acb9ff585d03306b131f2,28,sort,filler,B,50,sort40.jpg,sort60.jpg,nogoal,NULL
1687281624,d7faf2f804669785cd0e4c4d3e37a549,PennController,31,0,experiment,NULL,Canvas,canvas6,Print,NA,1687281490812,613acb9ff585d03306b131f2,613acb9ff585d03306b131f2,28,sort,filler,B,50,sort40.jpg,sort60.jpg,nogoal,NULL
1687281624,d7faf2f804669785cd0e4c4d3e37a549,PennController,31,0,experiment,NULL,Video,progression,buffer,0.001863,1687281487653,613acb9ff585d03306b131f2,613acb9ff585d03306b131f2,28,sort,filler,B,50,sort40.jpg,sort60.jpg,nogoal,NULL
1687281624,d7faf2f804669785cd0e4c4d3e37a549,PennController,31,0,experiment,NULL,Selector,choice,Selection,option1,1687281497996,613acb9ff585d03306b131f2,613acb9ff585d03306b131f2,28,sort,filler,B,50,sort40.jpg,sort60.jpg,nogoal,option1;option2
1687281624,d7faf2f804669785cd0e4c4d3e37a549,PennController,31,0,experiment,NULL,PennController,30,_Trial_,End,1687281497996,613acb9ff585d03306b131f2,613acb9ff585d03306b131f2,28,sort,filler,B,50,sort40.jpg,sort60.jpg,nogoal,NULL
1687281624,d7faf2f804669785cd0e4c4d3e37a549,PennController,19,0,experiment,NULL,PennController,18,_Trial_,Start,1687281497997,613acb9ff585d03306b131f2,613acb9ff585d03306b131f2,16,blinds,critical,B,50,blinds42.jpg,blinds60.jpg,nogoal,NULL
1687281624,d7faf2f804669785cd0e4c4d3e37a549,PennController,19,0,experiment,NULL,PennController,18,_Header_,Start,1687281497997,613acb9ff585d03306b131f2,613acb9ff585d03306b131f2,16,blinds,critical,B,50,blinds42.jpg,blinds60.jpg,nogoal,NULL
1687281624,d7faf2f804669785cd0e4c4d3e37a549,PennController,19,0,experiment,NULL,PennController,18,_Header_,End,1687281497997,613acb9ff585d03306b131f2,613acb9ff585d03306b131f2,16,blinds,critical,B,50,blinds42.jpg,blinds60.jpg,nogoal,NULL
1687281624,d7faf2f804669785cd0e4c4d3e37a549,PennController,19,0,experiment,NULL,Canvas,canvas6,Print,NA,1687281504080,613acb9ff585d03306b131f2,613acb9ff585d03306b131f2,16,blinds,critical,B,50,blinds42.jpg,blinds60.jpg,nogoal,NULL
1687281624,d7faf2f804669785cd0e4c4d3e37a549,PennController,19,0,experiment,NULL,Video,progression,buffer,0.003319,1687281499510,613acb9ff585d03306b131f2,613acb9ff585d03306b131f2,16,blinds,critical,B,50,blinds42.jpg,blinds60.jpg,nogoal,NULL
1687281624,d7faf2f804669785cd0e4c4d3e37a549,PennController,19,0,experiment,NULL,Selector,choice,Selection,option2,1687281509100,613acb9ff585d03306b131f2,613acb9ff585d03306b131f2,16,blinds,critical,B,50,blinds42.jpg,blinds60.jpg,nogoal,option2;option1
1687281624,d7faf2f804669785cd0e4c4d3e37a549,PennController,19,0,experiment,NULL,PennController,18,_Trial_,End,1687281509101,613acb9ff585d03306b131f2,613acb9ff585d03306b131f2,16,blinds,critical,B,50,blinds42.jpg,blinds60.jpg,nogoal,NULL
1687281624,d7faf2f804669785cd0e4c4d3e37a549,PennController,20,0,experiment,NULL,PennController,19,_Trial_,Start,1687281509102,613acb9ff585d03306b131f2,613acb9ff585d03306b131f2,17,roll,critical,B,75,roll65.jpg,roll85.jpg,nogoal,NULL
1687281624,d7faf2f804669785cd0e4c4d3e37a549,PennController,20,0,experiment,NULL,PennController,19,_Header_,Start,1687281509102,613acb9ff585d03306b131f2,613acb9ff585d03306b131f2,17,roll,critical,B,75,roll65.jpg,roll85.jpg,nogoal,NULL
1687281624,d7faf2f804669785cd0e4c4d3e37a549,PennController,20,0,experiment,NULL,PennController,19,_Header_,End,1687281509102,613acb9ff585d03306b131f2,613acb9ff585d03306b131f2,17,roll,critical,B,75,roll65.jpg,roll85.jpg,nogoal,NULL
1687281624,d7faf2f804669785cd0e4c4d3e37a549,PennController,20,0,experiment,NULL,Canvas,canvas6,Print,NA,1687281514778,613acb9ff585d03306b131f2,613acb9ff585d03306b131f2,17,roll,critical,B,75,roll65.jpg,roll85.jpg,nogoal,NULL
1687281624,d7faf2f804669785cd0e4c4d3e37a549,PennController,20,0,experiment,NULL,Video,progression,buffer,0.002021,1687281510615,613acb9ff585d03306b131f2,613acb9ff585d03306b131f2,17,roll,critical,B,75,roll65.jpg,roll85.jpg,nogoal,NULL
1687281624,d7faf2f804669785cd0e4c4d3e37a549,PennController,20,0,experiment,NULL,Selector,choice,Selection,option1,1687281516212,613acb9ff585d03306b131f2,613acb9ff585d03306b131f2,17,roll,critical,B,75,roll65.jpg,roll85.jpg,nogoal,option2;option1
1687281624,d7faf2f804669785cd0e4c4d3e37a549,PennController,20,0,experiment,NULL,PennController,19,_Trial_,End,1687281516213,613acb9ff585d03306b131f2,613acb9ff585d03306b131f2,17,roll,critical,B,75,roll65.jpg,roll85.jpg,nogoal,NULL
1687281624,d7faf2f804669785cd0e4c4d3e37a549,PennController,28,0,experiment,NULL,PennController,27,_Trial_,Start,1687281516214,613acb9ff585d03306b131f2,613acb9ff585d03306b131f2,25,house,filler,B,50,house40.jpg,house60.jpg,nogoal,NULL
1687281624,d7faf2f804669785cd0e4c4d3e37a549,PennController,28,0,experiment,NULL,PennController,27,_Header_,Start,1687281516214,613acb9ff585d03306b131f2,613acb9ff585d03306b131f2,25,house,filler,B,50,house40.jpg,house60.jpg,nogoal,NULL
1687281624,d7faf2f804669785cd0e4c4d3e37a549,PennController,28,0,experiment,NULL,PennController,27,_Header_,End,1687281516214,613acb9ff585d03306b131f2,613acb9ff585d03306b131f2,25,house,filler,B,50,house40.jpg,house60.jpg,nogoal,NULL
1687281624,d7faf2f804669785cd0e4c4d3e37a549,PennController,28,0,experiment,NULL,Canvas,canvas6,Print,NA,1687281520895,613acb9ff585d03306b131f2,613acb9ff585d03306b131f2,25,house,filler,B,50,house40.jpg,house60.jpg,nogoal,NULL
1687281624,d7faf2f804669785cd0e4c4d3e37a549,PennController,28,0,experiment,NULL,Video,progression,buffer,0.003266,1687281517726,613acb9ff585d03306b131f2,613acb9ff585d03306b131f2,25,house,filler,B,50,house40.jpg,house60.jpg,nogoal,NULL
1687281624,d7faf2f804669785cd0e4c4d3e37a549,PennController,28,0,experiment,NULL,Selector,choice,Selection,option1,1687281525476,613acb9ff585d03306b131f2,613acb9ff585d03306b131f2,25,house,filler,B,50,house40.jpg,house60.jpg,nogoal,option1;option2
1687281624,d7faf2f804669785cd0e4c4d3e37a549,PennController,28,0,experiment,NULL,PennController,27,_Trial_,End,1687281525477,613acb9ff585d03306b131f2,613acb9ff585d03306b131f2,25,house,filler,B,50,house40.jpg,house60.jpg,nogoal,NULL
1687281624,d7faf2f804669785cd0e4c4d3e37a549,PennController,12,0,experiment,NULL,PennController,11,_Trial_,Start,1687281525477,613acb9ff585d03306b131f2,613acb9ff585d03306b131f2,9,cake,critical,B,25,cake15.jpg,cake33.jpg,nogoal,NULL
1687281624,d7faf2f804669785cd0e4c4d3e37a549,PennController,12,0,experiment,NULL,PennController,11,_Header_,Start,1687281525477,613acb9ff585d03306b131f2,613acb9ff585d03306b131f2,9,cake,critical,B,25,cake15.jpg,cake33.jpg,nogoal,NULL
1687281624,d7faf2f804669785cd0e4c4d3e37a549,PennController,12,0,experiment,NULL,PennController,11,_Header_,End,1687281525477,613acb9ff585d03306b131f2,613acb9ff585d03306b131f2,9,cake,critical,B,25,cake15.jpg,cake33.jpg,nogoal,NULL
1687281624,d7faf2f804669785cd0e4c4d3e37a549,PennController,12,0,experiment,NULL,Canvas,canvas6,Print,NA,1687281529761,613acb9ff585d03306b131f2,613acb9ff585d03306b131f2,9,cake,critical,B,25,cake15.jpg,cake33.jpg,nogoal,NULL
1687281624,d7faf2f804669785cd0e4c4d3e37a549,PennController,12,0,experiment,NULL,Video,progression,buffer,0.004084,1687281526993,613acb9ff585d03306b131f2,613acb9ff585d03306b131f2,9,cake,critical,B,25,cake15.jpg,cake33.jpg,nogoal,NULL
1687281624,d7faf2f804669785cd0e4c4d3e37a549,PennController,12,0,experiment,NULL,Selector,choice,Selection,option1,1687281532061,613acb9ff585d03306b131f2,613acb9ff585d03306b131f2,9,cake,critical,B,25,cake15.jpg,cake33.jpg,nogoal,option1;option2
1687281624,d7faf2f804669785cd0e4c4d3e37a549,PennController,12,0,experiment,NULL,PennController,11,_Trial_,End,1687281532062,613acb9ff585d03306b131f2,613acb9ff585d03306b131f2,9,cake,critical,B,25,cake15.jpg,cake33.jpg,nogoal,NULL
1687281624,d7faf2f804669785cd0e4c4d3e37a549,PennController,14,0,experiment,NULL,PennController,13,_Trial_,Start,1687281532062,613acb9ff585d03306b131f2,613acb9ff585d03306b131f2,11,beads,critical,B,75,beads65.jpg,beads85.jpg,nogoal,NULL
1687281624,d7faf2f804669785cd0e4c4d3e37a549,PennController,14,0,experiment,NULL,PennController,13,_Header_,Start,1687281532062,613acb9ff585d03306b131f2,613acb9ff585d03306b131f2,11,beads,critical,B,75,beads65.jpg,beads85.jpg,nogoal,NULL
1687281624,d7faf2f804669785cd0e4c4d3e37a549,PennController,14,0,experiment,NULL,PennController,13,_Header_,End,1687281532062,613acb9ff585d03306b131f2,613acb9ff585d03306b131f2,11,beads,critical,B,75,beads65.jpg,beads85.jpg,nogoal,NULL
1687281624,d7faf2f804669785cd0e4c4d3e37a549,PennController,14,0,experiment,NULL,Canvas,canvas6,Print,NA,1687281537745,613acb9ff585d03306b131f2,613acb9ff585d03306b131f2,11,beads,critical,B,75,beads65.jpg,beads85.jpg,nogoal,NULL
1687281624,d7faf2f804669785cd0e4c4d3e37a549,PennController,14,0,experiment,NULL,Video,progression,buffer,0.003029,1687281533575,613acb9ff585d03306b131f2,613acb9ff585d03306b131f2,11,beads,critical,B,75,beads65.jpg,beads85.jpg,nogoal,NULL
1687281624,d7faf2f804669785cd0e4c4d3e37a549,PennController,14,0,experiment,NULL,Selector,choice,Selection,option2,1687281541588,613acb9ff585d03306b131f2,613acb9ff585d03306b131f2,11,beads,critical,B,75,beads65.jpg,beads85.jpg,nogoal,option2;option1
1687281624,d7faf2f804669785cd0e4c4d3e37a549,PennController,14,0,experiment,NULL,PennController,13,_Trial_,End,1687281541589,613acb9ff585d03306b131f2,613acb9ff585d03306b131f2,11,beads,critical,B,75,beads65.jpg,beads85.jpg,nogoal,NULL
1687281624,d7faf2f804669785cd0e4c4d3e37a549,PennController,23,0,experiment,NULL,PennController,22,_Trial_,Start,1687281541590,613acb9ff585d03306b131f2,613acb9ff585d03306b131f2,20,cat,filler,B,75,cat65.jpg,cat85.jpg,nogoal,NULL
1687281624,d7faf2f804669785cd0e4c4d3e37a549,PennController,23,0,experiment,NULL,PennController,22,_Header_,Start,1687281541590,613acb9ff585d03306b131f2,613acb9ff585d03306b131f2,20,cat,filler,B,75,cat65.jpg,cat85.jpg,nogoal,NULL
1687281624,d7faf2f804669785cd0e4c4d3e37a549,PennController,23,0,experiment,NULL,PennController,22,_Header_,End,1687281541590,613acb9ff585d03306b131f2,613acb9ff585d03306b131f2,20,cat,filler,B,75,cat65.jpg,cat85.jpg,nogoal,NULL
1687281624,d7faf2f804669785cd0e4c4d3e37a549,PennController,23,0,experiment,NULL,Canvas,canvas6,Print,NA,1687281547259,613acb9ff585d03306b131f2,613acb9ff585d03306b131f2,20,cat,filler,B,75,cat65.jpg,cat85.jpg,nogoal,NULL
1687281624,d7faf2f804669785cd0e4c4d3e37a549,PennController,23,0,experiment,NULL,Video,progression,buffer,0.001964,1687281543104,613acb9ff585d03306b131f2,613acb9ff585d03306b131f2,20,cat,filler,B,75,cat65.jpg,cat85.jpg,nogoal,NULL
1687281624,d7faf2f804669785cd0e4c4d3e37a549,PennController,23,0,experiment,NULL,Selector,choice,Selection,option2,1687281550172,613acb9ff585d03306b131f2,613acb9ff585d03306b131f2,20,cat,filler,B,75,cat65.jpg,cat85.jpg,nogoal,option2;option1
1687281624,d7faf2f804669785cd0e4c4d3e37a549,PennController,23,0,experiment,NULL,PennController,22,_Trial_,End,1687281550173,613acb9ff585d03306b131f2,613acb9ff585d03306b131f2,20,cat,filler,B,75,cat65.jpg,cat85.jpg,nogoal,NULL
1687281624,d7faf2f804669785cd0e4c4d3e37a549,PennController,29,0,experiment,NULL,PennController,28,_Trial_,Start,1687281550173,613acb9ff585d03306b131f2,613acb9ff585d03306b131f2,26,sandwich,filler,B,75,sandwich65.jpg,sandwich85.jpg,nogoal,NULL
1687281624,d7faf2f804669785cd0e4c4d3e37a549,PennController,29,0,experiment,NULL,PennController,28,_Header_,Start,1687281550173,613acb9ff585d03306b131f2,613acb9ff585d03306b131f2,26,sandwich,filler,B,75,sandwich65.jpg,sandwich85.jpg,nogoal,NULL
1687281624,d7faf2f804669785cd0e4c4d3e37a549,PennController,29,0,experiment,NULL,PennController,28,_Header_,End,1687281550173,613acb9ff585d03306b131f2,613acb9ff585d03306b131f2,26,sandwich,filler,B,75,sandwich65.jpg,sandwich85.jpg,nogoal,NULL
1687281624,d7faf2f804669785cd0e4c4d3e37a549,PennController,29,0,experiment,NULL,Canvas,canvas6,Print,NA,1687281555844,613acb9ff585d03306b131f2,613acb9ff585d03306b131f2,26,sandwich,filler,B,75,sandwich65.jpg,sandwich85.jpg,nogoal,NULL
1687281624,d7faf2f804669785cd0e4c4d3e37a549,PennController,29,0,experiment,NULL,Video,progression,buffer,0.001987,1687281551685,613acb9ff585d03306b131f2,613acb9ff585d03306b131f2,26,sandwich,filler,B,75,sandwich65.jpg,sandwich85.jpg,nogoal,NULL
1687281624,d7faf2f804669785cd0e4c4d3e37a549,PennController,29,0,experiment,NULL,Selector,choice,Selection,option2,1687281557740,613acb9ff585d03306b131f2,613acb9ff585d03306b131f2,26,sandwich,filler,B,75,sandwich65.jpg,sandwich85.jpg,nogoal,option1;option2
1687281624,d7faf2f804669785cd0e4c4d3e37a549,PennController,29,0,experiment,NULL,PennController,28,_Trial_,End,1687281557741,613acb9ff585d03306b131f2,613acb9ff585d03306b131f2,26,sandwich,filler,B,75,sandwich65.jpg,sandwich85.jpg,nogoal,NULL
1687281624,d7faf2f804669785cd0e4c4d3e37a549,PennController,18,0,experiment,NULL,PennController,17,_Trial_,Start,1687281557742,613acb9ff585d03306b131f2,613acb9ff585d03306b131f2,15,zip,critical,B,25,zip15.jpg,zip35.jpg,nogoal,NULL
1687281624,d7faf2f804669785cd0e4c4d3e37a549,PennController,18,0,experiment,NULL,PennController,17,_Header_,Start,1687281557742,613acb9ff585d03306b131f2,613acb9ff585d03306b131f2,15,zip,critical,B,25,zip15.jpg,zip35.jpg,nogoal,NULL
1687281624,d7faf2f804669785cd0e4c4d3e37a549,PennController,18,0,experiment,NULL,PennController,17,_Header_,End,1687281557742,613acb9ff585d03306b131f2,613acb9ff585d03306b131f2,15,zip,critical,B,25,zip15.jpg,zip35.jpg,nogoal,NULL
1687281624,d7faf2f804669785cd0e4c4d3e37a549,PennController,18,0,experiment,NULL,Canvas,canvas6,Print,NA,1687281561412,613acb9ff585d03306b131f2,613acb9ff585d03306b131f2,15,zip,critical,B,25,zip15.jpg,zip35.jpg,nogoal,NULL
1687281624,d7faf2f804669785cd0e4c4d3e37a549,PennController,18,0,experiment,NULL,Video,progression,buffer,0.002914,1687281559254,613acb9ff585d03306b131f2,613acb9ff585d03306b131f2,15,zip,critical,B,25,zip15.jpg,zip35.jpg,nogoal,NULL
1687281624,d7faf2f804669785cd0e4c4d3e37a549,PennController,18,0,experiment,NULL,Selector,choice,Selection,option1,1687281566420,613acb9ff585d03306b131f2,613acb9ff585d03306b131f2,15,zip,critical,B,25,zip15.jpg,zip35.jpg,nogoal,option1;option2
1687281624,d7faf2f804669785cd0e4c4d3e37a549,PennController,18,0,experiment,NULL,PennController,17,_Trial_,End,1687281566421,613acb9ff585d03306b131f2,613acb9ff585d03306b131f2,15,zip,critical,B,25,zip15.jpg,zip35.jpg,nogoal,NULL
1687281624,d7faf2f804669785cd0e4c4d3e37a549,PennController,24,0,experiment,NULL,PennController,23,_Trial_,Start,1687281566422,613acb9ff585d03306b131f2,613acb9ff585d03306b131f2,21,visit,filler,B,25,visit15.jpg,visit35.jpg,nogoal,NULL
1687281624,d7faf2f804669785cd0e4c4d3e37a549,PennController,24,0,experiment,NULL,PennController,23,_Header_,Start,1687281566422,613acb9ff585d03306b131f2,613acb9ff585d03306b131f2,21,visit,filler,B,25,visit15.jpg,visit35.jpg,nogoal,NULL
1687281624,d7faf2f804669785cd0e4c4d3e37a549,PennController,24,0,experiment,NULL,PennController,23,_Header_,End,1687281566422,613acb9ff585d03306b131f2,613acb9ff585d03306b131f2,21,visit,filler,B,25,visit15.jpg,visit35.jpg,nogoal,NULL
1687281624,d7faf2f804669785cd0e4c4d3e37a549,PennController,24,0,experiment,NULL,Canvas,canvas6,Print,NA,1687281570096,613acb9ff585d03306b131f2,613acb9ff585d03306b131f2,21,visit,filler,B,25,visit15.jpg,visit35.jpg,nogoal,NULL
1687281624,d7faf2f804669785cd0e4c4d3e37a549,PennController,24,0,experiment,NULL,Video,progression,buffer,0.001759,1687281567936,613acb9ff585d03306b131f2,613acb9ff585d03306b131f2,21,visit,filler,B,25,visit15.jpg,visit35.jpg,nogoal,NULL
1687281624,d7faf2f804669785cd0e4c4d3e37a549,PennController,24,0,experiment,NULL,Selector,choice,Selection,option2,1687281572421,613acb9ff585d03306b131f2,613acb9ff585d03306b131f2,21,visit,filler,B,25,visit15.jpg,visit35.jpg,nogoal,option1;option2
1687281624,d7faf2f804669785cd0e4c4d3e37a549,PennController,24,0,experiment,NULL,PennController,23,_Trial_,End,1687281572421,613acb9ff585d03306b131f2,613acb9ff585d03306b131f2,21,visit,filler,B,25,visit15.jpg,visit35.jpg,nogoal,NULL
1687281624,d7faf2f804669785cd0e4c4d3e37a549,PennController,17,0,experiment,NULL,PennController,16,_Trial_,Start,1687281572422,613acb9ff585d03306b131f2,613acb9ff585d03306b131f2,14,cover,critical,B,75,cover66.jpg,cover84.jpg,nogoal,NULL
1687281624,d7faf2f804669785cd0e4c4d3e37a549,PennController,17,0,experiment,NULL,PennController,16,_Header_,Start,1687281572422,613acb9ff585d03306b131f2,613acb9ff585d03306b131f2,14,cover,critical,B,75,cover66.jpg,cover84.jpg,nogoal,NULL
1687281624,d7faf2f804669785cd0e4c4d3e37a549,PennController,17,0,experiment,NULL,PennController,16,_Header_,End,1687281572422,613acb9ff585d03306b131f2,613acb9ff585d03306b131f2,14,cover,critical,B,75,cover66.jpg,cover84.jpg,nogoal,NULL
1687281624,d7faf2f804669785cd0e4c4d3e37a549,PennController,17,0,experiment,NULL,Canvas,canvas6,Print,NA,1687281580093,613acb9ff585d03306b131f2,613acb9ff585d03306b131f2,14,cover,critical,B,75,cover66.jpg,cover84.jpg,nogoal,NULL
1687281624,d7faf2f804669785cd0e4c4d3e37a549,PennController,17,0,experiment,NULL,Video,progression,buffer,0.002282,1687281573936,613acb9ff585d03306b131f2,613acb9ff585d03306b131f2,14,cover,critical,B,75,cover66.jpg,cover84.jpg,nogoal,NULL
1687281624,d7faf2f804669785cd0e4c4d3e37a549,PennController,17,0,experiment,NULL,Selector,choice,Selection,option1,1687281582876,613acb9ff585d03306b131f2,613acb9ff585d03306b131f2,14,cover,critical,B,75,cover66.jpg,cover84.jpg,nogoal,option1;option2
1687281624,d7faf2f804669785cd0e4c4d3e37a549,PennController,17,0,experiment,NULL,PennController,16,_Trial_,End,1687281582877,613acb9ff585d03306b131f2,613acb9ff585d03306b131f2,14,cover,critical,B,75,cover66.jpg,cover84.jpg,nogoal,NULL
1687281624,d7faf2f804669785cd0e4c4d3e37a549,PennController,15,0,experiment,NULL,PennController,14,_Trial_,Start,1687281582878,613acb9ff585d03306b131f2,613acb9ff585d03306b131f2,12,erase,critical,B,25,erase15.jpg,erase33.jpg,nogoal,NULL
1687281624,d7faf2f804669785cd0e4c4d3e37a549,PennController,15,0,experiment,NULL,PennController,14,_Header_,Start,1687281582878,613acb9ff585d03306b131f2,613acb9ff585d03306b131f2,12,erase,critical,B,25,erase15.jpg,erase33.jpg,nogoal,NULL
1687281624,d7faf2f804669785cd0e4c4d3e37a549,PennController,15,0,experiment,NULL,PennController,14,_Header_,End,1687281582878,613acb9ff585d03306b131f2,613acb9ff585d03306b131f2,12,erase,critical,B,25,erase15.jpg,erase33.jpg,nogoal,NULL
1687281624,d7faf2f804669785cd0e4c4d3e37a549,PennController,15,0,experiment,NULL,Canvas,canvas6,Print,NA,1687281587158,613acb9ff585d03306b131f2,613acb9ff585d03306b131f2,12,erase,critical,B,25,erase15.jpg,erase33.jpg,nogoal,NULL
1687281624,d7faf2f804669785cd0e4c4d3e37a549,PennController,15,0,experiment,NULL,Video,progression,buffer,0.002131,1687281584389,613acb9ff585d03306b131f2,613acb9ff585d03306b131f2,12,erase,critical,B,25,erase15.jpg,erase33.jpg,nogoal,NULL
1687281624,d7faf2f804669785cd0e4c4d3e37a549,PennController,15,0,experiment,NULL,Selector,choice,Selection,option2,1687281589996,613acb9ff585d03306b131f2,613acb9ff585d03306b131f2,12,erase,critical,B,25,erase15.jpg,erase33.jpg,nogoal,option1;option2
1687281624,d7faf2f804669785cd0e4c4d3e37a549,PennController,15,0,experiment,NULL,PennController,14,_Trial_,End,1687281589997,613acb9ff585d03306b131f2,613acb9ff585d03306b131f2,12,erase,critical,B,25,erase15.jpg,erase33.jpg,nogoal,NULL
1687281624,d7faf2f804669785cd0e4c4d3e37a549,PennController,8,0,experiment,NULL,PennController,7,_Trial_,Start,1687281589998,613acb9ff585d03306b131f2,613acb9ff585d03306b131f2,5,book,critical,B,75,book65.jpg,book85.jpg,nogoal,NULL
1687281624,d7faf2f804669785cd0e4c4d3e37a549,PennController,8,0,experiment,NULL,PennController,7,_Header_,Start,1687281589998,613acb9ff585d03306b131f2,613acb9ff585d03306b131f2,5,book,critical,B,75,book65.jpg,book85.jpg,nogoal,NULL
1687281624,d7faf2f804669785cd0e4c4d3e37a549,PennController,8,0,experiment,NULL,PennController,7,_Header_,End,1687281589998,613acb9ff585d03306b131f2,613acb9ff585d03306b131f2,5,book,critical,B,75,book65.jpg,book85.jpg,nogoal,NULL
1687281624,d7faf2f804669785cd0e4c4d3e37a549,PennController,8,0,experiment,NULL,Canvas,canvas6,Print,NA,1687281595679,613acb9ff585d03306b131f2,613acb9ff585d03306b131f2,5,book,critical,B,75,book65.jpg,book85.jpg,nogoal,NULL
1687281624,d7faf2f804669785cd0e4c4d3e37a549,PennController,8,0,experiment,NULL,Video,progression,buffer,0.001852,1687281591509,613acb9ff585d03306b131f2,613acb9ff585d03306b131f2,5,book,critical,B,75,book65.jpg,book85.jpg,nogoal,NULL
1687281624,d7faf2f804669785cd0e4c4d3e37a549,PennController,8,0,experiment,NULL,Selector,choice,Selection,option2,1687281599237,613acb9ff585d03306b131f2,613acb9ff585d03306b131f2,5,book,critical,B,75,book65.jpg,book85.jpg,nogoal,option2;option1
1687281624,d7faf2f804669785cd0e4c4d3e37a549,PennController,8,0,experiment,NULL,PennController,7,_Trial_,End,1687281599238,613acb9ff585d03306b131f2,613acb9ff585d03306b131f2,5,book,critical,B,75,book65.jpg,book85.jpg,nogoal,NULL
1687281624,d7faf2f804669785cd0e4c4d3e37a549,PennController,6,0,experiment,NULL,PennController,5,_Trial_,Start,1687281599238,613acb9ff585d03306b131f2,613acb9ff585d03306b131f2,3,clean,critical,B,25,clean15.jpg,clean35.jpg,nogoal,NULL
1687281624,d7faf2f804669785cd0e4c4d3e37a549,PennController,6,0,experiment,NULL,PennController,5,_Header_,Start,1687281599238,613acb9ff585d03306b131f2,613acb9ff585d03306b131f2,3,clean,critical,B,25,clean15.jpg,clean35.jpg,nogoal,NULL
1687281624,d7faf2f804669785cd0e4c4d3e37a549,PennController,6,0,experiment,NULL,PennController,5,_Header_,End,1687281599238,613acb9ff585d03306b131f2,613acb9ff585d03306b131f2,3,clean,critical,B,25,clean15.jpg,clean35.jpg,nogoal,NULL
1687281624,d7faf2f804669785cd0e4c4d3e37a549,PennController,6,0,experiment,NULL,Canvas,canvas6,Print,NA,1687281602912,613acb9ff585d03306b131f2,613acb9ff585d03306b131f2,3,clean,critical,B,25,clean15.jpg,clean35.jpg,nogoal,NULL
1687281624,d7faf2f804669785cd0e4c4d3e37a549,PennController,6,0,experiment,NULL,Video,progression,buffer,0.002236,1687281600748,613acb9ff585d03306b131f2,613acb9ff585d03306b131f2,3,clean,critical,B,25,clean15.jpg,clean35.jpg,nogoal,NULL
1687281624,d7faf2f804669785cd0e4c4d3e37a549,PennController,6,0,experiment,NULL,Selector,choice,Selection,option2,1687281607093,613acb9ff585d03306b131f2,613acb9ff585d03306b131f2,3,clean,critical,B,25,clean15.jpg,clean35.jpg,nogoal,option1;option2
1687281624,d7faf2f804669785cd0e4c4d3e37a549,PennController,6,0,experiment,NULL,PennController,5,_Trial_,End,1687281607094,613acb9ff585d03306b131f2,613acb9ff585d03306b131f2,3,clean,critical,B,25,clean15.jpg,clean35.jpg,nogoal,NULL
1687281624,d7faf2f804669785cd0e4c4d3e37a549,PennController,10,0,experiment,NULL,PennController,9,_Trial_,Start,1687281607094,613acb9ff585d03306b131f2,613acb9ff585d03306b131f2,7,stack,critical,B,50,stack40.jpg,stack60.jpg,nogoal,NULL
1687281624,d7faf2f804669785cd0e4c4d3e37a549,PennController,10,0,experiment,NULL,PennController,9,_Header_,Start,1687281607094,613acb9ff585d03306b131f2,613acb9ff585d03306b131f2,7,stack,critical,B,50,stack40.jpg,stack60.jpg,nogoal,NULL
1687281624,d7faf2f804669785cd0e4c4d3e37a549,PennController,10,0,experiment,NULL,PennController,9,_Header_,End,1687281607094,613acb9ff585d03306b131f2,613acb9ff585d03306b131f2,7,stack,critical,B,50,stack40.jpg,stack60.jpg,nogoal,NULL
1687281624,d7faf2f804669785cd0e4c4d3e37a549,PennController,10,0,experiment,NULL,Canvas,canvas6,Print,NA,1687281611776,613acb9ff585d03306b131f2,613acb9ff585d03306b131f2,7,stack,critical,B,50,stack40.jpg,stack60.jpg,nogoal,NULL
1687281624,d7faf2f804669785cd0e4c4d3e37a549,PennController,10,0,experiment,NULL,Video,progression,buffer,0.003056,1687281608612,613acb9ff585d03306b131f2,613acb9ff585d03306b131f2,7,stack,critical,B,50,stack40.jpg,stack60.jpg,nogoal,NULL
1687281624,d7faf2f804669785cd0e4c4d3e37a549,PennController,10,0,experiment,NULL,Selector,choice,Selection,option1,1687281616197,613acb9ff585d03306b131f2,613acb9ff585d03306b131f2,7,stack,critical,B,50,stack40.jpg,stack60.jpg,nogoal,option2;option1
1687281624,d7faf2f804669785cd0e4c4d3e37a549,PennController,10,0,experiment,NULL,PennController,9,_Trial_,End,1687281616197,613acb9ff585d03306b131f2,613acb9ff585d03306b131f2,7,stack,critical,B,50,stack40.jpg,stack60.jpg,nogoal,NULL
1687281624,d7faf2f804669785cd0e4c4d3e37a549,PennController,27,0,experiment,NULL,PennController,26,_Trial_,Start,1687281616198,613acb9ff585d03306b131f2,613acb9ff585d03306b131f2,24,match,filler,B,25,match15.jpg,match35.jpg,nogoal,NULL
1687281624,d7faf2f804669785cd0e4c4d3e37a549,PennController,27,0,experiment,NULL,PennController,26,_Header_,Start,1687281616198,613acb9ff585d03306b131f2,613acb9ff585d03306b131f2,24,match,filler,B,25,match15.jpg,match35.jpg,nogoal,NULL
1687281624,d7faf2f804669785cd0e4c4d3e37a549,PennController,27,0,experiment,NULL,PennController,26,_Header_,End,1687281616198,613acb9ff585d03306b131f2,613acb9ff585d03306b131f2,24,match,filler,B,25,match15.jpg,match35.jpg,nogoal,NULL
1687281624,d7faf2f804669785cd0e4c4d3e37a549,PennController,27,0,experiment,NULL,Canvas,canvas6,Print,NA,1687281619879,613acb9ff585d03306b131f2,613acb9ff585d03306b131f2,24,match,filler,B,25,match15.jpg,match35.jpg,nogoal,NULL
1687281624,d7faf2f804669785cd0e4c4d3e37a549,PennController,27,0,experiment,NULL,Video,progression,buffer,0.004076,1687281617709,613acb9ff585d03306b131f2,613acb9ff585d03306b131f2,24,match,filler,B,25,match15.jpg,match35.jpg,nogoal,NULL
1687281624,d7faf2f804669785cd0e4c4d3e37a549,PennController,27,0,experiment,NULL,Selector,choice,Selection,option2,1687281624981,613acb9ff585d03306b131f2,613acb9ff585d03306b131f2,24,match,filler,B,25,match15.jpg,match35.jpg,nogoal,option2;option1
1687281624,d7faf2f804669785cd0e4c4d3e37a549,PennController,27,0,experiment,NULL,PennController,26,_Trial_,End,1687281624982,613acb9ff585d03306b131f2,613acb9ff585d03306b131f2,24,match,filler,B,25,match15.jpg,match35.jpg,nogoal,NULL
