#
# Results on Tuesday June 20 2023 17:19:40 UTC
# USER AGENT: Mozilla/5.0 (Windows NT 10.0; Win64; x64) AppleWebKit/537.36 (KHTML, like Gecko) Chrome/114.0.0.0 Safari/537.36
# Design number was non-random = 4
#
# Columns below this comment are as follows:
# 1. Results reception time.
# 2. MD5 hash of participant's IP address.
# 3. Controller name.
# 4. Order number of item.
# 5. Inner element number.
# 6. Label.
# 7. Latin Square Group.
# 8. PennElementType.
# 9. PennElementName.
# 10. Parameter.
# 11. Value.
# 12. EventTime.
# 13. PROLIFIC_ID.
# 14. Comments.
1687281580,10bb468a3584b87cd9b513a164e453fe,PennController,2,0,consent,NULL,PennController,0,_Trial_,Start,1687281335524,603ab157b6ca3370a7c7b019,NULL
1687281580,10bb468a3584b87cd9b513a164e453fe,PennController,2,0,consent,NULL,PennController,0,_Header_,Start,1687281335524,603ab157b6ca3370a7c7b019,NULL
1687281580,10bb468a3584b87cd9b513a164e453fe,PennController,2,0,consent,NULL,PennController,0,_Header_,End,1687281335525,603ab157b6ca3370a7c7b019,NULL
1687281580,10bb468a3584b87cd9b513a164e453fe,PennController,2,0,consent,NULL,PennController,0,_Trial_,End,1687281339095,603ab157b6ca3370a7c7b019,NULL
# Columns below this comment are as follows:
# 14. ID.
# 15. Comments.
1687281580,10bb468a3584b87cd9b513a164e453fe,PennController,3,0,intro,NULL,PennController,1,_Trial_,Start,1687281339101,603ab157b6ca3370a7c7b019,603ab157b6ca3370a7c7b019,NULL
1687281580,10bb468a3584b87cd9b513a164e453fe,PennController,3,0,intro,NULL,PennController,1,_Header_,Start,1687281339101,603ab157b6ca3370a7c7b019,603ab157b6ca3370a7c7b019,NULL
1687281580,10bb468a3584b87cd9b513a164e453fe,PennController,3,0,intro,NULL,PennController,1,_Header_,End,1687281339102,603ab157b6ca3370a7c7b019,603ab157b6ca3370a7c7b019,NULL
1687281580,10bb468a3584b87cd9b513a164e453fe,PennController,3,0,intro,NULL,PennController,1,_Trial_,End,1687281356395,603ab157b6ca3370a7c7b019,603ab157b6ca3370a7c7b019,NULL
# Columns below this comment are as follows:
# 15. item_number.
# 16. item.
# 17. type.
# 18. Group.
# 19. prog.
# 20. prev_image.
# 21. next_image.
# 22. height.
# 23. Comments.
1687281580,10bb468a3584b87cd9b513a164e453fe,PennController,25,0,experiment,NULL,PennController,24,_Trial_,Start,1687281356400,603ab157b6ca3370a7c7b019,603ab157b6ca3370a7c7b019,22,wall,filler,B,50,wall40.jpg,wall60.jpg,nogoal,NULL
1687281580,10bb468a3584b87cd9b513a164e453fe,PennController,25,0,experiment,NULL,PennController,24,_Header_,Start,1687281356400,603ab157b6ca3370a7c7b019,603ab157b6ca3370a7c7b019,22,wall,filler,B,50,wall40.jpg,wall60.jpg,nogoal,NULL
1687281580,10bb468a3584b87cd9b513a164e453fe,PennController,25,0,experiment,NULL,PennController,24,_Header_,End,1687281356400,603ab157b6ca3370a7c7b019,603ab157b6ca3370a7c7b019,22,wall,filler,B,50,wall40.jpg,wall60.jpg,nogoal,NULL
1687281580,10bb468a3584b87cd9b513a164e453fe,PennController,25,0,experiment,NULL,Canvas,canvas6,Print,NA,1687281361205,603ab157b6ca3370a7c7b019,603ab157b6ca3370a7c7b019,22,wall,filler,B,50,wall40.jpg,wall60.jpg,nogoal,NULL
1687281580,10bb468a3584b87cd9b513a164e453fe,PennController,25,0,experiment,NULL,Video,progression,buffer,0.012394,1687281357990,603ab157b6ca3370a7c7b019,603ab157b6ca3370a7c7b019,22,wall,filler,B,50,wall40.jpg,wall60.jpg,nogoal,NULL
1687281580,10bb468a3584b87cd9b513a164e453fe,PennController,25,0,experiment,NULL,Selector,choice,Selection,option2,1687281362841,603ab157b6ca3370a7c7b019,603ab157b6ca3370a7c7b019,22,wall,filler,B,50,wall40.jpg,wall60.jpg,nogoal,option1;option2
1687281580,10bb468a3584b87cd9b513a164e453fe,PennController,25,0,experiment,NULL,PennController,24,_Trial_,End,1687281362844,603ab157b6ca3370a7c7b019,603ab157b6ca3370a7c7b019,22,wall,filler,B,50,wall40.jpg,wall60.jpg,nogoal,NULL
1687281580,10bb468a3584b87cd9b513a164e453fe,PennController,9,0,experiment,NULL,PennController,8,_Trial_,Start,1687281362846,603ab157b6ca3370a7c7b019,603ab157b6ca3370a7c7b019,6,flower,critical,B,25,flower15.jpg,flower35.jpg,nogoal,NULL
1687281580,10bb468a3584b87cd9b513a164e453fe,PennController,9,0,experiment,NULL,PennController,8,_Header_,Start,1687281362846,603ab157b6ca3370a7c7b019,603ab157b6ca3370a7c7b019,6,flower,critical,B,25,flower15.jpg,flower35.jpg,nogoal,NULL
1687281580,10bb468a3584b87cd9b513a164e453fe,PennController,9,0,experiment,NULL,PennController,8,_Header_,End,1687281362846,603ab157b6ca3370a7c7b019,603ab157b6ca3370a7c7b019,6,flower,critical,B,25,flower15.jpg,flower35.jpg,nogoal,NULL
1687281580,10bb468a3584b87cd9b513a164e453fe,PennController,9,0,experiment,NULL,Canvas,canvas6,Print,NA,1687281366564,603ab157b6ca3370a7c7b019,603ab157b6ca3370a7c7b019,6,flower,critical,B,25,flower15.jpg,flower35.jpg,nogoal,NULL
1687281580,10bb468a3584b87cd9b513a164e453fe,PennController,9,0,experiment,NULL,Video,progression,buffer,0.0132,1687281364393,603ab157b6ca3370a7c7b019,603ab157b6ca3370a7c7b019,6,flower,critical,B,25,flower15.jpg,flower35.jpg,nogoal,NULL
1687281580,10bb468a3584b87cd9b513a164e453fe,PennController,9,0,experiment,NULL,Selector,choice,Selection,option2,1687281368057,603ab157b6ca3370a7c7b019,603ab157b6ca3370a7c7b019,6,flower,critical,B,25,flower15.jpg,flower35.jpg,nogoal,option2;option1
1687281580,10bb468a3584b87cd9b513a164e453fe,PennController,9,0,experiment,NULL,PennController,8,_Trial_,End,1687281368059,603ab157b6ca3370a7c7b019,603ab157b6ca3370a7c7b019,6,flower,critical,B,25,flower15.jpg,flower35.jpg,nogoal,NULL
1687281580,10bb468a3584b87cd9b513a164e453fe,PennController,4,0,experiment,NULL,PennController,3,_Trial_,Start,1687281368061,603ab157b6ca3370a7c7b019,603ab157b6ca3370a7c7b019,1,vase,critical,B,50,vase40.jpg,vase60.jpg,nogoal,NULL
1687281580,10bb468a3584b87cd9b513a164e453fe,PennController,4,0,experiment,NULL,PennController,3,_Header_,Start,1687281368061,603ab157b6ca3370a7c7b019,603ab157b6ca3370a7c7b019,1,vase,critical,B,50,vase40.jpg,vase60.jpg,nogoal,NULL
1687281580,10bb468a3584b87cd9b513a164e453fe,PennController,4,0,experiment,NULL,PennController,3,_Header_,End,1687281368061,603ab157b6ca3370a7c7b019,603ab157b6ca3370a7c7b019,1,vase,critical,B,50,vase40.jpg,vase60.jpg,nogoal,NULL
1687281580,10bb468a3584b87cd9b513a164e453fe,PennController,4,0,experiment,NULL,Canvas,canvas6,Print,NA,1687281372773,603ab157b6ca3370a7c7b019,603ab157b6ca3370a7c7b019,1,vase,critical,B,50,vase40.jpg,vase60.jpg,nogoal,NULL
1687281580,10bb468a3584b87cd9b513a164e453fe,PennController,4,0,experiment,NULL,Video,progression,buffer,0.011917,1687281369605,603ab157b6ca3370a7c7b019,603ab157b6ca3370a7c7b019,1,vase,critical,B,50,vase40.jpg,vase60.jpg,nogoal,NULL
1687281580,10bb468a3584b87cd9b513a164e453fe,PennController,4,0,experiment,NULL,Selector,choice,Selection,option1,1687281376913,603ab157b6ca3370a7c7b019,603ab157b6ca3370a7c7b019,1,vase,critical,B,50,vase40.jpg,vase60.jpg,nogoal,option1;option2
1687281580,10bb468a3584b87cd9b513a164e453fe,PennController,4,0,experiment,NULL,PennController,3,_Trial_,End,1687281376915,603ab157b6ca3370a7c7b019,603ab157b6ca3370a7c7b019,1,vase,critical,B,50,vase40.jpg,vase60.jpg,nogoal,NULL
1687281580,10bb468a3584b87cd9b513a164e453fe,PennController,29,0,experiment,NULL,PennController,28,_Trial_,Start,1687281376917,603ab157b6ca3370a7c7b019,603ab157b6ca3370a7c7b019,26,sandwich,filler,B,75,sandwich65.jpg,sandwich85.jpg,nogoal,NULL
1687281580,10bb468a3584b87cd9b513a164e453fe,PennController,29,0,experiment,NULL,PennController,28,_Header_,Start,1687281376917,603ab157b6ca3370a7c7b019,603ab157b6ca3370a7c7b019,26,sandwich,filler,B,75,sandwich65.jpg,sandwich85.jpg,nogoal,NULL
1687281580,10bb468a3584b87cd9b513a164e453fe,PennController,29,0,experiment,NULL,PennController,28,_Header_,End,1687281376917,603ab157b6ca3370a7c7b019,603ab157b6ca3370a7c7b019,26,sandwich,filler,B,75,sandwich65.jpg,sandwich85.jpg,nogoal,NULL
1687281580,10bb468a3584b87cd9b513a164e453fe,PennController,29,0,experiment,NULL,Canvas,canvas6,Print,NA,1687281382624,603ab157b6ca3370a7c7b019,603ab157b6ca3370a7c7b019,26,sandwich,filler,B,75,sandwich65.jpg,sandwich85.jpg,nogoal,NULL
1687281580,10bb468a3584b87cd9b513a164e453fe,PennController,29,0,experiment,NULL,Video,progression,buffer,0.021309,1687281378468,603ab157b6ca3370a7c7b019,603ab157b6ca3370a7c7b019,26,sandwich,filler,B,75,sandwich65.jpg,sandwich85.jpg,nogoal,NULL
1687281580,10bb468a3584b87cd9b513a164e453fe,PennController,29,0,experiment,NULL,Selector,choice,Selection,option2,1687281384983,603ab157b6ca3370a7c7b019,603ab157b6ca3370a7c7b019,26,sandwich,filler,B,75,sandwich65.jpg,sandwich85.jpg,nogoal,option1;option2
1687281580,10bb468a3584b87cd9b513a164e453fe,PennController,29,0,experiment,NULL,PennController,28,_Trial_,End,1687281384985,603ab157b6ca3370a7c7b019,603ab157b6ca3370a7c7b019,26,sandwich,filler,B,75,sandwich65.jpg,sandwich85.jpg,nogoal,NULL
1687281580,10bb468a3584b87cd9b513a164e453fe,PennController,17,0,experiment,NULL,PennController,16,_Trial_,Start,1687281384987,603ab157b6ca3370a7c7b019,603ab157b6ca3370a7c7b019,14,cover,critical,B,75,cover66.jpg,cover84.jpg,nogoal,NULL
1687281580,10bb468a3584b87cd9b513a164e453fe,PennController,17,0,experiment,NULL,PennController,16,_Header_,Start,1687281384987,603ab157b6ca3370a7c7b019,603ab157b6ca3370a7c7b019,14,cover,critical,B,75,cover66.jpg,cover84.jpg,nogoal,NULL
1687281580,10bb468a3584b87cd9b513a164e453fe,PennController,17,0,experiment,NULL,PennController,16,_Header_,End,1687281384987,603ab157b6ca3370a7c7b019,603ab157b6ca3370a7c7b019,14,cover,critical,B,75,cover66.jpg,cover84.jpg,nogoal,NULL
1687281580,10bb468a3584b87cd9b513a164e453fe,PennController,17,0,experiment,NULL,Canvas,canvas6,Print,NA,1687281392693,603ab157b6ca3370a7c7b019,603ab157b6ca3370a7c7b019,14,cover,critical,B,75,cover66.jpg,cover84.jpg,nogoal,NULL
1687281580,10bb468a3584b87cd9b513a164e453fe,PennController,17,0,experiment,NULL,Video,progression,buffer,0.011905,1687281386530,603ab157b6ca3370a7c7b019,603ab157b6ca3370a7c7b019,14,cover,critical,B,75,cover66.jpg,cover84.jpg,nogoal,NULL
1687281580,10bb468a3584b87cd9b513a164e453fe,PennController,17,0,experiment,NULL,Selector,choice,Selection,option2,1687281397817,603ab157b6ca3370a7c7b019,603ab157b6ca3370a7c7b019,14,cover,critical,B,75,cover66.jpg,cover84.jpg,nogoal,option2;option1
1687281580,10bb468a3584b87cd9b513a164e453fe,PennController,17,0,experiment,NULL,PennController,16,_Trial_,End,1687281397819,603ab157b6ca3370a7c7b019,603ab157b6ca3370a7c7b019,14,cover,critical,B,75,cover66.jpg,cover84.jpg,nogoal,NULL
1687281580,10bb468a3584b87cd9b513a164e453fe,PennController,21,0,experiment,NULL,PennController,20,_Trial_,Start,1687281397821,603ab157b6ca3370a7c7b019,603ab157b6ca3370a7c7b019,18,ball,critical,B,25,ball15.jpg,ball35.jpg,nogoal,NULL
1687281580,10bb468a3584b87cd9b513a164e453fe,PennController,21,0,experiment,NULL,PennController,20,_Header_,Start,1687281397821,603ab157b6ca3370a7c7b019,603ab157b6ca3370a7c7b019,18,ball,critical,B,25,ball15.jpg,ball35.jpg,nogoal,NULL
1687281580,10bb468a3584b87cd9b513a164e453fe,PennController,21,0,experiment,NULL,PennController,20,_Header_,End,1687281397821,603ab157b6ca3370a7c7b019,603ab157b6ca3370a7c7b019,18,ball,critical,B,25,ball15.jpg,ball35.jpg,nogoal,NULL
1687281580,10bb468a3584b87cd9b513a164e453fe,PennController,21,0,experiment,NULL,Canvas,canvas6,Print,NA,1687281401535,603ab157b6ca3370a7c7b019,603ab157b6ca3370a7c7b019,18,ball,critical,B,25,ball15.jpg,ball35.jpg,nogoal,NULL
1687281580,10bb468a3584b87cd9b513a164e453fe,PennController,21,0,experiment,NULL,Video,progression,buffer,0.011331,1687281399360,603ab157b6ca3370a7c7b019,603ab157b6ca3370a7c7b019,18,ball,critical,B,25,ball15.jpg,ball35.jpg,nogoal,NULL
1687281580,10bb468a3584b87cd9b513a164e453fe,PennController,21,0,experiment,NULL,Selector,choice,Selection,option1,1687281408121,603ab157b6ca3370a7c7b019,603ab157b6ca3370a7c7b019,18,ball,critical,B,25,ball15.jpg,ball35.jpg,nogoal,option1;option2
1687281580,10bb468a3584b87cd9b513a164e453fe,PennController,21,0,experiment,NULL,PennController,20,_Trial_,End,1687281408123,603ab157b6ca3370a7c7b019,603ab157b6ca3370a7c7b019,18,ball,critical,B,25,ball15.jpg,ball35.jpg,nogoal,NULL
1687281580,10bb468a3584b87cd9b513a164e453fe,PennController,11,0,experiment,NULL,PennController,10,_Trial_,Start,1687281408125,603ab157b6ca3370a7c7b019,603ab157b6ca3370a7c7b019,8,cucumber,critical,B,75,cucumber66.jpg,cucumber84.jpg,nogoal,NULL
1687281580,10bb468a3584b87cd9b513a164e453fe,PennController,11,0,experiment,NULL,PennController,10,_Header_,Start,1687281408125,603ab157b6ca3370a7c7b019,603ab157b6ca3370a7c7b019,8,cucumber,critical,B,75,cucumber66.jpg,cucumber84.jpg,nogoal,NULL
1687281580,10bb468a3584b87cd9b513a164e453fe,PennController,11,0,experiment,NULL,PennController,10,_Header_,End,1687281408125,603ab157b6ca3370a7c7b019,603ab157b6ca3370a7c7b019,8,cucumber,critical,B,75,cucumber66.jpg,cucumber84.jpg,nogoal,NULL
1687281580,10bb468a3584b87cd9b513a164e453fe,PennController,11,0,experiment,NULL,Canvas,canvas6,Print,NA,1687281415829,603ab157b6ca3370a7c7b019,603ab157b6ca3370a7c7b019,8,cucumber,critical,B,75,cucumber66.jpg,cucumber84.jpg,nogoal,NULL
1687281580,10bb468a3584b87cd9b513a164e453fe,PennController,11,0,experiment,NULL,Video,progression,buffer,0.01048,1687281409661,603ab157b6ca3370a7c7b019,603ab157b6ca3370a7c7b019,8,cucumber,critical,B,75,cucumber66.jpg,cucumber84.jpg,nogoal,NULL
1687281580,10bb468a3584b87cd9b513a164e453fe,PennController,11,0,experiment,NULL,Selector,choice,Selection,option2,1687281424009,603ab157b6ca3370a7c7b019,603ab157b6ca3370a7c7b019,8,cucumber,critical,B,75,cucumber66.jpg,cucumber84.jpg,nogoal,option2;option1
1687281580,10bb468a3584b87cd9b513a164e453fe,PennController,11,0,experiment,NULL,PennController,10,_Trial_,End,1687281424011,603ab157b6ca3370a7c7b019,603ab157b6ca3370a7c7b019,8,cucumber,critical,B,75,cucumber66.jpg,cucumber84.jpg,nogoal,NULL
1687281580,10bb468a3584b87cd9b513a164e453fe,PennController,16,0,experiment,NULL,PennController,15,_Trial_,Start,1687281424013,603ab157b6ca3370a7c7b019,603ab157b6ca3370a7c7b019,13,mix,critical,B,50,mix40.jpg,mix60.jpg,nogoal,NULL
1687281580,10bb468a3584b87cd9b513a164e453fe,PennController,16,0,experiment,NULL,PennController,15,_Header_,Start,1687281424013,603ab157b6ca3370a7c7b019,603ab157b6ca3370a7c7b019,13,mix,critical,B,50,mix40.jpg,mix60.jpg,nogoal,NULL
1687281580,10bb468a3584b87cd9b513a164e453fe,PennController,16,0,experiment,NULL,PennController,15,_Header_,End,1687281424013,603ab157b6ca3370a7c7b019,603ab157b6ca3370a7c7b019,13,mix,critical,B,50,mix40.jpg,mix60.jpg,nogoal,NULL
1687281580,10bb468a3584b87cd9b513a164e453fe,PennController,16,0,experiment,NULL,Canvas,canvas6,Print,NA,1687281428722,603ab157b6ca3370a7c7b019,603ab157b6ca3370a7c7b019,13,mix,critical,B,50,mix40.jpg,mix60.jpg,nogoal,NULL
1687281580,10bb468a3584b87cd9b513a164e453fe,PennController,16,0,experiment,NULL,Video,progression,buffer,0.012057,1687281425549,603ab157b6ca3370a7c7b019,603ab157b6ca3370a7c7b019,13,mix,critical,B,50,mix40.jpg,mix60.jpg,nogoal,NULL
1687281580,10bb468a3584b87cd9b513a164e453fe,PennController,16,0,experiment,NULL,Selector,choice,Selection,option1,1687281430707,603ab157b6ca3370a7c7b019,603ab157b6ca3370a7c7b019,13,mix,critical,B,50,mix40.jpg,mix60.jpg,nogoal,option2;option1
1687281580,10bb468a3584b87cd9b513a164e453fe,PennController,16,0,experiment,NULL,PennController,15,_Trial_,End,1687281430709,603ab157b6ca3370a7c7b019,603ab157b6ca3370a7c7b019,13,mix,critical,B,50,mix40.jpg,mix60.jpg,nogoal,NULL
1687281580,10bb468a3584b87cd9b513a164e453fe,PennController,14,0,experiment,NULL,PennController,13,_Trial_,Start,1687281430711,603ab157b6ca3370a7c7b019,603ab157b6ca3370a7c7b019,11,beads,critical,B,75,beads65.jpg,beads85.jpg,nogoal,NULL
1687281580,10bb468a3584b87cd9b513a164e453fe,PennController,14,0,experiment,NULL,PennController,13,_Header_,Start,1687281430711,603ab157b6ca3370a7c7b019,603ab157b6ca3370a7c7b019,11,beads,critical,B,75,beads65.jpg,beads85.jpg,nogoal,NULL
1687281580,10bb468a3584b87cd9b513a164e453fe,PennController,14,0,experiment,NULL,PennController,13,_Header_,End,1687281430711,603ab157b6ca3370a7c7b019,603ab157b6ca3370a7c7b019,11,beads,critical,B,75,beads65.jpg,beads85.jpg,nogoal,NULL
1687281580,10bb468a3584b87cd9b513a164e453fe,PennController,14,0,experiment,NULL,Canvas,canvas6,Print,NA,1687281436421,603ab157b6ca3370a7c7b019,603ab157b6ca3370a7c7b019,11,beads,critical,B,75,beads65.jpg,beads85.jpg,nogoal,NULL
1687281580,10bb468a3584b87cd9b513a164e453fe,PennController,14,0,experiment,NULL,Video,progression,buffer,0.014764,1687281432252,603ab157b6ca3370a7c7b019,603ab157b6ca3370a7c7b019,11,beads,critical,B,75,beads65.jpg,beads85.jpg,nogoal,NULL
1687281580,10bb468a3584b87cd9b513a164e453fe,PennController,14,0,experiment,NULL,Selector,choice,Selection,option2,1687281437833,603ab157b6ca3370a7c7b019,603ab157b6ca3370a7c7b019,11,beads,critical,B,75,beads65.jpg,beads85.jpg,nogoal,option2;option1
1687281580,10bb468a3584b87cd9b513a164e453fe,PennController,14,0,experiment,NULL,PennController,13,_Trial_,End,1687281437835,603ab157b6ca3370a7c7b019,603ab157b6ca3370a7c7b019,11,beads,critical,B,75,beads65.jpg,beads85.jpg,nogoal,NULL
1687281580,10bb468a3584b87cd9b513a164e453fe,PennController,18,0,experiment,NULL,PennController,17,_Trial_,Start,1687281437837,603ab157b6ca3370a7c7b019,603ab157b6ca3370a7c7b019,15,zip,critical,B,25,zip15.jpg,zip35.jpg,nogoal,NULL
1687281580,10bb468a3584b87cd9b513a164e453fe,PennController,18,0,experiment,NULL,PennController,17,_Header_,Start,1687281437837,603ab157b6ca3370a7c7b019,603ab157b6ca3370a7c7b019,15,zip,critical,B,25,zip15.jpg,zip35.jpg,nogoal,NULL
1687281580,10bb468a3584b87cd9b513a164e453fe,PennController,18,0,experiment,NULL,PennController,17,_Header_,End,1687281437837,603ab157b6ca3370a7c7b019,603ab157b6ca3370a7c7b019,15,zip,critical,B,25,zip15.jpg,zip35.jpg,nogoal,NULL
1687281580,10bb468a3584b87cd9b513a164e453fe,PennController,18,0,experiment,NULL,Canvas,canvas6,Print,NA,1687281441541,603ab157b6ca3370a7c7b019,603ab157b6ca3370a7c7b019,15,zip,critical,B,25,zip15.jpg,zip35.jpg,nogoal,NULL
1687281580,10bb468a3584b87cd9b513a164e453fe,PennController,18,0,experiment,NULL,Video,progression,buffer,0.012986,1687281439381,603ab157b6ca3370a7c7b019,603ab157b6ca3370a7c7b019,15,zip,critical,B,25,zip15.jpg,zip35.jpg,nogoal,NULL
1687281580,10bb468a3584b87cd9b513a164e453fe,PennController,18,0,experiment,NULL,Selector,choice,Selection,option2,1687281444022,603ab157b6ca3370a7c7b019,603ab157b6ca3370a7c7b019,15,zip,critical,B,25,zip15.jpg,zip35.jpg,nogoal,option2;option1
1687281580,10bb468a3584b87cd9b513a164e453fe,PennController,18,0,experiment,NULL,PennController,17,_Trial_,End,1687281444024,603ab157b6ca3370a7c7b019,603ab157b6ca3370a7c7b019,15,zip,critical,B,25,zip15.jpg,zip35.jpg,nogoal,NULL
1687281580,10bb468a3584b87cd9b513a164e453fe,PennController,15,0,experiment,NULL,PennController,14,_Trial_,Start,1687281444026,603ab157b6ca3370a7c7b019,603ab157b6ca3370a7c7b019,12,erase,critical,B,25,erase15.jpg,erase33.jpg,nogoal,NULL
1687281580,10bb468a3584b87cd9b513a164e453fe,PennController,15,0,experiment,NULL,PennController,14,_Header_,Start,1687281444026,603ab157b6ca3370a7c7b019,603ab157b6ca3370a7c7b019,12,erase,critical,B,25,erase15.jpg,erase33.jpg,nogoal,NULL
1687281580,10bb468a3584b87cd9b513a164e453fe,PennController,15,0,experiment,NULL,PennController,14,_Header_,End,1687281444026,603ab157b6ca3370a7c7b019,603ab157b6ca3370a7c7b019,12,erase,critical,B,25,erase15.jpg,erase33.jpg,nogoal,NULL
1687281580,10bb468a3584b87cd9b513a164e453fe,PennController,15,0,experiment,NULL,Canvas,canvas6,Print,NA,1687281448346,603ab157b6ca3370a7c7b019,603ab157b6ca3370a7c7b019,12,erase,critical,B,25,erase15.jpg,erase33.jpg,nogoal,NULL
1687281580,10bb468a3584b87cd9b513a164e453fe,PennController,15,0,experiment,NULL,Video,progression,buffer,0.013273,1687281445579,603ab157b6ca3370a7c7b019,603ab157b6ca3370a7c7b019,12,erase,critical,B,25,erase15.jpg,erase33.jpg,nogoal,NULL
1687281580,10bb468a3584b87cd9b513a164e453fe,PennController,15,0,experiment,NULL,Selector,choice,Selection,option2,1687281449973,603ab157b6ca3370a7c7b019,603ab157b6ca3370a7c7b019,12,erase,critical,B,25,erase15.jpg,erase33.jpg,nogoal,option2;option1
1687281580,10bb468a3584b87cd9b513a164e453fe,PennController,15,0,experiment,NULL,PennController,14,_Trial_,End,1687281449975,603ab157b6ca3370a7c7b019,603ab157b6ca3370a7c7b019,12,erase,critical,B,25,erase15.jpg,erase33.jpg,nogoal,NULL
1687281580,10bb468a3584b87cd9b513a164e453fe,PennController,10,0,experiment,NULL,PennController,9,_Trial_,Start,1687281449976,603ab157b6ca3370a7c7b019,603ab157b6ca3370a7c7b019,7,stack,critical,B,50,stack40.jpg,stack60.jpg,nogoal,NULL
1687281580,10bb468a3584b87cd9b513a164e453fe,PennController,10,0,experiment,NULL,PennController,9,_Header_,Start,1687281449976,603ab157b6ca3370a7c7b019,603ab157b6ca3370a7c7b019,7,stack,critical,B,50,stack40.jpg,stack60.jpg,nogoal,NULL
1687281580,10bb468a3584b87cd9b513a164e453fe,PennController,10,0,experiment,NULL,PennController,9,_Header_,End,1687281449976,603ab157b6ca3370a7c7b019,603ab157b6ca3370a7c7b019,7,stack,critical,B,50,stack40.jpg,stack60.jpg,nogoal,NULL
1687281580,10bb468a3584b87cd9b513a164e453fe,PennController,10,0,experiment,NULL,Canvas,canvas6,Print,NA,1687281454685,603ab157b6ca3370a7c7b019,603ab157b6ca3370a7c7b019,7,stack,critical,B,50,stack40.jpg,stack60.jpg,nogoal,NULL
1687281580,10bb468a3584b87cd9b513a164e453fe,PennController,10,0,experiment,NULL,Video,progression,buffer,0.009112,1687281451512,603ab157b6ca3370a7c7b019,603ab157b6ca3370a7c7b019,7,stack,critical,B,50,stack40.jpg,stack60.jpg,nogoal,NULL
1687281580,10bb468a3584b87cd9b513a164e453fe,PennController,10,0,experiment,NULL,Selector,choice,Selection,option2,1687281463002,603ab157b6ca3370a7c7b019,603ab157b6ca3370a7c7b019,7,stack,critical,B,50,stack40.jpg,stack60.jpg,nogoal,option2;option1
1687281580,10bb468a3584b87cd9b513a164e453fe,PennController,10,0,experiment,NULL,PennController,9,_Trial_,End,1687281463004,603ab157b6ca3370a7c7b019,603ab157b6ca3370a7c7b019,7,stack,critical,B,50,stack40.jpg,stack60.jpg,nogoal,NULL
1687281580,10bb468a3584b87cd9b513a164e453fe,PennController,30,0,experiment,NULL,PennController,29,_Trial_,Start,1687281463006,603ab157b6ca3370a7c7b019,603ab157b6ca3370a7c7b019,27,square,filler,B,25,square15.jpg,square35.jpg,nogoal,NULL
1687281580,10bb468a3584b87cd9b513a164e453fe,PennController,30,0,experiment,NULL,PennController,29,_Header_,Start,1687281463006,603ab157b6ca3370a7c7b019,603ab157b6ca3370a7c7b019,27,square,filler,B,25,square15.jpg,square35.jpg,nogoal,NULL
1687281580,10bb468a3584b87cd9b513a164e453fe,PennController,30,0,experiment,NULL,PennController,29,_Header_,End,1687281463006,603ab157b6ca3370a7c7b019,603ab157b6ca3370a7c7b019,27,square,filler,B,25,square15.jpg,square35.jpg,nogoal,NULL
1687281580,10bb468a3584b87cd9b513a164e453fe,PennController,30,0,experiment,NULL,Canvas,canvas6,Print,NA,1687281466710,603ab157b6ca3370a7c7b019,603ab157b6ca3370a7c7b019,27,square,filler,B,25,square15.jpg,square35.jpg,nogoal,NULL
1687281580,10bb468a3584b87cd9b513a164e453fe,PennController,30,0,experiment,NULL,Video,progression,buffer,0.016259,1687281464550,603ab157b6ca3370a7c7b019,603ab157b6ca3370a7c7b019,27,square,filler,B,25,square15.jpg,square35.jpg,nogoal,NULL
1687281580,10bb468a3584b87cd9b513a164e453fe,PennController,30,0,experiment,NULL,Selector,choice,Selection,option2,1687281468666,603ab157b6ca3370a7c7b019,603ab157b6ca3370a7c7b019,27,square,filler,B,25,square15.jpg,square35.jpg,nogoal,option1;option2
1687281580,10bb468a3584b87cd9b513a164e453fe,PennController,30,0,experiment,NULL,PennController,29,_Trial_,End,1687281468668,603ab157b6ca3370a7c7b019,603ab157b6ca3370a7c7b019,27,square,filler,B,25,square15.jpg,square35.jpg,nogoal,NULL
1687281580,10bb468a3584b87cd9b513a164e453fe,PennController,12,0,experiment,NULL,PennController,11,_Trial_,Start,1687281468669,603ab157b6ca3370a7c7b019,603ab157b6ca3370a7c7b019,9,cake,critical,B,25,cake15.jpg,cake33.jpg,nogoal,NULL
1687281580,10bb468a3584b87cd9b513a164e453fe,PennController,12,0,experiment,NULL,PennController,11,_Header_,Start,1687281468669,603ab157b6ca3370a7c7b019,603ab157b6ca3370a7c7b019,9,cake,critical,B,25,cake15.jpg,cake33.jpg,nogoal,NULL
1687281580,10bb468a3584b87cd9b513a164e453fe,PennController,12,0,experiment,NULL,PennController,11,_Header_,End,1687281468669,603ab157b6ca3370a7c7b019,603ab157b6ca3370a7c7b019,9,cake,critical,B,25,cake15.jpg,cake33.jpg,nogoal,NULL
1687281580,10bb468a3584b87cd9b513a164e453fe,PennController,12,0,experiment,NULL,Canvas,canvas6,Print,NA,1687281472985,603ab157b6ca3370a7c7b019,603ab157b6ca3370a7c7b019,9,cake,critical,B,25,cake15.jpg,cake33.jpg,nogoal,NULL
1687281580,10bb468a3584b87cd9b513a164e453fe,PennController,12,0,experiment,NULL,Video,progression,buffer,0.017286,1687281470212,603ab157b6ca3370a7c7b019,603ab157b6ca3370a7c7b019,9,cake,critical,B,25,cake15.jpg,cake33.jpg,nogoal,NULL
1687281580,10bb468a3584b87cd9b513a164e453fe,PennController,12,0,experiment,NULL,Selector,choice,Selection,option1,1687281474582,603ab157b6ca3370a7c7b019,603ab157b6ca3370a7c7b019,9,cake,critical,B,25,cake15.jpg,cake33.jpg,nogoal,option1;option2
1687281580,10bb468a3584b87cd9b513a164e453fe,PennController,12,0,experiment,NULL,PennController,11,_Trial_,End,1687281474584,603ab157b6ca3370a7c7b019,603ab157b6ca3370a7c7b019,9,cake,critical,B,25,cake15.jpg,cake33.jpg,nogoal,NULL
1687281580,10bb468a3584b87cd9b513a164e453fe,PennController,32,0,experiment,NULL,PennController,31,_Trial_,Start,1687281474586,603ab157b6ca3370a7c7b019,603ab157b6ca3370a7c7b019,29,frog,filler,B,75,frog65.jpg,frog85.jpg,nogoal,NULL
1687281580,10bb468a3584b87cd9b513a164e453fe,PennController,32,0,experiment,NULL,PennController,31,_Header_,Start,1687281474586,603ab157b6ca3370a7c7b019,603ab157b6ca3370a7c7b019,29,frog,filler,B,75,frog65.jpg,frog85.jpg,nogoal,NULL
1687281580,10bb468a3584b87cd9b513a164e453fe,PennController,32,0,experiment,NULL,PennController,31,_Header_,End,1687281474586,603ab157b6ca3370a7c7b019,603ab157b6ca3370a7c7b019,29,frog,filler,B,75,frog65.jpg,frog85.jpg,nogoal,NULL
1687281580,10bb468a3584b87cd9b513a164e453fe,PennController,32,0,experiment,NULL,Canvas,canvas6,Print,NA,1687281480299,603ab157b6ca3370a7c7b019,603ab157b6ca3370a7c7b019,29,frog,filler,B,75,frog65.jpg,frog85.jpg,nogoal,NULL
1687281580,10bb468a3584b87cd9b513a164e453fe,PennController,32,0,experiment,NULL,Video,progression,buffer,0.015653,1687281476131,603ab157b6ca3370a7c7b019,603ab157b6ca3370a7c7b019,29,frog,filler,B,75,frog65.jpg,frog85.jpg,nogoal,NULL
1687281580,10bb468a3584b87cd9b513a164e453fe,PennController,32,0,experiment,NULL,Selector,choice,Selection,option2,1687281481524,603ab157b6ca3370a7c7b019,603ab157b6ca3370a7c7b019,29,frog,filler,B,75,frog65.jpg,frog85.jpg,nogoal,option2;option1
1687281580,10bb468a3584b87cd9b513a164e453fe,PennController,32,0,experiment,NULL,PennController,31,_Trial_,End,1687281481526,603ab157b6ca3370a7c7b019,603ab157b6ca3370a7c7b019,29,frog,filler,B,75,frog65.jpg,frog85.jpg,nogoal,NULL
1687281580,10bb468a3584b87cd9b513a164e453fe,PennController,23,0,experiment,NULL,PennController,22,_Trial_,Start,1687281481527,603ab157b6ca3370a7c7b019,603ab157b6ca3370a7c7b019,20,cat,filler,B,75,cat65.jpg,cat85.jpg,nogoal,NULL
1687281580,10bb468a3584b87cd9b513a164e453fe,PennController,23,0,experiment,NULL,PennController,22,_Header_,Start,1687281481527,603ab157b6ca3370a7c7b019,603ab157b6ca3370a7c7b019,20,cat,filler,B,75,cat65.jpg,cat85.jpg,nogoal,NULL
1687281580,10bb468a3584b87cd9b513a164e453fe,PennController,23,0,experiment,NULL,PennController,22,_Header_,End,1687281481528,603ab157b6ca3370a7c7b019,603ab157b6ca3370a7c7b019,20,cat,filler,B,75,cat65.jpg,cat85.jpg,nogoal,NULL
1687281580,10bb468a3584b87cd9b513a164e453fe,PennController,23,0,experiment,NULL,Canvas,canvas6,Print,NA,1687281487244,603ab157b6ca3370a7c7b019,603ab157b6ca3370a7c7b019,20,cat,filler,B,75,cat65.jpg,cat85.jpg,nogoal,NULL
1687281580,10bb468a3584b87cd9b513a164e453fe,PennController,23,0,experiment,NULL,Video,progression,buffer,0.014728,1687281483071,603ab157b6ca3370a7c7b019,603ab157b6ca3370a7c7b019,20,cat,filler,B,75,cat65.jpg,cat85.jpg,nogoal,NULL
1687281580,10bb468a3584b87cd9b513a164e453fe,PennController,23,0,experiment,NULL,Selector,choice,Selection,option2,1687281490012,603ab157b6ca3370a7c7b019,603ab157b6ca3370a7c7b019,20,cat,filler,B,75,cat65.jpg,cat85.jpg,nogoal,option1;option2
1687281580,10bb468a3584b87cd9b513a164e453fe,PennController,23,0,experiment,NULL,PennController,22,_Trial_,End,1687281490013,603ab157b6ca3370a7c7b019,603ab157b6ca3370a7c7b019,20,cat,filler,B,75,cat65.jpg,cat85.jpg,nogoal,NULL
1687281580,10bb468a3584b87cd9b513a164e453fe,PennController,31,0,experiment,NULL,PennController,30,_Trial_,Start,1687281490015,603ab157b6ca3370a7c7b019,603ab157b6ca3370a7c7b019,28,sort,filler,B,50,sort40.jpg,sort60.jpg,nogoal,NULL
1687281580,10bb468a3584b87cd9b513a164e453fe,PennController,31,0,experiment,NULL,PennController,30,_Header_,Start,1687281490015,603ab157b6ca3370a7c7b019,603ab157b6ca3370a7c7b019,28,sort,filler,B,50,sort40.jpg,sort60.jpg,nogoal,NULL
1687281580,10bb468a3584b87cd9b513a164e453fe,PennController,31,0,experiment,NULL,PennController,30,_Header_,End,1687281490015,603ab157b6ca3370a7c7b019,603ab157b6ca3370a7c7b019,28,sort,filler,B,50,sort40.jpg,sort60.jpg,nogoal,NULL
1687281580,10bb468a3584b87cd9b513a164e453fe,PennController,31,0,experiment,NULL,Canvas,canvas6,Print,NA,1687281494726,603ab157b6ca3370a7c7b019,603ab157b6ca3370a7c7b019,28,sort,filler,B,50,sort40.jpg,sort60.jpg,nogoal,NULL
1687281580,10bb468a3584b87cd9b513a164e453fe,PennController,31,0,experiment,NULL,Video,progression,buffer,0.008644,1687281491547,603ab157b6ca3370a7c7b019,603ab157b6ca3370a7c7b019,28,sort,filler,B,50,sort40.jpg,sort60.jpg,nogoal,NULL
1687281580,10bb468a3584b87cd9b513a164e453fe,PennController,31,0,experiment,NULL,Selector,choice,Selection,option2,1687281496972,603ab157b6ca3370a7c7b019,603ab157b6ca3370a7c7b019,28,sort,filler,B,50,sort40.jpg,sort60.jpg,nogoal,option1;option2
1687281580,10bb468a3584b87cd9b513a164e453fe,PennController,31,0,experiment,NULL,PennController,30,_Trial_,End,1687281496974,603ab157b6ca3370a7c7b019,603ab157b6ca3370a7c7b019,28,sort,filler,B,50,sort40.jpg,sort60.jpg,nogoal,NULL
1687281580,10bb468a3584b87cd9b513a164e453fe,PennController,7,0,experiment,NULL,PennController,6,_Trial_,Start,1687281496975,603ab157b6ca3370a7c7b019,603ab157b6ca3370a7c7b019,4,candy,critical,B,50,candy40.jpg,candy60.jpg,nogoal,NULL
1687281580,10bb468a3584b87cd9b513a164e453fe,PennController,7,0,experiment,NULL,PennController,6,_Header_,Start,1687281496975,603ab157b6ca3370a7c7b019,603ab157b6ca3370a7c7b019,4,candy,critical,B,50,candy40.jpg,candy60.jpg,nogoal,NULL
1687281580,10bb468a3584b87cd9b513a164e453fe,PennController,7,0,experiment,NULL,PennController,6,_Header_,End,1687281496975,603ab157b6ca3370a7c7b019,603ab157b6ca3370a7c7b019,4,candy,critical,B,50,candy40.jpg,candy60.jpg,nogoal,NULL
1687281580,10bb468a3584b87cd9b513a164e453fe,PennController,7,0,experiment,NULL,Canvas,canvas6,Print,NA,1687281501685,603ab157b6ca3370a7c7b019,603ab157b6ca3370a7c7b019,4,candy,critical,B,50,candy40.jpg,candy60.jpg,nogoal,NULL
1687281580,10bb468a3584b87cd9b513a164e453fe,PennController,7,0,experiment,NULL,Video,progression,buffer,0.01678,1687281498521,603ab157b6ca3370a7c7b019,603ab157b6ca3370a7c7b019,4,candy,critical,B,50,candy40.jpg,candy60.jpg,nogoal,NULL
1687281580,10bb468a3584b87cd9b513a164e453fe,PennController,7,0,experiment,NULL,Selector,choice,Selection,option1,1687281503201,603ab157b6ca3370a7c7b019,603ab157b6ca3370a7c7b019,4,candy,critical,B,50,candy40.jpg,candy60.jpg,nogoal,option1;option2
1687281580,10bb468a3584b87cd9b513a164e453fe,PennController,7,0,experiment,NULL,PennController,6,_Trial_,End,1687281503203,603ab157b6ca3370a7c7b019,603ab157b6ca3370a7c7b019,4,candy,critical,B,50,candy40.jpg,candy60.jpg,nogoal,NULL
1687281580,10bb468a3584b87cd9b513a164e453fe,PennController,27,0,experiment,NULL,PennController,26,_Trial_,Start,1687281503204,603ab157b6ca3370a7c7b019,603ab157b6ca3370a7c7b019,24,match,filler,B,25,match15.jpg,match35.jpg,nogoal,NULL
1687281580,10bb468a3584b87cd9b513a164e453fe,PennController,27,0,experiment,NULL,PennController,26,_Header_,Start,1687281503205,603ab157b6ca3370a7c7b019,603ab157b6ca3370a7c7b019,24,match,filler,B,25,match15.jpg,match35.jpg,nogoal,NULL
1687281580,10bb468a3584b87cd9b513a164e453fe,PennController,27,0,experiment,NULL,PennController,26,_Header_,End,1687281503205,603ab157b6ca3370a7c7b019,603ab157b6ca3370a7c7b019,24,match,filler,B,25,match15.jpg,match35.jpg,nogoal,NULL
1687281580,10bb468a3584b87cd9b513a164e453fe,PennController,27,0,experiment,NULL,Canvas,canvas6,Print,NA,1687281506920,603ab157b6ca3370a7c7b019,603ab157b6ca3370a7c7b019,24,match,filler,B,25,match15.jpg,match35.jpg,nogoal,NULL
1687281580,10bb468a3584b87cd9b513a164e453fe,PennController,27,0,experiment,NULL,Video,progression,buffer,0.015064,1687281504748,603ab157b6ca3370a7c7b019,603ab157b6ca3370a7c7b019,24,match,filler,B,25,match15.jpg,match35.jpg,nogoal,NULL
1687281580,10bb468a3584b87cd9b513a164e453fe,PennController,27,0,experiment,NULL,Selector,choice,Selection,option1,1687281508052,603ab157b6ca3370a7c7b019,603ab157b6ca3370a7c7b019,24,match,filler,B,25,match15.jpg,match35.jpg,nogoal,option1;option2
1687281580,10bb468a3584b87cd9b513a164e453fe,PennController,27,0,experiment,NULL,PennController,26,_Trial_,End,1687281508054,603ab157b6ca3370a7c7b019,603ab157b6ca3370a7c7b019,24,match,filler,B,25,match15.jpg,match35.jpg,nogoal,NULL
1687281580,10bb468a3584b87cd9b513a164e453fe,PennController,28,0,experiment,NULL,PennController,27,_Trial_,Start,1687281508055,603ab157b6ca3370a7c7b019,603ab157b6ca3370a7c7b019,25,house,filler,B,50,house40.jpg,house60.jpg,nogoal,NULL
1687281580,10bb468a3584b87cd9b513a164e453fe,PennController,28,0,experiment,NULL,PennController,27,_Header_,Start,1687281508055,603ab157b6ca3370a7c7b019,603ab157b6ca3370a7c7b019,25,house,filler,B,50,house40.jpg,house60.jpg,nogoal,NULL
1687281580,10bb468a3584b87cd9b513a164e453fe,PennController,28,0,experiment,NULL,PennController,27,_Header_,End,1687281508055,603ab157b6ca3370a7c7b019,603ab157b6ca3370a7c7b019,25,house,filler,B,50,house40.jpg,house60.jpg,nogoal,NULL
1687281580,10bb468a3584b87cd9b513a164e453fe,PennController,28,0,experiment,NULL,Canvas,canvas6,Print,NA,1687281512754,603ab157b6ca3370a7c7b019,603ab157b6ca3370a7c7b019,25,house,filler,B,50,house40.jpg,house60.jpg,nogoal,NULL
1687281580,10bb468a3584b87cd9b513a164e453fe,PennController,28,0,experiment,NULL,Video,progression,buffer,0.004411,1687281509580,603ab157b6ca3370a7c7b019,603ab157b6ca3370a7c7b019,25,house,filler,B,50,house40.jpg,house60.jpg,nogoal,NULL
1687281580,10bb468a3584b87cd9b513a164e453fe,PennController,28,0,experiment,NULL,Selector,choice,Selection,option2,1687281514425,603ab157b6ca3370a7c7b019,603ab157b6ca3370a7c7b019,25,house,filler,B,50,house40.jpg,house60.jpg,nogoal,option2;option1
1687281580,10bb468a3584b87cd9b513a164e453fe,PennController,28,0,experiment,NULL,PennController,27,_Trial_,End,1687281514427,603ab157b6ca3370a7c7b019,603ab157b6ca3370a7c7b019,25,house,filler,B,50,house40.jpg,house60.jpg,nogoal,NULL
1687281580,10bb468a3584b87cd9b513a164e453fe,PennController,8,0,experiment,NULL,PennController,7,_Trial_,Start,1687281514428,603ab157b6ca3370a7c7b019,603ab157b6ca3370a7c7b019,5,book,critical,B,75,book65.jpg,book85.jpg,nogoal,NULL
1687281580,10bb468a3584b87cd9b513a164e453fe,PennController,8,0,experiment,NULL,PennController,7,_Header_,Start,1687281514428,603ab157b6ca3370a7c7b019,603ab157b6ca3370a7c7b019,5,book,critical,B,75,book65.jpg,book85.jpg,nogoal,NULL
1687281580,10bb468a3584b87cd9b513a164e453fe,PennController,8,0,experiment,NULL,PennController,7,_Header_,End,1687281514428,603ab157b6ca3370a7c7b019,603ab157b6ca3370a7c7b019,5,book,critical,B,75,book65.jpg,book85.jpg,nogoal,NULL
1687281580,10bb468a3584b87cd9b513a164e453fe,PennController,8,0,experiment,NULL,Canvas,canvas6,Print,NA,1687281520126,603ab157b6ca3370a7c7b019,603ab157b6ca3370a7c7b019,5,book,critical,B,75,book65.jpg,book85.jpg,nogoal,NULL
1687281580,10bb468a3584b87cd9b513a164e453fe,PennController,8,0,experiment,NULL,Video,progression,buffer,0.00899,1687281515963,603ab157b6ca3370a7c7b019,603ab157b6ca3370a7c7b019,5,book,critical,B,75,book65.jpg,book85.jpg,nogoal,NULL
1687281580,10bb468a3584b87cd9b513a164e453fe,PennController,8,0,experiment,NULL,Selector,choice,Selection,option1,1687281521900,603ab157b6ca3370a7c7b019,603ab157b6ca3370a7c7b019,5,book,critical,B,75,book65.jpg,book85.jpg,nogoal,option2;option1
1687281580,10bb468a3584b87cd9b513a164e453fe,PennController,8,0,experiment,NULL,PennController,7,_Trial_,End,1687281521901,603ab157b6ca3370a7c7b019,603ab157b6ca3370a7c7b019,5,book,critical,B,75,book65.jpg,book85.jpg,nogoal,NULL
1687281580,10bb468a3584b87cd9b513a164e453fe,PennController,20,0,experiment,NULL,PennController,19,_Trial_,Start,1687281521903,603ab157b6ca3370a7c7b019,603ab157b6ca3370a7c7b019,17,roll,critical,B,75,roll65.jpg,roll85.jpg,nogoal,NULL
1687281580,10bb468a3584b87cd9b513a164e453fe,PennController,20,0,experiment,NULL,PennController,19,_Header_,Start,1687281521903,603ab157b6ca3370a7c7b019,603ab157b6ca3370a7c7b019,17,roll,critical,B,75,roll65.jpg,roll85.jpg,nogoal,NULL
1687281580,10bb468a3584b87cd9b513a164e453fe,PennController,20,0,experiment,NULL,PennController,19,_Header_,End,1687281521903,603ab157b6ca3370a7c7b019,603ab157b6ca3370a7c7b019,17,roll,critical,B,75,roll65.jpg,roll85.jpg,nogoal,NULL
1687281580,10bb468a3584b87cd9b513a164e453fe,PennController,20,0,experiment,NULL,Canvas,canvas6,Print,NA,1687281527610,603ab157b6ca3370a7c7b019,603ab157b6ca3370a7c7b019,17,roll,critical,B,75,roll65.jpg,roll85.jpg,nogoal,NULL
1687281580,10bb468a3584b87cd9b513a164e453fe,PennController,20,0,experiment,NULL,Video,progression,buffer,0.008776,1687281523444,603ab157b6ca3370a7c7b019,603ab157b6ca3370a7c7b019,17,roll,critical,B,75,roll65.jpg,roll85.jpg,nogoal,NULL
1687281580,10bb468a3584b87cd9b513a164e453fe,PennController,20,0,experiment,NULL,Selector,choice,Selection,option2,1687281529687,603ab157b6ca3370a7c7b019,603ab157b6ca3370a7c7b019,17,roll,critical,B,75,roll65.jpg,roll85.jpg,nogoal,option1;option2
1687281580,10bb468a3584b87cd9b513a164e453fe,PennController,20,0,experiment,NULL,PennController,19,_Trial_,End,1687281529689,603ab157b6ca3370a7c7b019,603ab157b6ca3370a7c7b019,17,roll,critical,B,75,roll65.jpg,roll85.jpg,nogoal,NULL
1687281580,10bb468a3584b87cd9b513a164e453fe,PennController,22,0,experiment,NULL,PennController,21,_Trial_,Start,1687281529691,603ab157b6ca3370a7c7b019,603ab157b6ca3370a7c7b019,19,cup,filler,B,50,cup40.jpg,cup60.jpg,nogoal,NULL
1687281580,10bb468a3584b87cd9b513a164e453fe,PennController,22,0,experiment,NULL,PennController,21,_Header_,Start,1687281529691,603ab157b6ca3370a7c7b019,603ab157b6ca3370a7c7b019,19,cup,filler,B,50,cup40.jpg,cup60.jpg,nogoal,NULL
1687281580,10bb468a3584b87cd9b513a164e453fe,PennController,22,0,experiment,NULL,PennController,21,_Header_,End,1687281529691,603ab157b6ca3370a7c7b019,603ab157b6ca3370a7c7b019,19,cup,filler,B,50,cup40.jpg,cup60.jpg,nogoal,NULL
1687281580,10bb468a3584b87cd9b513a164e453fe,PennController,22,0,experiment,NULL,Canvas,canvas6,Print,NA,1687281534395,603ab157b6ca3370a7c7b019,603ab157b6ca3370a7c7b019,19,cup,filler,B,50,cup40.jpg,cup60.jpg,nogoal,NULL
1687281580,10bb468a3584b87cd9b513a164e453fe,PennController,22,0,experiment,NULL,Video,progression,buffer,0.005847,1687281531224,603ab157b6ca3370a7c7b019,603ab157b6ca3370a7c7b019,19,cup,filler,B,50,cup40.jpg,cup60.jpg,nogoal,NULL
1687281580,10bb468a3584b87cd9b513a164e453fe,PennController,22,0,experiment,NULL,Selector,choice,Selection,option2,1687281536899,603ab157b6ca3370a7c7b019,603ab157b6ca3370a7c7b019,19,cup,filler,B,50,cup40.jpg,cup60.jpg,nogoal,option1;option2
1687281580,10bb468a3584b87cd9b513a164e453fe,PennController,22,0,experiment,NULL,PennController,21,_Trial_,End,1687281536901,603ab157b6ca3370a7c7b019,603ab157b6ca3370a7c7b019,19,cup,filler,B,50,cup40.jpg,cup60.jpg,nogoal,NULL
1687281580,10bb468a3584b87cd9b513a164e453fe,PennController,13,0,experiment,NULL,PennController,12,_Trial_,Start,1687281536902,603ab157b6ca3370a7c7b019,603ab157b6ca3370a7c7b019,10,train,critical,B,50,train40.jpg,train60.jpg,nogoal,NULL
1687281580,10bb468a3584b87cd9b513a164e453fe,PennController,13,0,experiment,NULL,PennController,12,_Header_,Start,1687281536902,603ab157b6ca3370a7c7b019,603ab157b6ca3370a7c7b019,10,train,critical,B,50,train40.jpg,train60.jpg,nogoal,NULL
1687281580,10bb468a3584b87cd9b513a164e453fe,PennController,13,0,experiment,NULL,PennController,12,_Header_,End,1687281536902,603ab157b6ca3370a7c7b019,603ab157b6ca3370a7c7b019,10,train,critical,B,50,train40.jpg,train60.jpg,nogoal,NULL
1687281580,10bb468a3584b87cd9b513a164e453fe,PennController,13,0,experiment,NULL,Canvas,canvas6,Print,NA,1687281541595,603ab157b6ca3370a7c7b019,603ab157b6ca3370a7c7b019,10,train,critical,B,50,train40.jpg,train60.jpg,nogoal,NULL
1687281580,10bb468a3584b87cd9b513a164e453fe,PennController,13,0,experiment,NULL,Video,progression,buffer,0.007766,1687281538430,603ab157b6ca3370a7c7b019,603ab157b6ca3370a7c7b019,10,train,critical,B,50,train40.jpg,train60.jpg,nogoal,NULL
1687281580,10bb468a3584b87cd9b513a164e453fe,PennController,13,0,experiment,NULL,Selector,choice,Selection,option2,1687281543345,603ab157b6ca3370a7c7b019,603ab157b6ca3370a7c7b019,10,train,critical,B,50,train40.jpg,train60.jpg,nogoal,option1;option2
1687281580,10bb468a3584b87cd9b513a164e453fe,PennController,13,0,experiment,NULL,PennController,12,_Trial_,End,1687281543347,603ab157b6ca3370a7c7b019,603ab157b6ca3370a7c7b019,10,train,critical,B,50,train40.jpg,train60.jpg,nogoal,NULL
1687281580,10bb468a3584b87cd9b513a164e453fe,PennController,6,0,experiment,NULL,PennController,5,_Trial_,Start,1687281543348,603ab157b6ca3370a7c7b019,603ab157b6ca3370a7c7b019,3,clean,critical,B,25,clean15.jpg,clean35.jpg,nogoal,NULL
1687281580,10bb468a3584b87cd9b513a164e453fe,PennController,6,0,experiment,NULL,PennController,5,_Header_,Start,1687281543348,603ab157b6ca3370a7c7b019,603ab157b6ca3370a7c7b019,3,clean,critical,B,25,clean15.jpg,clean35.jpg,nogoal,NULL
1687281580,10bb468a3584b87cd9b513a164e453fe,PennController,6,0,experiment,NULL,PennController,5,_Header_,End,1687281543349,603ab157b6ca3370a7c7b019,603ab157b6ca3370a7c7b019,3,clean,critical,B,25,clean15.jpg,clean35.jpg,nogoal,NULL
1687281580,10bb468a3584b87cd9b513a164e453fe,PennController,6,0,experiment,NULL,Canvas,canvas6,Print,NA,1687281547046,603ab157b6ca3370a7c7b019,603ab157b6ca3370a7c7b019,3,clean,critical,B,25,clean15.jpg,clean35.jpg,nogoal,NULL
1687281580,10bb468a3584b87cd9b513a164e453fe,PennController,6,0,experiment,NULL,Video,progression,buffer,0.006058,1687281544872,603ab157b6ca3370a7c7b019,603ab157b6ca3370a7c7b019,3,clean,critical,B,25,clean15.jpg,clean35.jpg,nogoal,NULL
1687281580,10bb468a3584b87cd9b513a164e453fe,PennController,6,0,experiment,NULL,Selector,choice,Selection,option1,1687281551229,603ab157b6ca3370a7c7b019,603ab157b6ca3370a7c7b019,3,clean,critical,B,25,clean15.jpg,clean35.jpg,nogoal,option2;option1
1687281580,10bb468a3584b87cd9b513a164e453fe,PennController,6,0,experiment,NULL,PennController,5,_Trial_,End,1687281551231,603ab157b6ca3370a7c7b019,603ab157b6ca3370a7c7b019,3,clean,critical,B,25,clean15.jpg,clean35.jpg,nogoal,NULL
1687281580,10bb468a3584b87cd9b513a164e453fe,PennController,24,0,experiment,NULL,PennController,23,_Trial_,Start,1687281551233,603ab157b6ca3370a7c7b019,603ab157b6ca3370a7c7b019,21,visit,filler,B,25,visit15.jpg,visit35.jpg,nogoal,NULL
1687281580,10bb468a3584b87cd9b513a164e453fe,PennController,24,0,experiment,NULL,PennController,23,_Header_,Start,1687281551233,603ab157b6ca3370a7c7b019,603ab157b6ca3370a7c7b019,21,visit,filler,B,25,visit15.jpg,visit35.jpg,nogoal,NULL
1687281580,10bb468a3584b87cd9b513a164e453fe,PennController,24,0,experiment,NULL,PennController,23,_Header_,End,1687281551233,603ab157b6ca3370a7c7b019,603ab157b6ca3370a7c7b019,21,visit,filler,B,25,visit15.jpg,visit35.jpg,nogoal,NULL
1687281580,10bb468a3584b87cd9b513a164e453fe,PennController,24,0,experiment,NULL,Canvas,canvas6,Print,NA,1687281554933,603ab157b6ca3370a7c7b019,603ab157b6ca3370a7c7b019,21,visit,filler,B,25,visit15.jpg,visit35.jpg,nogoal,NULL
1687281580,10bb468a3584b87cd9b513a164e453fe,PennController,24,0,experiment,NULL,Video,progression,buffer,0.004848,1687281552759,603ab157b6ca3370a7c7b019,603ab157b6ca3370a7c7b019,21,visit,filler,B,25,visit15.jpg,visit35.jpg,nogoal,NULL
1687281580,10bb468a3584b87cd9b513a164e453fe,PennController,24,0,experiment,NULL,Selector,choice,Selection,option2,1687281556323,603ab157b6ca3370a7c7b019,603ab157b6ca3370a7c7b019,21,visit,filler,B,25,visit15.jpg,visit35.jpg,nogoal,option1;option2
1687281580,10bb468a3584b87cd9b513a164e453fe,PennController,24,0,experiment,NULL,PennController,23,_Trial_,End,1687281556325,603ab157b6ca3370a7c7b019,603ab157b6ca3370a7c7b019,21,visit,filler,B,25,visit15.jpg,visit35.jpg,nogoal,NULL
1687281580,10bb468a3584b87cd9b513a164e453fe,PennController,5,0,experiment,NULL,PennController,4,_Trial_,Start,1687281556326,603ab157b6ca3370a7c7b019,603ab157b6ca3370a7c7b019,2,door,critical,B,75,door65.jpg,door85.jpg,nogoal,NULL
1687281580,10bb468a3584b87cd9b513a164e453fe,PennController,5,0,experiment,NULL,PennController,4,_Header_,Start,1687281556326,603ab157b6ca3370a7c7b019,603ab157b6ca3370a7c7b019,2,door,critical,B,75,door65.jpg,door85.jpg,nogoal,NULL
1687281580,10bb468a3584b87cd9b513a164e453fe,PennController,5,0,experiment,NULL,PennController,4,_Header_,End,1687281556326,603ab157b6ca3370a7c7b019,603ab157b6ca3370a7c7b019,2,door,critical,B,75,door65.jpg,door85.jpg,nogoal,NULL
1687281580,10bb468a3584b87cd9b513a164e453fe,PennController,5,0,experiment,NULL,Canvas,canvas6,Print,NA,1687281562059,603ab157b6ca3370a7c7b019,603ab157b6ca3370a7c7b019,2,door,critical,B,75,door65.jpg,door85.jpg,nogoal,NULL
1687281580,10bb468a3584b87cd9b513a164e453fe,PennController,5,0,experiment,NULL,Video,progression,buffer,0,1687281557853,603ab157b6ca3370a7c7b019,603ab157b6ca3370a7c7b019,2,door,critical,B,75,door65.jpg,door85.jpg,nogoal,NULL
1687281580,10bb468a3584b87cd9b513a164e453fe,PennController,5,0,experiment,NULL,Selector,choice,Selection,option2,1687281565007,603ab157b6ca3370a7c7b019,603ab157b6ca3370a7c7b019,2,door,critical,B,75,door65.jpg,door85.jpg,nogoal,option1;option2
1687281580,10bb468a3584b87cd9b513a164e453fe,PennController,5,0,experiment,NULL,PennController,4,_Trial_,End,1687281565009,603ab157b6ca3370a7c7b019,603ab157b6ca3370a7c7b019,2,door,critical,B,75,door65.jpg,door85.jpg,nogoal,NULL
1687281580,10bb468a3584b87cd9b513a164e453fe,PennController,19,0,experiment,NULL,PennController,18,_Trial_,Start,1687281565010,603ab157b6ca3370a7c7b019,603ab157b6ca3370a7c7b019,16,blinds,critical,B,50,blinds42.jpg,blinds60.jpg,nogoal,NULL
1687281580,10bb468a3584b87cd9b513a164e453fe,PennController,19,0,experiment,NULL,PennController,18,_Header_,Start,1687281565010,603ab157b6ca3370a7c7b019,603ab157b6ca3370a7c7b019,16,blinds,critical,B,50,blinds42.jpg,blinds60.jpg,nogoal,NULL
1687281580,10bb468a3584b87cd9b513a164e453fe,PennController,19,0,experiment,NULL,PennController,18,_Header_,End,1687281565010,603ab157b6ca3370a7c7b019,603ab157b6ca3370a7c7b019,16,blinds,critical,B,50,blinds42.jpg,blinds60.jpg,nogoal,NULL
1687281580,10bb468a3584b87cd9b513a164e453fe,PennController,19,0,experiment,NULL,Canvas,canvas6,Print,NA,1687281571114,603ab157b6ca3370a7c7b019,603ab157b6ca3370a7c7b019,16,blinds,critical,B,50,blinds42.jpg,blinds60.jpg,nogoal,NULL
1687281580,10bb468a3584b87cd9b513a164e453fe,PennController,19,0,experiment,NULL,Video,progression,buffer,0.011544,1687281566545,603ab157b6ca3370a7c7b019,603ab157b6ca3370a7c7b019,16,blinds,critical,B,50,blinds42.jpg,blinds60.jpg,nogoal,NULL
1687281580,10bb468a3584b87cd9b513a164e453fe,PennController,19,0,experiment,NULL,Selector,choice,Selection,option2,1687281572600,603ab157b6ca3370a7c7b019,603ab157b6ca3370a7c7b019,16,blinds,critical,B,50,blinds42.jpg,blinds60.jpg,nogoal,option2;option1
1687281580,10bb468a3584b87cd9b513a164e453fe,PennController,19,0,experiment,NULL,PennController,18,_Trial_,End,1687281572601,603ab157b6ca3370a7c7b019,603ab157b6ca3370a7c7b019,16,blinds,critical,B,50,blinds42.jpg,blinds60.jpg,nogoal,NULL
1687281580,10bb468a3584b87cd9b513a164e453fe,PennController,26,0,experiment,NULL,PennController,25,_Trial_,Start,1687281572602,603ab157b6ca3370a7c7b019,603ab157b6ca3370a7c7b019,23,color,filler,B,75,color65.jpg,color85.jpg,nogoal,NULL
1687281580,10bb468a3584b87cd9b513a164e453fe,PennController,26,0,experiment,NULL,PennController,25,_Header_,Start,1687281572602,603ab157b6ca3370a7c7b019,603ab157b6ca3370a7c7b019,23,color,filler,B,75,color65.jpg,color85.jpg,nogoal,NULL
1687281580,10bb468a3584b87cd9b513a164e453fe,PennController,26,0,experiment,NULL,PennController,25,_Header_,End,1687281572602,603ab157b6ca3370a7c7b019,603ab157b6ca3370a7c7b019,23,color,filler,B,75,color65.jpg,color85.jpg,nogoal,NULL
1687281580,10bb468a3584b87cd9b513a164e453fe,PennController,26,0,experiment,NULL,Canvas,canvas6,Print,NA,1687281578317,603ab157b6ca3370a7c7b019,603ab157b6ca3370a7c7b019,23,color,filler,B,75,color65.jpg,color85.jpg,nogoal,NULL
1687281580,10bb468a3584b87cd9b513a164e453fe,PennController,26,0,experiment,NULL,Video,progression,buffer,0.01602,1687281574144,603ab157b6ca3370a7c7b019,603ab157b6ca3370a7c7b019,23,color,filler,B,75,color65.jpg,color85.jpg,nogoal,NULL
1687281580,10bb468a3584b87cd9b513a164e453fe,PennController,26,0,experiment,NULL,Selector,choice,Selection,option2,1687281580097,603ab157b6ca3370a7c7b019,603ab157b6ca3370a7c7b019,23,color,filler,B,75,color65.jpg,color85.jpg,nogoal,option2;option1
1687281580,10bb468a3584b87cd9b513a164e453fe,PennController,26,0,experiment,NULL,PennController,25,_Trial_,End,1687281580099,603ab157b6ca3370a7c7b019,603ab157b6ca3370a7c7b019,23,color,filler,B,75,color65.jpg,color85.jpg,nogoal,NULL
