#
# Results on Tuesday June 20 2023 17:17:50 UTC
# USER AGENT: Mozilla/5.0 (Windows NT 10.0; Win64; x64) AppleWebKit/537.36 (KHTML, like Gecko) Chrome/114.0.0.0 Safari/537.36
# Design number was non-random = 4
#
# Columns below this comment are as follows:
# 1. Results reception time.
# 2. MD5 hash of participant's IP address.
# 3. Controller name.
# 4. Order number of item.
# 5. Inner element number.
# 6. Label.
# 7. Latin Square Group.
# 8. PennElementType.
# 9. PennElementName.
# 10. Parameter.
# 11. Value.
# 12. EventTime.
# 13. PROLIFIC_ID.
# 14. Comments.
1687281470,7df00b1c4c32e0cede7a5256677994ca,PennController,2,0,consent,NULL,PennController,0,_Trial_,Start,1687281240783,613a996383fe819b7cb48941,NULL
1687281470,7df00b1c4c32e0cede7a5256677994ca,PennController,2,0,consent,NULL,PennController,0,_Header_,Start,1687281240783,613a996383fe819b7cb48941,NULL
1687281470,7df00b1c4c32e0cede7a5256677994ca,PennController,2,0,consent,NULL,PennController,0,_Header_,End,1687281240783,613a996383fe819b7cb48941,NULL
1687281470,7df00b1c4c32e0cede7a5256677994ca,PennController,2,0,consent,NULL,PennController,0,_Trial_,End,1687281246216,613a996383fe819b7cb48941,NULL
# Columns below this comment are as follows:
# 14. ID.
# 15. Comments.
1687281470,7df00b1c4c32e0cede7a5256677994ca,PennController,3,0,intro,NULL,PennController,1,_Trial_,Start,1687281246217,613a996383fe819b7cb48941,613a996383fe819b7cb48941,NULL
1687281470,7df00b1c4c32e0cede7a5256677994ca,PennController,3,0,intro,NULL,PennController,1,_Header_,Start,1687281246217,613a996383fe819b7cb48941,613a996383fe819b7cb48941,NULL
1687281470,7df00b1c4c32e0cede7a5256677994ca,PennController,3,0,intro,NULL,PennController,1,_Header_,End,1687281246217,613a996383fe819b7cb48941,613a996383fe819b7cb48941,NULL
1687281470,7df00b1c4c32e0cede7a5256677994ca,PennController,3,0,intro,NULL,PennController,1,_Trial_,End,1687281255767,613a996383fe819b7cb48941,613a996383fe819b7cb48941,NULL
# Columns below this comment are as follows:
# 15. item_number.
# 16. item.
# 17. type.
# 18. Group.
# 19. prog.
# 20. prev_image.
# 21. next_image.
# 22. height.
# 23. Comments.
1687281470,7df00b1c4c32e0cede7a5256677994ca,PennController,20,0,experiment,NULL,PennController,19,_Trial_,Start,1687281255769,613a996383fe819b7cb48941,613a996383fe819b7cb48941,17,roll,critical,B,75,roll65.jpg,roll85.jpg,nogoal,NULL
1687281470,7df00b1c4c32e0cede7a5256677994ca,PennController,20,0,experiment,NULL,PennController,19,_Header_,Start,1687281255769,613a996383fe819b7cb48941,613a996383fe819b7cb48941,17,roll,critical,B,75,roll65.jpg,roll85.jpg,nogoal,NULL
1687281470,7df00b1c4c32e0cede7a5256677994ca,PennController,20,0,experiment,NULL,PennController,19,_Header_,End,1687281255769,613a996383fe819b7cb48941,613a996383fe819b7cb48941,17,roll,critical,B,75,roll65.jpg,roll85.jpg,nogoal,NULL
1687281470,7df00b1c4c32e0cede7a5256677994ca,PennController,20,0,experiment,NULL,Canvas,canvas6,Print,NA,1687281261449,613a996383fe819b7cb48941,613a996383fe819b7cb48941,17,roll,critical,B,75,roll65.jpg,roll85.jpg,nogoal,NULL
1687281470,7df00b1c4c32e0cede7a5256677994ca,PennController,20,0,experiment,NULL,Video,progression,buffer,0.002975,1687281257286,613a996383fe819b7cb48941,613a996383fe819b7cb48941,17,roll,critical,B,75,roll65.jpg,roll85.jpg,nogoal,NULL
1687281470,7df00b1c4c32e0cede7a5256677994ca,PennController,20,0,experiment,NULL,Selector,choice,Selection,option2,1687281267455,613a996383fe819b7cb48941,613a996383fe819b7cb48941,17,roll,critical,B,75,roll65.jpg,roll85.jpg,nogoal,option2;option1
1687281470,7df00b1c4c32e0cede7a5256677994ca,PennController,20,0,experiment,NULL,PennController,19,_Trial_,End,1687281267456,613a996383fe819b7cb48941,613a996383fe819b7cb48941,17,roll,critical,B,75,roll65.jpg,roll85.jpg,nogoal,NULL
1687281470,7df00b1c4c32e0cede7a5256677994ca,PennController,4,0,experiment,NULL,PennController,3,_Trial_,Start,1687281267457,613a996383fe819b7cb48941,613a996383fe819b7cb48941,1,vase,critical,B,50,vase40.jpg,vase60.jpg,nogoal,NULL
1687281470,7df00b1c4c32e0cede7a5256677994ca,PennController,4,0,experiment,NULL,PennController,3,_Header_,Start,1687281267457,613a996383fe819b7cb48941,613a996383fe819b7cb48941,1,vase,critical,B,50,vase40.jpg,vase60.jpg,nogoal,NULL
1687281470,7df00b1c4c32e0cede7a5256677994ca,PennController,4,0,experiment,NULL,PennController,3,_Header_,End,1687281267457,613a996383fe819b7cb48941,613a996383fe819b7cb48941,1,vase,critical,B,50,vase40.jpg,vase60.jpg,nogoal,NULL
1687281470,7df00b1c4c32e0cede7a5256677994ca,PennController,4,0,experiment,NULL,Canvas,canvas6,Print,NA,1687281272140,613a996383fe819b7cb48941,613a996383fe819b7cb48941,1,vase,critical,B,50,vase40.jpg,vase60.jpg,nogoal,NULL
1687281470,7df00b1c4c32e0cede7a5256677994ca,PennController,4,0,experiment,NULL,Video,progression,buffer,0.002109,1687281268971,613a996383fe819b7cb48941,613a996383fe819b7cb48941,1,vase,critical,B,50,vase40.jpg,vase60.jpg,nogoal,NULL
1687281470,7df00b1c4c32e0cede7a5256677994ca,PennController,4,0,experiment,NULL,Selector,choice,Selection,option2,1687281274189,613a996383fe819b7cb48941,613a996383fe819b7cb48941,1,vase,critical,B,50,vase40.jpg,vase60.jpg,nogoal,option2;option1
1687281470,7df00b1c4c32e0cede7a5256677994ca,PennController,4,0,experiment,NULL,PennController,3,_Trial_,End,1687281274189,613a996383fe819b7cb48941,613a996383fe819b7cb48941,1,vase,critical,B,50,vase40.jpg,vase60.jpg,nogoal,NULL
1687281470,7df00b1c4c32e0cede7a5256677994ca,PennController,23,0,experiment,NULL,PennController,22,_Trial_,Start,1687281274191,613a996383fe819b7cb48941,613a996383fe819b7cb48941,20,cat,filler,B,75,cat65.jpg,cat85.jpg,nogoal,NULL
1687281470,7df00b1c4c32e0cede7a5256677994ca,PennController,23,0,experiment,NULL,PennController,22,_Header_,Start,1687281274191,613a996383fe819b7cb48941,613a996383fe819b7cb48941,20,cat,filler,B,75,cat65.jpg,cat85.jpg,nogoal,NULL
1687281470,7df00b1c4c32e0cede7a5256677994ca,PennController,23,0,experiment,NULL,PennController,22,_Header_,End,1687281274191,613a996383fe819b7cb48941,613a996383fe819b7cb48941,20,cat,filler,B,75,cat65.jpg,cat85.jpg,nogoal,NULL
1687281470,7df00b1c4c32e0cede7a5256677994ca,PennController,23,0,experiment,NULL,Canvas,canvas6,Print,NA,1687281279865,613a996383fe819b7cb48941,613a996383fe819b7cb48941,20,cat,filler,B,75,cat65.jpg,cat85.jpg,nogoal,NULL
1687281470,7df00b1c4c32e0cede7a5256677994ca,PennController,23,0,experiment,NULL,Video,progression,buffer,0.002005,1687281275702,613a996383fe819b7cb48941,613a996383fe819b7cb48941,20,cat,filler,B,75,cat65.jpg,cat85.jpg,nogoal,NULL
1687281470,7df00b1c4c32e0cede7a5256677994ca,PennController,23,0,experiment,NULL,Selector,choice,Selection,option2,1687281282916,613a996383fe819b7cb48941,613a996383fe819b7cb48941,20,cat,filler,B,75,cat65.jpg,cat85.jpg,nogoal,option1;option2
1687281470,7df00b1c4c32e0cede7a5256677994ca,PennController,23,0,experiment,NULL,PennController,22,_Trial_,End,1687281282917,613a996383fe819b7cb48941,613a996383fe819b7cb48941,20,cat,filler,B,75,cat65.jpg,cat85.jpg,nogoal,NULL
1687281470,7df00b1c4c32e0cede7a5256677994ca,PennController,24,0,experiment,NULL,PennController,23,_Trial_,Start,1687281282918,613a996383fe819b7cb48941,613a996383fe819b7cb48941,21,visit,filler,B,25,visit15.jpg,visit35.jpg,nogoal,NULL
1687281470,7df00b1c4c32e0cede7a5256677994ca,PennController,24,0,experiment,NULL,PennController,23,_Header_,Start,1687281282918,613a996383fe819b7cb48941,613a996383fe819b7cb48941,21,visit,filler,B,25,visit15.jpg,visit35.jpg,nogoal,NULL
1687281470,7df00b1c4c32e0cede7a5256677994ca,PennController,24,0,experiment,NULL,PennController,23,_Header_,End,1687281282918,613a996383fe819b7cb48941,613a996383fe819b7cb48941,21,visit,filler,B,25,visit15.jpg,visit35.jpg,nogoal,NULL
1687281470,7df00b1c4c32e0cede7a5256677994ca,PennController,24,0,experiment,NULL,Canvas,canvas6,Print,NA,1687281286591,613a996383fe819b7cb48941,613a996383fe819b7cb48941,21,visit,filler,B,25,visit15.jpg,visit35.jpg,nogoal,NULL
1687281470,7df00b1c4c32e0cede7a5256677994ca,PennController,24,0,experiment,NULL,Video,progression,buffer,0.001722,1687281284432,613a996383fe819b7cb48941,613a996383fe819b7cb48941,21,visit,filler,B,25,visit15.jpg,visit35.jpg,nogoal,NULL
1687281470,7df00b1c4c32e0cede7a5256677994ca,PennController,24,0,experiment,NULL,Selector,choice,Selection,option2,1687281288822,613a996383fe819b7cb48941,613a996383fe819b7cb48941,21,visit,filler,B,25,visit15.jpg,visit35.jpg,nogoal,option2;option1
1687281470,7df00b1c4c32e0cede7a5256677994ca,PennController,24,0,experiment,NULL,PennController,23,_Trial_,End,1687281288822,613a996383fe819b7cb48941,613a996383fe819b7cb48941,21,visit,filler,B,25,visit15.jpg,visit35.jpg,nogoal,NULL
1687281470,7df00b1c4c32e0cede7a5256677994ca,PennController,6,0,experiment,NULL,PennController,5,_Trial_,Start,1687281288823,613a996383fe819b7cb48941,613a996383fe819b7cb48941,3,clean,critical,B,25,clean15.jpg,clean35.jpg,nogoal,NULL
1687281470,7df00b1c4c32e0cede7a5256677994ca,PennController,6,0,experiment,NULL,PennController,5,_Header_,Start,1687281288823,613a996383fe819b7cb48941,613a996383fe819b7cb48941,3,clean,critical,B,25,clean15.jpg,clean35.jpg,nogoal,NULL
1687281470,7df00b1c4c32e0cede7a5256677994ca,PennController,6,0,experiment,NULL,PennController,5,_Header_,End,1687281288823,613a996383fe819b7cb48941,613a996383fe819b7cb48941,3,clean,critical,B,25,clean15.jpg,clean35.jpg,nogoal,NULL
1687281470,7df00b1c4c32e0cede7a5256677994ca,PennController,6,0,experiment,NULL,Canvas,canvas6,Print,NA,1687281292500,613a996383fe819b7cb48941,613a996383fe819b7cb48941,3,clean,critical,B,25,clean15.jpg,clean35.jpg,nogoal,NULL
1687281470,7df00b1c4c32e0cede7a5256677994ca,PennController,6,0,experiment,NULL,Video,progression,buffer,0.002683,1687281290335,613a996383fe819b7cb48941,613a996383fe819b7cb48941,3,clean,critical,B,25,clean15.jpg,clean35.jpg,nogoal,NULL
1687281470,7df00b1c4c32e0cede7a5256677994ca,PennController,6,0,experiment,NULL,Selector,choice,Selection,option2,1687281294638,613a996383fe819b7cb48941,613a996383fe819b7cb48941,3,clean,critical,B,25,clean15.jpg,clean35.jpg,nogoal,option2;option1
1687281470,7df00b1c4c32e0cede7a5256677994ca,PennController,6,0,experiment,NULL,PennController,5,_Trial_,End,1687281294639,613a996383fe819b7cb48941,613a996383fe819b7cb48941,3,clean,critical,B,25,clean15.jpg,clean35.jpg,nogoal,NULL
1687281470,7df00b1c4c32e0cede7a5256677994ca,PennController,15,0,experiment,NULL,PennController,14,_Trial_,Start,1687281294640,613a996383fe819b7cb48941,613a996383fe819b7cb48941,12,erase,critical,B,25,erase15.jpg,erase33.jpg,nogoal,NULL
1687281470,7df00b1c4c32e0cede7a5256677994ca,PennController,15,0,experiment,NULL,PennController,14,_Header_,Start,1687281294640,613a996383fe819b7cb48941,613a996383fe819b7cb48941,12,erase,critical,B,25,erase15.jpg,erase33.jpg,nogoal,NULL
1687281470,7df00b1c4c32e0cede7a5256677994ca,PennController,15,0,experiment,NULL,PennController,14,_Header_,End,1687281294640,613a996383fe819b7cb48941,613a996383fe819b7cb48941,12,erase,critical,B,25,erase15.jpg,erase33.jpg,nogoal,NULL
1687281470,7df00b1c4c32e0cede7a5256677994ca,PennController,15,0,experiment,NULL,Canvas,canvas6,Print,NA,1687281298912,613a996383fe819b7cb48941,613a996383fe819b7cb48941,12,erase,critical,B,25,erase15.jpg,erase33.jpg,nogoal,NULL
1687281470,7df00b1c4c32e0cede7a5256677994ca,PennController,15,0,experiment,NULL,Video,progression,buffer,0.002432,1687281296151,613a996383fe819b7cb48941,613a996383fe819b7cb48941,12,erase,critical,B,25,erase15.jpg,erase33.jpg,nogoal,NULL
1687281470,7df00b1c4c32e0cede7a5256677994ca,PennController,15,0,experiment,NULL,Selector,choice,Selection,option2,1687281301869,613a996383fe819b7cb48941,613a996383fe819b7cb48941,12,erase,critical,B,25,erase15.jpg,erase33.jpg,nogoal,option2;option1
1687281470,7df00b1c4c32e0cede7a5256677994ca,PennController,15,0,experiment,NULL,PennController,14,_Trial_,End,1687281301869,613a996383fe819b7cb48941,613a996383fe819b7cb48941,12,erase,critical,B,25,erase15.jpg,erase33.jpg,nogoal,NULL
1687281470,7df00b1c4c32e0cede7a5256677994ca,PennController,11,0,experiment,NULL,PennController,10,_Trial_,Start,1687281301870,613a996383fe819b7cb48941,613a996383fe819b7cb48941,8,cucumber,critical,B,75,cucumber66.jpg,cucumber84.jpg,nogoal,NULL
1687281470,7df00b1c4c32e0cede7a5256677994ca,PennController,11,0,experiment,NULL,PennController,10,_Header_,Start,1687281301870,613a996383fe819b7cb48941,613a996383fe819b7cb48941,8,cucumber,critical,B,75,cucumber66.jpg,cucumber84.jpg,nogoal,NULL
1687281470,7df00b1c4c32e0cede7a5256677994ca,PennController,11,0,experiment,NULL,PennController,10,_Header_,End,1687281301870,613a996383fe819b7cb48941,613a996383fe819b7cb48941,8,cucumber,critical,B,75,cucumber66.jpg,cucumber84.jpg,nogoal,NULL
1687281470,7df00b1c4c32e0cede7a5256677994ca,PennController,11,0,experiment,NULL,Canvas,canvas6,Print,NA,1687281309533,613a996383fe819b7cb48941,613a996383fe819b7cb48941,8,cucumber,critical,B,75,cucumber66.jpg,cucumber84.jpg,nogoal,NULL
1687281470,7df00b1c4c32e0cede7a5256677994ca,PennController,11,0,experiment,NULL,Video,progression,buffer,0.002053,1687281303385,613a996383fe819b7cb48941,613a996383fe819b7cb48941,8,cucumber,critical,B,75,cucumber66.jpg,cucumber84.jpg,nogoal,NULL
1687281470,7df00b1c4c32e0cede7a5256677994ca,PennController,11,0,experiment,NULL,Selector,choice,Selection,option2,1687281313408,613a996383fe819b7cb48941,613a996383fe819b7cb48941,8,cucumber,critical,B,75,cucumber66.jpg,cucumber84.jpg,nogoal,option2;option1
1687281470,7df00b1c4c32e0cede7a5256677994ca,PennController,11,0,experiment,NULL,PennController,10,_Trial_,End,1687281313409,613a996383fe819b7cb48941,613a996383fe819b7cb48941,8,cucumber,critical,B,75,cucumber66.jpg,cucumber84.jpg,nogoal,NULL
1687281470,7df00b1c4c32e0cede7a5256677994ca,PennController,13,0,experiment,NULL,PennController,12,_Trial_,Start,1687281313410,613a996383fe819b7cb48941,613a996383fe819b7cb48941,10,train,critical,B,50,train40.jpg,train60.jpg,nogoal,NULL
1687281470,7df00b1c4c32e0cede7a5256677994ca,PennController,13,0,experiment,NULL,PennController,12,_Header_,Start,1687281313410,613a996383fe819b7cb48941,613a996383fe819b7cb48941,10,train,critical,B,50,train40.jpg,train60.jpg,nogoal,NULL
1687281470,7df00b1c4c32e0cede7a5256677994ca,PennController,13,0,experiment,NULL,PennController,12,_Header_,End,1687281313410,613a996383fe819b7cb48941,613a996383fe819b7cb48941,10,train,critical,B,50,train40.jpg,train60.jpg,nogoal,NULL
1687281470,7df00b1c4c32e0cede7a5256677994ca,PennController,13,0,experiment,NULL,Canvas,canvas6,Print,NA,1687281318075,613a996383fe819b7cb48941,613a996383fe819b7cb48941,10,train,critical,B,50,train40.jpg,train60.jpg,nogoal,NULL
1687281470,7df00b1c4c32e0cede7a5256677994ca,PennController,13,0,experiment,NULL,Video,progression,buffer,0.001807,1687281314923,613a996383fe819b7cb48941,613a996383fe819b7cb48941,10,train,critical,B,50,train40.jpg,train60.jpg,nogoal,NULL
1687281470,7df00b1c4c32e0cede7a5256677994ca,PennController,13,0,experiment,NULL,Selector,choice,Selection,option1,1687281320175,613a996383fe819b7cb48941,613a996383fe819b7cb48941,10,train,critical,B,50,train40.jpg,train60.jpg,nogoal,option2;option1
1687281470,7df00b1c4c32e0cede7a5256677994ca,PennController,13,0,experiment,NULL,PennController,12,_Trial_,End,1687281320176,613a996383fe819b7cb48941,613a996383fe819b7cb48941,10,train,critical,B,50,train40.jpg,train60.jpg,nogoal,NULL
1687281470,7df00b1c4c32e0cede7a5256677994ca,PennController,21,0,experiment,NULL,PennController,20,_Trial_,Start,1687281320177,613a996383fe819b7cb48941,613a996383fe819b7cb48941,18,ball,critical,B,25,ball15.jpg,ball35.jpg,nogoal,NULL
1687281470,7df00b1c4c32e0cede7a5256677994ca,PennController,21,0,experiment,NULL,PennController,20,_Header_,Start,1687281320177,613a996383fe819b7cb48941,613a996383fe819b7cb48941,18,ball,critical,B,25,ball15.jpg,ball35.jpg,nogoal,NULL
1687281470,7df00b1c4c32e0cede7a5256677994ca,PennController,21,0,experiment,NULL,PennController,20,_Header_,End,1687281320177,613a996383fe819b7cb48941,613a996383fe819b7cb48941,18,ball,critical,B,25,ball15.jpg,ball35.jpg,nogoal,NULL
1687281470,7df00b1c4c32e0cede7a5256677994ca,PennController,21,0,experiment,NULL,Canvas,canvas6,Print,NA,1687281323855,613a996383fe819b7cb48941,613a996383fe819b7cb48941,18,ball,critical,B,25,ball15.jpg,ball35.jpg,nogoal,NULL
1687281470,7df00b1c4c32e0cede7a5256677994ca,PennController,21,0,experiment,NULL,Video,progression,buffer,0.00186,1687281321684,613a996383fe819b7cb48941,613a996383fe819b7cb48941,18,ball,critical,B,25,ball15.jpg,ball35.jpg,nogoal,NULL
1687281470,7df00b1c4c32e0cede7a5256677994ca,PennController,21,0,experiment,NULL,Selector,choice,Selection,option2,1687281326125,613a996383fe819b7cb48941,613a996383fe819b7cb48941,18,ball,critical,B,25,ball15.jpg,ball35.jpg,nogoal,option1;option2
1687281470,7df00b1c4c32e0cede7a5256677994ca,PennController,21,0,experiment,NULL,PennController,20,_Trial_,End,1687281326126,613a996383fe819b7cb48941,613a996383fe819b7cb48941,18,ball,critical,B,25,ball15.jpg,ball35.jpg,nogoal,NULL
1687281470,7df00b1c4c32e0cede7a5256677994ca,PennController,16,0,experiment,NULL,PennController,15,_Trial_,Start,1687281326127,613a996383fe819b7cb48941,613a996383fe819b7cb48941,13,mix,critical,B,50,mix40.jpg,mix60.jpg,nogoal,NULL
1687281470,7df00b1c4c32e0cede7a5256677994ca,PennController,16,0,experiment,NULL,PennController,15,_Header_,Start,1687281326127,613a996383fe819b7cb48941,613a996383fe819b7cb48941,13,mix,critical,B,50,mix40.jpg,mix60.jpg,nogoal,NULL
1687281470,7df00b1c4c32e0cede7a5256677994ca,PennController,16,0,experiment,NULL,PennController,15,_Header_,End,1687281326127,613a996383fe819b7cb48941,613a996383fe819b7cb48941,13,mix,critical,B,50,mix40.jpg,mix60.jpg,nogoal,NULL
1687281470,7df00b1c4c32e0cede7a5256677994ca,PennController,16,0,experiment,NULL,Canvas,canvas6,Print,NA,1687281330797,613a996383fe819b7cb48941,613a996383fe819b7cb48941,13,mix,critical,B,50,mix40.jpg,mix60.jpg,nogoal,NULL
1687281470,7df00b1c4c32e0cede7a5256677994ca,PennController,16,0,experiment,NULL,Video,progression,buffer,0.001779,1687281327636,613a996383fe819b7cb48941,613a996383fe819b7cb48941,13,mix,critical,B,50,mix40.jpg,mix60.jpg,nogoal,NULL
1687281470,7df00b1c4c32e0cede7a5256677994ca,PennController,16,0,experiment,NULL,Selector,choice,Selection,option2,1687281336069,613a996383fe819b7cb48941,613a996383fe819b7cb48941,13,mix,critical,B,50,mix40.jpg,mix60.jpg,nogoal,option2;option1
1687281470,7df00b1c4c32e0cede7a5256677994ca,PennController,16,0,experiment,NULL,PennController,15,_Trial_,End,1687281336069,613a996383fe819b7cb48941,613a996383fe819b7cb48941,13,mix,critical,B,50,mix40.jpg,mix60.jpg,nogoal,NULL
1687281470,7df00b1c4c32e0cede7a5256677994ca,PennController,26,0,experiment,NULL,PennController,25,_Trial_,Start,1687281336070,613a996383fe819b7cb48941,613a996383fe819b7cb48941,23,color,filler,B,75,color65.jpg,color85.jpg,nogoal,NULL
1687281470,7df00b1c4c32e0cede7a5256677994ca,PennController,26,0,experiment,NULL,PennController,25,_Header_,Start,1687281336070,613a996383fe819b7cb48941,613a996383fe819b7cb48941,23,color,filler,B,75,color65.jpg,color85.jpg,nogoal,NULL
1687281470,7df00b1c4c32e0cede7a5256677994ca,PennController,26,0,experiment,NULL,PennController,25,_Header_,End,1687281336070,613a996383fe819b7cb48941,613a996383fe819b7cb48941,23,color,filler,B,75,color65.jpg,color85.jpg,nogoal,NULL
1687281470,7df00b1c4c32e0cede7a5256677994ca,PennController,26,0,experiment,NULL,Canvas,canvas6,Print,NA,1687281341738,613a996383fe819b7cb48941,613a996383fe819b7cb48941,23,color,filler,B,75,color65.jpg,color85.jpg,nogoal,NULL
1687281470,7df00b1c4c32e0cede7a5256677994ca,PennController,26,0,experiment,NULL,Video,progression,buffer,0.001904,1687281337579,613a996383fe819b7cb48941,613a996383fe819b7cb48941,23,color,filler,B,75,color65.jpg,color85.jpg,nogoal,NULL
1687281470,7df00b1c4c32e0cede7a5256677994ca,PennController,26,0,experiment,NULL,Selector,choice,Selection,option1,1687281345889,613a996383fe819b7cb48941,613a996383fe819b7cb48941,23,color,filler,B,75,color65.jpg,color85.jpg,nogoal,option2;option1
1687281470,7df00b1c4c32e0cede7a5256677994ca,PennController,26,0,experiment,NULL,PennController,25,_Trial_,End,1687281345890,613a996383fe819b7cb48941,613a996383fe819b7cb48941,23,color,filler,B,75,color65.jpg,color85.jpg,nogoal,NULL
1687281470,7df00b1c4c32e0cede7a5256677994ca,PennController,18,0,experiment,NULL,PennController,17,_Trial_,Start,1687281345890,613a996383fe819b7cb48941,613a996383fe819b7cb48941,15,zip,critical,B,25,zip15.jpg,zip35.jpg,nogoal,NULL
1687281470,7df00b1c4c32e0cede7a5256677994ca,PennController,18,0,experiment,NULL,PennController,17,_Header_,Start,1687281345890,613a996383fe819b7cb48941,613a996383fe819b7cb48941,15,zip,critical,B,25,zip15.jpg,zip35.jpg,nogoal,NULL
1687281470,7df00b1c4c32e0cede7a5256677994ca,PennController,18,0,experiment,NULL,PennController,17,_Header_,End,1687281345890,613a996383fe819b7cb48941,613a996383fe819b7cb48941,15,zip,critical,B,25,zip15.jpg,zip35.jpg,nogoal,NULL
1687281470,7df00b1c4c32e0cede7a5256677994ca,PennController,18,0,experiment,NULL,Canvas,canvas6,Print,NA,1687281349560,613a996383fe819b7cb48941,613a996383fe819b7cb48941,15,zip,critical,B,25,zip15.jpg,zip35.jpg,nogoal,NULL
1687281470,7df00b1c4c32e0cede7a5256677994ca,PennController,18,0,experiment,NULL,Video,progression,buffer,0.001792,1687281347399,613a996383fe819b7cb48941,613a996383fe819b7cb48941,15,zip,critical,B,25,zip15.jpg,zip35.jpg,nogoal,NULL
1687281470,7df00b1c4c32e0cede7a5256677994ca,PennController,18,0,experiment,NULL,Selector,choice,Selection,option1,1687281351887,613a996383fe819b7cb48941,613a996383fe819b7cb48941,15,zip,critical,B,25,zip15.jpg,zip35.jpg,nogoal,option1;option2
1687281470,7df00b1c4c32e0cede7a5256677994ca,PennController,18,0,experiment,NULL,PennController,17,_Trial_,End,1687281351887,613a996383fe819b7cb48941,613a996383fe819b7cb48941,15,zip,critical,B,25,zip15.jpg,zip35.jpg,nogoal,NULL
1687281470,7df00b1c4c32e0cede7a5256677994ca,PennController,29,0,experiment,NULL,PennController,28,_Trial_,Start,1687281351888,613a996383fe819b7cb48941,613a996383fe819b7cb48941,26,sandwich,filler,B,75,sandwich65.jpg,sandwich85.jpg,nogoal,NULL
1687281470,7df00b1c4c32e0cede7a5256677994ca,PennController,29,0,experiment,NULL,PennController,28,_Header_,Start,1687281351888,613a996383fe819b7cb48941,613a996383fe819b7cb48941,26,sandwich,filler,B,75,sandwich65.jpg,sandwich85.jpg,nogoal,NULL
1687281470,7df00b1c4c32e0cede7a5256677994ca,PennController,29,0,experiment,NULL,PennController,28,_Header_,End,1687281351888,613a996383fe819b7cb48941,613a996383fe819b7cb48941,26,sandwich,filler,B,75,sandwich65.jpg,sandwich85.jpg,nogoal,NULL
1687281470,7df00b1c4c32e0cede7a5256677994ca,PennController,29,0,experiment,NULL,Canvas,canvas6,Print,NA,1687281357558,613a996383fe819b7cb48941,613a996383fe819b7cb48941,26,sandwich,filler,B,75,sandwich65.jpg,sandwich85.jpg,nogoal,NULL
1687281470,7df00b1c4c32e0cede7a5256677994ca,PennController,29,0,experiment,NULL,Video,progression,buffer,0.001786,1687281353399,613a996383fe819b7cb48941,613a996383fe819b7cb48941,26,sandwich,filler,B,75,sandwich65.jpg,sandwich85.jpg,nogoal,NULL
1687281470,7df00b1c4c32e0cede7a5256677994ca,PennController,29,0,experiment,NULL,Selector,choice,Selection,option1,1687281359290,613a996383fe819b7cb48941,613a996383fe819b7cb48941,26,sandwich,filler,B,75,sandwich65.jpg,sandwich85.jpg,nogoal,option1;option2
1687281470,7df00b1c4c32e0cede7a5256677994ca,PennController,29,0,experiment,NULL,PennController,28,_Trial_,End,1687281359291,613a996383fe819b7cb48941,613a996383fe819b7cb48941,26,sandwich,filler,B,75,sandwich65.jpg,sandwich85.jpg,nogoal,NULL
1687281470,7df00b1c4c32e0cede7a5256677994ca,PennController,8,0,experiment,NULL,PennController,7,_Trial_,Start,1687281359292,613a996383fe819b7cb48941,613a996383fe819b7cb48941,5,book,critical,B,75,book65.jpg,book85.jpg,nogoal,NULL
1687281470,7df00b1c4c32e0cede7a5256677994ca,PennController,8,0,experiment,NULL,PennController,7,_Header_,Start,1687281359292,613a996383fe819b7cb48941,613a996383fe819b7cb48941,5,book,critical,B,75,book65.jpg,book85.jpg,nogoal,NULL
1687281470,7df00b1c4c32e0cede7a5256677994ca,PennController,8,0,experiment,NULL,PennController,7,_Header_,End,1687281359292,613a996383fe819b7cb48941,613a996383fe819b7cb48941,5,book,critical,B,75,book65.jpg,book85.jpg,nogoal,NULL
1687281470,7df00b1c4c32e0cede7a5256677994ca,PennController,8,0,experiment,NULL,Canvas,canvas6,Print,NA,1687281364964,613a996383fe819b7cb48941,613a996383fe819b7cb48941,5,book,critical,B,75,book65.jpg,book85.jpg,nogoal,NULL
1687281470,7df00b1c4c32e0cede7a5256677994ca,PennController,8,0,experiment,NULL,Video,progression,buffer,0.002036,1687281360803,613a996383fe819b7cb48941,613a996383fe819b7cb48941,5,book,critical,B,75,book65.jpg,book85.jpg,nogoal,NULL
1687281470,7df00b1c4c32e0cede7a5256677994ca,PennController,8,0,experiment,NULL,Selector,choice,Selection,option1,1687281367127,613a996383fe819b7cb48941,613a996383fe819b7cb48941,5,book,critical,B,75,book65.jpg,book85.jpg,nogoal,option2;option1
1687281470,7df00b1c4c32e0cede7a5256677994ca,PennController,8,0,experiment,NULL,PennController,7,_Trial_,End,1687281367127,613a996383fe819b7cb48941,613a996383fe819b7cb48941,5,book,critical,B,75,book65.jpg,book85.jpg,nogoal,NULL
1687281470,7df00b1c4c32e0cede7a5256677994ca,PennController,25,0,experiment,NULL,PennController,24,_Trial_,Start,1687281367128,613a996383fe819b7cb48941,613a996383fe819b7cb48941,22,wall,filler,B,50,wall40.jpg,wall60.jpg,nogoal,NULL
1687281470,7df00b1c4c32e0cede7a5256677994ca,PennController,25,0,experiment,NULL,PennController,24,_Header_,Start,1687281367128,613a996383fe819b7cb48941,613a996383fe819b7cb48941,22,wall,filler,B,50,wall40.jpg,wall60.jpg,nogoal,NULL
1687281470,7df00b1c4c32e0cede7a5256677994ca,PennController,25,0,experiment,NULL,PennController,24,_Header_,End,1687281367128,613a996383fe819b7cb48941,613a996383fe819b7cb48941,22,wall,filler,B,50,wall40.jpg,wall60.jpg,nogoal,NULL
1687281470,7df00b1c4c32e0cede7a5256677994ca,PennController,25,0,experiment,NULL,Canvas,canvas6,Print,NA,1687281371806,613a996383fe819b7cb48941,613a996383fe819b7cb48941,22,wall,filler,B,50,wall40.jpg,wall60.jpg,nogoal,NULL
1687281470,7df00b1c4c32e0cede7a5256677994ca,PennController,25,0,experiment,NULL,Video,progression,buffer,0.002785,1687281368642,613a996383fe819b7cb48941,613a996383fe819b7cb48941,22,wall,filler,B,50,wall40.jpg,wall60.jpg,nogoal,NULL
1687281470,7df00b1c4c32e0cede7a5256677994ca,PennController,25,0,experiment,NULL,Selector,choice,Selection,option2,1687281374012,613a996383fe819b7cb48941,613a996383fe819b7cb48941,22,wall,filler,B,50,wall40.jpg,wall60.jpg,nogoal,option2;option1
1687281470,7df00b1c4c32e0cede7a5256677994ca,PennController,25,0,experiment,NULL,PennController,24,_Trial_,End,1687281374013,613a996383fe819b7cb48941,613a996383fe819b7cb48941,22,wall,filler,B,50,wall40.jpg,wall60.jpg,nogoal,NULL
1687281470,7df00b1c4c32e0cede7a5256677994ca,PennController,22,0,experiment,NULL,PennController,21,_Trial_,Start,1687281374013,613a996383fe819b7cb48941,613a996383fe819b7cb48941,19,cup,filler,B,50,cup40.jpg,cup60.jpg,nogoal,NULL
1687281470,7df00b1c4c32e0cede7a5256677994ca,PennController,22,0,experiment,NULL,PennController,21,_Header_,Start,1687281374013,613a996383fe819b7cb48941,613a996383fe819b7cb48941,19,cup,filler,B,50,cup40.jpg,cup60.jpg,nogoal,NULL
1687281470,7df00b1c4c32e0cede7a5256677994ca,PennController,22,0,experiment,NULL,PennController,21,_Header_,End,1687281374013,613a996383fe819b7cb48941,613a996383fe819b7cb48941,19,cup,filler,B,50,cup40.jpg,cup60.jpg,nogoal,NULL
1687281470,7df00b1c4c32e0cede7a5256677994ca,PennController,22,0,experiment,NULL,Canvas,canvas6,Print,NA,1687281378682,613a996383fe819b7cb48941,613a996383fe819b7cb48941,19,cup,filler,B,50,cup40.jpg,cup60.jpg,nogoal,NULL
1687281470,7df00b1c4c32e0cede7a5256677994ca,PennController,22,0,experiment,NULL,Video,progression,buffer,0.002909,1687281375529,613a996383fe819b7cb48941,613a996383fe819b7cb48941,19,cup,filler,B,50,cup40.jpg,cup60.jpg,nogoal,NULL
1687281470,7df00b1c4c32e0cede7a5256677994ca,PennController,22,0,experiment,NULL,Selector,choice,Selection,option1,1687281380611,613a996383fe819b7cb48941,613a996383fe819b7cb48941,19,cup,filler,B,50,cup40.jpg,cup60.jpg,nogoal,option1;option2
1687281470,7df00b1c4c32e0cede7a5256677994ca,PennController,22,0,experiment,NULL,PennController,21,_Trial_,End,1687281380612,613a996383fe819b7cb48941,613a996383fe819b7cb48941,19,cup,filler,B,50,cup40.jpg,cup60.jpg,nogoal,NULL
1687281470,7df00b1c4c32e0cede7a5256677994ca,PennController,17,0,experiment,NULL,PennController,16,_Trial_,Start,1687281380613,613a996383fe819b7cb48941,613a996383fe819b7cb48941,14,cover,critical,B,75,cover66.jpg,cover84.jpg,nogoal,NULL
1687281470,7df00b1c4c32e0cede7a5256677994ca,PennController,17,0,experiment,NULL,PennController,16,_Header_,Start,1687281380613,613a996383fe819b7cb48941,613a996383fe819b7cb48941,14,cover,critical,B,75,cover66.jpg,cover84.jpg,nogoal,NULL
1687281470,7df00b1c4c32e0cede7a5256677994ca,PennController,17,0,experiment,NULL,PennController,16,_Header_,End,1687281380613,613a996383fe819b7cb48941,613a996383fe819b7cb48941,14,cover,critical,B,75,cover66.jpg,cover84.jpg,nogoal,NULL
1687281470,7df00b1c4c32e0cede7a5256677994ca,PennController,17,0,experiment,NULL,Canvas,canvas6,Print,NA,1687281388275,613a996383fe819b7cb48941,613a996383fe819b7cb48941,14,cover,critical,B,75,cover66.jpg,cover84.jpg,nogoal,NULL
1687281470,7df00b1c4c32e0cede7a5256677994ca,PennController,17,0,experiment,NULL,Video,progression,buffer,0.00172,1687281382125,613a996383fe819b7cb48941,613a996383fe819b7cb48941,14,cover,critical,B,75,cover66.jpg,cover84.jpg,nogoal,NULL
1687281470,7df00b1c4c32e0cede7a5256677994ca,PennController,17,0,experiment,NULL,Selector,choice,Selection,option1,1687281390224,613a996383fe819b7cb48941,613a996383fe819b7cb48941,14,cover,critical,B,75,cover66.jpg,cover84.jpg,nogoal,option1;option2
1687281470,7df00b1c4c32e0cede7a5256677994ca,PennController,17,0,experiment,NULL,PennController,16,_Trial_,End,1687281390225,613a996383fe819b7cb48941,613a996383fe819b7cb48941,14,cover,critical,B,75,cover66.jpg,cover84.jpg,nogoal,NULL
1687281470,7df00b1c4c32e0cede7a5256677994ca,PennController,32,0,experiment,NULL,PennController,31,_Trial_,Start,1687281390226,613a996383fe819b7cb48941,613a996383fe819b7cb48941,29,frog,filler,B,75,frog65.jpg,frog85.jpg,nogoal,NULL
1687281470,7df00b1c4c32e0cede7a5256677994ca,PennController,32,0,experiment,NULL,PennController,31,_Header_,Start,1687281390226,613a996383fe819b7cb48941,613a996383fe819b7cb48941,29,frog,filler,B,75,frog65.jpg,frog85.jpg,nogoal,NULL
1687281470,7df00b1c4c32e0cede7a5256677994ca,PennController,32,0,experiment,NULL,PennController,31,_Header_,End,1687281390226,613a996383fe819b7cb48941,613a996383fe819b7cb48941,29,frog,filler,B,75,frog65.jpg,frog85.jpg,nogoal,NULL
1687281470,7df00b1c4c32e0cede7a5256677994ca,PennController,32,0,experiment,NULL,Canvas,canvas6,Print,NA,1687281395900,613a996383fe819b7cb48941,613a996383fe819b7cb48941,29,frog,filler,B,75,frog65.jpg,frog85.jpg,nogoal,NULL
1687281470,7df00b1c4c32e0cede7a5256677994ca,PennController,32,0,experiment,NULL,Video,progression,buffer,0.0018,1687281391734,613a996383fe819b7cb48941,613a996383fe819b7cb48941,29,frog,filler,B,75,frog65.jpg,frog85.jpg,nogoal,NULL
1687281470,7df00b1c4c32e0cede7a5256677994ca,PennController,32,0,experiment,NULL,Selector,choice,Selection,option2,1687281397519,613a996383fe819b7cb48941,613a996383fe819b7cb48941,29,frog,filler,B,75,frog65.jpg,frog85.jpg,nogoal,option2;option1
1687281470,7df00b1c4c32e0cede7a5256677994ca,PennController,32,0,experiment,NULL,PennController,31,_Trial_,End,1687281397519,613a996383fe819b7cb48941,613a996383fe819b7cb48941,29,frog,filler,B,75,frog65.jpg,frog85.jpg,nogoal,NULL
1687281470,7df00b1c4c32e0cede7a5256677994ca,PennController,30,0,experiment,NULL,PennController,29,_Trial_,Start,1687281397520,613a996383fe819b7cb48941,613a996383fe819b7cb48941,27,square,filler,B,25,square15.jpg,square35.jpg,nogoal,NULL
1687281470,7df00b1c4c32e0cede7a5256677994ca,PennController,30,0,experiment,NULL,PennController,29,_Header_,Start,1687281397520,613a996383fe819b7cb48941,613a996383fe819b7cb48941,27,square,filler,B,25,square15.jpg,square35.jpg,nogoal,NULL
1687281470,7df00b1c4c32e0cede7a5256677994ca,PennController,30,0,experiment,NULL,PennController,29,_Header_,End,1687281397520,613a996383fe819b7cb48941,613a996383fe819b7cb48941,27,square,filler,B,25,square15.jpg,square35.jpg,nogoal,NULL
1687281470,7df00b1c4c32e0cede7a5256677994ca,PennController,30,0,experiment,NULL,Canvas,canvas6,Print,NA,1687281401197,613a996383fe819b7cb48941,613a996383fe819b7cb48941,27,square,filler,B,25,square15.jpg,square35.jpg,nogoal,NULL
1687281470,7df00b1c4c32e0cede7a5256677994ca,PennController,30,0,experiment,NULL,Video,progression,buffer,0.00172,1687281399034,613a996383fe819b7cb48941,613a996383fe819b7cb48941,27,square,filler,B,25,square15.jpg,square35.jpg,nogoal,NULL
1687281470,7df00b1c4c32e0cede7a5256677994ca,PennController,30,0,experiment,NULL,Selector,choice,Selection,option2,1687281402925,613a996383fe819b7cb48941,613a996383fe819b7cb48941,27,square,filler,B,25,square15.jpg,square35.jpg,nogoal,option1;option2
1687281470,7df00b1c4c32e0cede7a5256677994ca,PennController,30,0,experiment,NULL,PennController,29,_Trial_,End,1687281402926,613a996383fe819b7cb48941,613a996383fe819b7cb48941,27,square,filler,B,25,square15.jpg,square35.jpg,nogoal,NULL
1687281470,7df00b1c4c32e0cede7a5256677994ca,PennController,31,0,experiment,NULL,PennController,30,_Trial_,Start,1687281402927,613a996383fe819b7cb48941,613a996383fe819b7cb48941,28,sort,filler,B,50,sort40.jpg,sort60.jpg,nogoal,NULL
1687281470,7df00b1c4c32e0cede7a5256677994ca,PennController,31,0,experiment,NULL,PennController,30,_Header_,Start,1687281402927,613a996383fe819b7cb48941,613a996383fe819b7cb48941,28,sort,filler,B,50,sort40.jpg,sort60.jpg,nogoal,NULL
1687281470,7df00b1c4c32e0cede7a5256677994ca,PennController,31,0,experiment,NULL,PennController,30,_Header_,End,1687281402927,613a996383fe819b7cb48941,613a996383fe819b7cb48941,28,sort,filler,B,50,sort40.jpg,sort60.jpg,nogoal,NULL
1687281470,7df00b1c4c32e0cede7a5256677994ca,PennController,31,0,experiment,NULL,Canvas,canvas6,Print,NA,1687281407608,613a996383fe819b7cb48941,613a996383fe819b7cb48941,28,sort,filler,B,50,sort40.jpg,sort60.jpg,nogoal,NULL
1687281470,7df00b1c4c32e0cede7a5256677994ca,PennController,31,0,experiment,NULL,Video,progression,buffer,0.002233,1687281404443,613a996383fe819b7cb48941,613a996383fe819b7cb48941,28,sort,filler,B,50,sort40.jpg,sort60.jpg,nogoal,NULL
1687281470,7df00b1c4c32e0cede7a5256677994ca,PennController,31,0,experiment,NULL,Selector,choice,Selection,option1,1687281409296,613a996383fe819b7cb48941,613a996383fe819b7cb48941,28,sort,filler,B,50,sort40.jpg,sort60.jpg,nogoal,option1;option2
1687281470,7df00b1c4c32e0cede7a5256677994ca,PennController,31,0,experiment,NULL,PennController,30,_Trial_,End,1687281409296,613a996383fe819b7cb48941,613a996383fe819b7cb48941,28,sort,filler,B,50,sort40.jpg,sort60.jpg,nogoal,NULL
1687281470,7df00b1c4c32e0cede7a5256677994ca,PennController,12,0,experiment,NULL,PennController,11,_Trial_,Start,1687281409297,613a996383fe819b7cb48941,613a996383fe819b7cb48941,9,cake,critical,B,25,cake15.jpg,cake33.jpg,nogoal,NULL
1687281470,7df00b1c4c32e0cede7a5256677994ca,PennController,12,0,experiment,NULL,PennController,11,_Header_,Start,1687281409297,613a996383fe819b7cb48941,613a996383fe819b7cb48941,9,cake,critical,B,25,cake15.jpg,cake33.jpg,nogoal,NULL
1687281470,7df00b1c4c32e0cede7a5256677994ca,PennController,12,0,experiment,NULL,PennController,11,_Header_,End,1687281409297,613a996383fe819b7cb48941,613a996383fe819b7cb48941,9,cake,critical,B,25,cake15.jpg,cake33.jpg,nogoal,NULL
1687281470,7df00b1c4c32e0cede7a5256677994ca,PennController,12,0,experiment,NULL,Canvas,canvas6,Print,NA,1687281413566,613a996383fe819b7cb48941,613a996383fe819b7cb48941,9,cake,critical,B,25,cake15.jpg,cake33.jpg,nogoal,NULL
1687281470,7df00b1c4c32e0cede7a5256677994ca,PennController,12,0,experiment,NULL,Video,progression,buffer,0.001802,1687281410809,613a996383fe819b7cb48941,613a996383fe819b7cb48941,9,cake,critical,B,25,cake15.jpg,cake33.jpg,nogoal,NULL
1687281470,7df00b1c4c32e0cede7a5256677994ca,PennController,12,0,experiment,NULL,Selector,choice,Selection,option1,1687281415312,613a996383fe819b7cb48941,613a996383fe819b7cb48941,9,cake,critical,B,25,cake15.jpg,cake33.jpg,nogoal,option2;option1
1687281470,7df00b1c4c32e0cede7a5256677994ca,PennController,12,0,experiment,NULL,PennController,11,_Trial_,End,1687281415313,613a996383fe819b7cb48941,613a996383fe819b7cb48941,9,cake,critical,B,25,cake15.jpg,cake33.jpg,nogoal,NULL
1687281470,7df00b1c4c32e0cede7a5256677994ca,PennController,19,0,experiment,NULL,PennController,18,_Trial_,Start,1687281415313,613a996383fe819b7cb48941,613a996383fe819b7cb48941,16,blinds,critical,B,50,blinds42.jpg,blinds60.jpg,nogoal,NULL
1687281470,7df00b1c4c32e0cede7a5256677994ca,PennController,19,0,experiment,NULL,PennController,18,_Header_,Start,1687281415313,613a996383fe819b7cb48941,613a996383fe819b7cb48941,16,blinds,critical,B,50,blinds42.jpg,blinds60.jpg,nogoal,NULL
1687281470,7df00b1c4c32e0cede7a5256677994ca,PennController,19,0,experiment,NULL,PennController,18,_Header_,End,1687281415314,613a996383fe819b7cb48941,613a996383fe819b7cb48941,16,blinds,critical,B,50,blinds42.jpg,blinds60.jpg,nogoal,NULL
1687281470,7df00b1c4c32e0cede7a5256677994ca,PennController,19,0,experiment,NULL,Canvas,canvas6,Print,NA,1687281421377,613a996383fe819b7cb48941,613a996383fe819b7cb48941,16,blinds,critical,B,50,blinds42.jpg,blinds60.jpg,nogoal,NULL
1687281470,7df00b1c4c32e0cede7a5256677994ca,PennController,19,0,experiment,NULL,Video,progression,buffer,0.001788,1687281416822,613a996383fe819b7cb48941,613a996383fe819b7cb48941,16,blinds,critical,B,50,blinds42.jpg,blinds60.jpg,nogoal,NULL
1687281470,7df00b1c4c32e0cede7a5256677994ca,PennController,19,0,experiment,NULL,Selector,choice,Selection,option1,1687281423428,613a996383fe819b7cb48941,613a996383fe819b7cb48941,16,blinds,critical,B,50,blinds42.jpg,blinds60.jpg,nogoal,option1;option2
1687281470,7df00b1c4c32e0cede7a5256677994ca,PennController,19,0,experiment,NULL,PennController,18,_Trial_,End,1687281423428,613a996383fe819b7cb48941,613a996383fe819b7cb48941,16,blinds,critical,B,50,blinds42.jpg,blinds60.jpg,nogoal,NULL
1687281470,7df00b1c4c32e0cede7a5256677994ca,PennController,7,0,experiment,NULL,PennController,6,_Trial_,Start,1687281423429,613a996383fe819b7cb48941,613a996383fe819b7cb48941,4,candy,critical,B,50,candy40.jpg,candy60.jpg,nogoal,NULL
1687281470,7df00b1c4c32e0cede7a5256677994ca,PennController,7,0,experiment,NULL,PennController,6,_Header_,Start,1687281423429,613a996383fe819b7cb48941,613a996383fe819b7cb48941,4,candy,critical,B,50,candy40.jpg,candy60.jpg,nogoal,NULL
1687281470,7df00b1c4c32e0cede7a5256677994ca,PennController,7,0,experiment,NULL,PennController,6,_Header_,End,1687281423429,613a996383fe819b7cb48941,613a996383fe819b7cb48941,4,candy,critical,B,50,candy40.jpg,candy60.jpg,nogoal,NULL
1687281470,7df00b1c4c32e0cede7a5256677994ca,PennController,7,0,experiment,NULL,Canvas,canvas6,Print,NA,1687281428105,613a996383fe819b7cb48941,613a996383fe819b7cb48941,4,candy,critical,B,50,candy40.jpg,candy60.jpg,nogoal,NULL
1687281470,7df00b1c4c32e0cede7a5256677994ca,PennController,7,0,experiment,NULL,Video,progression,buffer,0.002369,1687281424941,613a996383fe819b7cb48941,613a996383fe819b7cb48941,4,candy,critical,B,50,candy40.jpg,candy60.jpg,nogoal,NULL
1687281470,7df00b1c4c32e0cede7a5256677994ca,PennController,7,0,experiment,NULL,Selector,choice,Selection,option2,1687281429095,613a996383fe819b7cb48941,613a996383fe819b7cb48941,4,candy,critical,B,50,candy40.jpg,candy60.jpg,nogoal,option2;option1
1687281470,7df00b1c4c32e0cede7a5256677994ca,PennController,7,0,experiment,NULL,PennController,6,_Trial_,End,1687281429096,613a996383fe819b7cb48941,613a996383fe819b7cb48941,4,candy,critical,B,50,candy40.jpg,candy60.jpg,nogoal,NULL
1687281470,7df00b1c4c32e0cede7a5256677994ca,PennController,27,0,experiment,NULL,PennController,26,_Trial_,Start,1687281429097,613a996383fe819b7cb48941,613a996383fe819b7cb48941,24,match,filler,B,25,match15.jpg,match35.jpg,nogoal,NULL
1687281470,7df00b1c4c32e0cede7a5256677994ca,PennController,27,0,experiment,NULL,PennController,26,_Header_,Start,1687281429097,613a996383fe819b7cb48941,613a996383fe819b7cb48941,24,match,filler,B,25,match15.jpg,match35.jpg,nogoal,NULL
1687281470,7df00b1c4c32e0cede7a5256677994ca,PennController,27,0,experiment,NULL,PennController,26,_Header_,End,1687281429097,613a996383fe819b7cb48941,613a996383fe819b7cb48941,24,match,filler,B,25,match15.jpg,match35.jpg,nogoal,NULL
1687281470,7df00b1c4c32e0cede7a5256677994ca,PennController,27,0,experiment,NULL,Canvas,canvas6,Print,NA,1687281432767,613a996383fe819b7cb48941,613a996383fe819b7cb48941,24,match,filler,B,25,match15.jpg,match35.jpg,nogoal,NULL
1687281470,7df00b1c4c32e0cede7a5256677994ca,PennController,27,0,experiment,NULL,Video,progression,buffer,0.001902,1687281430607,613a996383fe819b7cb48941,613a996383fe819b7cb48941,24,match,filler,B,25,match15.jpg,match35.jpg,nogoal,NULL
1687281470,7df00b1c4c32e0cede7a5256677994ca,PennController,27,0,experiment,NULL,Selector,choice,Selection,option1,1687281436012,613a996383fe819b7cb48941,613a996383fe819b7cb48941,24,match,filler,B,25,match15.jpg,match35.jpg,nogoal,option2;option1
1687281470,7df00b1c4c32e0cede7a5256677994ca,PennController,27,0,experiment,NULL,PennController,26,_Trial_,End,1687281436013,613a996383fe819b7cb48941,613a996383fe819b7cb48941,24,match,filler,B,25,match15.jpg,match35.jpg,nogoal,NULL
1687281470,7df00b1c4c32e0cede7a5256677994ca,PennController,10,0,experiment,NULL,PennController,9,_Trial_,Start,1687281436013,613a996383fe819b7cb48941,613a996383fe819b7cb48941,7,stack,critical,B,50,stack40.jpg,stack60.jpg,nogoal,NULL
1687281470,7df00b1c4c32e0cede7a5256677994ca,PennController,10,0,experiment,NULL,PennController,9,_Header_,Start,1687281436013,613a996383fe819b7cb48941,613a996383fe819b7cb48941,7,stack,critical,B,50,stack40.jpg,stack60.jpg,nogoal,NULL
1687281470,7df00b1c4c32e0cede7a5256677994ca,PennController,10,0,experiment,NULL,PennController,9,_Header_,End,1687281436013,613a996383fe819b7cb48941,613a996383fe819b7cb48941,7,stack,critical,B,50,stack40.jpg,stack60.jpg,nogoal,NULL
1687281470,7df00b1c4c32e0cede7a5256677994ca,PennController,10,0,experiment,NULL,Canvas,canvas6,Print,NA,1687281440691,613a996383fe819b7cb48941,613a996383fe819b7cb48941,7,stack,critical,B,50,stack40.jpg,stack60.jpg,nogoal,NULL
1687281470,7df00b1c4c32e0cede7a5256677994ca,PennController,10,0,experiment,NULL,Video,progression,buffer,0.001977,1687281437525,613a996383fe819b7cb48941,613a996383fe819b7cb48941,7,stack,critical,B,50,stack40.jpg,stack60.jpg,nogoal,NULL
1687281470,7df00b1c4c32e0cede7a5256677994ca,PennController,10,0,experiment,NULL,Selector,choice,Selection,option2,1687281442164,613a996383fe819b7cb48941,613a996383fe819b7cb48941,7,stack,critical,B,50,stack40.jpg,stack60.jpg,nogoal,option2;option1
1687281470,7df00b1c4c32e0cede7a5256677994ca,PennController,10,0,experiment,NULL,PennController,9,_Trial_,End,1687281442165,613a996383fe819b7cb48941,613a996383fe819b7cb48941,7,stack,critical,B,50,stack40.jpg,stack60.jpg,nogoal,NULL
1687281470,7df00b1c4c32e0cede7a5256677994ca,PennController,5,0,experiment,NULL,PennController,4,_Trial_,Start,1687281442166,613a996383fe819b7cb48941,613a996383fe819b7cb48941,2,door,critical,B,75,door65.jpg,door85.jpg,nogoal,NULL
1687281470,7df00b1c4c32e0cede7a5256677994ca,PennController,5,0,experiment,NULL,PennController,4,_Header_,Start,1687281442166,613a996383fe819b7cb48941,613a996383fe819b7cb48941,2,door,critical,B,75,door65.jpg,door85.jpg,nogoal,NULL
1687281470,7df00b1c4c32e0cede7a5256677994ca,PennController,5,0,experiment,NULL,PennController,4,_Header_,End,1687281442166,613a996383fe819b7cb48941,613a996383fe819b7cb48941,2,door,critical,B,75,door65.jpg,door85.jpg,nogoal,NULL
1687281470,7df00b1c4c32e0cede7a5256677994ca,PennController,5,0,experiment,NULL,Canvas,canvas6,Print,NA,1687281447833,613a996383fe819b7cb48941,613a996383fe819b7cb48941,2,door,critical,B,75,door65.jpg,door85.jpg,nogoal,NULL
1687281470,7df00b1c4c32e0cede7a5256677994ca,PennController,5,0,experiment,NULL,Video,progression,buffer,0.0017,1687281443675,613a996383fe819b7cb48941,613a996383fe819b7cb48941,2,door,critical,B,75,door65.jpg,door85.jpg,nogoal,NULL
1687281470,7df00b1c4c32e0cede7a5256677994ca,PennController,5,0,experiment,NULL,Selector,choice,Selection,option2,1687281450021,613a996383fe819b7cb48941,613a996383fe819b7cb48941,2,door,critical,B,75,door65.jpg,door85.jpg,nogoal,option1;option2
1687281470,7df00b1c4c32e0cede7a5256677994ca,PennController,5,0,experiment,NULL,PennController,4,_Trial_,End,1687281450022,613a996383fe819b7cb48941,613a996383fe819b7cb48941,2,door,critical,B,75,door65.jpg,door85.jpg,nogoal,NULL
1687281470,7df00b1c4c32e0cede7a5256677994ca,PennController,28,0,experiment,NULL,PennController,27,_Trial_,Start,1687281450022,613a996383fe819b7cb48941,613a996383fe819b7cb48941,25,house,filler,B,50,house40.jpg,house60.jpg,nogoal,NULL
1687281470,7df00b1c4c32e0cede7a5256677994ca,PennController,28,0,experiment,NULL,PennController,27,_Header_,Start,1687281450022,613a996383fe819b7cb48941,613a996383fe819b7cb48941,25,house,filler,B,50,house40.jpg,house60.jpg,nogoal,NULL
1687281470,7df00b1c4c32e0cede7a5256677994ca,PennController,28,0,experiment,NULL,PennController,27,_Header_,End,1687281450022,613a996383fe819b7cb48941,613a996383fe819b7cb48941,25,house,filler,B,50,house40.jpg,house60.jpg,nogoal,NULL
1687281470,7df00b1c4c32e0cede7a5256677994ca,PennController,28,0,experiment,NULL,Canvas,canvas6,Print,NA,1687281454691,613a996383fe819b7cb48941,613a996383fe819b7cb48941,25,house,filler,B,50,house40.jpg,house60.jpg,nogoal,NULL
1687281470,7df00b1c4c32e0cede7a5256677994ca,PennController,28,0,experiment,NULL,Video,progression,buffer,0.002284,1687281451535,613a996383fe819b7cb48941,613a996383fe819b7cb48941,25,house,filler,B,50,house40.jpg,house60.jpg,nogoal,NULL
1687281470,7df00b1c4c32e0cede7a5256677994ca,PennController,28,0,experiment,NULL,Selector,choice,Selection,option2,1687281456639,613a996383fe819b7cb48941,613a996383fe819b7cb48941,25,house,filler,B,50,house40.jpg,house60.jpg,nogoal,option2;option1
1687281470,7df00b1c4c32e0cede7a5256677994ca,PennController,28,0,experiment,NULL,PennController,27,_Trial_,End,1687281456640,613a996383fe819b7cb48941,613a996383fe819b7cb48941,25,house,filler,B,50,house40.jpg,house60.jpg,nogoal,NULL
1687281470,7df00b1c4c32e0cede7a5256677994ca,PennController,14,0,experiment,NULL,PennController,13,_Trial_,Start,1687281456641,613a996383fe819b7cb48941,613a996383fe819b7cb48941,11,beads,critical,B,75,beads65.jpg,beads85.jpg,nogoal,NULL
1687281470,7df00b1c4c32e0cede7a5256677994ca,PennController,14,0,experiment,NULL,PennController,13,_Header_,Start,1687281456641,613a996383fe819b7cb48941,613a996383fe819b7cb48941,11,beads,critical,B,75,beads65.jpg,beads85.jpg,nogoal,NULL
1687281470,7df00b1c4c32e0cede7a5256677994ca,PennController,14,0,experiment,NULL,PennController,13,_Header_,End,1687281456641,613a996383fe819b7cb48941,613a996383fe819b7cb48941,11,beads,critical,B,75,beads65.jpg,beads85.jpg,nogoal,NULL
1687281470,7df00b1c4c32e0cede7a5256677994ca,PennController,14,0,experiment,NULL,Canvas,canvas6,Print,NA,1687281462320,613a996383fe819b7cb48941,613a996383fe819b7cb48941,11,beads,critical,B,75,beads65.jpg,beads85.jpg,nogoal,NULL
1687281470,7df00b1c4c32e0cede7a5256677994ca,PennController,14,0,experiment,NULL,Video,progression,buffer,0.00338,1687281458155,613a996383fe819b7cb48941,613a996383fe819b7cb48941,11,beads,critical,B,75,beads65.jpg,beads85.jpg,nogoal,NULL
1687281470,7df00b1c4c32e0cede7a5256677994ca,PennController,14,0,experiment,NULL,Selector,choice,Selection,option2,1687281464254,613a996383fe819b7cb48941,613a996383fe819b7cb48941,11,beads,critical,B,75,beads65.jpg,beads85.jpg,nogoal,option2;option1
1687281470,7df00b1c4c32e0cede7a5256677994ca,PennController,14,0,experiment,NULL,PennController,13,_Trial_,End,1687281464255,613a996383fe819b7cb48941,613a996383fe819b7cb48941,11,beads,critical,B,75,beads65.jpg,beads85.jpg,nogoal,NULL
1687281470,7df00b1c4c32e0cede7a5256677994ca,PennController,9,0,experiment,NULL,PennController,8,_Trial_,Start,1687281464256,613a996383fe819b7cb48941,613a996383fe819b7cb48941,6,flower,critical,B,25,flower15.jpg,flower35.jpg,nogoal,NULL
1687281470,7df00b1c4c32e0cede7a5256677994ca,PennController,9,0,experiment,NULL,PennController,8,_Header_,Start,1687281464256,613a996383fe819b7cb48941,613a996383fe819b7cb48941,6,flower,critical,B,25,flower15.jpg,flower35.jpg,nogoal,NULL
1687281470,7df00b1c4c32e0cede7a5256677994ca,PennController,9,0,experiment,NULL,PennController,8,_Header_,End,1687281464256,613a996383fe819b7cb48941,613a996383fe819b7cb48941,6,flower,critical,B,25,flower15.jpg,flower35.jpg,nogoal,NULL
1687281470,7df00b1c4c32e0cede7a5256677994ca,PennController,9,0,experiment,NULL,Canvas,canvas6,Print,NA,1687281467932,613a996383fe819b7cb48941,613a996383fe819b7cb48941,6,flower,critical,B,25,flower15.jpg,flower35.jpg,nogoal,NULL
1687281470,7df00b1c4c32e0cede7a5256677994ca,PennController,9,0,experiment,NULL,Video,progression,buffer,0.001753,1687281465770,613a996383fe819b7cb48941,613a996383fe819b7cb48941,6,flower,critical,B,25,flower15.jpg,flower35.jpg,nogoal,NULL
1687281470,7df00b1c4c32e0cede7a5256677994ca,PennController,9,0,experiment,NULL,Selector,choice,Selection,option2,1687281469880,613a996383fe819b7cb48941,613a996383fe819b7cb48941,6,flower,critical,B,25,flower15.jpg,flower35.jpg,nogoal,option1;option2
1687281470,7df00b1c4c32e0cede7a5256677994ca,PennController,9,0,experiment,NULL,PennController,8,_Trial_,End,1687281469880,613a996383fe819b7cb48941,613a996383fe819b7cb48941,6,flower,critical,B,25,flower15.jpg,flower35.jpg,nogoal,NULL
