#
# Results on Tuesday June 20 2023 17:17:50 UTC
# USER AGENT: Mozilla/5.0 (Windows NT 10.0; Win64; x64) AppleWebKit/537.36 (KHTML, like Gecko) Chrome/114.0.0.0 Safari/537.36
# Design number was non-random = 4
#
# Columns below this comment are as follows:
# 1. Results reception time.
# 2. MD5 hash of participant's IP address.
# 3. Controller name.
# 4. Order number of item.
# 5. Inner element number.
# 6. Label.
# 7. Latin Square Group.
# 8. PennElementType.
# 9. PennElementName.
# 10. Parameter.
# 11. Value.
# 12. EventTime.
# 13. PROLIFIC_ID.
# 14. Comments.
1687281470,90ea3a4f28b982ae1909386b5e27ffe7,PennController,2,0,consent,NULL,PennController,0,_Trial_,Start,1687281251953,5ea84c88ea131626bbcc6dbf,NULL
1687281470,90ea3a4f28b982ae1909386b5e27ffe7,PennController,2,0,consent,NULL,PennController,0,_Header_,Start,1687281251953,5ea84c88ea131626bbcc6dbf,NULL
1687281470,90ea3a4f28b982ae1909386b5e27ffe7,PennController,2,0,consent,NULL,PennController,0,_Header_,End,1687281251954,5ea84c88ea131626bbcc6dbf,NULL
1687281470,90ea3a4f28b982ae1909386b5e27ffe7,PennController,2,0,consent,NULL,PennController,0,_Trial_,End,1687281256876,5ea84c88ea131626bbcc6dbf,NULL
# Columns below this comment are as follows:
# 14. ID.
# 15. Comments.
1687281470,90ea3a4f28b982ae1909386b5e27ffe7,PennController,3,0,intro,NULL,PennController,1,_Trial_,Start,1687281256880,5ea84c88ea131626bbcc6dbf,5ea84c88ea131626bbcc6dbf,NULL
1687281470,90ea3a4f28b982ae1909386b5e27ffe7,PennController,3,0,intro,NULL,PennController,1,_Header_,Start,1687281256880,5ea84c88ea131626bbcc6dbf,5ea84c88ea131626bbcc6dbf,NULL
1687281470,90ea3a4f28b982ae1909386b5e27ffe7,PennController,3,0,intro,NULL,PennController,1,_Header_,End,1687281256880,5ea84c88ea131626bbcc6dbf,5ea84c88ea131626bbcc6dbf,NULL
1687281470,90ea3a4f28b982ae1909386b5e27ffe7,PennController,3,0,intro,NULL,PennController,1,_Trial_,End,1687281265286,5ea84c88ea131626bbcc6dbf,5ea84c88ea131626bbcc6dbf,NULL
# Columns below this comment are as follows:
# 15. item_number.
# 16. item.
# 17. type.
# 18. Group.
# 19. prog.
# 20. prev_image.
# 21. next_image.
# 22. height.
# 23. Comments.
1687281470,90ea3a4f28b982ae1909386b5e27ffe7,PennController,9,0,experiment,NULL,PennController,8,_Trial_,Start,1687281265290,5ea84c88ea131626bbcc6dbf,5ea84c88ea131626bbcc6dbf,6,flower,critical,B,25,flower15.jpg,flower35.jpg,nogoal,NULL
1687281470,90ea3a4f28b982ae1909386b5e27ffe7,PennController,9,0,experiment,NULL,PennController,8,_Header_,Start,1687281265290,5ea84c88ea131626bbcc6dbf,5ea84c88ea131626bbcc6dbf,6,flower,critical,B,25,flower15.jpg,flower35.jpg,nogoal,NULL
1687281470,90ea3a4f28b982ae1909386b5e27ffe7,PennController,9,0,experiment,NULL,PennController,8,_Header_,End,1687281265290,5ea84c88ea131626bbcc6dbf,5ea84c88ea131626bbcc6dbf,6,flower,critical,B,25,flower15.jpg,flower35.jpg,nogoal,NULL
1687281470,90ea3a4f28b982ae1909386b5e27ffe7,PennController,9,0,experiment,NULL,Canvas,canvas6,Print,NA,1687281269014,5ea84c88ea131626bbcc6dbf,5ea84c88ea131626bbcc6dbf,6,flower,critical,B,25,flower15.jpg,flower35.jpg,nogoal,NULL
1687281470,90ea3a4f28b982ae1909386b5e27ffe7,PennController,9,0,experiment,NULL,Video,progression,buffer,0.011108,1687281266831,5ea84c88ea131626bbcc6dbf,5ea84c88ea131626bbcc6dbf,6,flower,critical,B,25,flower15.jpg,flower35.jpg,nogoal,NULL
1687281470,90ea3a4f28b982ae1909386b5e27ffe7,PennController,9,0,experiment,NULL,Selector,choice,Selection,option2,1687281273388,5ea84c88ea131626bbcc6dbf,5ea84c88ea131626bbcc6dbf,6,flower,critical,B,25,flower15.jpg,flower35.jpg,nogoal,option1;option2
1687281470,90ea3a4f28b982ae1909386b5e27ffe7,PennController,9,0,experiment,NULL,PennController,8,_Trial_,End,1687281273393,5ea84c88ea131626bbcc6dbf,5ea84c88ea131626bbcc6dbf,6,flower,critical,B,25,flower15.jpg,flower35.jpg,nogoal,NULL
1687281470,90ea3a4f28b982ae1909386b5e27ffe7,PennController,30,0,experiment,NULL,PennController,29,_Trial_,Start,1687281273399,5ea84c88ea131626bbcc6dbf,5ea84c88ea131626bbcc6dbf,27,square,filler,B,25,square15.jpg,square35.jpg,nogoal,NULL
1687281470,90ea3a4f28b982ae1909386b5e27ffe7,PennController,30,0,experiment,NULL,PennController,29,_Header_,Start,1687281273399,5ea84c88ea131626bbcc6dbf,5ea84c88ea131626bbcc6dbf,27,square,filler,B,25,square15.jpg,square35.jpg,nogoal,NULL
1687281470,90ea3a4f28b982ae1909386b5e27ffe7,PennController,30,0,experiment,NULL,PennController,29,_Header_,End,1687281273399,5ea84c88ea131626bbcc6dbf,5ea84c88ea131626bbcc6dbf,27,square,filler,B,25,square15.jpg,square35.jpg,nogoal,NULL
1687281470,90ea3a4f28b982ae1909386b5e27ffe7,PennController,30,0,experiment,NULL,Canvas,canvas6,Print,NA,1687281277110,5ea84c88ea131626bbcc6dbf,5ea84c88ea131626bbcc6dbf,27,square,filler,B,25,square15.jpg,square35.jpg,nogoal,NULL
1687281470,90ea3a4f28b982ae1909386b5e27ffe7,PennController,30,0,experiment,NULL,Video,progression,buffer,0.010175,1687281274947,5ea84c88ea131626bbcc6dbf,5ea84c88ea131626bbcc6dbf,27,square,filler,B,25,square15.jpg,square35.jpg,nogoal,NULL
1687281470,90ea3a4f28b982ae1909386b5e27ffe7,PennController,30,0,experiment,NULL,Selector,choice,Selection,option2,1687281280363,5ea84c88ea131626bbcc6dbf,5ea84c88ea131626bbcc6dbf,27,square,filler,B,25,square15.jpg,square35.jpg,nogoal,option1;option2
1687281470,90ea3a4f28b982ae1909386b5e27ffe7,PennController,30,0,experiment,NULL,PennController,29,_Trial_,End,1687281280365,5ea84c88ea131626bbcc6dbf,5ea84c88ea131626bbcc6dbf,27,square,filler,B,25,square15.jpg,square35.jpg,nogoal,NULL
1687281470,90ea3a4f28b982ae1909386b5e27ffe7,PennController,13,0,experiment,NULL,PennController,12,_Trial_,Start,1687281280370,5ea84c88ea131626bbcc6dbf,5ea84c88ea131626bbcc6dbf,10,train,critical,B,50,train40.jpg,train60.jpg,nogoal,NULL
1687281470,90ea3a4f28b982ae1909386b5e27ffe7,PennController,13,0,experiment,NULL,PennController,12,_Header_,Start,1687281280370,5ea84c88ea131626bbcc6dbf,5ea84c88ea131626bbcc6dbf,10,train,critical,B,50,train40.jpg,train60.jpg,nogoal,NULL
1687281470,90ea3a4f28b982ae1909386b5e27ffe7,PennController,13,0,experiment,NULL,PennController,12,_Header_,End,1687281280370,5ea84c88ea131626bbcc6dbf,5ea84c88ea131626bbcc6dbf,10,train,critical,B,50,train40.jpg,train60.jpg,nogoal,NULL
1687281470,90ea3a4f28b982ae1909386b5e27ffe7,PennController,13,0,experiment,NULL,Canvas,canvas6,Print,NA,1687281285077,5ea84c88ea131626bbcc6dbf,5ea84c88ea131626bbcc6dbf,10,train,critical,B,50,train40.jpg,train60.jpg,nogoal,NULL
1687281470,90ea3a4f28b982ae1909386b5e27ffe7,PennController,13,0,experiment,NULL,Video,progression,buffer,0.009334,1687281281905,5ea84c88ea131626bbcc6dbf,5ea84c88ea131626bbcc6dbf,10,train,critical,B,50,train40.jpg,train60.jpg,nogoal,NULL
1687281470,90ea3a4f28b982ae1909386b5e27ffe7,PennController,13,0,experiment,NULL,Selector,choice,Selection,option2,1687281287582,5ea84c88ea131626bbcc6dbf,5ea84c88ea131626bbcc6dbf,10,train,critical,B,50,train40.jpg,train60.jpg,nogoal,option2;option1
1687281470,90ea3a4f28b982ae1909386b5e27ffe7,PennController,13,0,experiment,NULL,PennController,12,_Trial_,End,1687281287584,5ea84c88ea131626bbcc6dbf,5ea84c88ea131626bbcc6dbf,10,train,critical,B,50,train40.jpg,train60.jpg,nogoal,NULL
1687281470,90ea3a4f28b982ae1909386b5e27ffe7,PennController,5,0,experiment,NULL,PennController,4,_Trial_,Start,1687281287586,5ea84c88ea131626bbcc6dbf,5ea84c88ea131626bbcc6dbf,2,door,critical,B,75,door65.jpg,door85.jpg,nogoal,NULL
1687281470,90ea3a4f28b982ae1909386b5e27ffe7,PennController,5,0,experiment,NULL,PennController,4,_Header_,Start,1687281287586,5ea84c88ea131626bbcc6dbf,5ea84c88ea131626bbcc6dbf,2,door,critical,B,75,door65.jpg,door85.jpg,nogoal,NULL
1687281470,90ea3a4f28b982ae1909386b5e27ffe7,PennController,5,0,experiment,NULL,PennController,4,_Header_,End,1687281287586,5ea84c88ea131626bbcc6dbf,5ea84c88ea131626bbcc6dbf,2,door,critical,B,75,door65.jpg,door85.jpg,nogoal,NULL
1687281470,90ea3a4f28b982ae1909386b5e27ffe7,PennController,5,0,experiment,NULL,Canvas,canvas6,Print,NA,1687281293377,5ea84c88ea131626bbcc6dbf,5ea84c88ea131626bbcc6dbf,2,door,critical,B,75,door65.jpg,door85.jpg,nogoal,NULL
1687281470,90ea3a4f28b982ae1909386b5e27ffe7,PennController,5,0,experiment,NULL,Video,progression,buffer,0,1687281289122,5ea84c88ea131626bbcc6dbf,5ea84c88ea131626bbcc6dbf,2,door,critical,B,75,door65.jpg,door85.jpg,nogoal,NULL
1687281470,90ea3a4f28b982ae1909386b5e27ffe7,PennController,5,0,experiment,NULL,Selector,choice,Selection,option2,1687281295479,5ea84c88ea131626bbcc6dbf,5ea84c88ea131626bbcc6dbf,2,door,critical,B,75,door65.jpg,door85.jpg,nogoal,option2;option1
1687281470,90ea3a4f28b982ae1909386b5e27ffe7,PennController,5,0,experiment,NULL,PennController,4,_Trial_,End,1687281295482,5ea84c88ea131626bbcc6dbf,5ea84c88ea131626bbcc6dbf,2,door,critical,B,75,door65.jpg,door85.jpg,nogoal,NULL
1687281470,90ea3a4f28b982ae1909386b5e27ffe7,PennController,31,0,experiment,NULL,PennController,30,_Trial_,Start,1687281295485,5ea84c88ea131626bbcc6dbf,5ea84c88ea131626bbcc6dbf,28,sort,filler,B,50,sort40.jpg,sort60.jpg,nogoal,NULL
1687281470,90ea3a4f28b982ae1909386b5e27ffe7,PennController,31,0,experiment,NULL,PennController,30,_Header_,Start,1687281295485,5ea84c88ea131626bbcc6dbf,5ea84c88ea131626bbcc6dbf,28,sort,filler,B,50,sort40.jpg,sort60.jpg,nogoal,NULL
1687281470,90ea3a4f28b982ae1909386b5e27ffe7,PennController,31,0,experiment,NULL,PennController,30,_Header_,End,1687281295486,5ea84c88ea131626bbcc6dbf,5ea84c88ea131626bbcc6dbf,28,sort,filler,B,50,sort40.jpg,sort60.jpg,nogoal,NULL
1687281470,90ea3a4f28b982ae1909386b5e27ffe7,PennController,31,0,experiment,NULL,Canvas,canvas6,Print,NA,1687281300191,5ea84c88ea131626bbcc6dbf,5ea84c88ea131626bbcc6dbf,28,sort,filler,B,50,sort40.jpg,sort60.jpg,nogoal,NULL
1687281470,90ea3a4f28b982ae1909386b5e27ffe7,PennController,31,0,experiment,NULL,Video,progression,buffer,0.009823,1687281297020,5ea84c88ea131626bbcc6dbf,5ea84c88ea131626bbcc6dbf,28,sort,filler,B,50,sort40.jpg,sort60.jpg,nogoal,NULL
1687281470,90ea3a4f28b982ae1909386b5e27ffe7,PennController,31,0,experiment,NULL,Selector,choice,Selection,option2,1687281301862,5ea84c88ea131626bbcc6dbf,5ea84c88ea131626bbcc6dbf,28,sort,filler,B,50,sort40.jpg,sort60.jpg,nogoal,option1;option2
1687281470,90ea3a4f28b982ae1909386b5e27ffe7,PennController,31,0,experiment,NULL,PennController,30,_Trial_,End,1687281301865,5ea84c88ea131626bbcc6dbf,5ea84c88ea131626bbcc6dbf,28,sort,filler,B,50,sort40.jpg,sort60.jpg,nogoal,NULL
1687281470,90ea3a4f28b982ae1909386b5e27ffe7,PennController,24,0,experiment,NULL,PennController,23,_Trial_,Start,1687281301868,5ea84c88ea131626bbcc6dbf,5ea84c88ea131626bbcc6dbf,21,visit,filler,B,25,visit15.jpg,visit35.jpg,nogoal,NULL
1687281470,90ea3a4f28b982ae1909386b5e27ffe7,PennController,24,0,experiment,NULL,PennController,23,_Header_,Start,1687281301868,5ea84c88ea131626bbcc6dbf,5ea84c88ea131626bbcc6dbf,21,visit,filler,B,25,visit15.jpg,visit35.jpg,nogoal,NULL
1687281470,90ea3a4f28b982ae1909386b5e27ffe7,PennController,24,0,experiment,NULL,PennController,23,_Header_,End,1687281301868,5ea84c88ea131626bbcc6dbf,5ea84c88ea131626bbcc6dbf,21,visit,filler,B,25,visit15.jpg,visit35.jpg,nogoal,NULL
1687281470,90ea3a4f28b982ae1909386b5e27ffe7,PennController,24,0,experiment,NULL,Canvas,canvas6,Print,NA,1687281305571,5ea84c88ea131626bbcc6dbf,5ea84c88ea131626bbcc6dbf,21,visit,filler,B,25,visit15.jpg,visit35.jpg,nogoal,NULL
1687281470,90ea3a4f28b982ae1909386b5e27ffe7,PennController,24,0,experiment,NULL,Video,progression,buffer,0.00924,1687281303398,5ea84c88ea131626bbcc6dbf,5ea84c88ea131626bbcc6dbf,21,visit,filler,B,25,visit15.jpg,visit35.jpg,nogoal,NULL
1687281470,90ea3a4f28b982ae1909386b5e27ffe7,PennController,24,0,experiment,NULL,Selector,choice,Selection,option2,1687281307824,5ea84c88ea131626bbcc6dbf,5ea84c88ea131626bbcc6dbf,21,visit,filler,B,25,visit15.jpg,visit35.jpg,nogoal,option1;option2
1687281470,90ea3a4f28b982ae1909386b5e27ffe7,PennController,24,0,experiment,NULL,PennController,23,_Trial_,End,1687281307826,5ea84c88ea131626bbcc6dbf,5ea84c88ea131626bbcc6dbf,21,visit,filler,B,25,visit15.jpg,visit35.jpg,nogoal,NULL
1687281470,90ea3a4f28b982ae1909386b5e27ffe7,PennController,28,0,experiment,NULL,PennController,27,_Trial_,Start,1687281307828,5ea84c88ea131626bbcc6dbf,5ea84c88ea131626bbcc6dbf,25,house,filler,B,50,house40.jpg,house60.jpg,nogoal,NULL
1687281470,90ea3a4f28b982ae1909386b5e27ffe7,PennController,28,0,experiment,NULL,PennController,27,_Header_,Start,1687281307828,5ea84c88ea131626bbcc6dbf,5ea84c88ea131626bbcc6dbf,25,house,filler,B,50,house40.jpg,house60.jpg,nogoal,NULL
1687281470,90ea3a4f28b982ae1909386b5e27ffe7,PennController,28,0,experiment,NULL,PennController,27,_Header_,End,1687281307828,5ea84c88ea131626bbcc6dbf,5ea84c88ea131626bbcc6dbf,25,house,filler,B,50,house40.jpg,house60.jpg,nogoal,NULL
1687281470,90ea3a4f28b982ae1909386b5e27ffe7,PennController,28,0,experiment,NULL,Canvas,canvas6,Print,NA,1687281312506,5ea84c88ea131626bbcc6dbf,5ea84c88ea131626bbcc6dbf,25,house,filler,B,50,house40.jpg,house60.jpg,nogoal,NULL
1687281470,90ea3a4f28b982ae1909386b5e27ffe7,PennController,28,0,experiment,NULL,Video,progression,buffer,0.006344,1687281309354,5ea84c88ea131626bbcc6dbf,5ea84c88ea131626bbcc6dbf,25,house,filler,B,50,house40.jpg,house60.jpg,nogoal,NULL
1687281470,90ea3a4f28b982ae1909386b5e27ffe7,PennController,28,0,experiment,NULL,Selector,choice,Selection,option2,1687281315443,5ea84c88ea131626bbcc6dbf,5ea84c88ea131626bbcc6dbf,25,house,filler,B,50,house40.jpg,house60.jpg,nogoal,option1;option2
1687281470,90ea3a4f28b982ae1909386b5e27ffe7,PennController,28,0,experiment,NULL,PennController,27,_Trial_,End,1687281315444,5ea84c88ea131626bbcc6dbf,5ea84c88ea131626bbcc6dbf,25,house,filler,B,50,house40.jpg,house60.jpg,nogoal,NULL
1687281470,90ea3a4f28b982ae1909386b5e27ffe7,PennController,17,0,experiment,NULL,PennController,16,_Trial_,Start,1687281315446,5ea84c88ea131626bbcc6dbf,5ea84c88ea131626bbcc6dbf,14,cover,critical,B,75,cover66.jpg,cover84.jpg,nogoal,NULL
1687281470,90ea3a4f28b982ae1909386b5e27ffe7,PennController,17,0,experiment,NULL,PennController,16,_Header_,Start,1687281315446,5ea84c88ea131626bbcc6dbf,5ea84c88ea131626bbcc6dbf,14,cover,critical,B,75,cover66.jpg,cover84.jpg,nogoal,NULL
1687281470,90ea3a4f28b982ae1909386b5e27ffe7,PennController,17,0,experiment,NULL,PennController,16,_Header_,End,1687281315446,5ea84c88ea131626bbcc6dbf,5ea84c88ea131626bbcc6dbf,14,cover,critical,B,75,cover66.jpg,cover84.jpg,nogoal,NULL
1687281470,90ea3a4f28b982ae1909386b5e27ffe7,PennController,17,0,experiment,NULL,Canvas,canvas6,Print,NA,1687281323138,5ea84c88ea131626bbcc6dbf,5ea84c88ea131626bbcc6dbf,14,cover,critical,B,75,cover66.jpg,cover84.jpg,nogoal,NULL
1687281470,90ea3a4f28b982ae1909386b5e27ffe7,PennController,17,0,experiment,NULL,Video,progression,buffer,0.009355,1687281316977,5ea84c88ea131626bbcc6dbf,5ea84c88ea131626bbcc6dbf,14,cover,critical,B,75,cover66.jpg,cover84.jpg,nogoal,NULL
1687281470,90ea3a4f28b982ae1909386b5e27ffe7,PennController,17,0,experiment,NULL,Selector,choice,Selection,option2,1687281325215,5ea84c88ea131626bbcc6dbf,5ea84c88ea131626bbcc6dbf,14,cover,critical,B,75,cover66.jpg,cover84.jpg,nogoal,option2;option1
1687281470,90ea3a4f28b982ae1909386b5e27ffe7,PennController,17,0,experiment,NULL,PennController,16,_Trial_,End,1687281325218,5ea84c88ea131626bbcc6dbf,5ea84c88ea131626bbcc6dbf,14,cover,critical,B,75,cover66.jpg,cover84.jpg,nogoal,NULL
1687281470,90ea3a4f28b982ae1909386b5e27ffe7,PennController,12,0,experiment,NULL,PennController,11,_Trial_,Start,1687281325220,5ea84c88ea131626bbcc6dbf,5ea84c88ea131626bbcc6dbf,9,cake,critical,B,25,cake15.jpg,cake33.jpg,nogoal,NULL
1687281470,90ea3a4f28b982ae1909386b5e27ffe7,PennController,12,0,experiment,NULL,PennController,11,_Header_,Start,1687281325220,5ea84c88ea131626bbcc6dbf,5ea84c88ea131626bbcc6dbf,9,cake,critical,B,25,cake15.jpg,cake33.jpg,nogoal,NULL
1687281470,90ea3a4f28b982ae1909386b5e27ffe7,PennController,12,0,experiment,NULL,PennController,11,_Header_,End,1687281325220,5ea84c88ea131626bbcc6dbf,5ea84c88ea131626bbcc6dbf,9,cake,critical,B,25,cake15.jpg,cake33.jpg,nogoal,NULL
1687281470,90ea3a4f28b982ae1909386b5e27ffe7,PennController,12,0,experiment,NULL,Canvas,canvas6,Print,NA,1687281329516,5ea84c88ea131626bbcc6dbf,5ea84c88ea131626bbcc6dbf,9,cake,critical,B,25,cake15.jpg,cake33.jpg,nogoal,NULL
1687281470,90ea3a4f28b982ae1909386b5e27ffe7,PennController,12,0,experiment,NULL,Video,progression,buffer,0.007458,1687281326749,5ea84c88ea131626bbcc6dbf,5ea84c88ea131626bbcc6dbf,9,cake,critical,B,25,cake15.jpg,cake33.jpg,nogoal,NULL
1687281470,90ea3a4f28b982ae1909386b5e27ffe7,PennController,12,0,experiment,NULL,Selector,choice,Selection,option1,1687281331087,5ea84c88ea131626bbcc6dbf,5ea84c88ea131626bbcc6dbf,9,cake,critical,B,25,cake15.jpg,cake33.jpg,nogoal,option1;option2
1687281470,90ea3a4f28b982ae1909386b5e27ffe7,PennController,12,0,experiment,NULL,PennController,11,_Trial_,End,1687281331089,5ea84c88ea131626bbcc6dbf,5ea84c88ea131626bbcc6dbf,9,cake,critical,B,25,cake15.jpg,cake33.jpg,nogoal,NULL
1687281470,90ea3a4f28b982ae1909386b5e27ffe7,PennController,15,0,experiment,NULL,PennController,14,_Trial_,Start,1687281331093,5ea84c88ea131626bbcc6dbf,5ea84c88ea131626bbcc6dbf,12,erase,critical,B,25,erase15.jpg,erase33.jpg,nogoal,NULL
1687281470,90ea3a4f28b982ae1909386b5e27ffe7,PennController,15,0,experiment,NULL,PennController,14,_Header_,Start,1687281331093,5ea84c88ea131626bbcc6dbf,5ea84c88ea131626bbcc6dbf,12,erase,critical,B,25,erase15.jpg,erase33.jpg,nogoal,NULL
1687281470,90ea3a4f28b982ae1909386b5e27ffe7,PennController,15,0,experiment,NULL,PennController,14,_Header_,End,1687281331093,5ea84c88ea131626bbcc6dbf,5ea84c88ea131626bbcc6dbf,12,erase,critical,B,25,erase15.jpg,erase33.jpg,nogoal,NULL
1687281470,90ea3a4f28b982ae1909386b5e27ffe7,PennController,15,0,experiment,NULL,Canvas,canvas6,Print,NA,1687281335383,5ea84c88ea131626bbcc6dbf,5ea84c88ea131626bbcc6dbf,12,erase,critical,B,25,erase15.jpg,erase33.jpg,nogoal,NULL
1687281470,90ea3a4f28b982ae1909386b5e27ffe7,PennController,15,0,experiment,NULL,Video,progression,buffer,0.006002,1687281332620,5ea84c88ea131626bbcc6dbf,5ea84c88ea131626bbcc6dbf,12,erase,critical,B,25,erase15.jpg,erase33.jpg,nogoal,NULL
1687281470,90ea3a4f28b982ae1909386b5e27ffe7,PennController,15,0,experiment,NULL,Selector,choice,Selection,option2,1687281336703,5ea84c88ea131626bbcc6dbf,5ea84c88ea131626bbcc6dbf,12,erase,critical,B,25,erase15.jpg,erase33.jpg,nogoal,option1;option2
1687281470,90ea3a4f28b982ae1909386b5e27ffe7,PennController,15,0,experiment,NULL,PennController,14,_Trial_,End,1687281336705,5ea84c88ea131626bbcc6dbf,5ea84c88ea131626bbcc6dbf,12,erase,critical,B,25,erase15.jpg,erase33.jpg,nogoal,NULL
1687281470,90ea3a4f28b982ae1909386b5e27ffe7,PennController,20,0,experiment,NULL,PennController,19,_Trial_,Start,1687281336706,5ea84c88ea131626bbcc6dbf,5ea84c88ea131626bbcc6dbf,17,roll,critical,B,75,roll65.jpg,roll85.jpg,nogoal,NULL
1687281470,90ea3a4f28b982ae1909386b5e27ffe7,PennController,20,0,experiment,NULL,PennController,19,_Header_,Start,1687281336706,5ea84c88ea131626bbcc6dbf,5ea84c88ea131626bbcc6dbf,17,roll,critical,B,75,roll65.jpg,roll85.jpg,nogoal,NULL
1687281470,90ea3a4f28b982ae1909386b5e27ffe7,PennController,20,0,experiment,NULL,PennController,19,_Header_,End,1687281336707,5ea84c88ea131626bbcc6dbf,5ea84c88ea131626bbcc6dbf,17,roll,critical,B,75,roll65.jpg,roll85.jpg,nogoal,NULL
1687281470,90ea3a4f28b982ae1909386b5e27ffe7,PennController,20,0,experiment,NULL,Canvas,canvas6,Print,NA,1687281342531,5ea84c88ea131626bbcc6dbf,5ea84c88ea131626bbcc6dbf,17,roll,critical,B,75,roll65.jpg,roll85.jpg,nogoal,NULL
1687281470,90ea3a4f28b982ae1909386b5e27ffe7,PennController,20,0,experiment,NULL,Video,progression,buffer,0,1687281338240,5ea84c88ea131626bbcc6dbf,5ea84c88ea131626bbcc6dbf,17,roll,critical,B,75,roll65.jpg,roll85.jpg,nogoal,NULL
1687281470,90ea3a4f28b982ae1909386b5e27ffe7,PennController,20,0,experiment,NULL,Selector,choice,Selection,option1,1687281344357,5ea84c88ea131626bbcc6dbf,5ea84c88ea131626bbcc6dbf,17,roll,critical,B,75,roll65.jpg,roll85.jpg,nogoal,option1;option2
1687281470,90ea3a4f28b982ae1909386b5e27ffe7,PennController,20,0,experiment,NULL,PennController,19,_Trial_,End,1687281344359,5ea84c88ea131626bbcc6dbf,5ea84c88ea131626bbcc6dbf,17,roll,critical,B,75,roll65.jpg,roll85.jpg,nogoal,NULL
1687281470,90ea3a4f28b982ae1909386b5e27ffe7,PennController,23,0,experiment,NULL,PennController,22,_Trial_,Start,1687281344360,5ea84c88ea131626bbcc6dbf,5ea84c88ea131626bbcc6dbf,20,cat,filler,B,75,cat65.jpg,cat85.jpg,nogoal,NULL
1687281470,90ea3a4f28b982ae1909386b5e27ffe7,PennController,23,0,experiment,NULL,PennController,22,_Header_,Start,1687281344360,5ea84c88ea131626bbcc6dbf,5ea84c88ea131626bbcc6dbf,20,cat,filler,B,75,cat65.jpg,cat85.jpg,nogoal,NULL
1687281470,90ea3a4f28b982ae1909386b5e27ffe7,PennController,23,0,experiment,NULL,PennController,22,_Header_,End,1687281344360,5ea84c88ea131626bbcc6dbf,5ea84c88ea131626bbcc6dbf,20,cat,filler,B,75,cat65.jpg,cat85.jpg,nogoal,NULL
1687281470,90ea3a4f28b982ae1909386b5e27ffe7,PennController,23,0,experiment,NULL,Canvas,canvas6,Print,NA,1687281350096,5ea84c88ea131626bbcc6dbf,5ea84c88ea131626bbcc6dbf,20,cat,filler,B,75,cat65.jpg,cat85.jpg,nogoal,NULL
1687281470,90ea3a4f28b982ae1909386b5e27ffe7,PennController,23,0,experiment,NULL,Video,progression,buffer,0.007071,1687281345902,5ea84c88ea131626bbcc6dbf,5ea84c88ea131626bbcc6dbf,20,cat,filler,B,75,cat65.jpg,cat85.jpg,nogoal,NULL
1687281470,90ea3a4f28b982ae1909386b5e27ffe7,PennController,23,0,experiment,NULL,Selector,choice,Selection,option2,1687281351861,5ea84c88ea131626bbcc6dbf,5ea84c88ea131626bbcc6dbf,20,cat,filler,B,75,cat65.jpg,cat85.jpg,nogoal,option1;option2
1687281470,90ea3a4f28b982ae1909386b5e27ffe7,PennController,23,0,experiment,NULL,PennController,22,_Trial_,End,1687281351862,5ea84c88ea131626bbcc6dbf,5ea84c88ea131626bbcc6dbf,20,cat,filler,B,75,cat65.jpg,cat85.jpg,nogoal,NULL
1687281470,90ea3a4f28b982ae1909386b5e27ffe7,PennController,22,0,experiment,NULL,PennController,21,_Trial_,Start,1687281351864,5ea84c88ea131626bbcc6dbf,5ea84c88ea131626bbcc6dbf,19,cup,filler,B,50,cup40.jpg,cup60.jpg,nogoal,NULL
1687281470,90ea3a4f28b982ae1909386b5e27ffe7,PennController,22,0,experiment,NULL,PennController,21,_Header_,Start,1687281351864,5ea84c88ea131626bbcc6dbf,5ea84c88ea131626bbcc6dbf,19,cup,filler,B,50,cup40.jpg,cup60.jpg,nogoal,NULL
1687281470,90ea3a4f28b982ae1909386b5e27ffe7,PennController,22,0,experiment,NULL,PennController,21,_Header_,End,1687281351864,5ea84c88ea131626bbcc6dbf,5ea84c88ea131626bbcc6dbf,19,cup,filler,B,50,cup40.jpg,cup60.jpg,nogoal,NULL
1687281470,90ea3a4f28b982ae1909386b5e27ffe7,PennController,22,0,experiment,NULL,Canvas,canvas6,Print,NA,1687281356545,5ea84c88ea131626bbcc6dbf,5ea84c88ea131626bbcc6dbf,19,cup,filler,B,50,cup40.jpg,cup60.jpg,nogoal,NULL
1687281470,90ea3a4f28b982ae1909386b5e27ffe7,PennController,22,0,experiment,NULL,Video,progression,buffer,0.008223,1687281353396,5ea84c88ea131626bbcc6dbf,5ea84c88ea131626bbcc6dbf,19,cup,filler,B,50,cup40.jpg,cup60.jpg,nogoal,NULL
1687281470,90ea3a4f28b982ae1909386b5e27ffe7,PennController,22,0,experiment,NULL,Selector,choice,Selection,option2,1687281359023,5ea84c88ea131626bbcc6dbf,5ea84c88ea131626bbcc6dbf,19,cup,filler,B,50,cup40.jpg,cup60.jpg,nogoal,option1;option2
1687281470,90ea3a4f28b982ae1909386b5e27ffe7,PennController,22,0,experiment,NULL,PennController,21,_Trial_,End,1687281359026,5ea84c88ea131626bbcc6dbf,5ea84c88ea131626bbcc6dbf,19,cup,filler,B,50,cup40.jpg,cup60.jpg,nogoal,NULL
1687281470,90ea3a4f28b982ae1909386b5e27ffe7,PennController,27,0,experiment,NULL,PennController,26,_Trial_,Start,1687281359029,5ea84c88ea131626bbcc6dbf,5ea84c88ea131626bbcc6dbf,24,match,filler,B,25,match15.jpg,match35.jpg,nogoal,NULL
1687281470,90ea3a4f28b982ae1909386b5e27ffe7,PennController,27,0,experiment,NULL,PennController,26,_Header_,Start,1687281359029,5ea84c88ea131626bbcc6dbf,5ea84c88ea131626bbcc6dbf,24,match,filler,B,25,match15.jpg,match35.jpg,nogoal,NULL
1687281470,90ea3a4f28b982ae1909386b5e27ffe7,PennController,27,0,experiment,NULL,PennController,26,_Header_,End,1687281359029,5ea84c88ea131626bbcc6dbf,5ea84c88ea131626bbcc6dbf,24,match,filler,B,25,match15.jpg,match35.jpg,nogoal,NULL
1687281470,90ea3a4f28b982ae1909386b5e27ffe7,PennController,27,0,experiment,NULL,Canvas,canvas6,Print,NA,1687281362741,5ea84c88ea131626bbcc6dbf,5ea84c88ea131626bbcc6dbf,24,match,filler,B,25,match15.jpg,match35.jpg,nogoal,NULL
1687281470,90ea3a4f28b982ae1909386b5e27ffe7,PennController,27,0,experiment,NULL,Video,progression,buffer,0.007519,1687281360568,5ea84c88ea131626bbcc6dbf,5ea84c88ea131626bbcc6dbf,24,match,filler,B,25,match15.jpg,match35.jpg,nogoal,NULL
1687281470,90ea3a4f28b982ae1909386b5e27ffe7,PennController,27,0,experiment,NULL,Selector,choice,Selection,option1,1687281364695,5ea84c88ea131626bbcc6dbf,5ea84c88ea131626bbcc6dbf,24,match,filler,B,25,match15.jpg,match35.jpg,nogoal,option2;option1
1687281470,90ea3a4f28b982ae1909386b5e27ffe7,PennController,27,0,experiment,NULL,PennController,26,_Trial_,End,1687281364697,5ea84c88ea131626bbcc6dbf,5ea84c88ea131626bbcc6dbf,24,match,filler,B,25,match15.jpg,match35.jpg,nogoal,NULL
1687281470,90ea3a4f28b982ae1909386b5e27ffe7,PennController,32,0,experiment,NULL,PennController,31,_Trial_,Start,1687281364699,5ea84c88ea131626bbcc6dbf,5ea84c88ea131626bbcc6dbf,29,frog,filler,B,75,frog65.jpg,frog85.jpg,nogoal,NULL
1687281470,90ea3a4f28b982ae1909386b5e27ffe7,PennController,32,0,experiment,NULL,PennController,31,_Header_,Start,1687281364699,5ea84c88ea131626bbcc6dbf,5ea84c88ea131626bbcc6dbf,29,frog,filler,B,75,frog65.jpg,frog85.jpg,nogoal,NULL
1687281470,90ea3a4f28b982ae1909386b5e27ffe7,PennController,32,0,experiment,NULL,PennController,31,_Header_,End,1687281364699,5ea84c88ea131626bbcc6dbf,5ea84c88ea131626bbcc6dbf,29,frog,filler,B,75,frog65.jpg,frog85.jpg,nogoal,NULL
1687281470,90ea3a4f28b982ae1909386b5e27ffe7,PennController,32,0,experiment,NULL,Canvas,canvas6,Print,NA,1687281370388,5ea84c88ea131626bbcc6dbf,5ea84c88ea131626bbcc6dbf,29,frog,filler,B,75,frog65.jpg,frog85.jpg,nogoal,NULL
1687281470,90ea3a4f28b982ae1909386b5e27ffe7,PennController,32,0,experiment,NULL,Video,progression,buffer,0.004483,1687281366223,5ea84c88ea131626bbcc6dbf,5ea84c88ea131626bbcc6dbf,29,frog,filler,B,75,frog65.jpg,frog85.jpg,nogoal,NULL
1687281470,90ea3a4f28b982ae1909386b5e27ffe7,PennController,32,0,experiment,NULL,Selector,choice,Selection,option2,1687281372340,5ea84c88ea131626bbcc6dbf,5ea84c88ea131626bbcc6dbf,29,frog,filler,B,75,frog65.jpg,frog85.jpg,nogoal,option1;option2
1687281470,90ea3a4f28b982ae1909386b5e27ffe7,PennController,32,0,experiment,NULL,PennController,31,_Trial_,End,1687281372343,5ea84c88ea131626bbcc6dbf,5ea84c88ea131626bbcc6dbf,29,frog,filler,B,75,frog65.jpg,frog85.jpg,nogoal,NULL
1687281470,90ea3a4f28b982ae1909386b5e27ffe7,PennController,8,0,experiment,NULL,PennController,7,_Trial_,Start,1687281372345,5ea84c88ea131626bbcc6dbf,5ea84c88ea131626bbcc6dbf,5,book,critical,B,75,book65.jpg,book85.jpg,nogoal,NULL
1687281470,90ea3a4f28b982ae1909386b5e27ffe7,PennController,8,0,experiment,NULL,PennController,7,_Header_,Start,1687281372345,5ea84c88ea131626bbcc6dbf,5ea84c88ea131626bbcc6dbf,5,book,critical,B,75,book65.jpg,book85.jpg,nogoal,NULL
1687281470,90ea3a4f28b982ae1909386b5e27ffe7,PennController,8,0,experiment,NULL,PennController,7,_Header_,End,1687281372345,5ea84c88ea131626bbcc6dbf,5ea84c88ea131626bbcc6dbf,5,book,critical,B,75,book65.jpg,book85.jpg,nogoal,NULL
1687281470,90ea3a4f28b982ae1909386b5e27ffe7,PennController,8,0,experiment,NULL,Canvas,canvas6,Print,NA,1687281378053,5ea84c88ea131626bbcc6dbf,5ea84c88ea131626bbcc6dbf,5,book,critical,B,75,book65.jpg,book85.jpg,nogoal,NULL
1687281470,90ea3a4f28b982ae1909386b5e27ffe7,PennController,8,0,experiment,NULL,Video,progression,buffer,0.005326,1687281373877,5ea84c88ea131626bbcc6dbf,5ea84c88ea131626bbcc6dbf,5,book,critical,B,75,book65.jpg,book85.jpg,nogoal,NULL
1687281470,90ea3a4f28b982ae1909386b5e27ffe7,PennController,8,0,experiment,NULL,Selector,choice,Selection,option1,1687281380343,5ea84c88ea131626bbcc6dbf,5ea84c88ea131626bbcc6dbf,5,book,critical,B,75,book65.jpg,book85.jpg,nogoal,option1;option2
1687281470,90ea3a4f28b982ae1909386b5e27ffe7,PennController,8,0,experiment,NULL,PennController,7,_Trial_,End,1687281380346,5ea84c88ea131626bbcc6dbf,5ea84c88ea131626bbcc6dbf,5,book,critical,B,75,book65.jpg,book85.jpg,nogoal,NULL
1687281470,90ea3a4f28b982ae1909386b5e27ffe7,PennController,18,0,experiment,NULL,PennController,17,_Trial_,Start,1687281380349,5ea84c88ea131626bbcc6dbf,5ea84c88ea131626bbcc6dbf,15,zip,critical,B,25,zip15.jpg,zip35.jpg,nogoal,NULL
1687281470,90ea3a4f28b982ae1909386b5e27ffe7,PennController,18,0,experiment,NULL,PennController,17,_Header_,Start,1687281380349,5ea84c88ea131626bbcc6dbf,5ea84c88ea131626bbcc6dbf,15,zip,critical,B,25,zip15.jpg,zip35.jpg,nogoal,NULL
1687281470,90ea3a4f28b982ae1909386b5e27ffe7,PennController,18,0,experiment,NULL,PennController,17,_Header_,End,1687281380349,5ea84c88ea131626bbcc6dbf,5ea84c88ea131626bbcc6dbf,15,zip,critical,B,25,zip15.jpg,zip35.jpg,nogoal,NULL
1687281470,90ea3a4f28b982ae1909386b5e27ffe7,PennController,18,0,experiment,NULL,Canvas,canvas6,Print,NA,1687281384050,5ea84c88ea131626bbcc6dbf,5ea84c88ea131626bbcc6dbf,15,zip,critical,B,25,zip15.jpg,zip35.jpg,nogoal,NULL
1687281470,90ea3a4f28b982ae1909386b5e27ffe7,PennController,18,0,experiment,NULL,Video,progression,buffer,0.007609,1687281381887,5ea84c88ea131626bbcc6dbf,5ea84c88ea131626bbcc6dbf,15,zip,critical,B,25,zip15.jpg,zip35.jpg,nogoal,NULL
1687281470,90ea3a4f28b982ae1909386b5e27ffe7,PennController,18,0,experiment,NULL,Selector,choice,Selection,option1,1687281386327,5ea84c88ea131626bbcc6dbf,5ea84c88ea131626bbcc6dbf,15,zip,critical,B,25,zip15.jpg,zip35.jpg,nogoal,option1;option2
1687281470,90ea3a4f28b982ae1909386b5e27ffe7,PennController,18,0,experiment,NULL,PennController,17,_Trial_,End,1687281386329,5ea84c88ea131626bbcc6dbf,5ea84c88ea131626bbcc6dbf,15,zip,critical,B,25,zip15.jpg,zip35.jpg,nogoal,NULL
1687281470,90ea3a4f28b982ae1909386b5e27ffe7,PennController,11,0,experiment,NULL,PennController,10,_Trial_,Start,1687281386331,5ea84c88ea131626bbcc6dbf,5ea84c88ea131626bbcc6dbf,8,cucumber,critical,B,75,cucumber66.jpg,cucumber84.jpg,nogoal,NULL
1687281470,90ea3a4f28b982ae1909386b5e27ffe7,PennController,11,0,experiment,NULL,PennController,10,_Header_,Start,1687281386331,5ea84c88ea131626bbcc6dbf,5ea84c88ea131626bbcc6dbf,8,cucumber,critical,B,75,cucumber66.jpg,cucumber84.jpg,nogoal,NULL
1687281470,90ea3a4f28b982ae1909386b5e27ffe7,PennController,11,0,experiment,NULL,PennController,10,_Header_,End,1687281386331,5ea84c88ea131626bbcc6dbf,5ea84c88ea131626bbcc6dbf,8,cucumber,critical,B,75,cucumber66.jpg,cucumber84.jpg,nogoal,NULL
1687281470,90ea3a4f28b982ae1909386b5e27ffe7,PennController,11,0,experiment,NULL,Canvas,canvas6,Print,NA,1687281394028,5ea84c88ea131626bbcc6dbf,5ea84c88ea131626bbcc6dbf,8,cucumber,critical,B,75,cucumber66.jpg,cucumber84.jpg,nogoal,NULL
1687281470,90ea3a4f28b982ae1909386b5e27ffe7,PennController,11,0,experiment,NULL,Video,progression,buffer,0.010512,1687281387864,5ea84c88ea131626bbcc6dbf,5ea84c88ea131626bbcc6dbf,8,cucumber,critical,B,75,cucumber66.jpg,cucumber84.jpg,nogoal,NULL
1687281470,90ea3a4f28b982ae1909386b5e27ffe7,PennController,11,0,experiment,NULL,Selector,choice,Selection,option2,1687281396766,5ea84c88ea131626bbcc6dbf,5ea84c88ea131626bbcc6dbf,8,cucumber,critical,B,75,cucumber66.jpg,cucumber84.jpg,nogoal,option1;option2
1687281470,90ea3a4f28b982ae1909386b5e27ffe7,PennController,11,0,experiment,NULL,PennController,10,_Trial_,End,1687281396768,5ea84c88ea131626bbcc6dbf,5ea84c88ea131626bbcc6dbf,8,cucumber,critical,B,75,cucumber66.jpg,cucumber84.jpg,nogoal,NULL
1687281470,90ea3a4f28b982ae1909386b5e27ffe7,PennController,14,0,experiment,NULL,PennController,13,_Trial_,Start,1687281396769,5ea84c88ea131626bbcc6dbf,5ea84c88ea131626bbcc6dbf,11,beads,critical,B,75,beads65.jpg,beads85.jpg,nogoal,NULL
1687281470,90ea3a4f28b982ae1909386b5e27ffe7,PennController,14,0,experiment,NULL,PennController,13,_Header_,Start,1687281396769,5ea84c88ea131626bbcc6dbf,5ea84c88ea131626bbcc6dbf,11,beads,critical,B,75,beads65.jpg,beads85.jpg,nogoal,NULL
1687281470,90ea3a4f28b982ae1909386b5e27ffe7,PennController,14,0,experiment,NULL,PennController,13,_Header_,End,1687281396769,5ea84c88ea131626bbcc6dbf,5ea84c88ea131626bbcc6dbf,11,beads,critical,B,75,beads65.jpg,beads85.jpg,nogoal,NULL
1687281470,90ea3a4f28b982ae1909386b5e27ffe7,PennController,14,0,experiment,NULL,Canvas,canvas6,Print,NA,1687281402460,5ea84c88ea131626bbcc6dbf,5ea84c88ea131626bbcc6dbf,11,beads,critical,B,75,beads65.jpg,beads85.jpg,nogoal,NULL
1687281470,90ea3a4f28b982ae1909386b5e27ffe7,PennController,14,0,experiment,NULL,Video,progression,buffer,0.0056,1687281398295,5ea84c88ea131626bbcc6dbf,5ea84c88ea131626bbcc6dbf,11,beads,critical,B,75,beads65.jpg,beads85.jpg,nogoal,NULL
1687281470,90ea3a4f28b982ae1909386b5e27ffe7,PennController,14,0,experiment,NULL,Selector,choice,Selection,option2,1687281403695,5ea84c88ea131626bbcc6dbf,5ea84c88ea131626bbcc6dbf,11,beads,critical,B,75,beads65.jpg,beads85.jpg,nogoal,option1;option2
1687281470,90ea3a4f28b982ae1909386b5e27ffe7,PennController,14,0,experiment,NULL,PennController,13,_Trial_,End,1687281403697,5ea84c88ea131626bbcc6dbf,5ea84c88ea131626bbcc6dbf,11,beads,critical,B,75,beads65.jpg,beads85.jpg,nogoal,NULL
1687281470,90ea3a4f28b982ae1909386b5e27ffe7,PennController,21,0,experiment,NULL,PennController,20,_Trial_,Start,1687281403701,5ea84c88ea131626bbcc6dbf,5ea84c88ea131626bbcc6dbf,18,ball,critical,B,25,ball15.jpg,ball35.jpg,nogoal,NULL
1687281470,90ea3a4f28b982ae1909386b5e27ffe7,PennController,21,0,experiment,NULL,PennController,20,_Header_,Start,1687281403701,5ea84c88ea131626bbcc6dbf,5ea84c88ea131626bbcc6dbf,18,ball,critical,B,25,ball15.jpg,ball35.jpg,nogoal,NULL
1687281470,90ea3a4f28b982ae1909386b5e27ffe7,PennController,21,0,experiment,NULL,PennController,20,_Header_,End,1687281403701,5ea84c88ea131626bbcc6dbf,5ea84c88ea131626bbcc6dbf,18,ball,critical,B,25,ball15.jpg,ball35.jpg,nogoal,NULL
1687281470,90ea3a4f28b982ae1909386b5e27ffe7,PennController,21,0,experiment,NULL,Canvas,canvas6,Print,NA,1687281407392,5ea84c88ea131626bbcc6dbf,5ea84c88ea131626bbcc6dbf,18,ball,critical,B,25,ball15.jpg,ball35.jpg,nogoal,NULL
1687281470,90ea3a4f28b982ae1909386b5e27ffe7,PennController,21,0,experiment,NULL,Video,progression,buffer,0.009357,1687281405231,5ea84c88ea131626bbcc6dbf,5ea84c88ea131626bbcc6dbf,18,ball,critical,B,25,ball15.jpg,ball35.jpg,nogoal,NULL
1687281470,90ea3a4f28b982ae1909386b5e27ffe7,PennController,21,0,experiment,NULL,Selector,choice,Selection,option2,1687281408789,5ea84c88ea131626bbcc6dbf,5ea84c88ea131626bbcc6dbf,18,ball,critical,B,25,ball15.jpg,ball35.jpg,nogoal,option1;option2
1687281470,90ea3a4f28b982ae1909386b5e27ffe7,PennController,21,0,experiment,NULL,PennController,20,_Trial_,End,1687281408791,5ea84c88ea131626bbcc6dbf,5ea84c88ea131626bbcc6dbf,18,ball,critical,B,25,ball15.jpg,ball35.jpg,nogoal,NULL
1687281470,90ea3a4f28b982ae1909386b5e27ffe7,PennController,10,0,experiment,NULL,PennController,9,_Trial_,Start,1687281408793,5ea84c88ea131626bbcc6dbf,5ea84c88ea131626bbcc6dbf,7,stack,critical,B,50,stack40.jpg,stack60.jpg,nogoal,NULL
1687281470,90ea3a4f28b982ae1909386b5e27ffe7,PennController,10,0,experiment,NULL,PennController,9,_Header_,Start,1687281408793,5ea84c88ea131626bbcc6dbf,5ea84c88ea131626bbcc6dbf,7,stack,critical,B,50,stack40.jpg,stack60.jpg,nogoal,NULL
1687281470,90ea3a4f28b982ae1909386b5e27ffe7,PennController,10,0,experiment,NULL,PennController,9,_Header_,End,1687281408793,5ea84c88ea131626bbcc6dbf,5ea84c88ea131626bbcc6dbf,7,stack,critical,B,50,stack40.jpg,stack60.jpg,nogoal,NULL
1687281470,90ea3a4f28b982ae1909386b5e27ffe7,PennController,10,0,experiment,NULL,Canvas,canvas6,Print,NA,1687281413509,5ea84c88ea131626bbcc6dbf,5ea84c88ea131626bbcc6dbf,7,stack,critical,B,50,stack40.jpg,stack60.jpg,nogoal,NULL
1687281470,90ea3a4f28b982ae1909386b5e27ffe7,PennController,10,0,experiment,NULL,Video,progression,buffer,0.006484,1687281410335,5ea84c88ea131626bbcc6dbf,5ea84c88ea131626bbcc6dbf,7,stack,critical,B,50,stack40.jpg,stack60.jpg,nogoal,NULL
1687281470,90ea3a4f28b982ae1909386b5e27ffe7,PennController,10,0,experiment,NULL,Selector,choice,Selection,option1,1687281416052,5ea84c88ea131626bbcc6dbf,5ea84c88ea131626bbcc6dbf,7,stack,critical,B,50,stack40.jpg,stack60.jpg,nogoal,option2;option1
1687281470,90ea3a4f28b982ae1909386b5e27ffe7,PennController,10,0,experiment,NULL,PennController,9,_Trial_,End,1687281416057,5ea84c88ea131626bbcc6dbf,5ea84c88ea131626bbcc6dbf,7,stack,critical,B,50,stack40.jpg,stack60.jpg,nogoal,NULL
1687281470,90ea3a4f28b982ae1909386b5e27ffe7,PennController,16,0,experiment,NULL,PennController,15,_Trial_,Start,1687281416060,5ea84c88ea131626bbcc6dbf,5ea84c88ea131626bbcc6dbf,13,mix,critical,B,50,mix40.jpg,mix60.jpg,nogoal,NULL
1687281470,90ea3a4f28b982ae1909386b5e27ffe7,PennController,16,0,experiment,NULL,PennController,15,_Header_,Start,1687281416060,5ea84c88ea131626bbcc6dbf,5ea84c88ea131626bbcc6dbf,13,mix,critical,B,50,mix40.jpg,mix60.jpg,nogoal,NULL
1687281470,90ea3a4f28b982ae1909386b5e27ffe7,PennController,16,0,experiment,NULL,PennController,15,_Header_,End,1687281416060,5ea84c88ea131626bbcc6dbf,5ea84c88ea131626bbcc6dbf,13,mix,critical,B,50,mix40.jpg,mix60.jpg,nogoal,NULL
1687281470,90ea3a4f28b982ae1909386b5e27ffe7,PennController,16,0,experiment,NULL,Canvas,canvas6,Print,NA,1687281420755,5ea84c88ea131626bbcc6dbf,5ea84c88ea131626bbcc6dbf,13,mix,critical,B,50,mix40.jpg,mix60.jpg,nogoal,NULL
1687281470,90ea3a4f28b982ae1909386b5e27ffe7,PennController,16,0,experiment,NULL,Video,progression,buffer,0.006386,1687281417585,5ea84c88ea131626bbcc6dbf,5ea84c88ea131626bbcc6dbf,13,mix,critical,B,50,mix40.jpg,mix60.jpg,nogoal,NULL
1687281470,90ea3a4f28b982ae1909386b5e27ffe7,PennController,16,0,experiment,NULL,Selector,choice,Selection,option1,1687281422445,5ea84c88ea131626bbcc6dbf,5ea84c88ea131626bbcc6dbf,13,mix,critical,B,50,mix40.jpg,mix60.jpg,nogoal,option2;option1
1687281470,90ea3a4f28b982ae1909386b5e27ffe7,PennController,16,0,experiment,NULL,PennController,15,_Trial_,End,1687281422447,5ea84c88ea131626bbcc6dbf,5ea84c88ea131626bbcc6dbf,13,mix,critical,B,50,mix40.jpg,mix60.jpg,nogoal,NULL
1687281470,90ea3a4f28b982ae1909386b5e27ffe7,PennController,26,0,experiment,NULL,PennController,25,_Trial_,Start,1687281422448,5ea84c88ea131626bbcc6dbf,5ea84c88ea131626bbcc6dbf,23,color,filler,B,75,color65.jpg,color85.jpg,nogoal,NULL
1687281470,90ea3a4f28b982ae1909386b5e27ffe7,PennController,26,0,experiment,NULL,PennController,25,_Header_,Start,1687281422449,5ea84c88ea131626bbcc6dbf,5ea84c88ea131626bbcc6dbf,23,color,filler,B,75,color65.jpg,color85.jpg,nogoal,NULL
1687281470,90ea3a4f28b982ae1909386b5e27ffe7,PennController,26,0,experiment,NULL,PennController,25,_Header_,End,1687281422449,5ea84c88ea131626bbcc6dbf,5ea84c88ea131626bbcc6dbf,23,color,filler,B,75,color65.jpg,color85.jpg,nogoal,NULL
1687281470,90ea3a4f28b982ae1909386b5e27ffe7,PennController,26,0,experiment,NULL,Canvas,canvas6,Print,NA,1687281428148,5ea84c88ea131626bbcc6dbf,5ea84c88ea131626bbcc6dbf,23,color,filler,B,75,color65.jpg,color85.jpg,nogoal,NULL
1687281470,90ea3a4f28b982ae1909386b5e27ffe7,PennController,26,0,experiment,NULL,Video,progression,buffer,0.006127,1687281423974,5ea84c88ea131626bbcc6dbf,5ea84c88ea131626bbcc6dbf,23,color,filler,B,75,color65.jpg,color85.jpg,nogoal,NULL
1687281470,90ea3a4f28b982ae1909386b5e27ffe7,PennController,26,0,experiment,NULL,Selector,choice,Selection,option2,1687281429705,5ea84c88ea131626bbcc6dbf,5ea84c88ea131626bbcc6dbf,23,color,filler,B,75,color65.jpg,color85.jpg,nogoal,option1;option2
1687281470,90ea3a4f28b982ae1909386b5e27ffe7,PennController,26,0,experiment,NULL,PennController,25,_Trial_,End,1687281429707,5ea84c88ea131626bbcc6dbf,5ea84c88ea131626bbcc6dbf,23,color,filler,B,75,color65.jpg,color85.jpg,nogoal,NULL
1687281470,90ea3a4f28b982ae1909386b5e27ffe7,PennController,29,0,experiment,NULL,PennController,28,_Trial_,Start,1687281429709,5ea84c88ea131626bbcc6dbf,5ea84c88ea131626bbcc6dbf,26,sandwich,filler,B,75,sandwich65.jpg,sandwich85.jpg,nogoal,NULL
1687281470,90ea3a4f28b982ae1909386b5e27ffe7,PennController,29,0,experiment,NULL,PennController,28,_Header_,Start,1687281429709,5ea84c88ea131626bbcc6dbf,5ea84c88ea131626bbcc6dbf,26,sandwich,filler,B,75,sandwich65.jpg,sandwich85.jpg,nogoal,NULL
1687281470,90ea3a4f28b982ae1909386b5e27ffe7,PennController,29,0,experiment,NULL,PennController,28,_Header_,End,1687281429709,5ea84c88ea131626bbcc6dbf,5ea84c88ea131626bbcc6dbf,26,sandwich,filler,B,75,sandwich65.jpg,sandwich85.jpg,nogoal,NULL
1687281470,90ea3a4f28b982ae1909386b5e27ffe7,PennController,29,0,experiment,NULL,Canvas,canvas6,Print,NA,1687281435373,5ea84c88ea131626bbcc6dbf,5ea84c88ea131626bbcc6dbf,26,sandwich,filler,B,75,sandwich65.jpg,sandwich85.jpg,nogoal,NULL
1687281470,90ea3a4f28b982ae1909386b5e27ffe7,PennController,29,0,experiment,NULL,Video,progression,buffer,0.012459,1687281431247,5ea84c88ea131626bbcc6dbf,5ea84c88ea131626bbcc6dbf,26,sandwich,filler,B,75,sandwich65.jpg,sandwich85.jpg,nogoal,NULL
1687281470,90ea3a4f28b982ae1909386b5e27ffe7,PennController,29,0,experiment,NULL,Selector,choice,Selection,option2,1687281436628,5ea84c88ea131626bbcc6dbf,5ea84c88ea131626bbcc6dbf,26,sandwich,filler,B,75,sandwich65.jpg,sandwich85.jpg,nogoal,option2;option1
1687281470,90ea3a4f28b982ae1909386b5e27ffe7,PennController,29,0,experiment,NULL,PennController,28,_Trial_,End,1687281436630,5ea84c88ea131626bbcc6dbf,5ea84c88ea131626bbcc6dbf,26,sandwich,filler,B,75,sandwich65.jpg,sandwich85.jpg,nogoal,NULL
1687281470,90ea3a4f28b982ae1909386b5e27ffe7,PennController,19,0,experiment,NULL,PennController,18,_Trial_,Start,1687281436631,5ea84c88ea131626bbcc6dbf,5ea84c88ea131626bbcc6dbf,16,blinds,critical,B,50,blinds42.jpg,blinds60.jpg,nogoal,NULL
1687281470,90ea3a4f28b982ae1909386b5e27ffe7,PennController,19,0,experiment,NULL,PennController,18,_Header_,Start,1687281436631,5ea84c88ea131626bbcc6dbf,5ea84c88ea131626bbcc6dbf,16,blinds,critical,B,50,blinds42.jpg,blinds60.jpg,nogoal,NULL
1687281470,90ea3a4f28b982ae1909386b5e27ffe7,PennController,19,0,experiment,NULL,PennController,18,_Header_,End,1687281436631,5ea84c88ea131626bbcc6dbf,5ea84c88ea131626bbcc6dbf,16,blinds,critical,B,50,blinds42.jpg,blinds60.jpg,nogoal,NULL
1687281470,90ea3a4f28b982ae1909386b5e27ffe7,PennController,19,0,experiment,NULL,Canvas,canvas6,Print,NA,1687281442727,5ea84c88ea131626bbcc6dbf,5ea84c88ea131626bbcc6dbf,16,blinds,critical,B,50,blinds42.jpg,blinds60.jpg,nogoal,NULL
1687281470,90ea3a4f28b982ae1909386b5e27ffe7,PennController,19,0,experiment,NULL,Video,progression,buffer,0.00543,1687281438157,5ea84c88ea131626bbcc6dbf,5ea84c88ea131626bbcc6dbf,16,blinds,critical,B,50,blinds42.jpg,blinds60.jpg,nogoal,NULL
1687281470,90ea3a4f28b982ae1909386b5e27ffe7,PennController,19,0,experiment,NULL,Selector,choice,Selection,option2,1687281444804,5ea84c88ea131626bbcc6dbf,5ea84c88ea131626bbcc6dbf,16,blinds,critical,B,50,blinds42.jpg,blinds60.jpg,nogoal,option1;option2
1687281470,90ea3a4f28b982ae1909386b5e27ffe7,PennController,19,0,experiment,NULL,PennController,18,_Trial_,End,1687281444807,5ea84c88ea131626bbcc6dbf,5ea84c88ea131626bbcc6dbf,16,blinds,critical,B,50,blinds42.jpg,blinds60.jpg,nogoal,NULL
1687281470,90ea3a4f28b982ae1909386b5e27ffe7,PennController,6,0,experiment,NULL,PennController,5,_Trial_,Start,1687281444809,5ea84c88ea131626bbcc6dbf,5ea84c88ea131626bbcc6dbf,3,clean,critical,B,25,clean15.jpg,clean35.jpg,nogoal,NULL
1687281470,90ea3a4f28b982ae1909386b5e27ffe7,PennController,6,0,experiment,NULL,PennController,5,_Header_,Start,1687281444809,5ea84c88ea131626bbcc6dbf,5ea84c88ea131626bbcc6dbf,3,clean,critical,B,25,clean15.jpg,clean35.jpg,nogoal,NULL
1687281470,90ea3a4f28b982ae1909386b5e27ffe7,PennController,6,0,experiment,NULL,PennController,5,_Header_,End,1687281444809,5ea84c88ea131626bbcc6dbf,5ea84c88ea131626bbcc6dbf,3,clean,critical,B,25,clean15.jpg,clean35.jpg,nogoal,NULL
1687281470,90ea3a4f28b982ae1909386b5e27ffe7,PennController,6,0,experiment,NULL,Canvas,canvas6,Print,NA,1687281448504,5ea84c88ea131626bbcc6dbf,5ea84c88ea131626bbcc6dbf,3,clean,critical,B,25,clean15.jpg,clean35.jpg,nogoal,NULL
1687281470,90ea3a4f28b982ae1909386b5e27ffe7,PennController,6,0,experiment,NULL,Video,progression,buffer,0.006501,1687281446332,5ea84c88ea131626bbcc6dbf,5ea84c88ea131626bbcc6dbf,3,clean,critical,B,25,clean15.jpg,clean35.jpg,nogoal,NULL
1687281470,90ea3a4f28b982ae1909386b5e27ffe7,PennController,6,0,experiment,NULL,Selector,choice,Selection,option2,1687281450786,5ea84c88ea131626bbcc6dbf,5ea84c88ea131626bbcc6dbf,3,clean,critical,B,25,clean15.jpg,clean35.jpg,nogoal,option2;option1
1687281470,90ea3a4f28b982ae1909386b5e27ffe7,PennController,6,0,experiment,NULL,PennController,5,_Trial_,End,1687281450788,5ea84c88ea131626bbcc6dbf,5ea84c88ea131626bbcc6dbf,3,clean,critical,B,25,clean15.jpg,clean35.jpg,nogoal,NULL
1687281470,90ea3a4f28b982ae1909386b5e27ffe7,PennController,25,0,experiment,NULL,PennController,24,_Trial_,Start,1687281450790,5ea84c88ea131626bbcc6dbf,5ea84c88ea131626bbcc6dbf,22,wall,filler,B,50,wall40.jpg,wall60.jpg,nogoal,NULL
1687281470,90ea3a4f28b982ae1909386b5e27ffe7,PennController,25,0,experiment,NULL,PennController,24,_Header_,Start,1687281450790,5ea84c88ea131626bbcc6dbf,5ea84c88ea131626bbcc6dbf,22,wall,filler,B,50,wall40.jpg,wall60.jpg,nogoal,NULL
1687281470,90ea3a4f28b982ae1909386b5e27ffe7,PennController,25,0,experiment,NULL,PennController,24,_Header_,End,1687281450791,5ea84c88ea131626bbcc6dbf,5ea84c88ea131626bbcc6dbf,22,wall,filler,B,50,wall40.jpg,wall60.jpg,nogoal,NULL
1687281470,90ea3a4f28b982ae1909386b5e27ffe7,PennController,25,0,experiment,NULL,Canvas,canvas6,Print,NA,1687281455488,5ea84c88ea131626bbcc6dbf,5ea84c88ea131626bbcc6dbf,22,wall,filler,B,50,wall40.jpg,wall60.jpg,nogoal,NULL
1687281470,90ea3a4f28b982ae1909386b5e27ffe7,PennController,25,0,experiment,NULL,Video,progression,buffer,0.005342,1687281452319,5ea84c88ea131626bbcc6dbf,5ea84c88ea131626bbcc6dbf,22,wall,filler,B,50,wall40.jpg,wall60.jpg,nogoal,NULL
1687281470,90ea3a4f28b982ae1909386b5e27ffe7,PennController,25,0,experiment,NULL,Selector,choice,Selection,option2,1687281457040,5ea84c88ea131626bbcc6dbf,5ea84c88ea131626bbcc6dbf,22,wall,filler,B,50,wall40.jpg,wall60.jpg,nogoal,option1;option2
1687281470,90ea3a4f28b982ae1909386b5e27ffe7,PennController,25,0,experiment,NULL,PennController,24,_Trial_,End,1687281457041,5ea84c88ea131626bbcc6dbf,5ea84c88ea131626bbcc6dbf,22,wall,filler,B,50,wall40.jpg,wall60.jpg,nogoal,NULL
1687281470,90ea3a4f28b982ae1909386b5e27ffe7,PennController,4,0,experiment,NULL,PennController,3,_Trial_,Start,1687281457043,5ea84c88ea131626bbcc6dbf,5ea84c88ea131626bbcc6dbf,1,vase,critical,B,50,vase40.jpg,vase60.jpg,nogoal,NULL
1687281470,90ea3a4f28b982ae1909386b5e27ffe7,PennController,4,0,experiment,NULL,PennController,3,_Header_,Start,1687281457043,5ea84c88ea131626bbcc6dbf,5ea84c88ea131626bbcc6dbf,1,vase,critical,B,50,vase40.jpg,vase60.jpg,nogoal,NULL
1687281470,90ea3a4f28b982ae1909386b5e27ffe7,PennController,4,0,experiment,NULL,PennController,3,_Header_,End,1687281457043,5ea84c88ea131626bbcc6dbf,5ea84c88ea131626bbcc6dbf,1,vase,critical,B,50,vase40.jpg,vase60.jpg,nogoal,NULL
1687281470,90ea3a4f28b982ae1909386b5e27ffe7,PennController,4,0,experiment,NULL,Canvas,canvas6,Print,NA,1687281461737,5ea84c88ea131626bbcc6dbf,5ea84c88ea131626bbcc6dbf,1,vase,critical,B,50,vase40.jpg,vase60.jpg,nogoal,NULL
1687281470,90ea3a4f28b982ae1909386b5e27ffe7,PennController,4,0,experiment,NULL,Video,progression,buffer,0.008463,1687281458573,5ea84c88ea131626bbcc6dbf,5ea84c88ea131626bbcc6dbf,1,vase,critical,B,50,vase40.jpg,vase60.jpg,nogoal,NULL
1687281470,90ea3a4f28b982ae1909386b5e27ffe7,PennController,4,0,experiment,NULL,Selector,choice,Selection,option2,1687281463990,5ea84c88ea131626bbcc6dbf,5ea84c88ea131626bbcc6dbf,1,vase,critical,B,50,vase40.jpg,vase60.jpg,nogoal,option2;option1
1687281470,90ea3a4f28b982ae1909386b5e27ffe7,PennController,4,0,experiment,NULL,PennController,3,_Trial_,End,1687281463992,5ea84c88ea131626bbcc6dbf,5ea84c88ea131626bbcc6dbf,1,vase,critical,B,50,vase40.jpg,vase60.jpg,nogoal,NULL
1687281470,90ea3a4f28b982ae1909386b5e27ffe7,PennController,7,0,experiment,NULL,PennController,6,_Trial_,Start,1687281463993,5ea84c88ea131626bbcc6dbf,5ea84c88ea131626bbcc6dbf,4,candy,critical,B,50,candy40.jpg,candy60.jpg,nogoal,NULL
1687281470,90ea3a4f28b982ae1909386b5e27ffe7,PennController,7,0,experiment,NULL,PennController,6,_Header_,Start,1687281463993,5ea84c88ea131626bbcc6dbf,5ea84c88ea131626bbcc6dbf,4,candy,critical,B,50,candy40.jpg,candy60.jpg,nogoal,NULL
1687281470,90ea3a4f28b982ae1909386b5e27ffe7,PennController,7,0,experiment,NULL,PennController,6,_Header_,End,1687281463993,5ea84c88ea131626bbcc6dbf,5ea84c88ea131626bbcc6dbf,4,candy,critical,B,50,candy40.jpg,candy60.jpg,nogoal,NULL
1687281470,90ea3a4f28b982ae1909386b5e27ffe7,PennController,7,0,experiment,NULL,Canvas,canvas6,Print,NA,1687281468685,5ea84c88ea131626bbcc6dbf,5ea84c88ea131626bbcc6dbf,4,candy,critical,B,50,candy40.jpg,candy60.jpg,nogoal,NULL
1687281470,90ea3a4f28b982ae1909386b5e27ffe7,PennController,7,0,experiment,NULL,Video,progression,buffer,0.006769,1687281465521,5ea84c88ea131626bbcc6dbf,5ea84c88ea131626bbcc6dbf,4,candy,critical,B,50,candy40.jpg,candy60.jpg,nogoal,NULL
1687281470,90ea3a4f28b982ae1909386b5e27ffe7,PennController,7,0,experiment,NULL,Selector,choice,Selection,option1,1687281470214,5ea84c88ea131626bbcc6dbf,5ea84c88ea131626bbcc6dbf,4,candy,critical,B,50,candy40.jpg,candy60.jpg,nogoal,option2;option1
1687281470,90ea3a4f28b982ae1909386b5e27ffe7,PennController,7,0,experiment,NULL,PennController,6,_Trial_,End,1687281470216,5ea84c88ea131626bbcc6dbf,5ea84c88ea131626bbcc6dbf,4,candy,critical,B,50,candy40.jpg,candy60.jpg,nogoal,NULL
