#
# Results on Tuesday June 20 2023 17:18:18 UTC
# USER AGENT: Mozilla/5.0 (Windows NT 10.0; Win64; x64) AppleWebKit/537.36 (KHTML, like Gecko) Chrome/114.0.0.0 Safari/537.36
# Design number was non-random = 4
#
# Columns below this comment are as follows:
# 1. Results reception time.
# 2. MD5 hash of participant's IP address.
# 3. Controller name.
# 4. Order number of item.
# 5. Inner element number.
# 6. Label.
# 7. Latin Square Group.
# 8. PennElementType.
# 9. PennElementName.
# 10. Parameter.
# 11. Value.
# 12. EventTime.
# 13. PROLIFIC_ID.
# 14. Comments.
1687281498,81becc25add18b208fc5c7915e3a2e08,PennController,2,0,consent,NULL,PennController,0,_Trial_,Start,1687281272610,5f9daa4d70977f2fa1b9a0f2,NULL
1687281498,81becc25add18b208fc5c7915e3a2e08,PennController,2,0,consent,NULL,PennController,0,_Header_,Start,1687281272610,5f9daa4d70977f2fa1b9a0f2,NULL
1687281498,81becc25add18b208fc5c7915e3a2e08,PennController,2,0,consent,NULL,PennController,0,_Header_,End,1687281272611,5f9daa4d70977f2fa1b9a0f2,NULL
1687281498,81becc25add18b208fc5c7915e3a2e08,PennController,2,0,consent,NULL,PennController,0,_Trial_,End,1687281277508,5f9daa4d70977f2fa1b9a0f2,NULL
# Columns below this comment are as follows:
# 14. ID.
# 15. Comments.
1687281498,81becc25add18b208fc5c7915e3a2e08,PennController,3,0,intro,NULL,PennController,1,_Trial_,Start,1687281277513,5f9daa4d70977f2fa1b9a0f2,5f9daa4d70977f2fa1b9a0f2,NULL
1687281498,81becc25add18b208fc5c7915e3a2e08,PennController,3,0,intro,NULL,PennController,1,_Header_,Start,1687281277513,5f9daa4d70977f2fa1b9a0f2,5f9daa4d70977f2fa1b9a0f2,NULL
1687281498,81becc25add18b208fc5c7915e3a2e08,PennController,3,0,intro,NULL,PennController,1,_Header_,End,1687281277513,5f9daa4d70977f2fa1b9a0f2,5f9daa4d70977f2fa1b9a0f2,NULL
1687281498,81becc25add18b208fc5c7915e3a2e08,PennController,3,0,intro,NULL,PennController,1,_Trial_,End,1687281287473,5f9daa4d70977f2fa1b9a0f2,5f9daa4d70977f2fa1b9a0f2,NULL
# Columns below this comment are as follows:
# 15. item_number.
# 16. item.
# 17. type.
# 18. Group.
# 19. prog.
# 20. prev_image.
# 21. next_image.
# 22. height.
# 23. Comments.
1687281498,81becc25add18b208fc5c7915e3a2e08,PennController,9,0,experiment,NULL,PennController,8,_Trial_,Start,1687281287478,5f9daa4d70977f2fa1b9a0f2,5f9daa4d70977f2fa1b9a0f2,6,flower,critical,B,25,flower15.jpg,flower35.jpg,nogoal,NULL
1687281498,81becc25add18b208fc5c7915e3a2e08,PennController,9,0,experiment,NULL,PennController,8,_Header_,Start,1687281287478,5f9daa4d70977f2fa1b9a0f2,5f9daa4d70977f2fa1b9a0f2,6,flower,critical,B,25,flower15.jpg,flower35.jpg,nogoal,NULL
1687281498,81becc25add18b208fc5c7915e3a2e08,PennController,9,0,experiment,NULL,PennController,8,_Header_,End,1687281287478,5f9daa4d70977f2fa1b9a0f2,5f9daa4d70977f2fa1b9a0f2,6,flower,critical,B,25,flower15.jpg,flower35.jpg,nogoal,NULL
1687281498,81becc25add18b208fc5c7915e3a2e08,PennController,9,0,experiment,NULL,Canvas,canvas6,Print,NA,1687281291271,5f9daa4d70977f2fa1b9a0f2,5f9daa4d70977f2fa1b9a0f2,6,flower,critical,B,25,flower15.jpg,flower35.jpg,nogoal,NULL
1687281498,81becc25add18b208fc5c7915e3a2e08,PennController,9,0,experiment,NULL,Video,progression,buffer,0.011323,1687281289044,5f9daa4d70977f2fa1b9a0f2,5f9daa4d70977f2fa1b9a0f2,6,flower,critical,B,25,flower15.jpg,flower35.jpg,nogoal,NULL
1687281498,81becc25add18b208fc5c7915e3a2e08,PennController,9,0,experiment,NULL,Selector,choice,Selection,option2,1687281293000,5f9daa4d70977f2fa1b9a0f2,5f9daa4d70977f2fa1b9a0f2,6,flower,critical,B,25,flower15.jpg,flower35.jpg,nogoal,option1;option2
1687281498,81becc25add18b208fc5c7915e3a2e08,PennController,9,0,experiment,NULL,PennController,8,_Trial_,End,1687281293002,5f9daa4d70977f2fa1b9a0f2,5f9daa4d70977f2fa1b9a0f2,6,flower,critical,B,25,flower15.jpg,flower35.jpg,nogoal,NULL
1687281498,81becc25add18b208fc5c7915e3a2e08,PennController,14,0,experiment,NULL,PennController,13,_Trial_,Start,1687281293004,5f9daa4d70977f2fa1b9a0f2,5f9daa4d70977f2fa1b9a0f2,11,beads,critical,B,75,beads65.jpg,beads85.jpg,nogoal,NULL
1687281498,81becc25add18b208fc5c7915e3a2e08,PennController,14,0,experiment,NULL,PennController,13,_Header_,Start,1687281293004,5f9daa4d70977f2fa1b9a0f2,5f9daa4d70977f2fa1b9a0f2,11,beads,critical,B,75,beads65.jpg,beads85.jpg,nogoal,NULL
1687281498,81becc25add18b208fc5c7915e3a2e08,PennController,14,0,experiment,NULL,PennController,13,_Header_,End,1687281293004,5f9daa4d70977f2fa1b9a0f2,5f9daa4d70977f2fa1b9a0f2,11,beads,critical,B,75,beads65.jpg,beads85.jpg,nogoal,NULL
1687281498,81becc25add18b208fc5c7915e3a2e08,PennController,14,0,experiment,NULL,Canvas,canvas6,Print,NA,1687281298765,5f9daa4d70977f2fa1b9a0f2,5f9daa4d70977f2fa1b9a0f2,11,beads,critical,B,75,beads65.jpg,beads85.jpg,nogoal,NULL
1687281498,81becc25add18b208fc5c7915e3a2e08,PennController,14,0,experiment,NULL,Video,progression,buffer,0.007591,1687281294543,5f9daa4d70977f2fa1b9a0f2,5f9daa4d70977f2fa1b9a0f2,11,beads,critical,B,75,beads65.jpg,beads85.jpg,nogoal,NULL
1687281498,81becc25add18b208fc5c7915e3a2e08,PennController,14,0,experiment,NULL,Selector,choice,Selection,option2,1687281300548,5f9daa4d70977f2fa1b9a0f2,5f9daa4d70977f2fa1b9a0f2,11,beads,critical,B,75,beads65.jpg,beads85.jpg,nogoal,option2;option1
1687281498,81becc25add18b208fc5c7915e3a2e08,PennController,14,0,experiment,NULL,PennController,13,_Trial_,End,1687281300550,5f9daa4d70977f2fa1b9a0f2,5f9daa4d70977f2fa1b9a0f2,11,beads,critical,B,75,beads65.jpg,beads85.jpg,nogoal,NULL
1687281498,81becc25add18b208fc5c7915e3a2e08,PennController,6,0,experiment,NULL,PennController,5,_Trial_,Start,1687281300551,5f9daa4d70977f2fa1b9a0f2,5f9daa4d70977f2fa1b9a0f2,3,clean,critical,B,25,clean15.jpg,clean35.jpg,nogoal,NULL
1687281498,81becc25add18b208fc5c7915e3a2e08,PennController,6,0,experiment,NULL,PennController,5,_Header_,Start,1687281300551,5f9daa4d70977f2fa1b9a0f2,5f9daa4d70977f2fa1b9a0f2,3,clean,critical,B,25,clean15.jpg,clean35.jpg,nogoal,NULL
1687281498,81becc25add18b208fc5c7915e3a2e08,PennController,6,0,experiment,NULL,PennController,5,_Header_,End,1687281300551,5f9daa4d70977f2fa1b9a0f2,5f9daa4d70977f2fa1b9a0f2,3,clean,critical,B,25,clean15.jpg,clean35.jpg,nogoal,NULL
1687281498,81becc25add18b208fc5c7915e3a2e08,PennController,6,0,experiment,NULL,Canvas,canvas6,Print,NA,1687281304314,5f9daa4d70977f2fa1b9a0f2,5f9daa4d70977f2fa1b9a0f2,3,clean,critical,B,25,clean15.jpg,clean35.jpg,nogoal,NULL
1687281498,81becc25add18b208fc5c7915e3a2e08,PennController,6,0,experiment,NULL,Video,progression,buffer,0.008741,1687281302085,5f9daa4d70977f2fa1b9a0f2,5f9daa4d70977f2fa1b9a0f2,3,clean,critical,B,25,clean15.jpg,clean35.jpg,nogoal,NULL
1687281498,81becc25add18b208fc5c7915e3a2e08,PennController,6,0,experiment,NULL,Selector,choice,Selection,option2,1687281306742,5f9daa4d70977f2fa1b9a0f2,5f9daa4d70977f2fa1b9a0f2,3,clean,critical,B,25,clean15.jpg,clean35.jpg,nogoal,option2;option1
1687281498,81becc25add18b208fc5c7915e3a2e08,PennController,6,0,experiment,NULL,PennController,5,_Trial_,End,1687281306743,5f9daa4d70977f2fa1b9a0f2,5f9daa4d70977f2fa1b9a0f2,3,clean,critical,B,25,clean15.jpg,clean35.jpg,nogoal,NULL
1687281498,81becc25add18b208fc5c7915e3a2e08,PennController,7,0,experiment,NULL,PennController,6,_Trial_,Start,1687281306744,5f9daa4d70977f2fa1b9a0f2,5f9daa4d70977f2fa1b9a0f2,4,candy,critical,B,50,candy40.jpg,candy60.jpg,nogoal,NULL
1687281498,81becc25add18b208fc5c7915e3a2e08,PennController,7,0,experiment,NULL,PennController,6,_Header_,Start,1687281306744,5f9daa4d70977f2fa1b9a0f2,5f9daa4d70977f2fa1b9a0f2,4,candy,critical,B,50,candy40.jpg,candy60.jpg,nogoal,NULL
1687281498,81becc25add18b208fc5c7915e3a2e08,PennController,7,0,experiment,NULL,PennController,6,_Header_,End,1687281306744,5f9daa4d70977f2fa1b9a0f2,5f9daa4d70977f2fa1b9a0f2,4,candy,critical,B,50,candy40.jpg,candy60.jpg,nogoal,NULL
1687281498,81becc25add18b208fc5c7915e3a2e08,PennController,7,0,experiment,NULL,Canvas,canvas6,Print,NA,1687281311517,5f9daa4d70977f2fa1b9a0f2,5f9daa4d70977f2fa1b9a0f2,4,candy,critical,B,50,candy40.jpg,candy60.jpg,nogoal,NULL
1687281498,81becc25add18b208fc5c7915e3a2e08,PennController,7,0,experiment,NULL,Video,progression,buffer,0.00957,1687281308297,5f9daa4d70977f2fa1b9a0f2,5f9daa4d70977f2fa1b9a0f2,4,candy,critical,B,50,candy40.jpg,candy60.jpg,nogoal,NULL
1687281498,81becc25add18b208fc5c7915e3a2e08,PennController,7,0,experiment,NULL,Selector,choice,Selection,option1,1687281313644,5f9daa4d70977f2fa1b9a0f2,5f9daa4d70977f2fa1b9a0f2,4,candy,critical,B,50,candy40.jpg,candy60.jpg,nogoal,option2;option1
1687281498,81becc25add18b208fc5c7915e3a2e08,PennController,7,0,experiment,NULL,PennController,6,_Trial_,End,1687281313645,5f9daa4d70977f2fa1b9a0f2,5f9daa4d70977f2fa1b9a0f2,4,candy,critical,B,50,candy40.jpg,candy60.jpg,nogoal,NULL
1687281498,81becc25add18b208fc5c7915e3a2e08,PennController,23,0,experiment,NULL,PennController,22,_Trial_,Start,1687281313648,5f9daa4d70977f2fa1b9a0f2,5f9daa4d70977f2fa1b9a0f2,20,cat,filler,B,75,cat65.jpg,cat85.jpg,nogoal,NULL
1687281498,81becc25add18b208fc5c7915e3a2e08,PennController,23,0,experiment,NULL,PennController,22,_Header_,Start,1687281313648,5f9daa4d70977f2fa1b9a0f2,5f9daa4d70977f2fa1b9a0f2,20,cat,filler,B,75,cat65.jpg,cat85.jpg,nogoal,NULL
1687281498,81becc25add18b208fc5c7915e3a2e08,PennController,23,0,experiment,NULL,PennController,22,_Header_,End,1687281313648,5f9daa4d70977f2fa1b9a0f2,5f9daa4d70977f2fa1b9a0f2,20,cat,filler,B,75,cat65.jpg,cat85.jpg,nogoal,NULL
1687281498,81becc25add18b208fc5c7915e3a2e08,PennController,23,0,experiment,NULL,Canvas,canvas6,Print,NA,1687281319406,5f9daa4d70977f2fa1b9a0f2,5f9daa4d70977f2fa1b9a0f2,20,cat,filler,B,75,cat65.jpg,cat85.jpg,nogoal,NULL
1687281498,81becc25add18b208fc5c7915e3a2e08,PennController,23,0,experiment,NULL,Video,progression,buffer,0.008974,1687281315189,5f9daa4d70977f2fa1b9a0f2,5f9daa4d70977f2fa1b9a0f2,20,cat,filler,B,75,cat65.jpg,cat85.jpg,nogoal,NULL
1687281498,81becc25add18b208fc5c7915e3a2e08,PennController,23,0,experiment,NULL,Selector,choice,Selection,option1,1687281323016,5f9daa4d70977f2fa1b9a0f2,5f9daa4d70977f2fa1b9a0f2,20,cat,filler,B,75,cat65.jpg,cat85.jpg,nogoal,option2;option1
1687281498,81becc25add18b208fc5c7915e3a2e08,PennController,23,0,experiment,NULL,PennController,22,_Trial_,End,1687281323017,5f9daa4d70977f2fa1b9a0f2,5f9daa4d70977f2fa1b9a0f2,20,cat,filler,B,75,cat65.jpg,cat85.jpg,nogoal,NULL
1687281498,81becc25add18b208fc5c7915e3a2e08,PennController,30,0,experiment,NULL,PennController,29,_Trial_,Start,1687281323018,5f9daa4d70977f2fa1b9a0f2,5f9daa4d70977f2fa1b9a0f2,27,square,filler,B,25,square15.jpg,square35.jpg,nogoal,NULL
1687281498,81becc25add18b208fc5c7915e3a2e08,PennController,30,0,experiment,NULL,PennController,29,_Header_,Start,1687281323018,5f9daa4d70977f2fa1b9a0f2,5f9daa4d70977f2fa1b9a0f2,27,square,filler,B,25,square15.jpg,square35.jpg,nogoal,NULL
1687281498,81becc25add18b208fc5c7915e3a2e08,PennController,30,0,experiment,NULL,PennController,29,_Header_,End,1687281323018,5f9daa4d70977f2fa1b9a0f2,5f9daa4d70977f2fa1b9a0f2,27,square,filler,B,25,square15.jpg,square35.jpg,nogoal,NULL
1687281498,81becc25add18b208fc5c7915e3a2e08,PennController,30,0,experiment,NULL,Canvas,canvas6,Print,NA,1687281326789,5f9daa4d70977f2fa1b9a0f2,5f9daa4d70977f2fa1b9a0f2,27,square,filler,B,25,square15.jpg,square35.jpg,nogoal,NULL
1687281498,81becc25add18b208fc5c7915e3a2e08,PennController,30,0,experiment,NULL,Video,progression,buffer,0.007537,1687281324560,5f9daa4d70977f2fa1b9a0f2,5f9daa4d70977f2fa1b9a0f2,27,square,filler,B,25,square15.jpg,square35.jpg,nogoal,NULL
1687281498,81becc25add18b208fc5c7915e3a2e08,PennController,30,0,experiment,NULL,Selector,choice,Selection,option2,1687281328335,5f9daa4d70977f2fa1b9a0f2,5f9daa4d70977f2fa1b9a0f2,27,square,filler,B,25,square15.jpg,square35.jpg,nogoal,option2;option1
1687281498,81becc25add18b208fc5c7915e3a2e08,PennController,30,0,experiment,NULL,PennController,29,_Trial_,End,1687281328337,5f9daa4d70977f2fa1b9a0f2,5f9daa4d70977f2fa1b9a0f2,27,square,filler,B,25,square15.jpg,square35.jpg,nogoal,NULL
1687281498,81becc25add18b208fc5c7915e3a2e08,PennController,25,0,experiment,NULL,PennController,24,_Trial_,Start,1687281328338,5f9daa4d70977f2fa1b9a0f2,5f9daa4d70977f2fa1b9a0f2,22,wall,filler,B,50,wall40.jpg,wall60.jpg,nogoal,NULL
1687281498,81becc25add18b208fc5c7915e3a2e08,PennController,25,0,experiment,NULL,PennController,24,_Header_,Start,1687281328338,5f9daa4d70977f2fa1b9a0f2,5f9daa4d70977f2fa1b9a0f2,22,wall,filler,B,50,wall40.jpg,wall60.jpg,nogoal,NULL
1687281498,81becc25add18b208fc5c7915e3a2e08,PennController,25,0,experiment,NULL,PennController,24,_Header_,End,1687281328338,5f9daa4d70977f2fa1b9a0f2,5f9daa4d70977f2fa1b9a0f2,22,wall,filler,B,50,wall40.jpg,wall60.jpg,nogoal,NULL
1687281498,81becc25add18b208fc5c7915e3a2e08,PennController,25,0,experiment,NULL,Canvas,canvas6,Print,NA,1687281333103,5f9daa4d70977f2fa1b9a0f2,5f9daa4d70977f2fa1b9a0f2,22,wall,filler,B,50,wall40.jpg,wall60.jpg,nogoal,NULL
1687281498,81becc25add18b208fc5c7915e3a2e08,PennController,25,0,experiment,NULL,Video,progression,buffer,0.00763,1687281329868,5f9daa4d70977f2fa1b9a0f2,5f9daa4d70977f2fa1b9a0f2,22,wall,filler,B,50,wall40.jpg,wall60.jpg,nogoal,NULL
1687281498,81becc25add18b208fc5c7915e3a2e08,PennController,25,0,experiment,NULL,Selector,choice,Selection,option2,1687281334572,5f9daa4d70977f2fa1b9a0f2,5f9daa4d70977f2fa1b9a0f2,22,wall,filler,B,50,wall40.jpg,wall60.jpg,nogoal,option2;option1
1687281498,81becc25add18b208fc5c7915e3a2e08,PennController,25,0,experiment,NULL,PennController,24,_Trial_,End,1687281334573,5f9daa4d70977f2fa1b9a0f2,5f9daa4d70977f2fa1b9a0f2,22,wall,filler,B,50,wall40.jpg,wall60.jpg,nogoal,NULL
1687281498,81becc25add18b208fc5c7915e3a2e08,PennController,16,0,experiment,NULL,PennController,15,_Trial_,Start,1687281334575,5f9daa4d70977f2fa1b9a0f2,5f9daa4d70977f2fa1b9a0f2,13,mix,critical,B,50,mix40.jpg,mix60.jpg,nogoal,NULL
1687281498,81becc25add18b208fc5c7915e3a2e08,PennController,16,0,experiment,NULL,PennController,15,_Header_,Start,1687281334575,5f9daa4d70977f2fa1b9a0f2,5f9daa4d70977f2fa1b9a0f2,13,mix,critical,B,50,mix40.jpg,mix60.jpg,nogoal,NULL
1687281498,81becc25add18b208fc5c7915e3a2e08,PennController,16,0,experiment,NULL,PennController,15,_Header_,End,1687281334575,5f9daa4d70977f2fa1b9a0f2,5f9daa4d70977f2fa1b9a0f2,13,mix,critical,B,50,mix40.jpg,mix60.jpg,nogoal,NULL
1687281498,81becc25add18b208fc5c7915e3a2e08,PennController,16,0,experiment,NULL,Canvas,canvas6,Print,NA,1687281339339,5f9daa4d70977f2fa1b9a0f2,5f9daa4d70977f2fa1b9a0f2,13,mix,critical,B,50,mix40.jpg,mix60.jpg,nogoal,NULL
1687281498,81becc25add18b208fc5c7915e3a2e08,PennController,16,0,experiment,NULL,Video,progression,buffer,0.007368,1687281336113,5f9daa4d70977f2fa1b9a0f2,5f9daa4d70977f2fa1b9a0f2,13,mix,critical,B,50,mix40.jpg,mix60.jpg,nogoal,NULL
1687281498,81becc25add18b208fc5c7915e3a2e08,PennController,16,0,experiment,NULL,Selector,choice,Selection,option2,1687281341329,5f9daa4d70977f2fa1b9a0f2,5f9daa4d70977f2fa1b9a0f2,13,mix,critical,B,50,mix40.jpg,mix60.jpg,nogoal,option2;option1
1687281498,81becc25add18b208fc5c7915e3a2e08,PennController,16,0,experiment,NULL,PennController,15,_Trial_,End,1687281341331,5f9daa4d70977f2fa1b9a0f2,5f9daa4d70977f2fa1b9a0f2,13,mix,critical,B,50,mix40.jpg,mix60.jpg,nogoal,NULL
1687281498,81becc25add18b208fc5c7915e3a2e08,PennController,27,0,experiment,NULL,PennController,26,_Trial_,Start,1687281341332,5f9daa4d70977f2fa1b9a0f2,5f9daa4d70977f2fa1b9a0f2,24,match,filler,B,25,match15.jpg,match35.jpg,nogoal,NULL
1687281498,81becc25add18b208fc5c7915e3a2e08,PennController,27,0,experiment,NULL,PennController,26,_Header_,Start,1687281341332,5f9daa4d70977f2fa1b9a0f2,5f9daa4d70977f2fa1b9a0f2,24,match,filler,B,25,match15.jpg,match35.jpg,nogoal,NULL
1687281498,81becc25add18b208fc5c7915e3a2e08,PennController,27,0,experiment,NULL,PennController,26,_Header_,End,1687281341332,5f9daa4d70977f2fa1b9a0f2,5f9daa4d70977f2fa1b9a0f2,24,match,filler,B,25,match15.jpg,match35.jpg,nogoal,NULL
1687281498,81becc25add18b208fc5c7915e3a2e08,PennController,27,0,experiment,NULL,Canvas,canvas6,Print,NA,1687281345082,5f9daa4d70977f2fa1b9a0f2,5f9daa4d70977f2fa1b9a0f2,24,match,filler,B,25,match15.jpg,match35.jpg,nogoal,NULL
1687281498,81becc25add18b208fc5c7915e3a2e08,PennController,27,0,experiment,NULL,Video,progression,buffer,0.007395,1687281342868,5f9daa4d70977f2fa1b9a0f2,5f9daa4d70977f2fa1b9a0f2,24,match,filler,B,25,match15.jpg,match35.jpg,nogoal,NULL
1687281498,81becc25add18b208fc5c7915e3a2e08,PennController,27,0,experiment,NULL,Selector,choice,Selection,option2,1687281347325,5f9daa4d70977f2fa1b9a0f2,5f9daa4d70977f2fa1b9a0f2,24,match,filler,B,25,match15.jpg,match35.jpg,nogoal,option1;option2
1687281498,81becc25add18b208fc5c7915e3a2e08,PennController,27,0,experiment,NULL,PennController,26,_Trial_,End,1687281347327,5f9daa4d70977f2fa1b9a0f2,5f9daa4d70977f2fa1b9a0f2,24,match,filler,B,25,match15.jpg,match35.jpg,nogoal,NULL
1687281498,81becc25add18b208fc5c7915e3a2e08,PennController,8,0,experiment,NULL,PennController,7,_Trial_,Start,1687281347329,5f9daa4d70977f2fa1b9a0f2,5f9daa4d70977f2fa1b9a0f2,5,book,critical,B,75,book65.jpg,book85.jpg,nogoal,NULL
1687281498,81becc25add18b208fc5c7915e3a2e08,PennController,8,0,experiment,NULL,PennController,7,_Header_,Start,1687281347329,5f9daa4d70977f2fa1b9a0f2,5f9daa4d70977f2fa1b9a0f2,5,book,critical,B,75,book65.jpg,book85.jpg,nogoal,NULL
1687281498,81becc25add18b208fc5c7915e3a2e08,PennController,8,0,experiment,NULL,PennController,7,_Header_,End,1687281347329,5f9daa4d70977f2fa1b9a0f2,5f9daa4d70977f2fa1b9a0f2,5,book,critical,B,75,book65.jpg,book85.jpg,nogoal,NULL
1687281498,81becc25add18b208fc5c7915e3a2e08,PennController,8,0,experiment,NULL,Canvas,canvas6,Print,NA,1687281353098,5f9daa4d70977f2fa1b9a0f2,5f9daa4d70977f2fa1b9a0f2,5,book,critical,B,75,book65.jpg,book85.jpg,nogoal,NULL
1687281498,81becc25add18b208fc5c7915e3a2e08,PennController,8,0,experiment,NULL,Video,progression,buffer,0.007551,1687281348862,5f9daa4d70977f2fa1b9a0f2,5f9daa4d70977f2fa1b9a0f2,5,book,critical,B,75,book65.jpg,book85.jpg,nogoal,NULL
1687281498,81becc25add18b208fc5c7915e3a2e08,PennController,8,0,experiment,NULL,Selector,choice,Selection,option1,1687281355363,5f9daa4d70977f2fa1b9a0f2,5f9daa4d70977f2fa1b9a0f2,5,book,critical,B,75,book65.jpg,book85.jpg,nogoal,option1;option2
1687281498,81becc25add18b208fc5c7915e3a2e08,PennController,8,0,experiment,NULL,PennController,7,_Trial_,End,1687281355365,5f9daa4d70977f2fa1b9a0f2,5f9daa4d70977f2fa1b9a0f2,5,book,critical,B,75,book65.jpg,book85.jpg,nogoal,NULL
1687281498,81becc25add18b208fc5c7915e3a2e08,PennController,11,0,experiment,NULL,PennController,10,_Trial_,Start,1687281355366,5f9daa4d70977f2fa1b9a0f2,5f9daa4d70977f2fa1b9a0f2,8,cucumber,critical,B,75,cucumber66.jpg,cucumber84.jpg,nogoal,NULL
1687281498,81becc25add18b208fc5c7915e3a2e08,PennController,11,0,experiment,NULL,PennController,10,_Header_,Start,1687281355366,5f9daa4d70977f2fa1b9a0f2,5f9daa4d70977f2fa1b9a0f2,8,cucumber,critical,B,75,cucumber66.jpg,cucumber84.jpg,nogoal,NULL
1687281498,81becc25add18b208fc5c7915e3a2e08,PennController,11,0,experiment,NULL,PennController,10,_Header_,End,1687281355366,5f9daa4d70977f2fa1b9a0f2,5f9daa4d70977f2fa1b9a0f2,8,cucumber,critical,B,75,cucumber66.jpg,cucumber84.jpg,nogoal,NULL
1687281498,81becc25add18b208fc5c7915e3a2e08,PennController,11,0,experiment,NULL,Canvas,canvas6,Print,NA,1687281363123,5f9daa4d70977f2fa1b9a0f2,5f9daa4d70977f2fa1b9a0f2,8,cucumber,critical,B,75,cucumber66.jpg,cucumber84.jpg,nogoal,NULL
1687281498,81becc25add18b208fc5c7915e3a2e08,PennController,11,0,experiment,NULL,Video,progression,buffer,0.009959,1687281356906,5f9daa4d70977f2fa1b9a0f2,5f9daa4d70977f2fa1b9a0f2,8,cucumber,critical,B,75,cucumber66.jpg,cucumber84.jpg,nogoal,NULL
1687281498,81becc25add18b208fc5c7915e3a2e08,PennController,11,0,experiment,NULL,Selector,choice,Selection,option1,1687281365892,5f9daa4d70977f2fa1b9a0f2,5f9daa4d70977f2fa1b9a0f2,8,cucumber,critical,B,75,cucumber66.jpg,cucumber84.jpg,nogoal,option2;option1
1687281498,81becc25add18b208fc5c7915e3a2e08,PennController,11,0,experiment,NULL,PennController,10,_Trial_,End,1687281365893,5f9daa4d70977f2fa1b9a0f2,5f9daa4d70977f2fa1b9a0f2,8,cucumber,critical,B,75,cucumber66.jpg,cucumber84.jpg,nogoal,NULL
1687281498,81becc25add18b208fc5c7915e3a2e08,PennController,10,0,experiment,NULL,PennController,9,_Trial_,Start,1687281365894,5f9daa4d70977f2fa1b9a0f2,5f9daa4d70977f2fa1b9a0f2,7,stack,critical,B,50,stack40.jpg,stack60.jpg,nogoal,NULL
1687281498,81becc25add18b208fc5c7915e3a2e08,PennController,10,0,experiment,NULL,PennController,9,_Header_,Start,1687281365894,5f9daa4d70977f2fa1b9a0f2,5f9daa4d70977f2fa1b9a0f2,7,stack,critical,B,50,stack40.jpg,stack60.jpg,nogoal,NULL
1687281498,81becc25add18b208fc5c7915e3a2e08,PennController,10,0,experiment,NULL,PennController,9,_Header_,End,1687281365894,5f9daa4d70977f2fa1b9a0f2,5f9daa4d70977f2fa1b9a0f2,7,stack,critical,B,50,stack40.jpg,stack60.jpg,nogoal,NULL
1687281498,81becc25add18b208fc5c7915e3a2e08,PennController,10,0,experiment,NULL,Canvas,canvas6,Print,NA,1687281370651,5f9daa4d70977f2fa1b9a0f2,5f9daa4d70977f2fa1b9a0f2,7,stack,critical,B,50,stack40.jpg,stack60.jpg,nogoal,NULL
1687281498,81becc25add18b208fc5c7915e3a2e08,PennController,10,0,experiment,NULL,Video,progression,buffer,0.007171,1687281367428,5f9daa4d70977f2fa1b9a0f2,5f9daa4d70977f2fa1b9a0f2,7,stack,critical,B,50,stack40.jpg,stack60.jpg,nogoal,NULL
1687281498,81becc25add18b208fc5c7915e3a2e08,PennController,10,0,experiment,NULL,Selector,choice,Selection,option2,1687281373522,5f9daa4d70977f2fa1b9a0f2,5f9daa4d70977f2fa1b9a0f2,7,stack,critical,B,50,stack40.jpg,stack60.jpg,nogoal,option1;option2
1687281498,81becc25add18b208fc5c7915e3a2e08,PennController,10,0,experiment,NULL,PennController,9,_Trial_,End,1687281373524,5f9daa4d70977f2fa1b9a0f2,5f9daa4d70977f2fa1b9a0f2,7,stack,critical,B,50,stack40.jpg,stack60.jpg,nogoal,NULL
1687281498,81becc25add18b208fc5c7915e3a2e08,PennController,19,0,experiment,NULL,PennController,18,_Trial_,Start,1687281373525,5f9daa4d70977f2fa1b9a0f2,5f9daa4d70977f2fa1b9a0f2,16,blinds,critical,B,50,blinds42.jpg,blinds60.jpg,nogoal,NULL
1687281498,81becc25add18b208fc5c7915e3a2e08,PennController,19,0,experiment,NULL,PennController,18,_Header_,Start,1687281373525,5f9daa4d70977f2fa1b9a0f2,5f9daa4d70977f2fa1b9a0f2,16,blinds,critical,B,50,blinds42.jpg,blinds60.jpg,nogoal,NULL
1687281498,81becc25add18b208fc5c7915e3a2e08,PennController,19,0,experiment,NULL,PennController,18,_Header_,End,1687281373525,5f9daa4d70977f2fa1b9a0f2,5f9daa4d70977f2fa1b9a0f2,16,blinds,critical,B,50,blinds42.jpg,blinds60.jpg,nogoal,NULL
1687281498,81becc25add18b208fc5c7915e3a2e08,PennController,19,0,experiment,NULL,Canvas,canvas6,Print,NA,1687281379684,5f9daa4d70977f2fa1b9a0f2,5f9daa4d70977f2fa1b9a0f2,16,blinds,critical,B,50,blinds42.jpg,blinds60.jpg,nogoal,NULL
1687281498,81becc25add18b208fc5c7915e3a2e08,PennController,19,0,experiment,NULL,Video,progression,buffer,0.007588,1687281375063,5f9daa4d70977f2fa1b9a0f2,5f9daa4d70977f2fa1b9a0f2,16,blinds,critical,B,50,blinds42.jpg,blinds60.jpg,nogoal,NULL
1687281498,81becc25add18b208fc5c7915e3a2e08,PennController,19,0,experiment,NULL,Selector,choice,Selection,option2,1687281382139,5f9daa4d70977f2fa1b9a0f2,5f9daa4d70977f2fa1b9a0f2,16,blinds,critical,B,50,blinds42.jpg,blinds60.jpg,nogoal,option2;option1
1687281498,81becc25add18b208fc5c7915e3a2e08,PennController,19,0,experiment,NULL,PennController,18,_Trial_,End,1687281382140,5f9daa4d70977f2fa1b9a0f2,5f9daa4d70977f2fa1b9a0f2,16,blinds,critical,B,50,blinds42.jpg,blinds60.jpg,nogoal,NULL
1687281498,81becc25add18b208fc5c7915e3a2e08,PennController,15,0,experiment,NULL,PennController,14,_Trial_,Start,1687281382142,5f9daa4d70977f2fa1b9a0f2,5f9daa4d70977f2fa1b9a0f2,12,erase,critical,B,25,erase15.jpg,erase33.jpg,nogoal,NULL
1687281498,81becc25add18b208fc5c7915e3a2e08,PennController,15,0,experiment,NULL,PennController,14,_Header_,Start,1687281382142,5f9daa4d70977f2fa1b9a0f2,5f9daa4d70977f2fa1b9a0f2,12,erase,critical,B,25,erase15.jpg,erase33.jpg,nogoal,NULL
1687281498,81becc25add18b208fc5c7915e3a2e08,PennController,15,0,experiment,NULL,PennController,14,_Header_,End,1687281382142,5f9daa4d70977f2fa1b9a0f2,5f9daa4d70977f2fa1b9a0f2,12,erase,critical,B,25,erase15.jpg,erase33.jpg,nogoal,NULL
1687281498,81becc25add18b208fc5c7915e3a2e08,PennController,15,0,experiment,NULL,Canvas,canvas6,Print,NA,1687281386485,5f9daa4d70977f2fa1b9a0f2,5f9daa4d70977f2fa1b9a0f2,12,erase,critical,B,25,erase15.jpg,erase33.jpg,nogoal,NULL
1687281498,81becc25add18b208fc5c7915e3a2e08,PennController,15,0,experiment,NULL,Video,progression,buffer,0.007755,1687281383674,5f9daa4d70977f2fa1b9a0f2,5f9daa4d70977f2fa1b9a0f2,12,erase,critical,B,25,erase15.jpg,erase33.jpg,nogoal,NULL
1687281498,81becc25add18b208fc5c7915e3a2e08,PennController,15,0,experiment,NULL,Selector,choice,Selection,option2,1687281388329,5f9daa4d70977f2fa1b9a0f2,5f9daa4d70977f2fa1b9a0f2,12,erase,critical,B,25,erase15.jpg,erase33.jpg,nogoal,option1;option2
1687281498,81becc25add18b208fc5c7915e3a2e08,PennController,15,0,experiment,NULL,PennController,14,_Trial_,End,1687281388330,5f9daa4d70977f2fa1b9a0f2,5f9daa4d70977f2fa1b9a0f2,12,erase,critical,B,25,erase15.jpg,erase33.jpg,nogoal,NULL
1687281498,81becc25add18b208fc5c7915e3a2e08,PennController,21,0,experiment,NULL,PennController,20,_Trial_,Start,1687281388332,5f9daa4d70977f2fa1b9a0f2,5f9daa4d70977f2fa1b9a0f2,18,ball,critical,B,25,ball15.jpg,ball35.jpg,nogoal,NULL
1687281498,81becc25add18b208fc5c7915e3a2e08,PennController,21,0,experiment,NULL,PennController,20,_Header_,Start,1687281388332,5f9daa4d70977f2fa1b9a0f2,5f9daa4d70977f2fa1b9a0f2,18,ball,critical,B,25,ball15.jpg,ball35.jpg,nogoal,NULL
1687281498,81becc25add18b208fc5c7915e3a2e08,PennController,21,0,experiment,NULL,PennController,20,_Header_,End,1687281388332,5f9daa4d70977f2fa1b9a0f2,5f9daa4d70977f2fa1b9a0f2,18,ball,critical,B,25,ball15.jpg,ball35.jpg,nogoal,NULL
1687281498,81becc25add18b208fc5c7915e3a2e08,PennController,21,0,experiment,NULL,Canvas,canvas6,Print,NA,1687281392091,5f9daa4d70977f2fa1b9a0f2,5f9daa4d70977f2fa1b9a0f2,18,ball,critical,B,25,ball15.jpg,ball35.jpg,nogoal,NULL
1687281498,81becc25add18b208fc5c7915e3a2e08,PennController,21,0,experiment,NULL,Video,progression,buffer,0.00648,1687281389862,5f9daa4d70977f2fa1b9a0f2,5f9daa4d70977f2fa1b9a0f2,18,ball,critical,B,25,ball15.jpg,ball35.jpg,nogoal,NULL
1687281498,81becc25add18b208fc5c7915e3a2e08,PennController,21,0,experiment,NULL,Selector,choice,Selection,option2,1687281393769,5f9daa4d70977f2fa1b9a0f2,5f9daa4d70977f2fa1b9a0f2,18,ball,critical,B,25,ball15.jpg,ball35.jpg,nogoal,option2;option1
1687281498,81becc25add18b208fc5c7915e3a2e08,PennController,21,0,experiment,NULL,PennController,20,_Trial_,End,1687281393770,5f9daa4d70977f2fa1b9a0f2,5f9daa4d70977f2fa1b9a0f2,18,ball,critical,B,25,ball15.jpg,ball35.jpg,nogoal,NULL
1687281498,81becc25add18b208fc5c7915e3a2e08,PennController,4,0,experiment,NULL,PennController,3,_Trial_,Start,1687281393771,5f9daa4d70977f2fa1b9a0f2,5f9daa4d70977f2fa1b9a0f2,1,vase,critical,B,50,vase40.jpg,vase60.jpg,nogoal,NULL
1687281498,81becc25add18b208fc5c7915e3a2e08,PennController,4,0,experiment,NULL,PennController,3,_Header_,Start,1687281393771,5f9daa4d70977f2fa1b9a0f2,5f9daa4d70977f2fa1b9a0f2,1,vase,critical,B,50,vase40.jpg,vase60.jpg,nogoal,NULL
1687281498,81becc25add18b208fc5c7915e3a2e08,PennController,4,0,experiment,NULL,PennController,3,_Header_,End,1687281393771,5f9daa4d70977f2fa1b9a0f2,5f9daa4d70977f2fa1b9a0f2,1,vase,critical,B,50,vase40.jpg,vase60.jpg,nogoal,NULL
1687281498,81becc25add18b208fc5c7915e3a2e08,PennController,4,0,experiment,NULL,Canvas,canvas6,Print,NA,1687281398520,5f9daa4d70977f2fa1b9a0f2,5f9daa4d70977f2fa1b9a0f2,1,vase,critical,B,50,vase40.jpg,vase60.jpg,nogoal,NULL
1687281498,81becc25add18b208fc5c7915e3a2e08,PennController,4,0,experiment,NULL,Video,progression,buffer,0.007556,1687281395304,5f9daa4d70977f2fa1b9a0f2,5f9daa4d70977f2fa1b9a0f2,1,vase,critical,B,50,vase40.jpg,vase60.jpg,nogoal,NULL
1687281498,81becc25add18b208fc5c7915e3a2e08,PennController,4,0,experiment,NULL,Selector,choice,Selection,option1,1687281401272,5f9daa4d70977f2fa1b9a0f2,5f9daa4d70977f2fa1b9a0f2,1,vase,critical,B,50,vase40.jpg,vase60.jpg,nogoal,option1;option2
1687281498,81becc25add18b208fc5c7915e3a2e08,PennController,4,0,experiment,NULL,PennController,3,_Trial_,End,1687281401274,5f9daa4d70977f2fa1b9a0f2,5f9daa4d70977f2fa1b9a0f2,1,vase,critical,B,50,vase40.jpg,vase60.jpg,nogoal,NULL
1687281498,81becc25add18b208fc5c7915e3a2e08,PennController,12,0,experiment,NULL,PennController,11,_Trial_,Start,1687281401276,5f9daa4d70977f2fa1b9a0f2,5f9daa4d70977f2fa1b9a0f2,9,cake,critical,B,25,cake15.jpg,cake33.jpg,nogoal,NULL
1687281498,81becc25add18b208fc5c7915e3a2e08,PennController,12,0,experiment,NULL,PennController,11,_Header_,Start,1687281401276,5f9daa4d70977f2fa1b9a0f2,5f9daa4d70977f2fa1b9a0f2,9,cake,critical,B,25,cake15.jpg,cake33.jpg,nogoal,NULL
1687281498,81becc25add18b208fc5c7915e3a2e08,PennController,12,0,experiment,NULL,PennController,11,_Header_,End,1687281401276,5f9daa4d70977f2fa1b9a0f2,5f9daa4d70977f2fa1b9a0f2,9,cake,critical,B,25,cake15.jpg,cake33.jpg,nogoal,NULL
1687281498,81becc25add18b208fc5c7915e3a2e08,PennController,12,0,experiment,NULL,Canvas,canvas6,Print,NA,1687281405635,5f9daa4d70977f2fa1b9a0f2,5f9daa4d70977f2fa1b9a0f2,9,cake,critical,B,25,cake15.jpg,cake33.jpg,nogoal,NULL
1687281498,81becc25add18b208fc5c7915e3a2e08,PennController,12,0,experiment,NULL,Video,progression,buffer,0.007743,1687281402805,5f9daa4d70977f2fa1b9a0f2,5f9daa4d70977f2fa1b9a0f2,9,cake,critical,B,25,cake15.jpg,cake33.jpg,nogoal,NULL
1687281498,81becc25add18b208fc5c7915e3a2e08,PennController,12,0,experiment,NULL,Selector,choice,Selection,option1,1687281408604,5f9daa4d70977f2fa1b9a0f2,5f9daa4d70977f2fa1b9a0f2,9,cake,critical,B,25,cake15.jpg,cake33.jpg,nogoal,option1;option2
1687281498,81becc25add18b208fc5c7915e3a2e08,PennController,12,0,experiment,NULL,PennController,11,_Trial_,End,1687281408606,5f9daa4d70977f2fa1b9a0f2,5f9daa4d70977f2fa1b9a0f2,9,cake,critical,B,25,cake15.jpg,cake33.jpg,nogoal,NULL
1687281498,81becc25add18b208fc5c7915e3a2e08,PennController,29,0,experiment,NULL,PennController,28,_Trial_,Start,1687281408607,5f9daa4d70977f2fa1b9a0f2,5f9daa4d70977f2fa1b9a0f2,26,sandwich,filler,B,75,sandwich65.jpg,sandwich85.jpg,nogoal,NULL
1687281498,81becc25add18b208fc5c7915e3a2e08,PennController,29,0,experiment,NULL,PennController,28,_Header_,Start,1687281408607,5f9daa4d70977f2fa1b9a0f2,5f9daa4d70977f2fa1b9a0f2,26,sandwich,filler,B,75,sandwich65.jpg,sandwich85.jpg,nogoal,NULL
1687281498,81becc25add18b208fc5c7915e3a2e08,PennController,29,0,experiment,NULL,PennController,28,_Header_,End,1687281408607,5f9daa4d70977f2fa1b9a0f2,5f9daa4d70977f2fa1b9a0f2,26,sandwich,filler,B,75,sandwich65.jpg,sandwich85.jpg,nogoal,NULL
1687281498,81becc25add18b208fc5c7915e3a2e08,PennController,29,0,experiment,NULL,Canvas,canvas6,Print,NA,1687281414370,5f9daa4d70977f2fa1b9a0f2,5f9daa4d70977f2fa1b9a0f2,26,sandwich,filler,B,75,sandwich65.jpg,sandwich85.jpg,nogoal,NULL
1687281498,81becc25add18b208fc5c7915e3a2e08,PennController,29,0,experiment,NULL,Video,progression,buffer,0.009731,1687281410149,5f9daa4d70977f2fa1b9a0f2,5f9daa4d70977f2fa1b9a0f2,26,sandwich,filler,B,75,sandwich65.jpg,sandwich85.jpg,nogoal,NULL
1687281498,81becc25add18b208fc5c7915e3a2e08,PennController,29,0,experiment,NULL,Selector,choice,Selection,option1,1687281415970,5f9daa4d70977f2fa1b9a0f2,5f9daa4d70977f2fa1b9a0f2,26,sandwich,filler,B,75,sandwich65.jpg,sandwich85.jpg,nogoal,option2;option1
1687281498,81becc25add18b208fc5c7915e3a2e08,PennController,29,0,experiment,NULL,PennController,28,_Trial_,End,1687281415971,5f9daa4d70977f2fa1b9a0f2,5f9daa4d70977f2fa1b9a0f2,26,sandwich,filler,B,75,sandwich65.jpg,sandwich85.jpg,nogoal,NULL
1687281498,81becc25add18b208fc5c7915e3a2e08,PennController,28,0,experiment,NULL,PennController,27,_Trial_,Start,1687281415972,5f9daa4d70977f2fa1b9a0f2,5f9daa4d70977f2fa1b9a0f2,25,house,filler,B,50,house40.jpg,house60.jpg,nogoal,NULL
1687281498,81becc25add18b208fc5c7915e3a2e08,PennController,28,0,experiment,NULL,PennController,27,_Header_,Start,1687281415972,5f9daa4d70977f2fa1b9a0f2,5f9daa4d70977f2fa1b9a0f2,25,house,filler,B,50,house40.jpg,house60.jpg,nogoal,NULL
1687281498,81becc25add18b208fc5c7915e3a2e08,PennController,28,0,experiment,NULL,PennController,27,_Header_,End,1687281415972,5f9daa4d70977f2fa1b9a0f2,5f9daa4d70977f2fa1b9a0f2,25,house,filler,B,50,house40.jpg,house60.jpg,nogoal,NULL
1687281498,81becc25add18b208fc5c7915e3a2e08,PennController,28,0,experiment,NULL,Canvas,canvas6,Print,NA,1687281420721,5f9daa4d70977f2fa1b9a0f2,5f9daa4d70977f2fa1b9a0f2,25,house,filler,B,50,house40.jpg,house60.jpg,nogoal,NULL
1687281498,81becc25add18b208fc5c7915e3a2e08,PennController,28,0,experiment,NULL,Video,progression,buffer,0.007118,1687281417504,5f9daa4d70977f2fa1b9a0f2,5f9daa4d70977f2fa1b9a0f2,25,house,filler,B,50,house40.jpg,house60.jpg,nogoal,NULL
1687281498,81becc25add18b208fc5c7915e3a2e08,PennController,28,0,experiment,NULL,Selector,choice,Selection,option1,1687281422642,5f9daa4d70977f2fa1b9a0f2,5f9daa4d70977f2fa1b9a0f2,25,house,filler,B,50,house40.jpg,house60.jpg,nogoal,option1;option2
1687281498,81becc25add18b208fc5c7915e3a2e08,PennController,28,0,experiment,NULL,PennController,27,_Trial_,End,1687281422643,5f9daa4d70977f2fa1b9a0f2,5f9daa4d70977f2fa1b9a0f2,25,house,filler,B,50,house40.jpg,house60.jpg,nogoal,NULL
1687281498,81becc25add18b208fc5c7915e3a2e08,PennController,17,0,experiment,NULL,PennController,16,_Trial_,Start,1687281422645,5f9daa4d70977f2fa1b9a0f2,5f9daa4d70977f2fa1b9a0f2,14,cover,critical,B,75,cover66.jpg,cover84.jpg,nogoal,NULL
1687281498,81becc25add18b208fc5c7915e3a2e08,PennController,17,0,experiment,NULL,PennController,16,_Header_,Start,1687281422645,5f9daa4d70977f2fa1b9a0f2,5f9daa4d70977f2fa1b9a0f2,14,cover,critical,B,75,cover66.jpg,cover84.jpg,nogoal,NULL
1687281498,81becc25add18b208fc5c7915e3a2e08,PennController,17,0,experiment,NULL,PennController,16,_Header_,End,1687281422645,5f9daa4d70977f2fa1b9a0f2,5f9daa4d70977f2fa1b9a0f2,14,cover,critical,B,75,cover66.jpg,cover84.jpg,nogoal,NULL
1687281498,81becc25add18b208fc5c7915e3a2e08,PennController,17,0,experiment,NULL,Canvas,canvas6,Print,NA,1687281430401,5f9daa4d70977f2fa1b9a0f2,5f9daa4d70977f2fa1b9a0f2,14,cover,critical,B,75,cover66.jpg,cover84.jpg,nogoal,NULL
1687281498,81becc25add18b208fc5c7915e3a2e08,PennController,17,0,experiment,NULL,Video,progression,buffer,0.006992,1687281424182,5f9daa4d70977f2fa1b9a0f2,5f9daa4d70977f2fa1b9a0f2,14,cover,critical,B,75,cover66.jpg,cover84.jpg,nogoal,NULL
1687281498,81becc25add18b208fc5c7915e3a2e08,PennController,17,0,experiment,NULL,Selector,choice,Selection,option1,1687281432339,5f9daa4d70977f2fa1b9a0f2,5f9daa4d70977f2fa1b9a0f2,14,cover,critical,B,75,cover66.jpg,cover84.jpg,nogoal,option1;option2
1687281498,81becc25add18b208fc5c7915e3a2e08,PennController,17,0,experiment,NULL,PennController,16,_Trial_,End,1687281432340,5f9daa4d70977f2fa1b9a0f2,5f9daa4d70977f2fa1b9a0f2,14,cover,critical,B,75,cover66.jpg,cover84.jpg,nogoal,NULL
1687281498,81becc25add18b208fc5c7915e3a2e08,PennController,31,0,experiment,NULL,PennController,30,_Trial_,Start,1687281432343,5f9daa4d70977f2fa1b9a0f2,5f9daa4d70977f2fa1b9a0f2,28,sort,filler,B,50,sort40.jpg,sort60.jpg,nogoal,NULL
1687281498,81becc25add18b208fc5c7915e3a2e08,PennController,31,0,experiment,NULL,PennController,30,_Header_,Start,1687281432343,5f9daa4d70977f2fa1b9a0f2,5f9daa4d70977f2fa1b9a0f2,28,sort,filler,B,50,sort40.jpg,sort60.jpg,nogoal,NULL
1687281498,81becc25add18b208fc5c7915e3a2e08,PennController,31,0,experiment,NULL,PennController,30,_Header_,End,1687281432343,5f9daa4d70977f2fa1b9a0f2,5f9daa4d70977f2fa1b9a0f2,28,sort,filler,B,50,sort40.jpg,sort60.jpg,nogoal,NULL
1687281498,81becc25add18b208fc5c7915e3a2e08,PennController,31,0,experiment,NULL,Canvas,canvas6,Print,NA,1687281437089,5f9daa4d70977f2fa1b9a0f2,5f9daa4d70977f2fa1b9a0f2,28,sort,filler,B,50,sort40.jpg,sort60.jpg,nogoal,NULL
1687281498,81becc25add18b208fc5c7915e3a2e08,PennController,31,0,experiment,NULL,Video,progression,buffer,0.00835,1687281433875,5f9daa4d70977f2fa1b9a0f2,5f9daa4d70977f2fa1b9a0f2,28,sort,filler,B,50,sort40.jpg,sort60.jpg,nogoal,NULL
1687281498,81becc25add18b208fc5c7915e3a2e08,PennController,31,0,experiment,NULL,Selector,choice,Selection,option1,1687281440695,5f9daa4d70977f2fa1b9a0f2,5f9daa4d70977f2fa1b9a0f2,28,sort,filler,B,50,sort40.jpg,sort60.jpg,nogoal,option2;option1
1687281498,81becc25add18b208fc5c7915e3a2e08,PennController,31,0,experiment,NULL,PennController,30,_Trial_,End,1687281440697,5f9daa4d70977f2fa1b9a0f2,5f9daa4d70977f2fa1b9a0f2,28,sort,filler,B,50,sort40.jpg,sort60.jpg,nogoal,NULL
1687281498,81becc25add18b208fc5c7915e3a2e08,PennController,22,0,experiment,NULL,PennController,21,_Trial_,Start,1687281440698,5f9daa4d70977f2fa1b9a0f2,5f9daa4d70977f2fa1b9a0f2,19,cup,filler,B,50,cup40.jpg,cup60.jpg,nogoal,NULL
1687281498,81becc25add18b208fc5c7915e3a2e08,PennController,22,0,experiment,NULL,PennController,21,_Header_,Start,1687281440698,5f9daa4d70977f2fa1b9a0f2,5f9daa4d70977f2fa1b9a0f2,19,cup,filler,B,50,cup40.jpg,cup60.jpg,nogoal,NULL
1687281498,81becc25add18b208fc5c7915e3a2e08,PennController,22,0,experiment,NULL,PennController,21,_Header_,End,1687281440698,5f9daa4d70977f2fa1b9a0f2,5f9daa4d70977f2fa1b9a0f2,19,cup,filler,B,50,cup40.jpg,cup60.jpg,nogoal,NULL
1687281498,81becc25add18b208fc5c7915e3a2e08,PennController,22,0,experiment,NULL,Canvas,canvas6,Print,NA,1687281445455,5f9daa4d70977f2fa1b9a0f2,5f9daa4d70977f2fa1b9a0f2,19,cup,filler,B,50,cup40.jpg,cup60.jpg,nogoal,NULL
1687281498,81becc25add18b208fc5c7915e3a2e08,PennController,22,0,experiment,NULL,Video,progression,buffer,0.003228,1687281442228,5f9daa4d70977f2fa1b9a0f2,5f9daa4d70977f2fa1b9a0f2,19,cup,filler,B,50,cup40.jpg,cup60.jpg,nogoal,NULL
1687281498,81becc25add18b208fc5c7915e3a2e08,PennController,22,0,experiment,NULL,Selector,choice,Selection,option2,1687281448517,5f9daa4d70977f2fa1b9a0f2,5f9daa4d70977f2fa1b9a0f2,19,cup,filler,B,50,cup40.jpg,cup60.jpg,nogoal,option1;option2
1687281498,81becc25add18b208fc5c7915e3a2e08,PennController,22,0,experiment,NULL,PennController,21,_Trial_,End,1687281448518,5f9daa4d70977f2fa1b9a0f2,5f9daa4d70977f2fa1b9a0f2,19,cup,filler,B,50,cup40.jpg,cup60.jpg,nogoal,NULL
1687281498,81becc25add18b208fc5c7915e3a2e08,PennController,32,0,experiment,NULL,PennController,31,_Trial_,Start,1687281448519,5f9daa4d70977f2fa1b9a0f2,5f9daa4d70977f2fa1b9a0f2,29,frog,filler,B,75,frog65.jpg,frog85.jpg,nogoal,NULL
1687281498,81becc25add18b208fc5c7915e3a2e08,PennController,32,0,experiment,NULL,PennController,31,_Header_,Start,1687281448519,5f9daa4d70977f2fa1b9a0f2,5f9daa4d70977f2fa1b9a0f2,29,frog,filler,B,75,frog65.jpg,frog85.jpg,nogoal,NULL
1687281498,81becc25add18b208fc5c7915e3a2e08,PennController,32,0,experiment,NULL,PennController,31,_Header_,End,1687281448519,5f9daa4d70977f2fa1b9a0f2,5f9daa4d70977f2fa1b9a0f2,29,frog,filler,B,75,frog65.jpg,frog85.jpg,nogoal,NULL
1687281498,81becc25add18b208fc5c7915e3a2e08,PennController,32,0,experiment,NULL,Canvas,canvas6,Print,NA,1687281454279,5f9daa4d70977f2fa1b9a0f2,5f9daa4d70977f2fa1b9a0f2,29,frog,filler,B,75,frog65.jpg,frog85.jpg,nogoal,NULL
1687281498,81becc25add18b208fc5c7915e3a2e08,PennController,32,0,experiment,NULL,Video,progression,buffer,0.008398,1687281450057,5f9daa4d70977f2fa1b9a0f2,5f9daa4d70977f2fa1b9a0f2,29,frog,filler,B,75,frog65.jpg,frog85.jpg,nogoal,NULL
1687281498,81becc25add18b208fc5c7915e3a2e08,PennController,32,0,experiment,NULL,Selector,choice,Selection,option1,1687281455551,5f9daa4d70977f2fa1b9a0f2,5f9daa4d70977f2fa1b9a0f2,29,frog,filler,B,75,frog65.jpg,frog85.jpg,nogoal,option2;option1
1687281498,81becc25add18b208fc5c7915e3a2e08,PennController,32,0,experiment,NULL,PennController,31,_Trial_,End,1687281455552,5f9daa4d70977f2fa1b9a0f2,5f9daa4d70977f2fa1b9a0f2,29,frog,filler,B,75,frog65.jpg,frog85.jpg,nogoal,NULL
1687281498,81becc25add18b208fc5c7915e3a2e08,PennController,26,0,experiment,NULL,PennController,25,_Trial_,Start,1687281455553,5f9daa4d70977f2fa1b9a0f2,5f9daa4d70977f2fa1b9a0f2,23,color,filler,B,75,color65.jpg,color85.jpg,nogoal,NULL
1687281498,81becc25add18b208fc5c7915e3a2e08,PennController,26,0,experiment,NULL,PennController,25,_Header_,Start,1687281455553,5f9daa4d70977f2fa1b9a0f2,5f9daa4d70977f2fa1b9a0f2,23,color,filler,B,75,color65.jpg,color85.jpg,nogoal,NULL
1687281498,81becc25add18b208fc5c7915e3a2e08,PennController,26,0,experiment,NULL,PennController,25,_Header_,End,1687281455553,5f9daa4d70977f2fa1b9a0f2,5f9daa4d70977f2fa1b9a0f2,23,color,filler,B,75,color65.jpg,color85.jpg,nogoal,NULL
1687281498,81becc25add18b208fc5c7915e3a2e08,PennController,26,0,experiment,NULL,Canvas,canvas6,Print,NA,1687281461305,5f9daa4d70977f2fa1b9a0f2,5f9daa4d70977f2fa1b9a0f2,23,color,filler,B,75,color65.jpg,color85.jpg,nogoal,NULL
1687281498,81becc25add18b208fc5c7915e3a2e08,PennController,26,0,experiment,NULL,Video,progression,buffer,0.009055,1687281457085,5f9daa4d70977f2fa1b9a0f2,5f9daa4d70977f2fa1b9a0f2,23,color,filler,B,75,color65.jpg,color85.jpg,nogoal,NULL
1687281498,81becc25add18b208fc5c7915e3a2e08,PennController,26,0,experiment,NULL,Selector,choice,Selection,option1,1687281465213,5f9daa4d70977f2fa1b9a0f2,5f9daa4d70977f2fa1b9a0f2,23,color,filler,B,75,color65.jpg,color85.jpg,nogoal,option1;option2
1687281498,81becc25add18b208fc5c7915e3a2e08,PennController,26,0,experiment,NULL,PennController,25,_Trial_,End,1687281465214,5f9daa4d70977f2fa1b9a0f2,5f9daa4d70977f2fa1b9a0f2,23,color,filler,B,75,color65.jpg,color85.jpg,nogoal,NULL
1687281498,81becc25add18b208fc5c7915e3a2e08,PennController,20,0,experiment,NULL,PennController,19,_Trial_,Start,1687281465216,5f9daa4d70977f2fa1b9a0f2,5f9daa4d70977f2fa1b9a0f2,17,roll,critical,B,75,roll65.jpg,roll85.jpg,nogoal,NULL
1687281498,81becc25add18b208fc5c7915e3a2e08,PennController,20,0,experiment,NULL,PennController,19,_Header_,Start,1687281465216,5f9daa4d70977f2fa1b9a0f2,5f9daa4d70977f2fa1b9a0f2,17,roll,critical,B,75,roll65.jpg,roll85.jpg,nogoal,NULL
1687281498,81becc25add18b208fc5c7915e3a2e08,PennController,20,0,experiment,NULL,PennController,19,_Header_,End,1687281465216,5f9daa4d70977f2fa1b9a0f2,5f9daa4d70977f2fa1b9a0f2,17,roll,critical,B,75,roll65.jpg,roll85.jpg,nogoal,NULL
1687281498,81becc25add18b208fc5c7915e3a2e08,PennController,20,0,experiment,NULL,Canvas,canvas6,Print,NA,1687281470977,5f9daa4d70977f2fa1b9a0f2,5f9daa4d70977f2fa1b9a0f2,17,roll,critical,B,75,roll65.jpg,roll85.jpg,nogoal,NULL
1687281498,81becc25add18b208fc5c7915e3a2e08,PennController,20,0,experiment,NULL,Video,progression,buffer,0.009521,1687281466759,5f9daa4d70977f2fa1b9a0f2,5f9daa4d70977f2fa1b9a0f2,17,roll,critical,B,75,roll65.jpg,roll85.jpg,nogoal,NULL
1687281498,81becc25add18b208fc5c7915e3a2e08,PennController,20,0,experiment,NULL,Selector,choice,Selection,option1,1687281474182,5f9daa4d70977f2fa1b9a0f2,5f9daa4d70977f2fa1b9a0f2,17,roll,critical,B,75,roll65.jpg,roll85.jpg,nogoal,option2;option1
1687281498,81becc25add18b208fc5c7915e3a2e08,PennController,20,0,experiment,NULL,PennController,19,_Trial_,End,1687281474183,5f9daa4d70977f2fa1b9a0f2,5f9daa4d70977f2fa1b9a0f2,17,roll,critical,B,75,roll65.jpg,roll85.jpg,nogoal,NULL
1687281498,81becc25add18b208fc5c7915e3a2e08,PennController,24,0,experiment,NULL,PennController,23,_Trial_,Start,1687281474184,5f9daa4d70977f2fa1b9a0f2,5f9daa4d70977f2fa1b9a0f2,21,visit,filler,B,25,visit15.jpg,visit35.jpg,nogoal,NULL
1687281498,81becc25add18b208fc5c7915e3a2e08,PennController,24,0,experiment,NULL,PennController,23,_Header_,Start,1687281474184,5f9daa4d70977f2fa1b9a0f2,5f9daa4d70977f2fa1b9a0f2,21,visit,filler,B,25,visit15.jpg,visit35.jpg,nogoal,NULL
1687281498,81becc25add18b208fc5c7915e3a2e08,PennController,24,0,experiment,NULL,PennController,23,_Header_,End,1687281474184,5f9daa4d70977f2fa1b9a0f2,5f9daa4d70977f2fa1b9a0f2,21,visit,filler,B,25,visit15.jpg,visit35.jpg,nogoal,NULL
1687281498,81becc25add18b208fc5c7915e3a2e08,PennController,24,0,experiment,NULL,Canvas,canvas6,Print,NA,1687281477939,5f9daa4d70977f2fa1b9a0f2,5f9daa4d70977f2fa1b9a0f2,21,visit,filler,B,25,visit15.jpg,visit35.jpg,nogoal,NULL
1687281498,81becc25add18b208fc5c7915e3a2e08,PennController,24,0,experiment,NULL,Video,progression,buffer,0.006455,1687281475719,5f9daa4d70977f2fa1b9a0f2,5f9daa4d70977f2fa1b9a0f2,21,visit,filler,B,25,visit15.jpg,visit35.jpg,nogoal,NULL
1687281498,81becc25add18b208fc5c7915e3a2e08,PennController,24,0,experiment,NULL,Selector,choice,Selection,option1,1687281479703,5f9daa4d70977f2fa1b9a0f2,5f9daa4d70977f2fa1b9a0f2,21,visit,filler,B,25,visit15.jpg,visit35.jpg,nogoal,option1;option2
1687281498,81becc25add18b208fc5c7915e3a2e08,PennController,24,0,experiment,NULL,PennController,23,_Trial_,End,1687281479704,5f9daa4d70977f2fa1b9a0f2,5f9daa4d70977f2fa1b9a0f2,21,visit,filler,B,25,visit15.jpg,visit35.jpg,nogoal,NULL
1687281498,81becc25add18b208fc5c7915e3a2e08,PennController,18,0,experiment,NULL,PennController,17,_Trial_,Start,1687281479705,5f9daa4d70977f2fa1b9a0f2,5f9daa4d70977f2fa1b9a0f2,15,zip,critical,B,25,zip15.jpg,zip35.jpg,nogoal,NULL
1687281498,81becc25add18b208fc5c7915e3a2e08,PennController,18,0,experiment,NULL,PennController,17,_Header_,Start,1687281479705,5f9daa4d70977f2fa1b9a0f2,5f9daa4d70977f2fa1b9a0f2,15,zip,critical,B,25,zip15.jpg,zip35.jpg,nogoal,NULL
1687281498,81becc25add18b208fc5c7915e3a2e08,PennController,18,0,experiment,NULL,PennController,17,_Header_,End,1687281479705,5f9daa4d70977f2fa1b9a0f2,5f9daa4d70977f2fa1b9a0f2,15,zip,critical,B,25,zip15.jpg,zip35.jpg,nogoal,NULL
1687281498,81becc25add18b208fc5c7915e3a2e08,PennController,18,0,experiment,NULL,Canvas,canvas6,Print,NA,1687281483455,5f9daa4d70977f2fa1b9a0f2,5f9daa4d70977f2fa1b9a0f2,15,zip,critical,B,25,zip15.jpg,zip35.jpg,nogoal,NULL
1687281498,81becc25add18b208fc5c7915e3a2e08,PennController,18,0,experiment,NULL,Video,progression,buffer,0.007779,1687281481235,5f9daa4d70977f2fa1b9a0f2,5f9daa4d70977f2fa1b9a0f2,15,zip,critical,B,25,zip15.jpg,zip35.jpg,nogoal,NULL
1687281498,81becc25add18b208fc5c7915e3a2e08,PennController,18,0,experiment,NULL,Selector,choice,Selection,option1,1687281484832,5f9daa4d70977f2fa1b9a0f2,5f9daa4d70977f2fa1b9a0f2,15,zip,critical,B,25,zip15.jpg,zip35.jpg,nogoal,option2;option1
1687281498,81becc25add18b208fc5c7915e3a2e08,PennController,18,0,experiment,NULL,PennController,17,_Trial_,End,1687281484833,5f9daa4d70977f2fa1b9a0f2,5f9daa4d70977f2fa1b9a0f2,15,zip,critical,B,25,zip15.jpg,zip35.jpg,nogoal,NULL
1687281498,81becc25add18b208fc5c7915e3a2e08,PennController,13,0,experiment,NULL,PennController,12,_Trial_,Start,1687281484834,5f9daa4d70977f2fa1b9a0f2,5f9daa4d70977f2fa1b9a0f2,10,train,critical,B,50,train40.jpg,train60.jpg,nogoal,NULL
1687281498,81becc25add18b208fc5c7915e3a2e08,PennController,13,0,experiment,NULL,PennController,12,_Header_,Start,1687281484834,5f9daa4d70977f2fa1b9a0f2,5f9daa4d70977f2fa1b9a0f2,10,train,critical,B,50,train40.jpg,train60.jpg,nogoal,NULL
1687281498,81becc25add18b208fc5c7915e3a2e08,PennController,13,0,experiment,NULL,PennController,12,_Header_,End,1687281484834,5f9daa4d70977f2fa1b9a0f2,5f9daa4d70977f2fa1b9a0f2,10,train,critical,B,50,train40.jpg,train60.jpg,nogoal,NULL
1687281498,81becc25add18b208fc5c7915e3a2e08,PennController,13,0,experiment,NULL,Canvas,canvas6,Print,NA,1687281489591,5f9daa4d70977f2fa1b9a0f2,5f9daa4d70977f2fa1b9a0f2,10,train,critical,B,50,train40.jpg,train60.jpg,nogoal,NULL
1687281498,81becc25add18b208fc5c7915e3a2e08,PennController,13,0,experiment,NULL,Video,progression,buffer,0.004853,1687281486364,5f9daa4d70977f2fa1b9a0f2,5f9daa4d70977f2fa1b9a0f2,10,train,critical,B,50,train40.jpg,train60.jpg,nogoal,NULL
1687281498,81becc25add18b208fc5c7915e3a2e08,PennController,13,0,experiment,NULL,Selector,choice,Selection,option2,1687281491596,5f9daa4d70977f2fa1b9a0f2,5f9daa4d70977f2fa1b9a0f2,10,train,critical,B,50,train40.jpg,train60.jpg,nogoal,option2;option1
1687281498,81becc25add18b208fc5c7915e3a2e08,PennController,13,0,experiment,NULL,PennController,12,_Trial_,End,1687281491597,5f9daa4d70977f2fa1b9a0f2,5f9daa4d70977f2fa1b9a0f2,10,train,critical,B,50,train40.jpg,train60.jpg,nogoal,NULL
1687281498,81becc25add18b208fc5c7915e3a2e08,PennController,5,0,experiment,NULL,PennController,4,_Trial_,Start,1687281491598,5f9daa4d70977f2fa1b9a0f2,5f9daa4d70977f2fa1b9a0f2,2,door,critical,B,75,door65.jpg,door85.jpg,nogoal,NULL
1687281498,81becc25add18b208fc5c7915e3a2e08,PennController,5,0,experiment,NULL,PennController,4,_Header_,Start,1687281491598,5f9daa4d70977f2fa1b9a0f2,5f9daa4d70977f2fa1b9a0f2,2,door,critical,B,75,door65.jpg,door85.jpg,nogoal,NULL
1687281498,81becc25add18b208fc5c7915e3a2e08,PennController,5,0,experiment,NULL,PennController,4,_Header_,End,1687281491598,5f9daa4d70977f2fa1b9a0f2,5f9daa4d70977f2fa1b9a0f2,2,door,critical,B,75,door65.jpg,door85.jpg,nogoal,NULL
1687281498,81becc25add18b208fc5c7915e3a2e08,PennController,5,0,experiment,NULL,Canvas,canvas6,Print,NA,1687281497358,5f9daa4d70977f2fa1b9a0f2,5f9daa4d70977f2fa1b9a0f2,2,door,critical,B,75,door65.jpg,door85.jpg,nogoal,NULL
1687281498,81becc25add18b208fc5c7915e3a2e08,PennController,5,0,experiment,NULL,Video,progression,buffer,0.00713,1687281493133,5f9daa4d70977f2fa1b9a0f2,5f9daa4d70977f2fa1b9a0f2,2,door,critical,B,75,door65.jpg,door85.jpg,nogoal,NULL
1687281498,81becc25add18b208fc5c7915e3a2e08,PennController,5,0,experiment,NULL,Selector,choice,Selection,option2,1687281499379,5f9daa4d70977f2fa1b9a0f2,5f9daa4d70977f2fa1b9a0f2,2,door,critical,B,75,door65.jpg,door85.jpg,nogoal,option2;option1
1687281498,81becc25add18b208fc5c7915e3a2e08,PennController,5,0,experiment,NULL,PennController,4,_Trial_,End,1687281499380,5f9daa4d70977f2fa1b9a0f2,5f9daa4d70977f2fa1b9a0f2,2,door,critical,B,75,door65.jpg,door85.jpg,nogoal,NULL
