#
# Results on Tuesday June 20 2023 17:17:43 UTC
# USER AGENT: Mozilla/5.0 (Windows NT 10.0; Win64; x64) AppleWebKit/537.36 (KHTML, like Gecko) Chrome/113.0.0.0 Safari/537.36 OPR/99.0.0.0
# Design number was non-random = 4
#
# Columns below this comment are as follows:
# 1. Results reception time.
# 2. MD5 hash of participant's IP address.
# 3. Controller name.
# 4. Order number of item.
# 5. Inner element number.
# 6. Label.
# 7. Latin Square Group.
# 8. PennElementType.
# 9. PennElementName.
# 10. Parameter.
# 11. Value.
# 12. EventTime.
# 13. PROLIFIC_ID.
# 14. Comments.
1687281463,d2e8e1529d5dc59a62a064f3cf4c69e0,PennController,2,0,consent,NULL,PennController,0,_Trial_,Start,1687281229775,5e67ffcaff63d70b6c4057ca,NULL
1687281463,d2e8e1529d5dc59a62a064f3cf4c69e0,PennController,2,0,consent,NULL,PennController,0,_Header_,Start,1687281229775,5e67ffcaff63d70b6c4057ca,NULL
1687281463,d2e8e1529d5dc59a62a064f3cf4c69e0,PennController,2,0,consent,NULL,PennController,0,_Header_,End,1687281229775,5e67ffcaff63d70b6c4057ca,NULL
1687281463,d2e8e1529d5dc59a62a064f3cf4c69e0,PennController,2,0,consent,NULL,PennController,0,_Trial_,End,1687281235239,5e67ffcaff63d70b6c4057ca,NULL
# Columns below this comment are as follows:
# 14. ID.
# 15. Comments.
1687281463,d2e8e1529d5dc59a62a064f3cf4c69e0,PennController,3,0,intro,NULL,PennController,1,_Trial_,Start,1687281235240,5e67ffcaff63d70b6c4057ca,5e67ffcaff63d70b6c4057ca,NULL
1687281463,d2e8e1529d5dc59a62a064f3cf4c69e0,PennController,3,0,intro,NULL,PennController,1,_Header_,Start,1687281235240,5e67ffcaff63d70b6c4057ca,5e67ffcaff63d70b6c4057ca,NULL
1687281463,d2e8e1529d5dc59a62a064f3cf4c69e0,PennController,3,0,intro,NULL,PennController,1,_Header_,End,1687281235240,5e67ffcaff63d70b6c4057ca,5e67ffcaff63d70b6c4057ca,NULL
1687281463,d2e8e1529d5dc59a62a064f3cf4c69e0,PennController,3,0,intro,NULL,PennController,1,_Trial_,End,1687281254077,5e67ffcaff63d70b6c4057ca,5e67ffcaff63d70b6c4057ca,NULL
# Columns below this comment are as follows:
# 15. item_number.
# 16. item.
# 17. type.
# 18. Group.
# 19. prog.
# 20. prev_image.
# 21. next_image.
# 22. height.
# 23. Comments.
1687281463,d2e8e1529d5dc59a62a064f3cf4c69e0,PennController,9,0,experiment,NULL,PennController,8,_Trial_,Start,1687281254078,5e67ffcaff63d70b6c4057ca,5e67ffcaff63d70b6c4057ca,6,flower,critical,B,25,flower15.jpg,flower35.jpg,nogoal,NULL
1687281463,d2e8e1529d5dc59a62a064f3cf4c69e0,PennController,9,0,experiment,NULL,PennController,8,_Header_,Start,1687281254078,5e67ffcaff63d70b6c4057ca,5e67ffcaff63d70b6c4057ca,6,flower,critical,B,25,flower15.jpg,flower35.jpg,nogoal,NULL
1687281463,d2e8e1529d5dc59a62a064f3cf4c69e0,PennController,9,0,experiment,NULL,PennController,8,_Header_,End,1687281254078,5e67ffcaff63d70b6c4057ca,5e67ffcaff63d70b6c4057ca,6,flower,critical,B,25,flower15.jpg,flower35.jpg,nogoal,NULL
1687281463,d2e8e1529d5dc59a62a064f3cf4c69e0,PennController,9,0,experiment,NULL,Canvas,canvas6,Print,NA,1687281257756,5e67ffcaff63d70b6c4057ca,5e67ffcaff63d70b6c4057ca,6,flower,critical,B,25,flower15.jpg,flower35.jpg,nogoal,NULL
1687281463,d2e8e1529d5dc59a62a064f3cf4c69e0,PennController,9,0,experiment,NULL,Video,progression,buffer,0.003937,1687281255599,5e67ffcaff63d70b6c4057ca,5e67ffcaff63d70b6c4057ca,6,flower,critical,B,25,flower15.jpg,flower35.jpg,nogoal,NULL
1687281463,d2e8e1529d5dc59a62a064f3cf4c69e0,PennController,9,0,experiment,NULL,Selector,choice,Selection,option2,1687281259460,5e67ffcaff63d70b6c4057ca,5e67ffcaff63d70b6c4057ca,6,flower,critical,B,25,flower15.jpg,flower35.jpg,nogoal,option2;option1
1687281463,d2e8e1529d5dc59a62a064f3cf4c69e0,PennController,9,0,experiment,NULL,PennController,8,_Trial_,End,1687281259461,5e67ffcaff63d70b6c4057ca,5e67ffcaff63d70b6c4057ca,6,flower,critical,B,25,flower15.jpg,flower35.jpg,nogoal,NULL
1687281463,d2e8e1529d5dc59a62a064f3cf4c69e0,PennController,12,0,experiment,NULL,PennController,11,_Trial_,Start,1687281259463,5e67ffcaff63d70b6c4057ca,5e67ffcaff63d70b6c4057ca,9,cake,critical,B,25,cake15.jpg,cake33.jpg,nogoal,NULL
1687281463,d2e8e1529d5dc59a62a064f3cf4c69e0,PennController,12,0,experiment,NULL,PennController,11,_Header_,Start,1687281259463,5e67ffcaff63d70b6c4057ca,5e67ffcaff63d70b6c4057ca,9,cake,critical,B,25,cake15.jpg,cake33.jpg,nogoal,NULL
1687281463,d2e8e1529d5dc59a62a064f3cf4c69e0,PennController,12,0,experiment,NULL,PennController,11,_Header_,End,1687281259463,5e67ffcaff63d70b6c4057ca,5e67ffcaff63d70b6c4057ca,9,cake,critical,B,25,cake15.jpg,cake33.jpg,nogoal,NULL
1687281463,d2e8e1529d5dc59a62a064f3cf4c69e0,PennController,12,0,experiment,NULL,Canvas,canvas6,Print,NA,1687281263735,5e67ffcaff63d70b6c4057ca,5e67ffcaff63d70b6c4057ca,9,cake,critical,B,25,cake15.jpg,cake33.jpg,nogoal,NULL
1687281463,d2e8e1529d5dc59a62a064f3cf4c69e0,PennController,12,0,experiment,NULL,Video,progression,buffer,0.002414,1687281260979,5e67ffcaff63d70b6c4057ca,5e67ffcaff63d70b6c4057ca,9,cake,critical,B,25,cake15.jpg,cake33.jpg,nogoal,NULL
1687281463,d2e8e1529d5dc59a62a064f3cf4c69e0,PennController,12,0,experiment,NULL,Selector,choice,Selection,option1,1687281266778,5e67ffcaff63d70b6c4057ca,5e67ffcaff63d70b6c4057ca,9,cake,critical,B,25,cake15.jpg,cake33.jpg,nogoal,option2;option1
1687281463,d2e8e1529d5dc59a62a064f3cf4c69e0,PennController,12,0,experiment,NULL,PennController,11,_Trial_,End,1687281266780,5e67ffcaff63d70b6c4057ca,5e67ffcaff63d70b6c4057ca,9,cake,critical,B,25,cake15.jpg,cake33.jpg,nogoal,NULL
1687281463,d2e8e1529d5dc59a62a064f3cf4c69e0,PennController,31,0,experiment,NULL,PennController,30,_Trial_,Start,1687281266782,5e67ffcaff63d70b6c4057ca,5e67ffcaff63d70b6c4057ca,28,sort,filler,B,50,sort40.jpg,sort60.jpg,nogoal,NULL
1687281463,d2e8e1529d5dc59a62a064f3cf4c69e0,PennController,31,0,experiment,NULL,PennController,30,_Header_,Start,1687281266782,5e67ffcaff63d70b6c4057ca,5e67ffcaff63d70b6c4057ca,28,sort,filler,B,50,sort40.jpg,sort60.jpg,nogoal,NULL
1687281463,d2e8e1529d5dc59a62a064f3cf4c69e0,PennController,31,0,experiment,NULL,PennController,30,_Header_,End,1687281266782,5e67ffcaff63d70b6c4057ca,5e67ffcaff63d70b6c4057ca,28,sort,filler,B,50,sort40.jpg,sort60.jpg,nogoal,NULL
1687281463,d2e8e1529d5dc59a62a064f3cf4c69e0,PennController,31,0,experiment,NULL,Canvas,canvas6,Print,NA,1687281271464,5e67ffcaff63d70b6c4057ca,5e67ffcaff63d70b6c4057ca,28,sort,filler,B,50,sort40.jpg,sort60.jpg,nogoal,NULL
1687281463,d2e8e1529d5dc59a62a064f3cf4c69e0,PennController,31,0,experiment,NULL,Video,progression,buffer,0.002587,1687281268298,5e67ffcaff63d70b6c4057ca,5e67ffcaff63d70b6c4057ca,28,sort,filler,B,50,sort40.jpg,sort60.jpg,nogoal,NULL
1687281463,d2e8e1529d5dc59a62a064f3cf4c69e0,PennController,31,0,experiment,NULL,Selector,choice,Selection,option1,1687281273173,5e67ffcaff63d70b6c4057ca,5e67ffcaff63d70b6c4057ca,28,sort,filler,B,50,sort40.jpg,sort60.jpg,nogoal,option2;option1
1687281463,d2e8e1529d5dc59a62a064f3cf4c69e0,PennController,31,0,experiment,NULL,PennController,30,_Trial_,End,1687281273174,5e67ffcaff63d70b6c4057ca,5e67ffcaff63d70b6c4057ca,28,sort,filler,B,50,sort40.jpg,sort60.jpg,nogoal,NULL
1687281463,d2e8e1529d5dc59a62a064f3cf4c69e0,PennController,24,0,experiment,NULL,PennController,23,_Trial_,Start,1687281273175,5e67ffcaff63d70b6c4057ca,5e67ffcaff63d70b6c4057ca,21,visit,filler,B,25,visit15.jpg,visit35.jpg,nogoal,NULL
1687281463,d2e8e1529d5dc59a62a064f3cf4c69e0,PennController,24,0,experiment,NULL,PennController,23,_Header_,Start,1687281273175,5e67ffcaff63d70b6c4057ca,5e67ffcaff63d70b6c4057ca,21,visit,filler,B,25,visit15.jpg,visit35.jpg,nogoal,NULL
1687281463,d2e8e1529d5dc59a62a064f3cf4c69e0,PennController,24,0,experiment,NULL,PennController,23,_Header_,End,1687281273175,5e67ffcaff63d70b6c4057ca,5e67ffcaff63d70b6c4057ca,21,visit,filler,B,25,visit15.jpg,visit35.jpg,nogoal,NULL
1687281463,d2e8e1529d5dc59a62a064f3cf4c69e0,PennController,24,0,experiment,NULL,Canvas,canvas6,Print,NA,1687281276857,5e67ffcaff63d70b6c4057ca,5e67ffcaff63d70b6c4057ca,21,visit,filler,B,25,visit15.jpg,visit35.jpg,nogoal,NULL
1687281463,d2e8e1529d5dc59a62a064f3cf4c69e0,PennController,24,0,experiment,NULL,Video,progression,buffer,0.00205,1687281274693,5e67ffcaff63d70b6c4057ca,5e67ffcaff63d70b6c4057ca,21,visit,filler,B,25,visit15.jpg,visit35.jpg,nogoal,NULL
1687281463,d2e8e1529d5dc59a62a064f3cf4c69e0,PennController,24,0,experiment,NULL,Selector,choice,Selection,option2,1687281278982,5e67ffcaff63d70b6c4057ca,5e67ffcaff63d70b6c4057ca,21,visit,filler,B,25,visit15.jpg,visit35.jpg,nogoal,option2;option1
1687281463,d2e8e1529d5dc59a62a064f3cf4c69e0,PennController,24,0,experiment,NULL,PennController,23,_Trial_,End,1687281278983,5e67ffcaff63d70b6c4057ca,5e67ffcaff63d70b6c4057ca,21,visit,filler,B,25,visit15.jpg,visit35.jpg,nogoal,NULL
1687281463,d2e8e1529d5dc59a62a064f3cf4c69e0,PennController,28,0,experiment,NULL,PennController,27,_Trial_,Start,1687281278984,5e67ffcaff63d70b6c4057ca,5e67ffcaff63d70b6c4057ca,25,house,filler,B,50,house40.jpg,house60.jpg,nogoal,NULL
1687281463,d2e8e1529d5dc59a62a064f3cf4c69e0,PennController,28,0,experiment,NULL,PennController,27,_Header_,Start,1687281278984,5e67ffcaff63d70b6c4057ca,5e67ffcaff63d70b6c4057ca,25,house,filler,B,50,house40.jpg,house60.jpg,nogoal,NULL
1687281463,d2e8e1529d5dc59a62a064f3cf4c69e0,PennController,28,0,experiment,NULL,PennController,27,_Header_,End,1687281278984,5e67ffcaff63d70b6c4057ca,5e67ffcaff63d70b6c4057ca,25,house,filler,B,50,house40.jpg,house60.jpg,nogoal,NULL
1687281463,d2e8e1529d5dc59a62a064f3cf4c69e0,PennController,28,0,experiment,NULL,Canvas,canvas6,Print,NA,1687281283666,5e67ffcaff63d70b6c4057ca,5e67ffcaff63d70b6c4057ca,25,house,filler,B,50,house40.jpg,house60.jpg,nogoal,NULL
1687281463,d2e8e1529d5dc59a62a064f3cf4c69e0,PennController,28,0,experiment,NULL,Video,progression,buffer,0.003444,1687281280500,5e67ffcaff63d70b6c4057ca,5e67ffcaff63d70b6c4057ca,25,house,filler,B,50,house40.jpg,house60.jpg,nogoal,NULL
1687281463,d2e8e1529d5dc59a62a064f3cf4c69e0,PennController,28,0,experiment,NULL,Selector,choice,Selection,option1,1687281286869,5e67ffcaff63d70b6c4057ca,5e67ffcaff63d70b6c4057ca,25,house,filler,B,50,house40.jpg,house60.jpg,nogoal,option1;option2
1687281463,d2e8e1529d5dc59a62a064f3cf4c69e0,PennController,28,0,experiment,NULL,PennController,27,_Trial_,End,1687281286870,5e67ffcaff63d70b6c4057ca,5e67ffcaff63d70b6c4057ca,25,house,filler,B,50,house40.jpg,house60.jpg,nogoal,NULL
1687281463,d2e8e1529d5dc59a62a064f3cf4c69e0,PennController,16,0,experiment,NULL,PennController,15,_Trial_,Start,1687281286871,5e67ffcaff63d70b6c4057ca,5e67ffcaff63d70b6c4057ca,13,mix,critical,B,50,mix40.jpg,mix60.jpg,nogoal,NULL
1687281463,d2e8e1529d5dc59a62a064f3cf4c69e0,PennController,16,0,experiment,NULL,PennController,15,_Header_,Start,1687281286871,5e67ffcaff63d70b6c4057ca,5e67ffcaff63d70b6c4057ca,13,mix,critical,B,50,mix40.jpg,mix60.jpg,nogoal,NULL
1687281463,d2e8e1529d5dc59a62a064f3cf4c69e0,PennController,16,0,experiment,NULL,PennController,15,_Header_,End,1687281286871,5e67ffcaff63d70b6c4057ca,5e67ffcaff63d70b6c4057ca,13,mix,critical,B,50,mix40.jpg,mix60.jpg,nogoal,NULL
1687281463,d2e8e1529d5dc59a62a064f3cf4c69e0,PennController,16,0,experiment,NULL,Canvas,canvas6,Print,NA,1687281291544,5e67ffcaff63d70b6c4057ca,5e67ffcaff63d70b6c4057ca,13,mix,critical,B,50,mix40.jpg,mix60.jpg,nogoal,NULL
1687281463,d2e8e1529d5dc59a62a064f3cf4c69e0,PennController,16,0,experiment,NULL,Video,progression,buffer,0.002196,1687281288381,5e67ffcaff63d70b6c4057ca,5e67ffcaff63d70b6c4057ca,13,mix,critical,B,50,mix40.jpg,mix60.jpg,nogoal,NULL
1687281463,d2e8e1529d5dc59a62a064f3cf4c69e0,PennController,16,0,experiment,NULL,Selector,choice,Selection,option1,1687281294016,5e67ffcaff63d70b6c4057ca,5e67ffcaff63d70b6c4057ca,13,mix,critical,B,50,mix40.jpg,mix60.jpg,nogoal,option2;option1
1687281463,d2e8e1529d5dc59a62a064f3cf4c69e0,PennController,16,0,experiment,NULL,PennController,15,_Trial_,End,1687281294017,5e67ffcaff63d70b6c4057ca,5e67ffcaff63d70b6c4057ca,13,mix,critical,B,50,mix40.jpg,mix60.jpg,nogoal,NULL
1687281463,d2e8e1529d5dc59a62a064f3cf4c69e0,PennController,18,0,experiment,NULL,PennController,17,_Trial_,Start,1687281294018,5e67ffcaff63d70b6c4057ca,5e67ffcaff63d70b6c4057ca,15,zip,critical,B,25,zip15.jpg,zip35.jpg,nogoal,NULL
1687281463,d2e8e1529d5dc59a62a064f3cf4c69e0,PennController,18,0,experiment,NULL,PennController,17,_Header_,Start,1687281294018,5e67ffcaff63d70b6c4057ca,5e67ffcaff63d70b6c4057ca,15,zip,critical,B,25,zip15.jpg,zip35.jpg,nogoal,NULL
1687281463,d2e8e1529d5dc59a62a064f3cf4c69e0,PennController,18,0,experiment,NULL,PennController,17,_Header_,End,1687281294018,5e67ffcaff63d70b6c4057ca,5e67ffcaff63d70b6c4057ca,15,zip,critical,B,25,zip15.jpg,zip35.jpg,nogoal,NULL
1687281463,d2e8e1529d5dc59a62a064f3cf4c69e0,PennController,18,0,experiment,NULL,Canvas,canvas6,Print,NA,1687281297688,5e67ffcaff63d70b6c4057ca,5e67ffcaff63d70b6c4057ca,15,zip,critical,B,25,zip15.jpg,zip35.jpg,nogoal,NULL
1687281463,d2e8e1529d5dc59a62a064f3cf4c69e0,PennController,18,0,experiment,NULL,Video,progression,buffer,0.002274,1687281295532,5e67ffcaff63d70b6c4057ca,5e67ffcaff63d70b6c4057ca,15,zip,critical,B,25,zip15.jpg,zip35.jpg,nogoal,NULL
1687281463,d2e8e1529d5dc59a62a064f3cf4c69e0,PennController,18,0,experiment,NULL,Selector,choice,Selection,option1,1687281299189,5e67ffcaff63d70b6c4057ca,5e67ffcaff63d70b6c4057ca,15,zip,critical,B,25,zip15.jpg,zip35.jpg,nogoal,option2;option1
1687281463,d2e8e1529d5dc59a62a064f3cf4c69e0,PennController,18,0,experiment,NULL,PennController,17,_Trial_,End,1687281299190,5e67ffcaff63d70b6c4057ca,5e67ffcaff63d70b6c4057ca,15,zip,critical,B,25,zip15.jpg,zip35.jpg,nogoal,NULL
1687281463,d2e8e1529d5dc59a62a064f3cf4c69e0,PennController,5,0,experiment,NULL,PennController,4,_Trial_,Start,1687281299190,5e67ffcaff63d70b6c4057ca,5e67ffcaff63d70b6c4057ca,2,door,critical,B,75,door65.jpg,door85.jpg,nogoal,NULL
1687281463,d2e8e1529d5dc59a62a064f3cf4c69e0,PennController,5,0,experiment,NULL,PennController,4,_Header_,Start,1687281299190,5e67ffcaff63d70b6c4057ca,5e67ffcaff63d70b6c4057ca,2,door,critical,B,75,door65.jpg,door85.jpg,nogoal,NULL
1687281463,d2e8e1529d5dc59a62a064f3cf4c69e0,PennController,5,0,experiment,NULL,PennController,4,_Header_,End,1687281299190,5e67ffcaff63d70b6c4057ca,5e67ffcaff63d70b6c4057ca,2,door,critical,B,75,door65.jpg,door85.jpg,nogoal,NULL
1687281463,d2e8e1529d5dc59a62a064f3cf4c69e0,PennController,5,0,experiment,NULL,Canvas,canvas6,Print,NA,1687281304865,5e67ffcaff63d70b6c4057ca,5e67ffcaff63d70b6c4057ca,2,door,critical,B,75,door65.jpg,door85.jpg,nogoal,NULL
1687281463,d2e8e1529d5dc59a62a064f3cf4c69e0,PennController,5,0,experiment,NULL,Video,progression,buffer,0.00309,1687281300700,5e67ffcaff63d70b6c4057ca,5e67ffcaff63d70b6c4057ca,2,door,critical,B,75,door65.jpg,door85.jpg,nogoal,NULL
1687281463,d2e8e1529d5dc59a62a064f3cf4c69e0,PennController,5,0,experiment,NULL,Selector,choice,Selection,option2,1687281306862,5e67ffcaff63d70b6c4057ca,5e67ffcaff63d70b6c4057ca,2,door,critical,B,75,door65.jpg,door85.jpg,nogoal,option1;option2
1687281463,d2e8e1529d5dc59a62a064f3cf4c69e0,PennController,5,0,experiment,NULL,PennController,4,_Trial_,End,1687281306863,5e67ffcaff63d70b6c4057ca,5e67ffcaff63d70b6c4057ca,2,door,critical,B,75,door65.jpg,door85.jpg,nogoal,NULL
1687281463,d2e8e1529d5dc59a62a064f3cf4c69e0,PennController,21,0,experiment,NULL,PennController,20,_Trial_,Start,1687281306864,5e67ffcaff63d70b6c4057ca,5e67ffcaff63d70b6c4057ca,18,ball,critical,B,25,ball15.jpg,ball35.jpg,nogoal,NULL
1687281463,d2e8e1529d5dc59a62a064f3cf4c69e0,PennController,21,0,experiment,NULL,PennController,20,_Header_,Start,1687281306864,5e67ffcaff63d70b6c4057ca,5e67ffcaff63d70b6c4057ca,18,ball,critical,B,25,ball15.jpg,ball35.jpg,nogoal,NULL
1687281463,d2e8e1529d5dc59a62a064f3cf4c69e0,PennController,21,0,experiment,NULL,PennController,20,_Header_,End,1687281306864,5e67ffcaff63d70b6c4057ca,5e67ffcaff63d70b6c4057ca,18,ball,critical,B,25,ball15.jpg,ball35.jpg,nogoal,NULL
1687281463,d2e8e1529d5dc59a62a064f3cf4c69e0,PennController,21,0,experiment,NULL,Canvas,canvas6,Print,NA,1687281310545,5e67ffcaff63d70b6c4057ca,5e67ffcaff63d70b6c4057ca,18,ball,critical,B,25,ball15.jpg,ball35.jpg,nogoal,NULL
1687281463,d2e8e1529d5dc59a62a064f3cf4c69e0,PennController,21,0,experiment,NULL,Video,progression,buffer,0.00387,1687281308381,5e67ffcaff63d70b6c4057ca,5e67ffcaff63d70b6c4057ca,18,ball,critical,B,25,ball15.jpg,ball35.jpg,nogoal,NULL
1687281463,d2e8e1529d5dc59a62a064f3cf4c69e0,PennController,21,0,experiment,NULL,Selector,choice,Selection,option2,1687281314030,5e67ffcaff63d70b6c4057ca,5e67ffcaff63d70b6c4057ca,18,ball,critical,B,25,ball15.jpg,ball35.jpg,nogoal,option2;option1
1687281463,d2e8e1529d5dc59a62a064f3cf4c69e0,PennController,21,0,experiment,NULL,PennController,20,_Trial_,End,1687281314031,5e67ffcaff63d70b6c4057ca,5e67ffcaff63d70b6c4057ca,18,ball,critical,B,25,ball15.jpg,ball35.jpg,nogoal,NULL
1687281463,d2e8e1529d5dc59a62a064f3cf4c69e0,PennController,22,0,experiment,NULL,PennController,21,_Trial_,Start,1687281314032,5e67ffcaff63d70b6c4057ca,5e67ffcaff63d70b6c4057ca,19,cup,filler,B,50,cup40.jpg,cup60.jpg,nogoal,NULL
1687281463,d2e8e1529d5dc59a62a064f3cf4c69e0,PennController,22,0,experiment,NULL,PennController,21,_Header_,Start,1687281314032,5e67ffcaff63d70b6c4057ca,5e67ffcaff63d70b6c4057ca,19,cup,filler,B,50,cup40.jpg,cup60.jpg,nogoal,NULL
1687281463,d2e8e1529d5dc59a62a064f3cf4c69e0,PennController,22,0,experiment,NULL,PennController,21,_Header_,End,1687281314032,5e67ffcaff63d70b6c4057ca,5e67ffcaff63d70b6c4057ca,19,cup,filler,B,50,cup40.jpg,cup60.jpg,nogoal,NULL
1687281463,d2e8e1529d5dc59a62a064f3cf4c69e0,PennController,22,0,experiment,NULL,Canvas,canvas6,Print,NA,1687281318705,5e67ffcaff63d70b6c4057ca,5e67ffcaff63d70b6c4057ca,19,cup,filler,B,50,cup40.jpg,cup60.jpg,nogoal,NULL
1687281463,d2e8e1529d5dc59a62a064f3cf4c69e0,PennController,22,0,experiment,NULL,Video,progression,buffer,0.003518,1687281315547,5e67ffcaff63d70b6c4057ca,5e67ffcaff63d70b6c4057ca,19,cup,filler,B,50,cup40.jpg,cup60.jpg,nogoal,NULL
1687281463,d2e8e1529d5dc59a62a064f3cf4c69e0,PennController,22,0,experiment,NULL,Selector,choice,Selection,option1,1687281321990,5e67ffcaff63d70b6c4057ca,5e67ffcaff63d70b6c4057ca,19,cup,filler,B,50,cup40.jpg,cup60.jpg,nogoal,option2;option1
1687281463,d2e8e1529d5dc59a62a064f3cf4c69e0,PennController,22,0,experiment,NULL,PennController,21,_Trial_,End,1687281321991,5e67ffcaff63d70b6c4057ca,5e67ffcaff63d70b6c4057ca,19,cup,filler,B,50,cup40.jpg,cup60.jpg,nogoal,NULL
1687281463,d2e8e1529d5dc59a62a064f3cf4c69e0,PennController,6,0,experiment,NULL,PennController,5,_Trial_,Start,1687281321992,5e67ffcaff63d70b6c4057ca,5e67ffcaff63d70b6c4057ca,3,clean,critical,B,25,clean15.jpg,clean35.jpg,nogoal,NULL
1687281463,d2e8e1529d5dc59a62a064f3cf4c69e0,PennController,6,0,experiment,NULL,PennController,5,_Header_,Start,1687281321992,5e67ffcaff63d70b6c4057ca,5e67ffcaff63d70b6c4057ca,3,clean,critical,B,25,clean15.jpg,clean35.jpg,nogoal,NULL
1687281463,d2e8e1529d5dc59a62a064f3cf4c69e0,PennController,6,0,experiment,NULL,PennController,5,_Header_,End,1687281321992,5e67ffcaff63d70b6c4057ca,5e67ffcaff63d70b6c4057ca,3,clean,critical,B,25,clean15.jpg,clean35.jpg,nogoal,NULL
1687281463,d2e8e1529d5dc59a62a064f3cf4c69e0,PennController,6,0,experiment,NULL,Canvas,canvas6,Print,NA,1687281325664,5e67ffcaff63d70b6c4057ca,5e67ffcaff63d70b6c4057ca,3,clean,critical,B,25,clean15.jpg,clean35.jpg,nogoal,NULL
1687281463,d2e8e1529d5dc59a62a064f3cf4c69e0,PennController,6,0,experiment,NULL,Video,progression,buffer,0.002619,1687281323502,5e67ffcaff63d70b6c4057ca,5e67ffcaff63d70b6c4057ca,3,clean,critical,B,25,clean15.jpg,clean35.jpg,nogoal,NULL
1687281463,d2e8e1529d5dc59a62a064f3cf4c69e0,PennController,6,0,experiment,NULL,Selector,choice,Selection,option2,1687281329703,5e67ffcaff63d70b6c4057ca,5e67ffcaff63d70b6c4057ca,3,clean,critical,B,25,clean15.jpg,clean35.jpg,nogoal,option2;option1
1687281463,d2e8e1529d5dc59a62a064f3cf4c69e0,PennController,6,0,experiment,NULL,PennController,5,_Trial_,End,1687281329703,5e67ffcaff63d70b6c4057ca,5e67ffcaff63d70b6c4057ca,3,clean,critical,B,25,clean15.jpg,clean35.jpg,nogoal,NULL
1687281463,d2e8e1529d5dc59a62a064f3cf4c69e0,PennController,30,0,experiment,NULL,PennController,29,_Trial_,Start,1687281329704,5e67ffcaff63d70b6c4057ca,5e67ffcaff63d70b6c4057ca,27,square,filler,B,25,square15.jpg,square35.jpg,nogoal,NULL
1687281463,d2e8e1529d5dc59a62a064f3cf4c69e0,PennController,30,0,experiment,NULL,PennController,29,_Header_,Start,1687281329704,5e67ffcaff63d70b6c4057ca,5e67ffcaff63d70b6c4057ca,27,square,filler,B,25,square15.jpg,square35.jpg,nogoal,NULL
1687281463,d2e8e1529d5dc59a62a064f3cf4c69e0,PennController,30,0,experiment,NULL,PennController,29,_Header_,End,1687281329704,5e67ffcaff63d70b6c4057ca,5e67ffcaff63d70b6c4057ca,27,square,filler,B,25,square15.jpg,square35.jpg,nogoal,NULL
1687281463,d2e8e1529d5dc59a62a064f3cf4c69e0,PennController,30,0,experiment,NULL,Canvas,canvas6,Print,NA,1687281333375,5e67ffcaff63d70b6c4057ca,5e67ffcaff63d70b6c4057ca,27,square,filler,B,25,square15.jpg,square35.jpg,nogoal,NULL
1687281463,d2e8e1529d5dc59a62a064f3cf4c69e0,PennController,30,0,experiment,NULL,Video,progression,buffer,0.003382,1687281331216,5e67ffcaff63d70b6c4057ca,5e67ffcaff63d70b6c4057ca,27,square,filler,B,25,square15.jpg,square35.jpg,nogoal,NULL
1687281463,d2e8e1529d5dc59a62a064f3cf4c69e0,PennController,30,0,experiment,NULL,Selector,choice,Selection,option2,1687281335022,5e67ffcaff63d70b6c4057ca,5e67ffcaff63d70b6c4057ca,27,square,filler,B,25,square15.jpg,square35.jpg,nogoal,option2;option1
1687281463,d2e8e1529d5dc59a62a064f3cf4c69e0,PennController,30,0,experiment,NULL,PennController,29,_Trial_,End,1687281335022,5e67ffcaff63d70b6c4057ca,5e67ffcaff63d70b6c4057ca,27,square,filler,B,25,square15.jpg,square35.jpg,nogoal,NULL
1687281463,d2e8e1529d5dc59a62a064f3cf4c69e0,PennController,26,0,experiment,NULL,PennController,25,_Trial_,Start,1687281335023,5e67ffcaff63d70b6c4057ca,5e67ffcaff63d70b6c4057ca,23,color,filler,B,75,color65.jpg,color85.jpg,nogoal,NULL
1687281463,d2e8e1529d5dc59a62a064f3cf4c69e0,PennController,26,0,experiment,NULL,PennController,25,_Header_,Start,1687281335023,5e67ffcaff63d70b6c4057ca,5e67ffcaff63d70b6c4057ca,23,color,filler,B,75,color65.jpg,color85.jpg,nogoal,NULL
1687281463,d2e8e1529d5dc59a62a064f3cf4c69e0,PennController,26,0,experiment,NULL,PennController,25,_Header_,End,1687281335023,5e67ffcaff63d70b6c4057ca,5e67ffcaff63d70b6c4057ca,23,color,filler,B,75,color65.jpg,color85.jpg,nogoal,NULL
1687281463,d2e8e1529d5dc59a62a064f3cf4c69e0,PennController,26,0,experiment,NULL,Canvas,canvas6,Print,NA,1687281340684,5e67ffcaff63d70b6c4057ca,5e67ffcaff63d70b6c4057ca,23,color,filler,B,75,color65.jpg,color85.jpg,nogoal,NULL
1687281463,d2e8e1529d5dc59a62a064f3cf4c69e0,PennController,26,0,experiment,NULL,Video,progression,buffer,0.003703,1687281336544,5e67ffcaff63d70b6c4057ca,5e67ffcaff63d70b6c4057ca,23,color,filler,B,75,color65.jpg,color85.jpg,nogoal,NULL
1687281463,d2e8e1529d5dc59a62a064f3cf4c69e0,PennController,26,0,experiment,NULL,Selector,choice,Selection,option2,1687281343785,5e67ffcaff63d70b6c4057ca,5e67ffcaff63d70b6c4057ca,23,color,filler,B,75,color65.jpg,color85.jpg,nogoal,option1;option2
1687281463,d2e8e1529d5dc59a62a064f3cf4c69e0,PennController,26,0,experiment,NULL,PennController,25,_Trial_,End,1687281343785,5e67ffcaff63d70b6c4057ca,5e67ffcaff63d70b6c4057ca,23,color,filler,B,75,color65.jpg,color85.jpg,nogoal,NULL
1687281463,d2e8e1529d5dc59a62a064f3cf4c69e0,PennController,17,0,experiment,NULL,PennController,16,_Trial_,Start,1687281343786,5e67ffcaff63d70b6c4057ca,5e67ffcaff63d70b6c4057ca,14,cover,critical,B,75,cover66.jpg,cover84.jpg,nogoal,NULL
1687281463,d2e8e1529d5dc59a62a064f3cf4c69e0,PennController,17,0,experiment,NULL,PennController,16,_Header_,Start,1687281343786,5e67ffcaff63d70b6c4057ca,5e67ffcaff63d70b6c4057ca,14,cover,critical,B,75,cover66.jpg,cover84.jpg,nogoal,NULL
1687281463,d2e8e1529d5dc59a62a064f3cf4c69e0,PennController,17,0,experiment,NULL,PennController,16,_Header_,End,1687281343786,5e67ffcaff63d70b6c4057ca,5e67ffcaff63d70b6c4057ca,14,cover,critical,B,75,cover66.jpg,cover84.jpg,nogoal,NULL
1687281463,d2e8e1529d5dc59a62a064f3cf4c69e0,PennController,17,0,experiment,NULL,Canvas,canvas6,Print,NA,1687281351424,5e67ffcaff63d70b6c4057ca,5e67ffcaff63d70b6c4057ca,14,cover,critical,B,75,cover66.jpg,cover84.jpg,nogoal,NULL
1687281463,d2e8e1529d5dc59a62a064f3cf4c69e0,PennController,17,0,experiment,NULL,Video,progression,buffer,0.002019,1687281345300,5e67ffcaff63d70b6c4057ca,5e67ffcaff63d70b6c4057ca,14,cover,critical,B,75,cover66.jpg,cover84.jpg,nogoal,NULL
1687281463,d2e8e1529d5dc59a62a064f3cf4c69e0,PennController,17,0,experiment,NULL,Selector,choice,Selection,option1,1687281354748,5e67ffcaff63d70b6c4057ca,5e67ffcaff63d70b6c4057ca,14,cover,critical,B,75,cover66.jpg,cover84.jpg,nogoal,option1;option2
1687281463,d2e8e1529d5dc59a62a064f3cf4c69e0,PennController,17,0,experiment,NULL,PennController,16,_Trial_,End,1687281354749,5e67ffcaff63d70b6c4057ca,5e67ffcaff63d70b6c4057ca,14,cover,critical,B,75,cover66.jpg,cover84.jpg,nogoal,NULL
1687281463,d2e8e1529d5dc59a62a064f3cf4c69e0,PennController,15,0,experiment,NULL,PennController,14,_Trial_,Start,1687281354750,5e67ffcaff63d70b6c4057ca,5e67ffcaff63d70b6c4057ca,12,erase,critical,B,25,erase15.jpg,erase33.jpg,nogoal,NULL
1687281463,d2e8e1529d5dc59a62a064f3cf4c69e0,PennController,15,0,experiment,NULL,PennController,14,_Header_,Start,1687281354750,5e67ffcaff63d70b6c4057ca,5e67ffcaff63d70b6c4057ca,12,erase,critical,B,25,erase15.jpg,erase33.jpg,nogoal,NULL
1687281463,d2e8e1529d5dc59a62a064f3cf4c69e0,PennController,15,0,experiment,NULL,PennController,14,_Header_,End,1687281354750,5e67ffcaff63d70b6c4057ca,5e67ffcaff63d70b6c4057ca,12,erase,critical,B,25,erase15.jpg,erase33.jpg,nogoal,NULL
1687281463,d2e8e1529d5dc59a62a064f3cf4c69e0,PennController,15,0,experiment,NULL,Canvas,canvas6,Print,NA,1687281359016,5e67ffcaff63d70b6c4057ca,5e67ffcaff63d70b6c4057ca,12,erase,critical,B,25,erase15.jpg,erase33.jpg,nogoal,NULL
1687281463,d2e8e1529d5dc59a62a064f3cf4c69e0,PennController,15,0,experiment,NULL,Video,progression,buffer,0.00202,1687281356263,5e67ffcaff63d70b6c4057ca,5e67ffcaff63d70b6c4057ca,12,erase,critical,B,25,erase15.jpg,erase33.jpg,nogoal,NULL
1687281463,d2e8e1529d5dc59a62a064f3cf4c69e0,PennController,15,0,experiment,NULL,Selector,choice,Selection,option2,1687281360700,5e67ffcaff63d70b6c4057ca,5e67ffcaff63d70b6c4057ca,12,erase,critical,B,25,erase15.jpg,erase33.jpg,nogoal,option1;option2
1687281463,d2e8e1529d5dc59a62a064f3cf4c69e0,PennController,15,0,experiment,NULL,PennController,14,_Trial_,End,1687281360700,5e67ffcaff63d70b6c4057ca,5e67ffcaff63d70b6c4057ca,12,erase,critical,B,25,erase15.jpg,erase33.jpg,nogoal,NULL
1687281463,d2e8e1529d5dc59a62a064f3cf4c69e0,PennController,25,0,experiment,NULL,PennController,24,_Trial_,Start,1687281360701,5e67ffcaff63d70b6c4057ca,5e67ffcaff63d70b6c4057ca,22,wall,filler,B,50,wall40.jpg,wall60.jpg,nogoal,NULL
1687281463,d2e8e1529d5dc59a62a064f3cf4c69e0,PennController,25,0,experiment,NULL,PennController,24,_Header_,Start,1687281360701,5e67ffcaff63d70b6c4057ca,5e67ffcaff63d70b6c4057ca,22,wall,filler,B,50,wall40.jpg,wall60.jpg,nogoal,NULL
1687281463,d2e8e1529d5dc59a62a064f3cf4c69e0,PennController,25,0,experiment,NULL,PennController,24,_Header_,End,1687281360701,5e67ffcaff63d70b6c4057ca,5e67ffcaff63d70b6c4057ca,22,wall,filler,B,50,wall40.jpg,wall60.jpg,nogoal,NULL
1687281463,d2e8e1529d5dc59a62a064f3cf4c69e0,PennController,25,0,experiment,NULL,Canvas,canvas6,Print,NA,1687281365379,5e67ffcaff63d70b6c4057ca,5e67ffcaff63d70b6c4057ca,22,wall,filler,B,50,wall40.jpg,wall60.jpg,nogoal,NULL
1687281463,d2e8e1529d5dc59a62a064f3cf4c69e0,PennController,25,0,experiment,NULL,Video,progression,buffer,0.002761,1687281362209,5e67ffcaff63d70b6c4057ca,5e67ffcaff63d70b6c4057ca,22,wall,filler,B,50,wall40.jpg,wall60.jpg,nogoal,NULL
1687281463,d2e8e1529d5dc59a62a064f3cf4c69e0,PennController,25,0,experiment,NULL,Selector,choice,Selection,option2,1687281366903,5e67ffcaff63d70b6c4057ca,5e67ffcaff63d70b6c4057ca,22,wall,filler,B,50,wall40.jpg,wall60.jpg,nogoal,option2;option1
1687281463,d2e8e1529d5dc59a62a064f3cf4c69e0,PennController,25,0,experiment,NULL,PennController,24,_Trial_,End,1687281366903,5e67ffcaff63d70b6c4057ca,5e67ffcaff63d70b6c4057ca,22,wall,filler,B,50,wall40.jpg,wall60.jpg,nogoal,NULL
1687281463,d2e8e1529d5dc59a62a064f3cf4c69e0,PennController,32,0,experiment,NULL,PennController,31,_Trial_,Start,1687281366904,5e67ffcaff63d70b6c4057ca,5e67ffcaff63d70b6c4057ca,29,frog,filler,B,75,frog65.jpg,frog85.jpg,nogoal,NULL
1687281463,d2e8e1529d5dc59a62a064f3cf4c69e0,PennController,32,0,experiment,NULL,PennController,31,_Header_,Start,1687281366904,5e67ffcaff63d70b6c4057ca,5e67ffcaff63d70b6c4057ca,29,frog,filler,B,75,frog65.jpg,frog85.jpg,nogoal,NULL
1687281463,d2e8e1529d5dc59a62a064f3cf4c69e0,PennController,32,0,experiment,NULL,PennController,31,_Header_,End,1687281366904,5e67ffcaff63d70b6c4057ca,5e67ffcaff63d70b6c4057ca,29,frog,filler,B,75,frog65.jpg,frog85.jpg,nogoal,NULL
1687281463,d2e8e1529d5dc59a62a064f3cf4c69e0,PennController,32,0,experiment,NULL,Canvas,canvas6,Print,NA,1687281372556,5e67ffcaff63d70b6c4057ca,5e67ffcaff63d70b6c4057ca,29,frog,filler,B,75,frog65.jpg,frog85.jpg,nogoal,NULL
1687281463,d2e8e1529d5dc59a62a064f3cf4c69e0,PennController,32,0,experiment,NULL,Video,progression,buffer,0.001967,1687281368414,5e67ffcaff63d70b6c4057ca,5e67ffcaff63d70b6c4057ca,29,frog,filler,B,75,frog65.jpg,frog85.jpg,nogoal,NULL
1687281463,d2e8e1529d5dc59a62a064f3cf4c69e0,PennController,32,0,experiment,NULL,Selector,choice,Selection,option2,1687281376172,5e67ffcaff63d70b6c4057ca,5e67ffcaff63d70b6c4057ca,29,frog,filler,B,75,frog65.jpg,frog85.jpg,nogoal,option2;option1
1687281463,d2e8e1529d5dc59a62a064f3cf4c69e0,PennController,32,0,experiment,NULL,PennController,31,_Trial_,End,1687281376173,5e67ffcaff63d70b6c4057ca,5e67ffcaff63d70b6c4057ca,29,frog,filler,B,75,frog65.jpg,frog85.jpg,nogoal,NULL
1687281463,d2e8e1529d5dc59a62a064f3cf4c69e0,PennController,23,0,experiment,NULL,PennController,22,_Trial_,Start,1687281376174,5e67ffcaff63d70b6c4057ca,5e67ffcaff63d70b6c4057ca,20,cat,filler,B,75,cat65.jpg,cat85.jpg,nogoal,NULL
1687281463,d2e8e1529d5dc59a62a064f3cf4c69e0,PennController,23,0,experiment,NULL,PennController,22,_Header_,Start,1687281376174,5e67ffcaff63d70b6c4057ca,5e67ffcaff63d70b6c4057ca,20,cat,filler,B,75,cat65.jpg,cat85.jpg,nogoal,NULL
1687281463,d2e8e1529d5dc59a62a064f3cf4c69e0,PennController,23,0,experiment,NULL,PennController,22,_Header_,End,1687281376174,5e67ffcaff63d70b6c4057ca,5e67ffcaff63d70b6c4057ca,20,cat,filler,B,75,cat65.jpg,cat85.jpg,nogoal,NULL
1687281463,d2e8e1529d5dc59a62a064f3cf4c69e0,PennController,23,0,experiment,NULL,Canvas,canvas6,Print,NA,1687281381845,5e67ffcaff63d70b6c4057ca,5e67ffcaff63d70b6c4057ca,20,cat,filler,B,75,cat65.jpg,cat85.jpg,nogoal,NULL
1687281463,d2e8e1529d5dc59a62a064f3cf4c69e0,PennController,23,0,experiment,NULL,Video,progression,buffer,0.002796,1687281377684,5e67ffcaff63d70b6c4057ca,5e67ffcaff63d70b6c4057ca,20,cat,filler,B,75,cat65.jpg,cat85.jpg,nogoal,NULL
1687281463,d2e8e1529d5dc59a62a064f3cf4c69e0,PennController,23,0,experiment,NULL,Selector,choice,Selection,option2,1687281383716,5e67ffcaff63d70b6c4057ca,5e67ffcaff63d70b6c4057ca,20,cat,filler,B,75,cat65.jpg,cat85.jpg,nogoal,option2;option1
1687281463,d2e8e1529d5dc59a62a064f3cf4c69e0,PennController,23,0,experiment,NULL,PennController,22,_Trial_,End,1687281383717,5e67ffcaff63d70b6c4057ca,5e67ffcaff63d70b6c4057ca,20,cat,filler,B,75,cat65.jpg,cat85.jpg,nogoal,NULL
1687281463,d2e8e1529d5dc59a62a064f3cf4c69e0,PennController,13,0,experiment,NULL,PennController,12,_Trial_,Start,1687281383718,5e67ffcaff63d70b6c4057ca,5e67ffcaff63d70b6c4057ca,10,train,critical,B,50,train40.jpg,train60.jpg,nogoal,NULL
1687281463,d2e8e1529d5dc59a62a064f3cf4c69e0,PennController,13,0,experiment,NULL,PennController,12,_Header_,Start,1687281383718,5e67ffcaff63d70b6c4057ca,5e67ffcaff63d70b6c4057ca,10,train,critical,B,50,train40.jpg,train60.jpg,nogoal,NULL
1687281463,d2e8e1529d5dc59a62a064f3cf4c69e0,PennController,13,0,experiment,NULL,PennController,12,_Header_,End,1687281383718,5e67ffcaff63d70b6c4057ca,5e67ffcaff63d70b6c4057ca,10,train,critical,B,50,train40.jpg,train60.jpg,nogoal,NULL
1687281463,d2e8e1529d5dc59a62a064f3cf4c69e0,PennController,13,0,experiment,NULL,Canvas,canvas6,Print,NA,1687281388392,5e67ffcaff63d70b6c4057ca,5e67ffcaff63d70b6c4057ca,10,train,critical,B,50,train40.jpg,train60.jpg,nogoal,NULL
1687281463,d2e8e1529d5dc59a62a064f3cf4c69e0,PennController,13,0,experiment,NULL,Video,progression,buffer,0.003979,1687281385235,5e67ffcaff63d70b6c4057ca,5e67ffcaff63d70b6c4057ca,10,train,critical,B,50,train40.jpg,train60.jpg,nogoal,NULL
1687281463,d2e8e1529d5dc59a62a064f3cf4c69e0,PennController,13,0,experiment,NULL,Selector,choice,Selection,option2,1687281390385,5e67ffcaff63d70b6c4057ca,5e67ffcaff63d70b6c4057ca,10,train,critical,B,50,train40.jpg,train60.jpg,nogoal,option2;option1
1687281463,d2e8e1529d5dc59a62a064f3cf4c69e0,PennController,13,0,experiment,NULL,PennController,12,_Trial_,End,1687281390386,5e67ffcaff63d70b6c4057ca,5e67ffcaff63d70b6c4057ca,10,train,critical,B,50,train40.jpg,train60.jpg,nogoal,NULL
1687281463,d2e8e1529d5dc59a62a064f3cf4c69e0,PennController,7,0,experiment,NULL,PennController,6,_Trial_,Start,1687281390386,5e67ffcaff63d70b6c4057ca,5e67ffcaff63d70b6c4057ca,4,candy,critical,B,50,candy40.jpg,candy60.jpg,nogoal,NULL
1687281463,d2e8e1529d5dc59a62a064f3cf4c69e0,PennController,7,0,experiment,NULL,PennController,6,_Header_,Start,1687281390386,5e67ffcaff63d70b6c4057ca,5e67ffcaff63d70b6c4057ca,4,candy,critical,B,50,candy40.jpg,candy60.jpg,nogoal,NULL
1687281463,d2e8e1529d5dc59a62a064f3cf4c69e0,PennController,7,0,experiment,NULL,PennController,6,_Header_,End,1687281390386,5e67ffcaff63d70b6c4057ca,5e67ffcaff63d70b6c4057ca,4,candy,critical,B,50,candy40.jpg,candy60.jpg,nogoal,NULL
1687281463,d2e8e1529d5dc59a62a064f3cf4c69e0,PennController,7,0,experiment,NULL,Canvas,canvas6,Print,NA,1687281395055,5e67ffcaff63d70b6c4057ca,5e67ffcaff63d70b6c4057ca,4,candy,critical,B,50,candy40.jpg,candy60.jpg,nogoal,NULL
1687281463,d2e8e1529d5dc59a62a064f3cf4c69e0,PennController,7,0,experiment,NULL,Video,progression,buffer,0.002871,1687281391899,5e67ffcaff63d70b6c4057ca,5e67ffcaff63d70b6c4057ca,4,candy,critical,B,50,candy40.jpg,candy60.jpg,nogoal,NULL
1687281463,d2e8e1529d5dc59a62a064f3cf4c69e0,PennController,7,0,experiment,NULL,Selector,choice,Selection,option1,1687281398885,5e67ffcaff63d70b6c4057ca,5e67ffcaff63d70b6c4057ca,4,candy,critical,B,50,candy40.jpg,candy60.jpg,nogoal,option2;option1
1687281463,d2e8e1529d5dc59a62a064f3cf4c69e0,PennController,7,0,experiment,NULL,PennController,6,_Trial_,End,1687281398885,5e67ffcaff63d70b6c4057ca,5e67ffcaff63d70b6c4057ca,4,candy,critical,B,50,candy40.jpg,candy60.jpg,nogoal,NULL
1687281463,d2e8e1529d5dc59a62a064f3cf4c69e0,PennController,27,0,experiment,NULL,PennController,26,_Trial_,Start,1687281398886,5e67ffcaff63d70b6c4057ca,5e67ffcaff63d70b6c4057ca,24,match,filler,B,25,match15.jpg,match35.jpg,nogoal,NULL
1687281463,d2e8e1529d5dc59a62a064f3cf4c69e0,PennController,27,0,experiment,NULL,PennController,26,_Header_,Start,1687281398886,5e67ffcaff63d70b6c4057ca,5e67ffcaff63d70b6c4057ca,24,match,filler,B,25,match15.jpg,match35.jpg,nogoal,NULL
1687281463,d2e8e1529d5dc59a62a064f3cf4c69e0,PennController,27,0,experiment,NULL,PennController,26,_Header_,End,1687281398886,5e67ffcaff63d70b6c4057ca,5e67ffcaff63d70b6c4057ca,24,match,filler,B,25,match15.jpg,match35.jpg,nogoal,NULL
1687281463,d2e8e1529d5dc59a62a064f3cf4c69e0,PennController,27,0,experiment,NULL,Canvas,canvas6,Print,NA,1687281402565,5e67ffcaff63d70b6c4057ca,5e67ffcaff63d70b6c4057ca,24,match,filler,B,25,match15.jpg,match35.jpg,nogoal,NULL
1687281463,d2e8e1529d5dc59a62a064f3cf4c69e0,PennController,27,0,experiment,NULL,Video,progression,buffer,0.00337,1687281400397,5e67ffcaff63d70b6c4057ca,5e67ffcaff63d70b6c4057ca,24,match,filler,B,25,match15.jpg,match35.jpg,nogoal,NULL
1687281463,d2e8e1529d5dc59a62a064f3cf4c69e0,PennController,27,0,experiment,NULL,Selector,choice,Selection,option1,1687281404463,5e67ffcaff63d70b6c4057ca,5e67ffcaff63d70b6c4057ca,24,match,filler,B,25,match15.jpg,match35.jpg,nogoal,option2;option1
1687281463,d2e8e1529d5dc59a62a064f3cf4c69e0,PennController,27,0,experiment,NULL,PennController,26,_Trial_,End,1687281404464,5e67ffcaff63d70b6c4057ca,5e67ffcaff63d70b6c4057ca,24,match,filler,B,25,match15.jpg,match35.jpg,nogoal,NULL
1687281463,d2e8e1529d5dc59a62a064f3cf4c69e0,PennController,8,0,experiment,NULL,PennController,7,_Trial_,Start,1687281404464,5e67ffcaff63d70b6c4057ca,5e67ffcaff63d70b6c4057ca,5,book,critical,B,75,book65.jpg,book85.jpg,nogoal,NULL
1687281463,d2e8e1529d5dc59a62a064f3cf4c69e0,PennController,8,0,experiment,NULL,PennController,7,_Header_,Start,1687281404464,5e67ffcaff63d70b6c4057ca,5e67ffcaff63d70b6c4057ca,5,book,critical,B,75,book65.jpg,book85.jpg,nogoal,NULL
1687281463,d2e8e1529d5dc59a62a064f3cf4c69e0,PennController,8,0,experiment,NULL,PennController,7,_Header_,End,1687281404464,5e67ffcaff63d70b6c4057ca,5e67ffcaff63d70b6c4057ca,5,book,critical,B,75,book65.jpg,book85.jpg,nogoal,NULL
1687281463,d2e8e1529d5dc59a62a064f3cf4c69e0,PennController,8,0,experiment,NULL,Canvas,canvas6,Print,NA,1687281410137,5e67ffcaff63d70b6c4057ca,5e67ffcaff63d70b6c4057ca,5,book,critical,B,75,book65.jpg,book85.jpg,nogoal,NULL
1687281463,d2e8e1529d5dc59a62a064f3cf4c69e0,PennController,8,0,experiment,NULL,Video,progression,buffer,0.003485,1687281405977,5e67ffcaff63d70b6c4057ca,5e67ffcaff63d70b6c4057ca,5,book,critical,B,75,book65.jpg,book85.jpg,nogoal,NULL
1687281463,d2e8e1529d5dc59a62a064f3cf4c69e0,PennController,8,0,experiment,NULL,Selector,choice,Selection,option1,1687281412687,5e67ffcaff63d70b6c4057ca,5e67ffcaff63d70b6c4057ca,5,book,critical,B,75,book65.jpg,book85.jpg,nogoal,option2;option1
1687281463,d2e8e1529d5dc59a62a064f3cf4c69e0,PennController,8,0,experiment,NULL,PennController,7,_Trial_,End,1687281412687,5e67ffcaff63d70b6c4057ca,5e67ffcaff63d70b6c4057ca,5,book,critical,B,75,book65.jpg,book85.jpg,nogoal,NULL
1687281463,d2e8e1529d5dc59a62a064f3cf4c69e0,PennController,14,0,experiment,NULL,PennController,13,_Trial_,Start,1687281412688,5e67ffcaff63d70b6c4057ca,5e67ffcaff63d70b6c4057ca,11,beads,critical,B,75,beads65.jpg,beads85.jpg,nogoal,NULL
1687281463,d2e8e1529d5dc59a62a064f3cf4c69e0,PennController,14,0,experiment,NULL,PennController,13,_Header_,Start,1687281412688,5e67ffcaff63d70b6c4057ca,5e67ffcaff63d70b6c4057ca,11,beads,critical,B,75,beads65.jpg,beads85.jpg,nogoal,NULL
1687281463,d2e8e1529d5dc59a62a064f3cf4c69e0,PennController,14,0,experiment,NULL,PennController,13,_Header_,End,1687281412688,5e67ffcaff63d70b6c4057ca,5e67ffcaff63d70b6c4057ca,11,beads,critical,B,75,beads65.jpg,beads85.jpg,nogoal,NULL
1687281463,d2e8e1529d5dc59a62a064f3cf4c69e0,PennController,14,0,experiment,NULL,Canvas,canvas6,Print,NA,1687281418366,5e67ffcaff63d70b6c4057ca,5e67ffcaff63d70b6c4057ca,11,beads,critical,B,75,beads65.jpg,beads85.jpg,nogoal,NULL
1687281463,d2e8e1529d5dc59a62a064f3cf4c69e0,PennController,14,0,experiment,NULL,Video,progression,buffer,0.002941,1687281414198,5e67ffcaff63d70b6c4057ca,5e67ffcaff63d70b6c4057ca,11,beads,critical,B,75,beads65.jpg,beads85.jpg,nogoal,NULL
1687281463,d2e8e1529d5dc59a62a064f3cf4c69e0,PennController,14,0,experiment,NULL,Selector,choice,Selection,option1,1687281421422,5e67ffcaff63d70b6c4057ca,5e67ffcaff63d70b6c4057ca,11,beads,critical,B,75,beads65.jpg,beads85.jpg,nogoal,option1;option2
1687281463,d2e8e1529d5dc59a62a064f3cf4c69e0,PennController,14,0,experiment,NULL,PennController,13,_Trial_,End,1687281421423,5e67ffcaff63d70b6c4057ca,5e67ffcaff63d70b6c4057ca,11,beads,critical,B,75,beads65.jpg,beads85.jpg,nogoal,NULL
1687281463,d2e8e1529d5dc59a62a064f3cf4c69e0,PennController,11,0,experiment,NULL,PennController,10,_Trial_,Start,1687281421424,5e67ffcaff63d70b6c4057ca,5e67ffcaff63d70b6c4057ca,8,cucumber,critical,B,75,cucumber66.jpg,cucumber84.jpg,nogoal,NULL
1687281463,d2e8e1529d5dc59a62a064f3cf4c69e0,PennController,11,0,experiment,NULL,PennController,10,_Header_,Start,1687281421424,5e67ffcaff63d70b6c4057ca,5e67ffcaff63d70b6c4057ca,8,cucumber,critical,B,75,cucumber66.jpg,cucumber84.jpg,nogoal,NULL
1687281463,d2e8e1529d5dc59a62a064f3cf4c69e0,PennController,11,0,experiment,NULL,PennController,10,_Header_,End,1687281421424,5e67ffcaff63d70b6c4057ca,5e67ffcaff63d70b6c4057ca,8,cucumber,critical,B,75,cucumber66.jpg,cucumber84.jpg,nogoal,NULL
1687281463,d2e8e1529d5dc59a62a064f3cf4c69e0,PennController,11,0,experiment,NULL,Canvas,canvas6,Print,NA,1687281429069,5e67ffcaff63d70b6c4057ca,5e67ffcaff63d70b6c4057ca,8,cucumber,critical,B,75,cucumber66.jpg,cucumber84.jpg,nogoal,NULL
1687281463,d2e8e1529d5dc59a62a064f3cf4c69e0,PennController,11,0,experiment,NULL,Video,progression,buffer,0.002802,1687281422934,5e67ffcaff63d70b6c4057ca,5e67ffcaff63d70b6c4057ca,8,cucumber,critical,B,75,cucumber66.jpg,cucumber84.jpg,nogoal,NULL
1687281463,d2e8e1529d5dc59a62a064f3cf4c69e0,PennController,11,0,experiment,NULL,Selector,choice,Selection,option1,1687281430914,5e67ffcaff63d70b6c4057ca,5e67ffcaff63d70b6c4057ca,8,cucumber,critical,B,75,cucumber66.jpg,cucumber84.jpg,nogoal,option2;option1
1687281463,d2e8e1529d5dc59a62a064f3cf4c69e0,PennController,11,0,experiment,NULL,PennController,10,_Trial_,End,1687281430915,5e67ffcaff63d70b6c4057ca,5e67ffcaff63d70b6c4057ca,8,cucumber,critical,B,75,cucumber66.jpg,cucumber84.jpg,nogoal,NULL
1687281463,d2e8e1529d5dc59a62a064f3cf4c69e0,PennController,19,0,experiment,NULL,PennController,18,_Trial_,Start,1687281430916,5e67ffcaff63d70b6c4057ca,5e67ffcaff63d70b6c4057ca,16,blinds,critical,B,50,blinds42.jpg,blinds60.jpg,nogoal,NULL
1687281463,d2e8e1529d5dc59a62a064f3cf4c69e0,PennController,19,0,experiment,NULL,PennController,18,_Header_,Start,1687281430916,5e67ffcaff63d70b6c4057ca,5e67ffcaff63d70b6c4057ca,16,blinds,critical,B,50,blinds42.jpg,blinds60.jpg,nogoal,NULL
1687281463,d2e8e1529d5dc59a62a064f3cf4c69e0,PennController,19,0,experiment,NULL,PennController,18,_Header_,End,1687281430916,5e67ffcaff63d70b6c4057ca,5e67ffcaff63d70b6c4057ca,16,blinds,critical,B,50,blinds42.jpg,blinds60.jpg,nogoal,NULL
1687281463,d2e8e1529d5dc59a62a064f3cf4c69e0,PennController,19,0,experiment,NULL,Canvas,canvas6,Print,NA,1687281436983,5e67ffcaff63d70b6c4057ca,5e67ffcaff63d70b6c4057ca,16,blinds,critical,B,50,blinds42.jpg,blinds60.jpg,nogoal,NULL
1687281463,d2e8e1529d5dc59a62a064f3cf4c69e0,PennController,19,0,experiment,NULL,Video,progression,buffer,0.004232,1687281432430,5e67ffcaff63d70b6c4057ca,5e67ffcaff63d70b6c4057ca,16,blinds,critical,B,50,blinds42.jpg,blinds60.jpg,nogoal,NULL
1687281463,d2e8e1529d5dc59a62a064f3cf4c69e0,PennController,19,0,experiment,NULL,Selector,choice,Selection,option2,1687281439830,5e67ffcaff63d70b6c4057ca,5e67ffcaff63d70b6c4057ca,16,blinds,critical,B,50,blinds42.jpg,blinds60.jpg,nogoal,option2;option1
1687281463,d2e8e1529d5dc59a62a064f3cf4c69e0,PennController,19,0,experiment,NULL,PennController,18,_Trial_,End,1687281439831,5e67ffcaff63d70b6c4057ca,5e67ffcaff63d70b6c4057ca,16,blinds,critical,B,50,blinds42.jpg,blinds60.jpg,nogoal,NULL
1687281463,d2e8e1529d5dc59a62a064f3cf4c69e0,PennController,20,0,experiment,NULL,PennController,19,_Trial_,Start,1687281439832,5e67ffcaff63d70b6c4057ca,5e67ffcaff63d70b6c4057ca,17,roll,critical,B,75,roll65.jpg,roll85.jpg,nogoal,NULL
1687281463,d2e8e1529d5dc59a62a064f3cf4c69e0,PennController,20,0,experiment,NULL,PennController,19,_Header_,Start,1687281439832,5e67ffcaff63d70b6c4057ca,5e67ffcaff63d70b6c4057ca,17,roll,critical,B,75,roll65.jpg,roll85.jpg,nogoal,NULL
1687281463,d2e8e1529d5dc59a62a064f3cf4c69e0,PennController,20,0,experiment,NULL,PennController,19,_Header_,End,1687281439832,5e67ffcaff63d70b6c4057ca,5e67ffcaff63d70b6c4057ca,17,roll,critical,B,75,roll65.jpg,roll85.jpg,nogoal,NULL
1687281463,d2e8e1529d5dc59a62a064f3cf4c69e0,PennController,20,0,experiment,NULL,Canvas,canvas6,Print,NA,1687281445523,5e67ffcaff63d70b6c4057ca,5e67ffcaff63d70b6c4057ca,17,roll,critical,B,75,roll65.jpg,roll85.jpg,nogoal,NULL
1687281463,d2e8e1529d5dc59a62a064f3cf4c69e0,PennController,20,0,experiment,NULL,Video,progression,buffer,0.002931,1687281441347,5e67ffcaff63d70b6c4057ca,5e67ffcaff63d70b6c4057ca,17,roll,critical,B,75,roll65.jpg,roll85.jpg,nogoal,NULL
1687281463,d2e8e1529d5dc59a62a064f3cf4c69e0,PennController,20,0,experiment,NULL,Selector,choice,Selection,option1,1687281447885,5e67ffcaff63d70b6c4057ca,5e67ffcaff63d70b6c4057ca,17,roll,critical,B,75,roll65.jpg,roll85.jpg,nogoal,option1;option2
1687281463,d2e8e1529d5dc59a62a064f3cf4c69e0,PennController,20,0,experiment,NULL,PennController,19,_Trial_,End,1687281447886,5e67ffcaff63d70b6c4057ca,5e67ffcaff63d70b6c4057ca,17,roll,critical,B,75,roll65.jpg,roll85.jpg,nogoal,NULL
1687281463,d2e8e1529d5dc59a62a064f3cf4c69e0,PennController,4,0,experiment,NULL,PennController,3,_Trial_,Start,1687281447887,5e67ffcaff63d70b6c4057ca,5e67ffcaff63d70b6c4057ca,1,vase,critical,B,50,vase40.jpg,vase60.jpg,nogoal,NULL
1687281463,d2e8e1529d5dc59a62a064f3cf4c69e0,PennController,4,0,experiment,NULL,PennController,3,_Header_,Start,1687281447887,5e67ffcaff63d70b6c4057ca,5e67ffcaff63d70b6c4057ca,1,vase,critical,B,50,vase40.jpg,vase60.jpg,nogoal,NULL
1687281463,d2e8e1529d5dc59a62a064f3cf4c69e0,PennController,4,0,experiment,NULL,PennController,3,_Header_,End,1687281447887,5e67ffcaff63d70b6c4057ca,5e67ffcaff63d70b6c4057ca,1,vase,critical,B,50,vase40.jpg,vase60.jpg,nogoal,NULL
1687281463,d2e8e1529d5dc59a62a064f3cf4c69e0,PennController,4,0,experiment,NULL,Canvas,canvas6,Print,NA,1687281452569,5e67ffcaff63d70b6c4057ca,5e67ffcaff63d70b6c4057ca,1,vase,critical,B,50,vase40.jpg,vase60.jpg,nogoal,NULL
1687281463,d2e8e1529d5dc59a62a064f3cf4c69e0,PennController,4,0,experiment,NULL,Video,progression,buffer,0.002893,1687281449400,5e67ffcaff63d70b6c4057ca,5e67ffcaff63d70b6c4057ca,1,vase,critical,B,50,vase40.jpg,vase60.jpg,nogoal,NULL
1687281463,d2e8e1529d5dc59a62a064f3cf4c69e0,PennController,4,0,experiment,NULL,Selector,choice,Selection,option2,1687281454344,5e67ffcaff63d70b6c4057ca,5e67ffcaff63d70b6c4057ca,1,vase,critical,B,50,vase40.jpg,vase60.jpg,nogoal,option2;option1
1687281463,d2e8e1529d5dc59a62a064f3cf4c69e0,PennController,4,0,experiment,NULL,PennController,3,_Trial_,End,1687281454345,5e67ffcaff63d70b6c4057ca,5e67ffcaff63d70b6c4057ca,1,vase,critical,B,50,vase40.jpg,vase60.jpg,nogoal,NULL
1687281463,d2e8e1529d5dc59a62a064f3cf4c69e0,PennController,10,0,experiment,NULL,PennController,9,_Trial_,Start,1687281454346,5e67ffcaff63d70b6c4057ca,5e67ffcaff63d70b6c4057ca,7,stack,critical,B,50,stack40.jpg,stack60.jpg,nogoal,NULL
1687281463,d2e8e1529d5dc59a62a064f3cf4c69e0,PennController,10,0,experiment,NULL,PennController,9,_Header_,Start,1687281454346,5e67ffcaff63d70b6c4057ca,5e67ffcaff63d70b6c4057ca,7,stack,critical,B,50,stack40.jpg,stack60.jpg,nogoal,NULL
1687281463,d2e8e1529d5dc59a62a064f3cf4c69e0,PennController,10,0,experiment,NULL,PennController,9,_Header_,End,1687281454346,5e67ffcaff63d70b6c4057ca,5e67ffcaff63d70b6c4057ca,7,stack,critical,B,50,stack40.jpg,stack60.jpg,nogoal,NULL
1687281463,d2e8e1529d5dc59a62a064f3cf4c69e0,PennController,10,0,experiment,NULL,Canvas,canvas6,Print,NA,1687281459011,5e67ffcaff63d70b6c4057ca,5e67ffcaff63d70b6c4057ca,7,stack,critical,B,50,stack40.jpg,stack60.jpg,nogoal,NULL
1687281463,d2e8e1529d5dc59a62a064f3cf4c69e0,PennController,10,0,experiment,NULL,Video,progression,buffer,0.002541,1687281455855,5e67ffcaff63d70b6c4057ca,5e67ffcaff63d70b6c4057ca,7,stack,critical,B,50,stack40.jpg,stack60.jpg,nogoal,NULL
1687281463,d2e8e1529d5dc59a62a064f3cf4c69e0,PennController,10,0,experiment,NULL,Selector,choice,Selection,option1,1687281462697,5e67ffcaff63d70b6c4057ca,5e67ffcaff63d70b6c4057ca,7,stack,critical,B,50,stack40.jpg,stack60.jpg,nogoal,option2;option1
1687281463,d2e8e1529d5dc59a62a064f3cf4c69e0,PennController,10,0,experiment,NULL,PennController,9,_Trial_,End,1687281462698,5e67ffcaff63d70b6c4057ca,5e67ffcaff63d70b6c4057ca,7,stack,critical,B,50,stack40.jpg,stack60.jpg,nogoal,NULL
1687281463,d2e8e1529d5dc59a62a064f3cf4c69e0,PennController,29,0,experiment,NULL,PennController,28,_Trial_,Start,1687281462698,5e67ffcaff63d70b6c4057ca,5e67ffcaff63d70b6c4057ca,26,sandwich,filler,B,75,sandwich65.jpg,sandwich85.jpg,nogoal,NULL
1687281463,d2e8e1529d5dc59a62a064f3cf4c69e0,PennController,29,0,experiment,NULL,PennController,28,_Header_,Start,1687281462698,5e67ffcaff63d70b6c4057ca,5e67ffcaff63d70b6c4057ca,26,sandwich,filler,B,75,sandwich65.jpg,sandwich85.jpg,nogoal,NULL
1687281463,d2e8e1529d5dc59a62a064f3cf4c69e0,PennController,29,0,experiment,NULL,PennController,28,_Header_,End,1687281462698,5e67ffcaff63d70b6c4057ca,5e67ffcaff63d70b6c4057ca,26,sandwich,filler,B,75,sandwich65.jpg,sandwich85.jpg,nogoal,NULL
1687281463,d2e8e1529d5dc59a62a064f3cf4c69e0,PennController,29,0,experiment,NULL,Canvas,canvas6,Print,NA,1687281468356,5e67ffcaff63d70b6c4057ca,5e67ffcaff63d70b6c4057ca,26,sandwich,filler,B,75,sandwich65.jpg,sandwich85.jpg,nogoal,NULL
1687281463,d2e8e1529d5dc59a62a064f3cf4c69e0,PennController,29,0,experiment,NULL,Video,progression,buffer,0.00245,1687281464211,5e67ffcaff63d70b6c4057ca,5e67ffcaff63d70b6c4057ca,26,sandwich,filler,B,75,sandwich65.jpg,sandwich85.jpg,nogoal,NULL
1687281463,d2e8e1529d5dc59a62a064f3cf4c69e0,PennController,29,0,experiment,NULL,Selector,choice,Selection,option1,1687281470477,5e67ffcaff63d70b6c4057ca,5e67ffcaff63d70b6c4057ca,26,sandwich,filler,B,75,sandwich65.jpg,sandwich85.jpg,nogoal,option2;option1
1687281463,d2e8e1529d5dc59a62a064f3cf4c69e0,PennController,29,0,experiment,NULL,PennController,28,_Trial_,End,1687281470478,5e67ffcaff63d70b6c4057ca,5e67ffcaff63d70b6c4057ca,26,sandwich,filler,B,75,sandwich65.jpg,sandwich85.jpg,nogoal,NULL
