#
# Results on Tuesday June 20 2023 17:18:59 UTC
# USER AGENT: Mozilla/5.0 (Windows NT 10.0; Win64; x64) AppleWebKit/537.36 (KHTML, like Gecko) Chrome/114.0.0.0 Safari/537.36 Edg/114.0.1823.51
# Design number was non-random = 4
#
# Columns below this comment are as follows:
# 1. Results reception time.
# 2. MD5 hash of participant's IP address.
# 3. Controller name.
# 4. Order number of item.
# 5. Inner element number.
# 6. Label.
# 7. Latin Square Group.
# 8. PennElementType.
# 9. PennElementName.
# 10. Parameter.
# 11. Value.
# 12. EventTime.
# 13. PROLIFIC_ID.
# 14. Comments.
1687281539,5b2a767945b364f686eaa63eb050f8b1,PennController,2,0,consent,NULL,PennController,0,_Trial_,Start,1687281310920,613ee464768f4be3b5ff3eaa,NULL
1687281539,5b2a767945b364f686eaa63eb050f8b1,PennController,2,0,consent,NULL,PennController,0,_Header_,Start,1687281310920,613ee464768f4be3b5ff3eaa,NULL
1687281539,5b2a767945b364f686eaa63eb050f8b1,PennController,2,0,consent,NULL,PennController,0,_Header_,End,1687281310920,613ee464768f4be3b5ff3eaa,NULL
1687281539,5b2a767945b364f686eaa63eb050f8b1,PennController,2,0,consent,NULL,PennController,0,_Trial_,End,1687281314618,613ee464768f4be3b5ff3eaa,NULL
# Columns below this comment are as follows:
# 14. ID.
# 15. Comments.
1687281539,5b2a767945b364f686eaa63eb050f8b1,PennController,3,0,intro,NULL,PennController,1,_Trial_,Start,1687281314620,613ee464768f4be3b5ff3eaa,613ee464768f4be3b5ff3eaa,NULL
1687281539,5b2a767945b364f686eaa63eb050f8b1,PennController,3,0,intro,NULL,PennController,1,_Header_,Start,1687281314620,613ee464768f4be3b5ff3eaa,613ee464768f4be3b5ff3eaa,NULL
1687281539,5b2a767945b364f686eaa63eb050f8b1,PennController,3,0,intro,NULL,PennController,1,_Header_,End,1687281314620,613ee464768f4be3b5ff3eaa,613ee464768f4be3b5ff3eaa,NULL
1687281539,5b2a767945b364f686eaa63eb050f8b1,PennController,3,0,intro,NULL,PennController,1,_Trial_,End,1687281323980,613ee464768f4be3b5ff3eaa,613ee464768f4be3b5ff3eaa,NULL
# Columns below this comment are as follows:
# 15. item_number.
# 16. item.
# 17. type.
# 18. Group.
# 19. prog.
# 20. prev_image.
# 21. next_image.
# 22. height.
# 23. Comments.
1687281539,5b2a767945b364f686eaa63eb050f8b1,PennController,27,0,experiment,NULL,PennController,26,_Trial_,Start,1687281323981,613ee464768f4be3b5ff3eaa,613ee464768f4be3b5ff3eaa,24,match,filler,B,25,match15.jpg,match35.jpg,nogoal,NULL
1687281539,5b2a767945b364f686eaa63eb050f8b1,PennController,27,0,experiment,NULL,PennController,26,_Header_,Start,1687281323981,613ee464768f4be3b5ff3eaa,613ee464768f4be3b5ff3eaa,24,match,filler,B,25,match15.jpg,match35.jpg,nogoal,NULL
1687281539,5b2a767945b364f686eaa63eb050f8b1,PennController,27,0,experiment,NULL,PennController,26,_Header_,End,1687281323981,613ee464768f4be3b5ff3eaa,613ee464768f4be3b5ff3eaa,24,match,filler,B,25,match15.jpg,match35.jpg,nogoal,NULL
1687281539,5b2a767945b364f686eaa63eb050f8b1,PennController,27,0,experiment,NULL,Canvas,canvas6,Print,NA,1687281327676,613ee464768f4be3b5ff3eaa,613ee464768f4be3b5ff3eaa,24,match,filler,B,25,match15.jpg,match35.jpg,nogoal,NULL
1687281539,5b2a767945b364f686eaa63eb050f8b1,PennController,27,0,experiment,NULL,Video,progression,buffer,0.002803,1687281325507,613ee464768f4be3b5ff3eaa,613ee464768f4be3b5ff3eaa,24,match,filler,B,25,match15.jpg,match35.jpg,nogoal,NULL
1687281539,5b2a767945b364f686eaa63eb050f8b1,PennController,27,0,experiment,NULL,Selector,choice,Selection,option2,1687281330591,613ee464768f4be3b5ff3eaa,613ee464768f4be3b5ff3eaa,24,match,filler,B,25,match15.jpg,match35.jpg,nogoal,option1;option2
1687281539,5b2a767945b364f686eaa63eb050f8b1,PennController,27,0,experiment,NULL,PennController,26,_Trial_,End,1687281330593,613ee464768f4be3b5ff3eaa,613ee464768f4be3b5ff3eaa,24,match,filler,B,25,match15.jpg,match35.jpg,nogoal,NULL
1687281539,5b2a767945b364f686eaa63eb050f8b1,PennController,28,0,experiment,NULL,PennController,27,_Trial_,Start,1687281330594,613ee464768f4be3b5ff3eaa,613ee464768f4be3b5ff3eaa,25,house,filler,B,50,house40.jpg,house60.jpg,nogoal,NULL
1687281539,5b2a767945b364f686eaa63eb050f8b1,PennController,28,0,experiment,NULL,PennController,27,_Header_,Start,1687281330594,613ee464768f4be3b5ff3eaa,613ee464768f4be3b5ff3eaa,25,house,filler,B,50,house40.jpg,house60.jpg,nogoal,NULL
1687281539,5b2a767945b364f686eaa63eb050f8b1,PennController,28,0,experiment,NULL,PennController,27,_Header_,End,1687281330594,613ee464768f4be3b5ff3eaa,613ee464768f4be3b5ff3eaa,25,house,filler,B,50,house40.jpg,house60.jpg,nogoal,NULL
1687281539,5b2a767945b364f686eaa63eb050f8b1,PennController,28,0,experiment,NULL,Canvas,canvas6,Print,NA,1687281335325,613ee464768f4be3b5ff3eaa,613ee464768f4be3b5ff3eaa,25,house,filler,B,50,house40.jpg,house60.jpg,nogoal,NULL
1687281539,5b2a767945b364f686eaa63eb050f8b1,PennController,28,0,experiment,NULL,Video,progression,buffer,0.004839,1687281332117,613ee464768f4be3b5ff3eaa,613ee464768f4be3b5ff3eaa,25,house,filler,B,50,house40.jpg,house60.jpg,nogoal,NULL
1687281539,5b2a767945b364f686eaa63eb050f8b1,PennController,28,0,experiment,NULL,Selector,choice,Selection,option2,1687281337665,613ee464768f4be3b5ff3eaa,613ee464768f4be3b5ff3eaa,25,house,filler,B,50,house40.jpg,house60.jpg,nogoal,option1;option2
1687281539,5b2a767945b364f686eaa63eb050f8b1,PennController,28,0,experiment,NULL,PennController,27,_Trial_,End,1687281337666,613ee464768f4be3b5ff3eaa,613ee464768f4be3b5ff3eaa,25,house,filler,B,50,house40.jpg,house60.jpg,nogoal,NULL
1687281539,5b2a767945b364f686eaa63eb050f8b1,PennController,26,0,experiment,NULL,PennController,25,_Trial_,Start,1687281337668,613ee464768f4be3b5ff3eaa,613ee464768f4be3b5ff3eaa,23,color,filler,B,75,color65.jpg,color85.jpg,nogoal,NULL
1687281539,5b2a767945b364f686eaa63eb050f8b1,PennController,26,0,experiment,NULL,PennController,25,_Header_,Start,1687281337668,613ee464768f4be3b5ff3eaa,613ee464768f4be3b5ff3eaa,23,color,filler,B,75,color65.jpg,color85.jpg,nogoal,NULL
1687281539,5b2a767945b364f686eaa63eb050f8b1,PennController,26,0,experiment,NULL,PennController,25,_Header_,End,1687281337668,613ee464768f4be3b5ff3eaa,613ee464768f4be3b5ff3eaa,23,color,filler,B,75,color65.jpg,color85.jpg,nogoal,NULL
1687281539,5b2a767945b364f686eaa63eb050f8b1,PennController,26,0,experiment,NULL,Canvas,canvas6,Print,NA,1687281343310,613ee464768f4be3b5ff3eaa,613ee464768f4be3b5ff3eaa,23,color,filler,B,75,color65.jpg,color85.jpg,nogoal,NULL
1687281539,5b2a767945b364f686eaa63eb050f8b1,PennController,26,0,experiment,NULL,Video,progression,buffer,0.001699,1687281339183,613ee464768f4be3b5ff3eaa,613ee464768f4be3b5ff3eaa,23,color,filler,B,75,color65.jpg,color85.jpg,nogoal,NULL
1687281539,5b2a767945b364f686eaa63eb050f8b1,PennController,26,0,experiment,NULL,Selector,choice,Selection,option2,1687281348051,613ee464768f4be3b5ff3eaa,613ee464768f4be3b5ff3eaa,23,color,filler,B,75,color65.jpg,color85.jpg,nogoal,option2;option1
1687281539,5b2a767945b364f686eaa63eb050f8b1,PennController,26,0,experiment,NULL,PennController,25,_Trial_,End,1687281348052,613ee464768f4be3b5ff3eaa,613ee464768f4be3b5ff3eaa,23,color,filler,B,75,color65.jpg,color85.jpg,nogoal,NULL
1687281539,5b2a767945b364f686eaa63eb050f8b1,PennController,23,0,experiment,NULL,PennController,22,_Trial_,Start,1687281348054,613ee464768f4be3b5ff3eaa,613ee464768f4be3b5ff3eaa,20,cat,filler,B,75,cat65.jpg,cat85.jpg,nogoal,NULL
1687281539,5b2a767945b364f686eaa63eb050f8b1,PennController,23,0,experiment,NULL,PennController,22,_Header_,Start,1687281348054,613ee464768f4be3b5ff3eaa,613ee464768f4be3b5ff3eaa,20,cat,filler,B,75,cat65.jpg,cat85.jpg,nogoal,NULL
1687281539,5b2a767945b364f686eaa63eb050f8b1,PennController,23,0,experiment,NULL,PennController,22,_Header_,End,1687281348054,613ee464768f4be3b5ff3eaa,613ee464768f4be3b5ff3eaa,20,cat,filler,B,75,cat65.jpg,cat85.jpg,nogoal,NULL
1687281539,5b2a767945b364f686eaa63eb050f8b1,PennController,23,0,experiment,NULL,Canvas,canvas6,Print,NA,1687281353784,613ee464768f4be3b5ff3eaa,613ee464768f4be3b5ff3eaa,20,cat,filler,B,75,cat65.jpg,cat85.jpg,nogoal,NULL
1687281539,5b2a767945b364f686eaa63eb050f8b1,PennController,23,0,experiment,NULL,Video,progression,buffer,0.001632,1687281349571,613ee464768f4be3b5ff3eaa,613ee464768f4be3b5ff3eaa,20,cat,filler,B,75,cat65.jpg,cat85.jpg,nogoal,NULL
1687281539,5b2a767945b364f686eaa63eb050f8b1,PennController,23,0,experiment,NULL,Selector,choice,Selection,option2,1687281355525,613ee464768f4be3b5ff3eaa,613ee464768f4be3b5ff3eaa,20,cat,filler,B,75,cat65.jpg,cat85.jpg,nogoal,option2;option1
1687281539,5b2a767945b364f686eaa63eb050f8b1,PennController,23,0,experiment,NULL,PennController,22,_Trial_,End,1687281355526,613ee464768f4be3b5ff3eaa,613ee464768f4be3b5ff3eaa,20,cat,filler,B,75,cat65.jpg,cat85.jpg,nogoal,NULL
1687281539,5b2a767945b364f686eaa63eb050f8b1,PennController,17,0,experiment,NULL,PennController,16,_Trial_,Start,1687281355528,613ee464768f4be3b5ff3eaa,613ee464768f4be3b5ff3eaa,14,cover,critical,B,75,cover66.jpg,cover84.jpg,nogoal,NULL
1687281539,5b2a767945b364f686eaa63eb050f8b1,PennController,17,0,experiment,NULL,PennController,16,_Header_,Start,1687281355528,613ee464768f4be3b5ff3eaa,613ee464768f4be3b5ff3eaa,14,cover,critical,B,75,cover66.jpg,cover84.jpg,nogoal,NULL
1687281539,5b2a767945b364f686eaa63eb050f8b1,PennController,17,0,experiment,NULL,PennController,16,_Header_,End,1687281355528,613ee464768f4be3b5ff3eaa,613ee464768f4be3b5ff3eaa,14,cover,critical,B,75,cover66.jpg,cover84.jpg,nogoal,NULL
1687281539,5b2a767945b364f686eaa63eb050f8b1,PennController,17,0,experiment,NULL,Canvas,canvas6,Print,NA,1687281363248,613ee464768f4be3b5ff3eaa,613ee464768f4be3b5ff3eaa,14,cover,critical,B,75,cover66.jpg,cover84.jpg,nogoal,NULL
1687281539,5b2a767945b364f686eaa63eb050f8b1,PennController,17,0,experiment,NULL,Video,progression,buffer,0.002255,1687281357046,613ee464768f4be3b5ff3eaa,613ee464768f4be3b5ff3eaa,14,cover,critical,B,75,cover66.jpg,cover84.jpg,nogoal,NULL
1687281539,5b2a767945b364f686eaa63eb050f8b1,PennController,17,0,experiment,NULL,Selector,choice,Selection,option2,1687281370821,613ee464768f4be3b5ff3eaa,613ee464768f4be3b5ff3eaa,14,cover,critical,B,75,cover66.jpg,cover84.jpg,nogoal,option2;option1
1687281539,5b2a767945b364f686eaa63eb050f8b1,PennController,17,0,experiment,NULL,PennController,16,_Trial_,End,1687281370822,613ee464768f4be3b5ff3eaa,613ee464768f4be3b5ff3eaa,14,cover,critical,B,75,cover66.jpg,cover84.jpg,nogoal,NULL
1687281539,5b2a767945b364f686eaa63eb050f8b1,PennController,24,0,experiment,NULL,PennController,23,_Trial_,Start,1687281370823,613ee464768f4be3b5ff3eaa,613ee464768f4be3b5ff3eaa,21,visit,filler,B,25,visit15.jpg,visit35.jpg,nogoal,NULL
1687281539,5b2a767945b364f686eaa63eb050f8b1,PennController,24,0,experiment,NULL,PennController,23,_Header_,Start,1687281370823,613ee464768f4be3b5ff3eaa,613ee464768f4be3b5ff3eaa,21,visit,filler,B,25,visit15.jpg,visit35.jpg,nogoal,NULL
1687281539,5b2a767945b364f686eaa63eb050f8b1,PennController,24,0,experiment,NULL,PennController,23,_Header_,End,1687281370823,613ee464768f4be3b5ff3eaa,613ee464768f4be3b5ff3eaa,21,visit,filler,B,25,visit15.jpg,visit35.jpg,nogoal,NULL
1687281539,5b2a767945b364f686eaa63eb050f8b1,PennController,24,0,experiment,NULL,Canvas,canvas6,Print,NA,1687281374542,613ee464768f4be3b5ff3eaa,613ee464768f4be3b5ff3eaa,21,visit,filler,B,25,visit15.jpg,visit35.jpg,nogoal,NULL
1687281539,5b2a767945b364f686eaa63eb050f8b1,PennController,24,0,experiment,NULL,Video,progression,buffer,0.002262,1687281372336,613ee464768f4be3b5ff3eaa,613ee464768f4be3b5ff3eaa,21,visit,filler,B,25,visit15.jpg,visit35.jpg,nogoal,NULL
1687281539,5b2a767945b364f686eaa63eb050f8b1,PennController,24,0,experiment,NULL,Selector,choice,Selection,option2,1687281375671,613ee464768f4be3b5ff3eaa,613ee464768f4be3b5ff3eaa,21,visit,filler,B,25,visit15.jpg,visit35.jpg,nogoal,option1;option2
1687281539,5b2a767945b364f686eaa63eb050f8b1,PennController,24,0,experiment,NULL,PennController,23,_Trial_,End,1687281375671,613ee464768f4be3b5ff3eaa,613ee464768f4be3b5ff3eaa,21,visit,filler,B,25,visit15.jpg,visit35.jpg,nogoal,NULL
1687281539,5b2a767945b364f686eaa63eb050f8b1,PennController,7,0,experiment,NULL,PennController,6,_Trial_,Start,1687281375672,613ee464768f4be3b5ff3eaa,613ee464768f4be3b5ff3eaa,4,candy,critical,B,50,candy40.jpg,candy60.jpg,nogoal,NULL
1687281539,5b2a767945b364f686eaa63eb050f8b1,PennController,7,0,experiment,NULL,PennController,6,_Header_,Start,1687281375672,613ee464768f4be3b5ff3eaa,613ee464768f4be3b5ff3eaa,4,candy,critical,B,50,candy40.jpg,candy60.jpg,nogoal,NULL
1687281539,5b2a767945b364f686eaa63eb050f8b1,PennController,7,0,experiment,NULL,PennController,6,_Header_,End,1687281375672,613ee464768f4be3b5ff3eaa,613ee464768f4be3b5ff3eaa,4,candy,critical,B,50,candy40.jpg,candy60.jpg,nogoal,NULL
1687281539,5b2a767945b364f686eaa63eb050f8b1,PennController,7,0,experiment,NULL,Canvas,canvas6,Print,NA,1687281380389,613ee464768f4be3b5ff3eaa,613ee464768f4be3b5ff3eaa,4,candy,critical,B,50,candy40.jpg,candy60.jpg,nogoal,NULL
1687281539,5b2a767945b364f686eaa63eb050f8b1,PennController,7,0,experiment,NULL,Video,progression,buffer,0.001721,1687281377184,613ee464768f4be3b5ff3eaa,613ee464768f4be3b5ff3eaa,4,candy,critical,B,50,candy40.jpg,candy60.jpg,nogoal,NULL
1687281539,5b2a767945b364f686eaa63eb050f8b1,PennController,7,0,experiment,NULL,Selector,choice,Selection,option1,1687281382097,613ee464768f4be3b5ff3eaa,613ee464768f4be3b5ff3eaa,4,candy,critical,B,50,candy40.jpg,candy60.jpg,nogoal,option2;option1
1687281539,5b2a767945b364f686eaa63eb050f8b1,PennController,7,0,experiment,NULL,PennController,6,_Trial_,End,1687281382098,613ee464768f4be3b5ff3eaa,613ee464768f4be3b5ff3eaa,4,candy,critical,B,50,candy40.jpg,candy60.jpg,nogoal,NULL
1687281539,5b2a767945b364f686eaa63eb050f8b1,PennController,15,0,experiment,NULL,PennController,14,_Trial_,Start,1687281382099,613ee464768f4be3b5ff3eaa,613ee464768f4be3b5ff3eaa,12,erase,critical,B,25,erase15.jpg,erase33.jpg,nogoal,NULL
1687281539,5b2a767945b364f686eaa63eb050f8b1,PennController,15,0,experiment,NULL,PennController,14,_Header_,Start,1687281382099,613ee464768f4be3b5ff3eaa,613ee464768f4be3b5ff3eaa,12,erase,critical,B,25,erase15.jpg,erase33.jpg,nogoal,NULL
1687281539,5b2a767945b364f686eaa63eb050f8b1,PennController,15,0,experiment,NULL,PennController,14,_Header_,End,1687281382099,613ee464768f4be3b5ff3eaa,613ee464768f4be3b5ff3eaa,12,erase,critical,B,25,erase15.jpg,erase33.jpg,nogoal,NULL
1687281539,5b2a767945b364f686eaa63eb050f8b1,PennController,15,0,experiment,NULL,Canvas,canvas6,Print,NA,1687281386413,613ee464768f4be3b5ff3eaa,613ee464768f4be3b5ff3eaa,12,erase,critical,B,25,erase15.jpg,erase33.jpg,nogoal,NULL
1687281539,5b2a767945b364f686eaa63eb050f8b1,PennController,15,0,experiment,NULL,Video,progression,buffer,0.001451,1687281383610,613ee464768f4be3b5ff3eaa,613ee464768f4be3b5ff3eaa,12,erase,critical,B,25,erase15.jpg,erase33.jpg,nogoal,NULL
1687281539,5b2a767945b364f686eaa63eb050f8b1,PennController,15,0,experiment,NULL,Selector,choice,Selection,option2,1687281387853,613ee464768f4be3b5ff3eaa,613ee464768f4be3b5ff3eaa,12,erase,critical,B,25,erase15.jpg,erase33.jpg,nogoal,option2;option1
1687281539,5b2a767945b364f686eaa63eb050f8b1,PennController,15,0,experiment,NULL,PennController,14,_Trial_,End,1687281387853,613ee464768f4be3b5ff3eaa,613ee464768f4be3b5ff3eaa,12,erase,critical,B,25,erase15.jpg,erase33.jpg,nogoal,NULL
1687281539,5b2a767945b364f686eaa63eb050f8b1,PennController,20,0,experiment,NULL,PennController,19,_Trial_,Start,1687281387854,613ee464768f4be3b5ff3eaa,613ee464768f4be3b5ff3eaa,17,roll,critical,B,75,roll65.jpg,roll85.jpg,nogoal,NULL
1687281539,5b2a767945b364f686eaa63eb050f8b1,PennController,20,0,experiment,NULL,PennController,19,_Header_,Start,1687281387854,613ee464768f4be3b5ff3eaa,613ee464768f4be3b5ff3eaa,17,roll,critical,B,75,roll65.jpg,roll85.jpg,nogoal,NULL
1687281539,5b2a767945b364f686eaa63eb050f8b1,PennController,20,0,experiment,NULL,PennController,19,_Header_,End,1687281387854,613ee464768f4be3b5ff3eaa,613ee464768f4be3b5ff3eaa,17,roll,critical,B,75,roll65.jpg,roll85.jpg,nogoal,NULL
1687281539,5b2a767945b364f686eaa63eb050f8b1,PennController,20,0,experiment,NULL,Canvas,canvas6,Print,NA,1687281393586,613ee464768f4be3b5ff3eaa,613ee464768f4be3b5ff3eaa,17,roll,critical,B,75,roll65.jpg,roll85.jpg,nogoal,NULL
1687281539,5b2a767945b364f686eaa63eb050f8b1,PennController,20,0,experiment,NULL,Video,progression,buffer,0,1687281389364,613ee464768f4be3b5ff3eaa,613ee464768f4be3b5ff3eaa,17,roll,critical,B,75,roll65.jpg,roll85.jpg,nogoal,NULL
1687281539,5b2a767945b364f686eaa63eb050f8b1,PennController,20,0,experiment,NULL,Selector,choice,Selection,option1,1687281396289,613ee464768f4be3b5ff3eaa,613ee464768f4be3b5ff3eaa,17,roll,critical,B,75,roll65.jpg,roll85.jpg,nogoal,option2;option1
1687281539,5b2a767945b364f686eaa63eb050f8b1,PennController,20,0,experiment,NULL,PennController,19,_Trial_,End,1687281396290,613ee464768f4be3b5ff3eaa,613ee464768f4be3b5ff3eaa,17,roll,critical,B,75,roll65.jpg,roll85.jpg,nogoal,NULL
1687281539,5b2a767945b364f686eaa63eb050f8b1,PennController,29,0,experiment,NULL,PennController,28,_Trial_,Start,1687281396290,613ee464768f4be3b5ff3eaa,613ee464768f4be3b5ff3eaa,26,sandwich,filler,B,75,sandwich65.jpg,sandwich85.jpg,nogoal,NULL
1687281539,5b2a767945b364f686eaa63eb050f8b1,PennController,29,0,experiment,NULL,PennController,28,_Header_,Start,1687281396290,613ee464768f4be3b5ff3eaa,613ee464768f4be3b5ff3eaa,26,sandwich,filler,B,75,sandwich65.jpg,sandwich85.jpg,nogoal,NULL
1687281539,5b2a767945b364f686eaa63eb050f8b1,PennController,29,0,experiment,NULL,PennController,28,_Header_,End,1687281396290,613ee464768f4be3b5ff3eaa,613ee464768f4be3b5ff3eaa,26,sandwich,filler,B,75,sandwich65.jpg,sandwich85.jpg,nogoal,NULL
1687281539,5b2a767945b364f686eaa63eb050f8b1,PennController,29,0,experiment,NULL,Canvas,canvas6,Print,NA,1687281402019,613ee464768f4be3b5ff3eaa,613ee464768f4be3b5ff3eaa,26,sandwich,filler,B,75,sandwich65.jpg,sandwich85.jpg,nogoal,NULL
1687281539,5b2a767945b364f686eaa63eb050f8b1,PennController,29,0,experiment,NULL,Video,progression,buffer,0.005226,1687281397813,613ee464768f4be3b5ff3eaa,613ee464768f4be3b5ff3eaa,26,sandwich,filler,B,75,sandwich65.jpg,sandwich85.jpg,nogoal,NULL
1687281539,5b2a767945b364f686eaa63eb050f8b1,PennController,29,0,experiment,NULL,Selector,choice,Selection,option2,1687281403509,613ee464768f4be3b5ff3eaa,613ee464768f4be3b5ff3eaa,26,sandwich,filler,B,75,sandwich65.jpg,sandwich85.jpg,nogoal,option2;option1
1687281539,5b2a767945b364f686eaa63eb050f8b1,PennController,29,0,experiment,NULL,PennController,28,_Trial_,End,1687281403510,613ee464768f4be3b5ff3eaa,613ee464768f4be3b5ff3eaa,26,sandwich,filler,B,75,sandwich65.jpg,sandwich85.jpg,nogoal,NULL
1687281539,5b2a767945b364f686eaa63eb050f8b1,PennController,25,0,experiment,NULL,PennController,24,_Trial_,Start,1687281403511,613ee464768f4be3b5ff3eaa,613ee464768f4be3b5ff3eaa,22,wall,filler,B,50,wall40.jpg,wall60.jpg,nogoal,NULL
1687281539,5b2a767945b364f686eaa63eb050f8b1,PennController,25,0,experiment,NULL,PennController,24,_Header_,Start,1687281403511,613ee464768f4be3b5ff3eaa,613ee464768f4be3b5ff3eaa,22,wall,filler,B,50,wall40.jpg,wall60.jpg,nogoal,NULL
1687281539,5b2a767945b364f686eaa63eb050f8b1,PennController,25,0,experiment,NULL,PennController,24,_Header_,End,1687281403511,613ee464768f4be3b5ff3eaa,613ee464768f4be3b5ff3eaa,22,wall,filler,B,50,wall40.jpg,wall60.jpg,nogoal,NULL
1687281539,5b2a767945b364f686eaa63eb050f8b1,PennController,25,0,experiment,NULL,Canvas,canvas6,Print,NA,1687281408241,613ee464768f4be3b5ff3eaa,613ee464768f4be3b5ff3eaa,22,wall,filler,B,50,wall40.jpg,wall60.jpg,nogoal,NULL
1687281539,5b2a767945b364f686eaa63eb050f8b1,PennController,25,0,experiment,NULL,Video,progression,buffer,0.00727,1687281405036,613ee464768f4be3b5ff3eaa,613ee464768f4be3b5ff3eaa,22,wall,filler,B,50,wall40.jpg,wall60.jpg,nogoal,NULL
1687281539,5b2a767945b364f686eaa63eb050f8b1,PennController,25,0,experiment,NULL,Selector,choice,Selection,option2,1687281409523,613ee464768f4be3b5ff3eaa,613ee464768f4be3b5ff3eaa,22,wall,filler,B,50,wall40.jpg,wall60.jpg,nogoal,option2;option1
1687281539,5b2a767945b364f686eaa63eb050f8b1,PennController,25,0,experiment,NULL,PennController,24,_Trial_,End,1687281409524,613ee464768f4be3b5ff3eaa,613ee464768f4be3b5ff3eaa,22,wall,filler,B,50,wall40.jpg,wall60.jpg,nogoal,NULL
1687281539,5b2a767945b364f686eaa63eb050f8b1,PennController,19,0,experiment,NULL,PennController,18,_Trial_,Start,1687281409525,613ee464768f4be3b5ff3eaa,613ee464768f4be3b5ff3eaa,16,blinds,critical,B,50,blinds42.jpg,blinds60.jpg,nogoal,NULL
1687281539,5b2a767945b364f686eaa63eb050f8b1,PennController,19,0,experiment,NULL,PennController,18,_Header_,Start,1687281409525,613ee464768f4be3b5ff3eaa,613ee464768f4be3b5ff3eaa,16,blinds,critical,B,50,blinds42.jpg,blinds60.jpg,nogoal,NULL
1687281539,5b2a767945b364f686eaa63eb050f8b1,PennController,19,0,experiment,NULL,PennController,18,_Header_,End,1687281409525,613ee464768f4be3b5ff3eaa,613ee464768f4be3b5ff3eaa,16,blinds,critical,B,50,blinds42.jpg,blinds60.jpg,nogoal,NULL
1687281539,5b2a767945b364f686eaa63eb050f8b1,PennController,19,0,experiment,NULL,Canvas,canvas6,Print,NA,1687281415653,613ee464768f4be3b5ff3eaa,613ee464768f4be3b5ff3eaa,16,blinds,critical,B,50,blinds42.jpg,blinds60.jpg,nogoal,NULL
1687281539,5b2a767945b364f686eaa63eb050f8b1,PennController,19,0,experiment,NULL,Video,progression,buffer,0.007329,1687281411049,613ee464768f4be3b5ff3eaa,613ee464768f4be3b5ff3eaa,16,blinds,critical,B,50,blinds42.jpg,blinds60.jpg,nogoal,NULL
1687281539,5b2a767945b364f686eaa63eb050f8b1,PennController,19,0,experiment,NULL,Selector,choice,Selection,option2,1687281417693,613ee464768f4be3b5ff3eaa,613ee464768f4be3b5ff3eaa,16,blinds,critical,B,50,blinds42.jpg,blinds60.jpg,nogoal,option2;option1
1687281539,5b2a767945b364f686eaa63eb050f8b1,PennController,19,0,experiment,NULL,PennController,18,_Trial_,End,1687281417694,613ee464768f4be3b5ff3eaa,613ee464768f4be3b5ff3eaa,16,blinds,critical,B,50,blinds42.jpg,blinds60.jpg,nogoal,NULL
1687281539,5b2a767945b364f686eaa63eb050f8b1,PennController,5,0,experiment,NULL,PennController,4,_Trial_,Start,1687281417695,613ee464768f4be3b5ff3eaa,613ee464768f4be3b5ff3eaa,2,door,critical,B,75,door65.jpg,door85.jpg,nogoal,NULL
1687281539,5b2a767945b364f686eaa63eb050f8b1,PennController,5,0,experiment,NULL,PennController,4,_Header_,Start,1687281417695,613ee464768f4be3b5ff3eaa,613ee464768f4be3b5ff3eaa,2,door,critical,B,75,door65.jpg,door85.jpg,nogoal,NULL
1687281539,5b2a767945b364f686eaa63eb050f8b1,PennController,5,0,experiment,NULL,PennController,4,_Header_,End,1687281417695,613ee464768f4be3b5ff3eaa,613ee464768f4be3b5ff3eaa,2,door,critical,B,75,door65.jpg,door85.jpg,nogoal,NULL
1687281539,5b2a767945b364f686eaa63eb050f8b1,PennController,5,0,experiment,NULL,Canvas,canvas6,Print,NA,1687281423417,613ee464768f4be3b5ff3eaa,613ee464768f4be3b5ff3eaa,2,door,critical,B,75,door65.jpg,door85.jpg,nogoal,NULL
1687281539,5b2a767945b364f686eaa63eb050f8b1,PennController,5,0,experiment,NULL,Video,progression,buffer,0.004341,1687281419216,613ee464768f4be3b5ff3eaa,613ee464768f4be3b5ff3eaa,2,door,critical,B,75,door65.jpg,door85.jpg,nogoal,NULL
1687281539,5b2a767945b364f686eaa63eb050f8b1,PennController,5,0,experiment,NULL,Selector,choice,Selection,option2,1687281424775,613ee464768f4be3b5ff3eaa,613ee464768f4be3b5ff3eaa,2,door,critical,B,75,door65.jpg,door85.jpg,nogoal,option1;option2
1687281539,5b2a767945b364f686eaa63eb050f8b1,PennController,5,0,experiment,NULL,PennController,4,_Trial_,End,1687281424776,613ee464768f4be3b5ff3eaa,613ee464768f4be3b5ff3eaa,2,door,critical,B,75,door65.jpg,door85.jpg,nogoal,NULL
1687281539,5b2a767945b364f686eaa63eb050f8b1,PennController,30,0,experiment,NULL,PennController,29,_Trial_,Start,1687281424777,613ee464768f4be3b5ff3eaa,613ee464768f4be3b5ff3eaa,27,square,filler,B,25,square15.jpg,square35.jpg,nogoal,NULL
1687281539,5b2a767945b364f686eaa63eb050f8b1,PennController,30,0,experiment,NULL,PennController,29,_Header_,Start,1687281424777,613ee464768f4be3b5ff3eaa,613ee464768f4be3b5ff3eaa,27,square,filler,B,25,square15.jpg,square35.jpg,nogoal,NULL
1687281539,5b2a767945b364f686eaa63eb050f8b1,PennController,30,0,experiment,NULL,PennController,29,_Header_,End,1687281424777,613ee464768f4be3b5ff3eaa,613ee464768f4be3b5ff3eaa,27,square,filler,B,25,square15.jpg,square35.jpg,nogoal,NULL
1687281539,5b2a767945b364f686eaa63eb050f8b1,PennController,30,0,experiment,NULL,Canvas,canvas6,Print,NA,1687281428495,613ee464768f4be3b5ff3eaa,613ee464768f4be3b5ff3eaa,27,square,filler,B,25,square15.jpg,square35.jpg,nogoal,NULL
1687281539,5b2a767945b364f686eaa63eb050f8b1,PennController,30,0,experiment,NULL,Video,progression,buffer,0.001512,1687281426286,613ee464768f4be3b5ff3eaa,613ee464768f4be3b5ff3eaa,27,square,filler,B,25,square15.jpg,square35.jpg,nogoal,NULL
1687281539,5b2a767945b364f686eaa63eb050f8b1,PennController,30,0,experiment,NULL,Selector,choice,Selection,option2,1687281431284,613ee464768f4be3b5ff3eaa,613ee464768f4be3b5ff3eaa,27,square,filler,B,25,square15.jpg,square35.jpg,nogoal,option1;option2
1687281539,5b2a767945b364f686eaa63eb050f8b1,PennController,30,0,experiment,NULL,PennController,29,_Trial_,End,1687281431285,613ee464768f4be3b5ff3eaa,613ee464768f4be3b5ff3eaa,27,square,filler,B,25,square15.jpg,square35.jpg,nogoal,NULL
1687281539,5b2a767945b364f686eaa63eb050f8b1,PennController,16,0,experiment,NULL,PennController,15,_Trial_,Start,1687281431285,613ee464768f4be3b5ff3eaa,613ee464768f4be3b5ff3eaa,13,mix,critical,B,50,mix40.jpg,mix60.jpg,nogoal,NULL
1687281539,5b2a767945b364f686eaa63eb050f8b1,PennController,16,0,experiment,NULL,PennController,15,_Header_,Start,1687281431285,613ee464768f4be3b5ff3eaa,613ee464768f4be3b5ff3eaa,13,mix,critical,B,50,mix40.jpg,mix60.jpg,nogoal,NULL
1687281539,5b2a767945b364f686eaa63eb050f8b1,PennController,16,0,experiment,NULL,PennController,15,_Header_,End,1687281431285,613ee464768f4be3b5ff3eaa,613ee464768f4be3b5ff3eaa,13,mix,critical,B,50,mix40.jpg,mix60.jpg,nogoal,NULL
1687281539,5b2a767945b364f686eaa63eb050f8b1,PennController,16,0,experiment,NULL,Canvas,canvas6,Print,NA,1687281436004,613ee464768f4be3b5ff3eaa,613ee464768f4be3b5ff3eaa,13,mix,critical,B,50,mix40.jpg,mix60.jpg,nogoal,NULL
1687281539,5b2a767945b364f686eaa63eb050f8b1,PennController,16,0,experiment,NULL,Video,progression,buffer,0.002692,1687281432799,613ee464768f4be3b5ff3eaa,613ee464768f4be3b5ff3eaa,13,mix,critical,B,50,mix40.jpg,mix60.jpg,nogoal,NULL
1687281539,5b2a767945b364f686eaa63eb050f8b1,PennController,16,0,experiment,NULL,Selector,choice,Selection,option2,1687281438394,613ee464768f4be3b5ff3eaa,613ee464768f4be3b5ff3eaa,13,mix,critical,B,50,mix40.jpg,mix60.jpg,nogoal,option2;option1
1687281539,5b2a767945b364f686eaa63eb050f8b1,PennController,16,0,experiment,NULL,PennController,15,_Trial_,End,1687281438395,613ee464768f4be3b5ff3eaa,613ee464768f4be3b5ff3eaa,13,mix,critical,B,50,mix40.jpg,mix60.jpg,nogoal,NULL
1687281539,5b2a767945b364f686eaa63eb050f8b1,PennController,4,0,experiment,NULL,PennController,3,_Trial_,Start,1687281438395,613ee464768f4be3b5ff3eaa,613ee464768f4be3b5ff3eaa,1,vase,critical,B,50,vase40.jpg,vase60.jpg,nogoal,NULL
1687281539,5b2a767945b364f686eaa63eb050f8b1,PennController,4,0,experiment,NULL,PennController,3,_Header_,Start,1687281438395,613ee464768f4be3b5ff3eaa,613ee464768f4be3b5ff3eaa,1,vase,critical,B,50,vase40.jpg,vase60.jpg,nogoal,NULL
1687281539,5b2a767945b364f686eaa63eb050f8b1,PennController,4,0,experiment,NULL,PennController,3,_Header_,End,1687281438395,613ee464768f4be3b5ff3eaa,613ee464768f4be3b5ff3eaa,1,vase,critical,B,50,vase40.jpg,vase60.jpg,nogoal,NULL
1687281539,5b2a767945b364f686eaa63eb050f8b1,PennController,4,0,experiment,NULL,Canvas,canvas6,Print,NA,1687281443112,613ee464768f4be3b5ff3eaa,613ee464768f4be3b5ff3eaa,1,vase,critical,B,50,vase40.jpg,vase60.jpg,nogoal,NULL
1687281539,5b2a767945b364f686eaa63eb050f8b1,PennController,4,0,experiment,NULL,Video,progression,buffer,0.002205,1687281439909,613ee464768f4be3b5ff3eaa,613ee464768f4be3b5ff3eaa,1,vase,critical,B,50,vase40.jpg,vase60.jpg,nogoal,NULL
1687281539,5b2a767945b364f686eaa63eb050f8b1,PennController,4,0,experiment,NULL,Selector,choice,Selection,option2,1687281444728,613ee464768f4be3b5ff3eaa,613ee464768f4be3b5ff3eaa,1,vase,critical,B,50,vase40.jpg,vase60.jpg,nogoal,option2;option1
1687281539,5b2a767945b364f686eaa63eb050f8b1,PennController,4,0,experiment,NULL,PennController,3,_Trial_,End,1687281444729,613ee464768f4be3b5ff3eaa,613ee464768f4be3b5ff3eaa,1,vase,critical,B,50,vase40.jpg,vase60.jpg,nogoal,NULL
1687281539,5b2a767945b364f686eaa63eb050f8b1,PennController,10,0,experiment,NULL,PennController,9,_Trial_,Start,1687281444729,613ee464768f4be3b5ff3eaa,613ee464768f4be3b5ff3eaa,7,stack,critical,B,50,stack40.jpg,stack60.jpg,nogoal,NULL
1687281539,5b2a767945b364f686eaa63eb050f8b1,PennController,10,0,experiment,NULL,PennController,9,_Header_,Start,1687281444729,613ee464768f4be3b5ff3eaa,613ee464768f4be3b5ff3eaa,7,stack,critical,B,50,stack40.jpg,stack60.jpg,nogoal,NULL
1687281539,5b2a767945b364f686eaa63eb050f8b1,PennController,10,0,experiment,NULL,PennController,9,_Header_,End,1687281444729,613ee464768f4be3b5ff3eaa,613ee464768f4be3b5ff3eaa,7,stack,critical,B,50,stack40.jpg,stack60.jpg,nogoal,NULL
1687281539,5b2a767945b364f686eaa63eb050f8b1,PennController,10,0,experiment,NULL,Canvas,canvas6,Print,NA,1687281449309,613ee464768f4be3b5ff3eaa,613ee464768f4be3b5ff3eaa,7,stack,critical,B,50,stack40.jpg,stack60.jpg,nogoal,NULL
1687281539,5b2a767945b364f686eaa63eb050f8b1,PennController,10,0,experiment,NULL,Video,progression,buffer,0.001875,1687281446238,613ee464768f4be3b5ff3eaa,613ee464768f4be3b5ff3eaa,7,stack,critical,B,50,stack40.jpg,stack60.jpg,nogoal,NULL
1687281539,5b2a767945b364f686eaa63eb050f8b1,PennController,10,0,experiment,NULL,Selector,choice,Selection,option1,1687281452327,613ee464768f4be3b5ff3eaa,613ee464768f4be3b5ff3eaa,7,stack,critical,B,50,stack40.jpg,stack60.jpg,nogoal,option1;option2
1687281539,5b2a767945b364f686eaa63eb050f8b1,PennController,10,0,experiment,NULL,PennController,9,_Trial_,End,1687281452328,613ee464768f4be3b5ff3eaa,613ee464768f4be3b5ff3eaa,7,stack,critical,B,50,stack40.jpg,stack60.jpg,nogoal,NULL
1687281539,5b2a767945b364f686eaa63eb050f8b1,PennController,21,0,experiment,NULL,PennController,20,_Trial_,Start,1687281452329,613ee464768f4be3b5ff3eaa,613ee464768f4be3b5ff3eaa,18,ball,critical,B,25,ball15.jpg,ball35.jpg,nogoal,NULL
1687281539,5b2a767945b364f686eaa63eb050f8b1,PennController,21,0,experiment,NULL,PennController,20,_Header_,Start,1687281452329,613ee464768f4be3b5ff3eaa,613ee464768f4be3b5ff3eaa,18,ball,critical,B,25,ball15.jpg,ball35.jpg,nogoal,NULL
1687281539,5b2a767945b364f686eaa63eb050f8b1,PennController,21,0,experiment,NULL,PennController,20,_Header_,End,1687281452329,613ee464768f4be3b5ff3eaa,613ee464768f4be3b5ff3eaa,18,ball,critical,B,25,ball15.jpg,ball35.jpg,nogoal,NULL
1687281539,5b2a767945b364f686eaa63eb050f8b1,PennController,21,0,experiment,NULL,Canvas,canvas6,Print,NA,1687281455953,613ee464768f4be3b5ff3eaa,613ee464768f4be3b5ff3eaa,18,ball,critical,B,25,ball15.jpg,ball35.jpg,nogoal,NULL
1687281539,5b2a767945b364f686eaa63eb050f8b1,PennController,21,0,experiment,NULL,Video,progression,buffer,0.001416,1687281453845,613ee464768f4be3b5ff3eaa,613ee464768f4be3b5ff3eaa,18,ball,critical,B,25,ball15.jpg,ball35.jpg,nogoal,NULL
1687281539,5b2a767945b364f686eaa63eb050f8b1,PennController,21,0,experiment,NULL,Selector,choice,Selection,option2,1687281458110,613ee464768f4be3b5ff3eaa,613ee464768f4be3b5ff3eaa,18,ball,critical,B,25,ball15.jpg,ball35.jpg,nogoal,option1;option2
1687281539,5b2a767945b364f686eaa63eb050f8b1,PennController,21,0,experiment,NULL,PennController,20,_Trial_,End,1687281458111,613ee464768f4be3b5ff3eaa,613ee464768f4be3b5ff3eaa,18,ball,critical,B,25,ball15.jpg,ball35.jpg,nogoal,NULL
1687281539,5b2a767945b364f686eaa63eb050f8b1,PennController,9,0,experiment,NULL,PennController,8,_Trial_,Start,1687281458112,613ee464768f4be3b5ff3eaa,613ee464768f4be3b5ff3eaa,6,flower,critical,B,25,flower15.jpg,flower35.jpg,nogoal,NULL
1687281539,5b2a767945b364f686eaa63eb050f8b1,PennController,9,0,experiment,NULL,PennController,8,_Header_,Start,1687281458112,613ee464768f4be3b5ff3eaa,613ee464768f4be3b5ff3eaa,6,flower,critical,B,25,flower15.jpg,flower35.jpg,nogoal,NULL
1687281539,5b2a767945b364f686eaa63eb050f8b1,PennController,9,0,experiment,NULL,PennController,8,_Header_,End,1687281458112,613ee464768f4be3b5ff3eaa,613ee464768f4be3b5ff3eaa,6,flower,critical,B,25,flower15.jpg,flower35.jpg,nogoal,NULL
1687281539,5b2a767945b364f686eaa63eb050f8b1,PennController,9,0,experiment,NULL,Canvas,canvas6,Print,NA,1687281461744,613ee464768f4be3b5ff3eaa,613ee464768f4be3b5ff3eaa,6,flower,critical,B,25,flower15.jpg,flower35.jpg,nogoal,NULL
1687281539,5b2a767945b364f686eaa63eb050f8b1,PennController,9,0,experiment,NULL,Video,progression,buffer,0.004606,1687281459635,613ee464768f4be3b5ff3eaa,613ee464768f4be3b5ff3eaa,6,flower,critical,B,25,flower15.jpg,flower35.jpg,nogoal,NULL
1687281539,5b2a767945b364f686eaa63eb050f8b1,PennController,9,0,experiment,NULL,Selector,choice,Selection,option2,1687281463040,613ee464768f4be3b5ff3eaa,613ee464768f4be3b5ff3eaa,6,flower,critical,B,25,flower15.jpg,flower35.jpg,nogoal,option1;option2
1687281539,5b2a767945b364f686eaa63eb050f8b1,PennController,9,0,experiment,NULL,PennController,8,_Trial_,End,1687281463041,613ee464768f4be3b5ff3eaa,613ee464768f4be3b5ff3eaa,6,flower,critical,B,25,flower15.jpg,flower35.jpg,nogoal,NULL
1687281539,5b2a767945b364f686eaa63eb050f8b1,PennController,18,0,experiment,NULL,PennController,17,_Trial_,Start,1687281463043,613ee464768f4be3b5ff3eaa,613ee464768f4be3b5ff3eaa,15,zip,critical,B,25,zip15.jpg,zip35.jpg,nogoal,NULL
1687281539,5b2a767945b364f686eaa63eb050f8b1,PennController,18,0,experiment,NULL,PennController,17,_Header_,Start,1687281463043,613ee464768f4be3b5ff3eaa,613ee464768f4be3b5ff3eaa,15,zip,critical,B,25,zip15.jpg,zip35.jpg,nogoal,NULL
1687281539,5b2a767945b364f686eaa63eb050f8b1,PennController,18,0,experiment,NULL,PennController,17,_Header_,End,1687281463043,613ee464768f4be3b5ff3eaa,613ee464768f4be3b5ff3eaa,15,zip,critical,B,25,zip15.jpg,zip35.jpg,nogoal,NULL
1687281539,5b2a767945b364f686eaa63eb050f8b1,PennController,18,0,experiment,NULL,Canvas,canvas6,Print,NA,1687281466680,613ee464768f4be3b5ff3eaa,613ee464768f4be3b5ff3eaa,15,zip,critical,B,25,zip15.jpg,zip35.jpg,nogoal,NULL
1687281539,5b2a767945b364f686eaa63eb050f8b1,PennController,18,0,experiment,NULL,Video,progression,buffer,0.007623,1687281464566,613ee464768f4be3b5ff3eaa,613ee464768f4be3b5ff3eaa,15,zip,critical,B,25,zip15.jpg,zip35.jpg,nogoal,NULL
1687281539,5b2a767945b364f686eaa63eb050f8b1,PennController,18,0,experiment,NULL,Selector,choice,Selection,option2,1687281468198,613ee464768f4be3b5ff3eaa,613ee464768f4be3b5ff3eaa,15,zip,critical,B,25,zip15.jpg,zip35.jpg,nogoal,option2;option1
1687281539,5b2a767945b364f686eaa63eb050f8b1,PennController,18,0,experiment,NULL,PennController,17,_Trial_,End,1687281468199,613ee464768f4be3b5ff3eaa,613ee464768f4be3b5ff3eaa,15,zip,critical,B,25,zip15.jpg,zip35.jpg,nogoal,NULL
1687281539,5b2a767945b364f686eaa63eb050f8b1,PennController,11,0,experiment,NULL,PennController,10,_Trial_,Start,1687281468200,613ee464768f4be3b5ff3eaa,613ee464768f4be3b5ff3eaa,8,cucumber,critical,B,75,cucumber66.jpg,cucumber84.jpg,nogoal,NULL
1687281539,5b2a767945b364f686eaa63eb050f8b1,PennController,11,0,experiment,NULL,PennController,10,_Header_,Start,1687281468200,613ee464768f4be3b5ff3eaa,613ee464768f4be3b5ff3eaa,8,cucumber,critical,B,75,cucumber66.jpg,cucumber84.jpg,nogoal,NULL
1687281539,5b2a767945b364f686eaa63eb050f8b1,PennController,11,0,experiment,NULL,PennController,10,_Header_,End,1687281468200,613ee464768f4be3b5ff3eaa,613ee464768f4be3b5ff3eaa,8,cucumber,critical,B,75,cucumber66.jpg,cucumber84.jpg,nogoal,NULL
1687281539,5b2a767945b364f686eaa63eb050f8b1,PennController,11,0,experiment,NULL,Canvas,canvas6,Print,NA,1687281475791,613ee464768f4be3b5ff3eaa,613ee464768f4be3b5ff3eaa,8,cucumber,critical,B,75,cucumber66.jpg,cucumber84.jpg,nogoal,NULL
1687281539,5b2a767945b364f686eaa63eb050f8b1,PennController,11,0,experiment,NULL,Video,progression,buffer,0.001657,1687281469719,613ee464768f4be3b5ff3eaa,613ee464768f4be3b5ff3eaa,8,cucumber,critical,B,75,cucumber66.jpg,cucumber84.jpg,nogoal,NULL
1687281539,5b2a767945b364f686eaa63eb050f8b1,PennController,11,0,experiment,NULL,Selector,choice,Selection,option2,1687281477420,613ee464768f4be3b5ff3eaa,613ee464768f4be3b5ff3eaa,8,cucumber,critical,B,75,cucumber66.jpg,cucumber84.jpg,nogoal,option2;option1
1687281539,5b2a767945b364f686eaa63eb050f8b1,PennController,11,0,experiment,NULL,PennController,10,_Trial_,End,1687281477422,613ee464768f4be3b5ff3eaa,613ee464768f4be3b5ff3eaa,8,cucumber,critical,B,75,cucumber66.jpg,cucumber84.jpg,nogoal,NULL
1687281539,5b2a767945b364f686eaa63eb050f8b1,PennController,8,0,experiment,NULL,PennController,7,_Trial_,Start,1687281477423,613ee464768f4be3b5ff3eaa,613ee464768f4be3b5ff3eaa,5,book,critical,B,75,book65.jpg,book85.jpg,nogoal,NULL
1687281539,5b2a767945b364f686eaa63eb050f8b1,PennController,8,0,experiment,NULL,PennController,7,_Header_,Start,1687281477423,613ee464768f4be3b5ff3eaa,613ee464768f4be3b5ff3eaa,5,book,critical,B,75,book65.jpg,book85.jpg,nogoal,NULL
1687281539,5b2a767945b364f686eaa63eb050f8b1,PennController,8,0,experiment,NULL,PennController,7,_Header_,End,1687281477423,613ee464768f4be3b5ff3eaa,613ee464768f4be3b5ff3eaa,5,book,critical,B,75,book65.jpg,book85.jpg,nogoal,NULL
1687281539,5b2a767945b364f686eaa63eb050f8b1,PennController,8,0,experiment,NULL,Canvas,canvas6,Print,NA,1687281482997,613ee464768f4be3b5ff3eaa,613ee464768f4be3b5ff3eaa,5,book,critical,B,75,book65.jpg,book85.jpg,nogoal,NULL
1687281539,5b2a767945b364f686eaa63eb050f8b1,PennController,8,0,experiment,NULL,Video,progression,buffer,0.012757,1687281478949,613ee464768f4be3b5ff3eaa,613ee464768f4be3b5ff3eaa,5,book,critical,B,75,book65.jpg,book85.jpg,nogoal,NULL
1687281539,5b2a767945b364f686eaa63eb050f8b1,PennController,8,0,experiment,NULL,Selector,choice,Selection,option2,1687281484551,613ee464768f4be3b5ff3eaa,613ee464768f4be3b5ff3eaa,5,book,critical,B,75,book65.jpg,book85.jpg,nogoal,option2;option1
1687281539,5b2a767945b364f686eaa63eb050f8b1,PennController,8,0,experiment,NULL,PennController,7,_Trial_,End,1687281484552,613ee464768f4be3b5ff3eaa,613ee464768f4be3b5ff3eaa,5,book,critical,B,75,book65.jpg,book85.jpg,nogoal,NULL
1687281539,5b2a767945b364f686eaa63eb050f8b1,PennController,22,0,experiment,NULL,PennController,21,_Trial_,Start,1687281484552,613ee464768f4be3b5ff3eaa,613ee464768f4be3b5ff3eaa,19,cup,filler,B,50,cup40.jpg,cup60.jpg,nogoal,NULL
1687281539,5b2a767945b364f686eaa63eb050f8b1,PennController,22,0,experiment,NULL,PennController,21,_Header_,Start,1687281484552,613ee464768f4be3b5ff3eaa,613ee464768f4be3b5ff3eaa,19,cup,filler,B,50,cup40.jpg,cup60.jpg,nogoal,NULL
1687281539,5b2a767945b364f686eaa63eb050f8b1,PennController,22,0,experiment,NULL,PennController,21,_Header_,End,1687281484552,613ee464768f4be3b5ff3eaa,613ee464768f4be3b5ff3eaa,19,cup,filler,B,50,cup40.jpg,cup60.jpg,nogoal,NULL
1687281539,5b2a767945b364f686eaa63eb050f8b1,PennController,22,0,experiment,NULL,Canvas,canvas6,Print,NA,1687281489142,613ee464768f4be3b5ff3eaa,613ee464768f4be3b5ff3eaa,19,cup,filler,B,50,cup40.jpg,cup60.jpg,nogoal,NULL
1687281539,5b2a767945b364f686eaa63eb050f8b1,PennController,22,0,experiment,NULL,Video,progression,buffer,0.00157,1687281486064,613ee464768f4be3b5ff3eaa,613ee464768f4be3b5ff3eaa,19,cup,filler,B,50,cup40.jpg,cup60.jpg,nogoal,NULL
1687281539,5b2a767945b364f686eaa63eb050f8b1,PennController,22,0,experiment,NULL,Selector,choice,Selection,option1,1687281495816,613ee464768f4be3b5ff3eaa,613ee464768f4be3b5ff3eaa,19,cup,filler,B,50,cup40.jpg,cup60.jpg,nogoal,option2;option1
1687281539,5b2a767945b364f686eaa63eb050f8b1,PennController,22,0,experiment,NULL,PennController,21,_Trial_,End,1687281495817,613ee464768f4be3b5ff3eaa,613ee464768f4be3b5ff3eaa,19,cup,filler,B,50,cup40.jpg,cup60.jpg,nogoal,NULL
1687281539,5b2a767945b364f686eaa63eb050f8b1,PennController,31,0,experiment,NULL,PennController,30,_Trial_,Start,1687281495818,613ee464768f4be3b5ff3eaa,613ee464768f4be3b5ff3eaa,28,sort,filler,B,50,sort40.jpg,sort60.jpg,nogoal,NULL
1687281539,5b2a767945b364f686eaa63eb050f8b1,PennController,31,0,experiment,NULL,PennController,30,_Header_,Start,1687281495818,613ee464768f4be3b5ff3eaa,613ee464768f4be3b5ff3eaa,28,sort,filler,B,50,sort40.jpg,sort60.jpg,nogoal,NULL
1687281539,5b2a767945b364f686eaa63eb050f8b1,PennController,31,0,experiment,NULL,PennController,30,_Header_,End,1687281495818,613ee464768f4be3b5ff3eaa,613ee464768f4be3b5ff3eaa,28,sort,filler,B,50,sort40.jpg,sort60.jpg,nogoal,NULL
1687281539,5b2a767945b364f686eaa63eb050f8b1,PennController,31,0,experiment,NULL,Canvas,canvas6,Print,NA,1687281500520,613ee464768f4be3b5ff3eaa,613ee464768f4be3b5ff3eaa,28,sort,filler,B,50,sort40.jpg,sort60.jpg,nogoal,NULL
1687281539,5b2a767945b364f686eaa63eb050f8b1,PennController,31,0,experiment,NULL,Video,progression,buffer,0.002558,1687281497331,613ee464768f4be3b5ff3eaa,613ee464768f4be3b5ff3eaa,28,sort,filler,B,50,sort40.jpg,sort60.jpg,nogoal,NULL
1687281539,5b2a767945b364f686eaa63eb050f8b1,PennController,31,0,experiment,NULL,Selector,choice,Selection,option2,1687281503278,613ee464768f4be3b5ff3eaa,613ee464768f4be3b5ff3eaa,28,sort,filler,B,50,sort40.jpg,sort60.jpg,nogoal,option1;option2
1687281539,5b2a767945b364f686eaa63eb050f8b1,PennController,31,0,experiment,NULL,PennController,30,_Trial_,End,1687281503279,613ee464768f4be3b5ff3eaa,613ee464768f4be3b5ff3eaa,28,sort,filler,B,50,sort40.jpg,sort60.jpg,nogoal,NULL
1687281539,5b2a767945b364f686eaa63eb050f8b1,PennController,12,0,experiment,NULL,PennController,11,_Trial_,Start,1687281503280,613ee464768f4be3b5ff3eaa,613ee464768f4be3b5ff3eaa,9,cake,critical,B,25,cake15.jpg,cake33.jpg,nogoal,NULL
1687281539,5b2a767945b364f686eaa63eb050f8b1,PennController,12,0,experiment,NULL,PennController,11,_Header_,Start,1687281503280,613ee464768f4be3b5ff3eaa,613ee464768f4be3b5ff3eaa,9,cake,critical,B,25,cake15.jpg,cake33.jpg,nogoal,NULL
1687281539,5b2a767945b364f686eaa63eb050f8b1,PennController,12,0,experiment,NULL,PennController,11,_Header_,End,1687281503280,613ee464768f4be3b5ff3eaa,613ee464768f4be3b5ff3eaa,9,cake,critical,B,25,cake15.jpg,cake33.jpg,nogoal,NULL
1687281539,5b2a767945b364f686eaa63eb050f8b1,PennController,12,0,experiment,NULL,Canvas,canvas6,Print,NA,1687281507564,613ee464768f4be3b5ff3eaa,613ee464768f4be3b5ff3eaa,9,cake,critical,B,25,cake15.jpg,cake33.jpg,nogoal,NULL
1687281539,5b2a767945b364f686eaa63eb050f8b1,PennController,12,0,experiment,NULL,Video,progression,buffer,0.003509,1687281504791,613ee464768f4be3b5ff3eaa,613ee464768f4be3b5ff3eaa,9,cake,critical,B,25,cake15.jpg,cake33.jpg,nogoal,NULL
1687281539,5b2a767945b364f686eaa63eb050f8b1,PennController,12,0,experiment,NULL,Selector,choice,Selection,option2,1687281509037,613ee464768f4be3b5ff3eaa,613ee464768f4be3b5ff3eaa,9,cake,critical,B,25,cake15.jpg,cake33.jpg,nogoal,option1;option2
1687281539,5b2a767945b364f686eaa63eb050f8b1,PennController,12,0,experiment,NULL,PennController,11,_Trial_,End,1687281509038,613ee464768f4be3b5ff3eaa,613ee464768f4be3b5ff3eaa,9,cake,critical,B,25,cake15.jpg,cake33.jpg,nogoal,NULL
1687281539,5b2a767945b364f686eaa63eb050f8b1,PennController,13,0,experiment,NULL,PennController,12,_Trial_,Start,1687281509039,613ee464768f4be3b5ff3eaa,613ee464768f4be3b5ff3eaa,10,train,critical,B,50,train40.jpg,train60.jpg,nogoal,NULL
1687281539,5b2a767945b364f686eaa63eb050f8b1,PennController,13,0,experiment,NULL,PennController,12,_Header_,Start,1687281509039,613ee464768f4be3b5ff3eaa,613ee464768f4be3b5ff3eaa,10,train,critical,B,50,train40.jpg,train60.jpg,nogoal,NULL
1687281539,5b2a767945b364f686eaa63eb050f8b1,PennController,13,0,experiment,NULL,PennController,12,_Header_,End,1687281509039,613ee464768f4be3b5ff3eaa,613ee464768f4be3b5ff3eaa,10,train,critical,B,50,train40.jpg,train60.jpg,nogoal,NULL
1687281539,5b2a767945b364f686eaa63eb050f8b1,PennController,13,0,experiment,NULL,Canvas,canvas6,Print,NA,1687281513750,613ee464768f4be3b5ff3eaa,613ee464768f4be3b5ff3eaa,10,train,critical,B,50,train40.jpg,train60.jpg,nogoal,NULL
1687281539,5b2a767945b364f686eaa63eb050f8b1,PennController,13,0,experiment,NULL,Video,progression,buffer,0.001801,1687281510552,613ee464768f4be3b5ff3eaa,613ee464768f4be3b5ff3eaa,10,train,critical,B,50,train40.jpg,train60.jpg,nogoal,NULL
1687281539,5b2a767945b364f686eaa63eb050f8b1,PennController,13,0,experiment,NULL,Selector,choice,Selection,option2,1687281516859,613ee464768f4be3b5ff3eaa,613ee464768f4be3b5ff3eaa,10,train,critical,B,50,train40.jpg,train60.jpg,nogoal,option2;option1
1687281539,5b2a767945b364f686eaa63eb050f8b1,PennController,13,0,experiment,NULL,PennController,12,_Trial_,End,1687281516860,613ee464768f4be3b5ff3eaa,613ee464768f4be3b5ff3eaa,10,train,critical,B,50,train40.jpg,train60.jpg,nogoal,NULL
1687281539,5b2a767945b364f686eaa63eb050f8b1,PennController,14,0,experiment,NULL,PennController,13,_Trial_,Start,1687281516861,613ee464768f4be3b5ff3eaa,613ee464768f4be3b5ff3eaa,11,beads,critical,B,75,beads65.jpg,beads85.jpg,nogoal,NULL
1687281539,5b2a767945b364f686eaa63eb050f8b1,PennController,14,0,experiment,NULL,PennController,13,_Header_,Start,1687281516861,613ee464768f4be3b5ff3eaa,613ee464768f4be3b5ff3eaa,11,beads,critical,B,75,beads65.jpg,beads85.jpg,nogoal,NULL
1687281539,5b2a767945b364f686eaa63eb050f8b1,PennController,14,0,experiment,NULL,PennController,13,_Header_,End,1687281516861,613ee464768f4be3b5ff3eaa,613ee464768f4be3b5ff3eaa,11,beads,critical,B,75,beads65.jpg,beads85.jpg,nogoal,NULL
1687281539,5b2a767945b364f686eaa63eb050f8b1,PennController,14,0,experiment,NULL,Canvas,canvas6,Print,NA,1687281522592,613ee464768f4be3b5ff3eaa,613ee464768f4be3b5ff3eaa,11,beads,critical,B,75,beads65.jpg,beads85.jpg,nogoal,NULL
1687281539,5b2a767945b364f686eaa63eb050f8b1,PennController,14,0,experiment,NULL,Video,progression,buffer,0.00825,1687281518385,613ee464768f4be3b5ff3eaa,613ee464768f4be3b5ff3eaa,11,beads,critical,B,75,beads65.jpg,beads85.jpg,nogoal,NULL
1687281539,5b2a767945b364f686eaa63eb050f8b1,PennController,14,0,experiment,NULL,Selector,choice,Selection,option1,1687281525361,613ee464768f4be3b5ff3eaa,613ee464768f4be3b5ff3eaa,11,beads,critical,B,75,beads65.jpg,beads85.jpg,nogoal,option2;option1
1687281539,5b2a767945b364f686eaa63eb050f8b1,PennController,14,0,experiment,NULL,PennController,13,_Trial_,End,1687281525362,613ee464768f4be3b5ff3eaa,613ee464768f4be3b5ff3eaa,11,beads,critical,B,75,beads65.jpg,beads85.jpg,nogoal,NULL
1687281539,5b2a767945b364f686eaa63eb050f8b1,PennController,6,0,experiment,NULL,PennController,5,_Trial_,Start,1687281525363,613ee464768f4be3b5ff3eaa,613ee464768f4be3b5ff3eaa,3,clean,critical,B,25,clean15.jpg,clean35.jpg,nogoal,NULL
1687281539,5b2a767945b364f686eaa63eb050f8b1,PennController,6,0,experiment,NULL,PennController,5,_Header_,Start,1687281525363,613ee464768f4be3b5ff3eaa,613ee464768f4be3b5ff3eaa,3,clean,critical,B,25,clean15.jpg,clean35.jpg,nogoal,NULL
1687281539,5b2a767945b364f686eaa63eb050f8b1,PennController,6,0,experiment,NULL,PennController,5,_Header_,End,1687281525363,613ee464768f4be3b5ff3eaa,613ee464768f4be3b5ff3eaa,3,clean,critical,B,25,clean15.jpg,clean35.jpg,nogoal,NULL
1687281539,5b2a767945b364f686eaa63eb050f8b1,PennController,6,0,experiment,NULL,Canvas,canvas6,Print,NA,1687281529070,613ee464768f4be3b5ff3eaa,613ee464768f4be3b5ff3eaa,3,clean,critical,B,25,clean15.jpg,clean35.jpg,nogoal,NULL
1687281539,5b2a767945b364f686eaa63eb050f8b1,PennController,6,0,experiment,NULL,Video,progression,buffer,0.002617,1687281526876,613ee464768f4be3b5ff3eaa,613ee464768f4be3b5ff3eaa,3,clean,critical,B,25,clean15.jpg,clean35.jpg,nogoal,NULL
1687281539,5b2a767945b364f686eaa63eb050f8b1,PennController,6,0,experiment,NULL,Selector,choice,Selection,option2,1687281530825,613ee464768f4be3b5ff3eaa,613ee464768f4be3b5ff3eaa,3,clean,critical,B,25,clean15.jpg,clean35.jpg,nogoal,option1;option2
1687281539,5b2a767945b364f686eaa63eb050f8b1,PennController,6,0,experiment,NULL,PennController,5,_Trial_,End,1687281530826,613ee464768f4be3b5ff3eaa,613ee464768f4be3b5ff3eaa,3,clean,critical,B,25,clean15.jpg,clean35.jpg,nogoal,NULL
1687281539,5b2a767945b364f686eaa63eb050f8b1,PennController,32,0,experiment,NULL,PennController,31,_Trial_,Start,1687281530826,613ee464768f4be3b5ff3eaa,613ee464768f4be3b5ff3eaa,29,frog,filler,B,75,frog65.jpg,frog85.jpg,nogoal,NULL
1687281539,5b2a767945b364f686eaa63eb050f8b1,PennController,32,0,experiment,NULL,PennController,31,_Header_,Start,1687281530826,613ee464768f4be3b5ff3eaa,613ee464768f4be3b5ff3eaa,29,frog,filler,B,75,frog65.jpg,frog85.jpg,nogoal,NULL
1687281539,5b2a767945b364f686eaa63eb050f8b1,PennController,32,0,experiment,NULL,PennController,31,_Header_,End,1687281530826,613ee464768f4be3b5ff3eaa,613ee464768f4be3b5ff3eaa,29,frog,filler,B,75,frog65.jpg,frog85.jpg,nogoal,NULL
1687281539,5b2a767945b364f686eaa63eb050f8b1,PennController,32,0,experiment,NULL,Canvas,canvas6,Print,NA,1687281536556,613ee464768f4be3b5ff3eaa,613ee464768f4be3b5ff3eaa,29,frog,filler,B,75,frog65.jpg,frog85.jpg,nogoal,NULL
1687281539,5b2a767945b364f686eaa63eb050f8b1,PennController,32,0,experiment,NULL,Video,progression,buffer,0.005824,1687281532349,613ee464768f4be3b5ff3eaa,613ee464768f4be3b5ff3eaa,29,frog,filler,B,75,frog65.jpg,frog85.jpg,nogoal,NULL
1687281539,5b2a767945b364f686eaa63eb050f8b1,PennController,32,0,experiment,NULL,Selector,choice,Selection,option1,1687281539331,613ee464768f4be3b5ff3eaa,613ee464768f4be3b5ff3eaa,29,frog,filler,B,75,frog65.jpg,frog85.jpg,nogoal,option2;option1
1687281539,5b2a767945b364f686eaa63eb050f8b1,PennController,32,0,experiment,NULL,PennController,31,_Trial_,End,1687281539332,613ee464768f4be3b5ff3eaa,613ee464768f4be3b5ff3eaa,29,frog,filler,B,75,frog65.jpg,frog85.jpg,nogoal,NULL
