#
# Results on Tuesday June 20 2023 17:18:43 UTC
# USER AGENT: Mozilla/5.0 (Windows NT 10.0; Win64; x64) AppleWebKit/537.36 (KHTML, like Gecko) Chrome/114.0.0.0 Safari/537.36
# Design number was non-random = 4
#
# Columns below this comment are as follows:
# 1. Results reception time.
# 2. MD5 hash of participant's IP address.
# 3. Controller name.
# 4. Order number of item.
# 5. Inner element number.
# 6. Label.
# 7. Latin Square Group.
# 8. PennElementType.
# 9. PennElementName.
# 10. Parameter.
# 11. Value.
# 12. EventTime.
# 13. PROLIFIC_ID.
# 14. Comments.
1687281523,0a31c6ffb7b735918def8599f21d5dfc,PennController,2,0,consent,NULL,PennController,0,_Trial_,Start,1687281301035,5e7cbf1f97aaad3121975d64,NULL
1687281523,0a31c6ffb7b735918def8599f21d5dfc,PennController,2,0,consent,NULL,PennController,0,_Header_,Start,1687281301035,5e7cbf1f97aaad3121975d64,NULL
1687281523,0a31c6ffb7b735918def8599f21d5dfc,PennController,2,0,consent,NULL,PennController,0,_Header_,End,1687281301035,5e7cbf1f97aaad3121975d64,NULL
1687281523,0a31c6ffb7b735918def8599f21d5dfc,PennController,2,0,consent,NULL,PennController,0,_Trial_,End,1687281305933,5e7cbf1f97aaad3121975d64,NULL
# Columns below this comment are as follows:
# 14. ID.
# 15. Comments.
1687281523,0a31c6ffb7b735918def8599f21d5dfc,PennController,3,0,intro,NULL,PennController,1,_Trial_,Start,1687281305937,5e7cbf1f97aaad3121975d64,5e7cbf1f97aaad3121975d64,NULL
1687281523,0a31c6ffb7b735918def8599f21d5dfc,PennController,3,0,intro,NULL,PennController,1,_Header_,Start,1687281305937,5e7cbf1f97aaad3121975d64,5e7cbf1f97aaad3121975d64,NULL
1687281523,0a31c6ffb7b735918def8599f21d5dfc,PennController,3,0,intro,NULL,PennController,1,_Header_,End,1687281305937,5e7cbf1f97aaad3121975d64,5e7cbf1f97aaad3121975d64,NULL
1687281523,0a31c6ffb7b735918def8599f21d5dfc,PennController,3,0,intro,NULL,PennController,1,_Trial_,End,1687281315686,5e7cbf1f97aaad3121975d64,5e7cbf1f97aaad3121975d64,NULL
# Columns below this comment are as follows:
# 15. item_number.
# 16. item.
# 17. type.
# 18. Group.
# 19. prog.
# 20. prev_image.
# 21. next_image.
# 22. height.
# 23. Comments.
1687281523,0a31c6ffb7b735918def8599f21d5dfc,PennController,11,0,experiment,NULL,PennController,10,_Trial_,Start,1687281315694,5e7cbf1f97aaad3121975d64,5e7cbf1f97aaad3121975d64,8,cucumber,critical,B,75,cucumber66.jpg,cucumber84.jpg,nogoal,NULL
1687281523,0a31c6ffb7b735918def8599f21d5dfc,PennController,11,0,experiment,NULL,PennController,10,_Header_,Start,1687281315694,5e7cbf1f97aaad3121975d64,5e7cbf1f97aaad3121975d64,8,cucumber,critical,B,75,cucumber66.jpg,cucumber84.jpg,nogoal,NULL
1687281523,0a31c6ffb7b735918def8599f21d5dfc,PennController,11,0,experiment,NULL,PennController,10,_Header_,End,1687281315694,5e7cbf1f97aaad3121975d64,5e7cbf1f97aaad3121975d64,8,cucumber,critical,B,75,cucumber66.jpg,cucumber84.jpg,nogoal,NULL
1687281523,0a31c6ffb7b735918def8599f21d5dfc,PennController,11,0,experiment,NULL,Canvas,canvas6,Print,NA,1687281323490,5e7cbf1f97aaad3121975d64,5e7cbf1f97aaad3121975d64,8,cucumber,critical,B,75,cucumber66.jpg,cucumber84.jpg,nogoal,NULL
1687281523,0a31c6ffb7b735918def8599f21d5dfc,PennController,11,0,experiment,NULL,Video,progression,buffer,0.009486,1687281317307,5e7cbf1f97aaad3121975d64,5e7cbf1f97aaad3121975d64,8,cucumber,critical,B,75,cucumber66.jpg,cucumber84.jpg,nogoal,NULL
1687281523,0a31c6ffb7b735918def8599f21d5dfc,PennController,11,0,experiment,NULL,Selector,choice,Selection,option2,1687281326494,5e7cbf1f97aaad3121975d64,5e7cbf1f97aaad3121975d64,8,cucumber,critical,B,75,cucumber66.jpg,cucumber84.jpg,nogoal,option1;option2
1687281523,0a31c6ffb7b735918def8599f21d5dfc,PennController,11,0,experiment,NULL,PennController,10,_Trial_,End,1687281326495,5e7cbf1f97aaad3121975d64,5e7cbf1f97aaad3121975d64,8,cucumber,critical,B,75,cucumber66.jpg,cucumber84.jpg,nogoal,NULL
1687281523,0a31c6ffb7b735918def8599f21d5dfc,PennController,24,0,experiment,NULL,PennController,23,_Trial_,Start,1687281326496,5e7cbf1f97aaad3121975d64,5e7cbf1f97aaad3121975d64,21,visit,filler,B,25,visit15.jpg,visit35.jpg,nogoal,NULL
1687281523,0a31c6ffb7b735918def8599f21d5dfc,PennController,24,0,experiment,NULL,PennController,23,_Header_,Start,1687281326496,5e7cbf1f97aaad3121975d64,5e7cbf1f97aaad3121975d64,21,visit,filler,B,25,visit15.jpg,visit35.jpg,nogoal,NULL
1687281523,0a31c6ffb7b735918def8599f21d5dfc,PennController,24,0,experiment,NULL,PennController,23,_Header_,End,1687281326496,5e7cbf1f97aaad3121975d64,5e7cbf1f97aaad3121975d64,21,visit,filler,B,25,visit15.jpg,visit35.jpg,nogoal,NULL
1687281523,0a31c6ffb7b735918def8599f21d5dfc,PennController,24,0,experiment,NULL,Canvas,canvas6,Print,NA,1687281330203,5e7cbf1f97aaad3121975d64,5e7cbf1f97aaad3121975d64,21,visit,filler,B,25,visit15.jpg,visit35.jpg,nogoal,NULL
1687281523,0a31c6ffb7b735918def8599f21d5dfc,PennController,24,0,experiment,NULL,Video,progression,buffer,0.013102,1687281328036,5e7cbf1f97aaad3121975d64,5e7cbf1f97aaad3121975d64,21,visit,filler,B,25,visit15.jpg,visit35.jpg,nogoal,NULL
1687281523,0a31c6ffb7b735918def8599f21d5dfc,PennController,24,0,experiment,NULL,Selector,choice,Selection,option2,1687281331685,5e7cbf1f97aaad3121975d64,5e7cbf1f97aaad3121975d64,21,visit,filler,B,25,visit15.jpg,visit35.jpg,nogoal,option2;option1
1687281523,0a31c6ffb7b735918def8599f21d5dfc,PennController,24,0,experiment,NULL,PennController,23,_Trial_,End,1687281331686,5e7cbf1f97aaad3121975d64,5e7cbf1f97aaad3121975d64,21,visit,filler,B,25,visit15.jpg,visit35.jpg,nogoal,NULL
1687281523,0a31c6ffb7b735918def8599f21d5dfc,PennController,6,0,experiment,NULL,PennController,5,_Trial_,Start,1687281331690,5e7cbf1f97aaad3121975d64,5e7cbf1f97aaad3121975d64,3,clean,critical,B,25,clean15.jpg,clean35.jpg,nogoal,NULL
1687281523,0a31c6ffb7b735918def8599f21d5dfc,PennController,6,0,experiment,NULL,PennController,5,_Header_,Start,1687281331690,5e7cbf1f97aaad3121975d64,5e7cbf1f97aaad3121975d64,3,clean,critical,B,25,clean15.jpg,clean35.jpg,nogoal,NULL
1687281523,0a31c6ffb7b735918def8599f21d5dfc,PennController,6,0,experiment,NULL,PennController,5,_Header_,End,1687281331690,5e7cbf1f97aaad3121975d64,5e7cbf1f97aaad3121975d64,3,clean,critical,B,25,clean15.jpg,clean35.jpg,nogoal,NULL
1687281523,0a31c6ffb7b735918def8599f21d5dfc,PennController,6,0,experiment,NULL,Canvas,canvas6,Print,NA,1687281335381,5e7cbf1f97aaad3121975d64,5e7cbf1f97aaad3121975d64,3,clean,critical,B,25,clean15.jpg,clean35.jpg,nogoal,NULL
1687281523,0a31c6ffb7b735918def8599f21d5dfc,PennController,6,0,experiment,NULL,Video,progression,buffer,0.006578,1687281333217,5e7cbf1f97aaad3121975d64,5e7cbf1f97aaad3121975d64,3,clean,critical,B,25,clean15.jpg,clean35.jpg,nogoal,NULL
1687281523,0a31c6ffb7b735918def8599f21d5dfc,PennController,6,0,experiment,NULL,Selector,choice,Selection,option1,1687281337845,5e7cbf1f97aaad3121975d64,5e7cbf1f97aaad3121975d64,3,clean,critical,B,25,clean15.jpg,clean35.jpg,nogoal,option1;option2
1687281523,0a31c6ffb7b735918def8599f21d5dfc,PennController,6,0,experiment,NULL,PennController,5,_Trial_,End,1687281337846,5e7cbf1f97aaad3121975d64,5e7cbf1f97aaad3121975d64,3,clean,critical,B,25,clean15.jpg,clean35.jpg,nogoal,NULL
1687281523,0a31c6ffb7b735918def8599f21d5dfc,PennController,7,0,experiment,NULL,PennController,6,_Trial_,Start,1687281337847,5e7cbf1f97aaad3121975d64,5e7cbf1f97aaad3121975d64,4,candy,critical,B,50,candy40.jpg,candy60.jpg,nogoal,NULL
1687281523,0a31c6ffb7b735918def8599f21d5dfc,PennController,7,0,experiment,NULL,PennController,6,_Header_,Start,1687281337847,5e7cbf1f97aaad3121975d64,5e7cbf1f97aaad3121975d64,4,candy,critical,B,50,candy40.jpg,candy60.jpg,nogoal,NULL
1687281523,0a31c6ffb7b735918def8599f21d5dfc,PennController,7,0,experiment,NULL,PennController,6,_Header_,End,1687281337847,5e7cbf1f97aaad3121975d64,5e7cbf1f97aaad3121975d64,4,candy,critical,B,50,candy40.jpg,candy60.jpg,nogoal,NULL
1687281523,0a31c6ffb7b735918def8599f21d5dfc,PennController,7,0,experiment,NULL,Canvas,canvas6,Print,NA,1687281342540,5e7cbf1f97aaad3121975d64,5e7cbf1f97aaad3121975d64,4,candy,critical,B,50,candy40.jpg,candy60.jpg,nogoal,NULL
1687281523,0a31c6ffb7b735918def8599f21d5dfc,PennController,7,0,experiment,NULL,Video,progression,buffer,0.011574,1687281339377,5e7cbf1f97aaad3121975d64,5e7cbf1f97aaad3121975d64,4,candy,critical,B,50,candy40.jpg,candy60.jpg,nogoal,NULL
1687281523,0a31c6ffb7b735918def8599f21d5dfc,PennController,7,0,experiment,NULL,Selector,choice,Selection,option2,1687281343898,5e7cbf1f97aaad3121975d64,5e7cbf1f97aaad3121975d64,4,candy,critical,B,50,candy40.jpg,candy60.jpg,nogoal,option1;option2
1687281523,0a31c6ffb7b735918def8599f21d5dfc,PennController,7,0,experiment,NULL,PennController,6,_Trial_,End,1687281343899,5e7cbf1f97aaad3121975d64,5e7cbf1f97aaad3121975d64,4,candy,critical,B,50,candy40.jpg,candy60.jpg,nogoal,NULL
1687281523,0a31c6ffb7b735918def8599f21d5dfc,PennController,31,0,experiment,NULL,PennController,30,_Trial_,Start,1687281343902,5e7cbf1f97aaad3121975d64,5e7cbf1f97aaad3121975d64,28,sort,filler,B,50,sort40.jpg,sort60.jpg,nogoal,NULL
1687281523,0a31c6ffb7b735918def8599f21d5dfc,PennController,31,0,experiment,NULL,PennController,30,_Header_,Start,1687281343902,5e7cbf1f97aaad3121975d64,5e7cbf1f97aaad3121975d64,28,sort,filler,B,50,sort40.jpg,sort60.jpg,nogoal,NULL
1687281523,0a31c6ffb7b735918def8599f21d5dfc,PennController,31,0,experiment,NULL,PennController,30,_Header_,End,1687281343902,5e7cbf1f97aaad3121975d64,5e7cbf1f97aaad3121975d64,28,sort,filler,B,50,sort40.jpg,sort60.jpg,nogoal,NULL
1687281523,0a31c6ffb7b735918def8599f21d5dfc,PennController,31,0,experiment,NULL,Canvas,canvas6,Print,NA,1687281348601,5e7cbf1f97aaad3121975d64,5e7cbf1f97aaad3121975d64,28,sort,filler,B,50,sort40.jpg,sort60.jpg,nogoal,NULL
1687281523,0a31c6ffb7b735918def8599f21d5dfc,PennController,31,0,experiment,NULL,Video,progression,buffer,0.011458,1687281345436,5e7cbf1f97aaad3121975d64,5e7cbf1f97aaad3121975d64,28,sort,filler,B,50,sort40.jpg,sort60.jpg,nogoal,NULL
1687281523,0a31c6ffb7b735918def8599f21d5dfc,PennController,31,0,experiment,NULL,Selector,choice,Selection,option2,1687281350861,5e7cbf1f97aaad3121975d64,5e7cbf1f97aaad3121975d64,28,sort,filler,B,50,sort40.jpg,sort60.jpg,nogoal,option2;option1
1687281523,0a31c6ffb7b735918def8599f21d5dfc,PennController,31,0,experiment,NULL,PennController,30,_Trial_,End,1687281350862,5e7cbf1f97aaad3121975d64,5e7cbf1f97aaad3121975d64,28,sort,filler,B,50,sort40.jpg,sort60.jpg,nogoal,NULL
1687281523,0a31c6ffb7b735918def8599f21d5dfc,PennController,12,0,experiment,NULL,PennController,11,_Trial_,Start,1687281350864,5e7cbf1f97aaad3121975d64,5e7cbf1f97aaad3121975d64,9,cake,critical,B,25,cake15.jpg,cake33.jpg,nogoal,NULL
1687281523,0a31c6ffb7b735918def8599f21d5dfc,PennController,12,0,experiment,NULL,PennController,11,_Header_,Start,1687281350864,5e7cbf1f97aaad3121975d64,5e7cbf1f97aaad3121975d64,9,cake,critical,B,25,cake15.jpg,cake33.jpg,nogoal,NULL
1687281523,0a31c6ffb7b735918def8599f21d5dfc,PennController,12,0,experiment,NULL,PennController,11,_Header_,End,1687281350864,5e7cbf1f97aaad3121975d64,5e7cbf1f97aaad3121975d64,9,cake,critical,B,25,cake15.jpg,cake33.jpg,nogoal,NULL
1687281523,0a31c6ffb7b735918def8599f21d5dfc,PennController,12,0,experiment,NULL,Canvas,canvas6,Print,NA,1687281355159,5e7cbf1f97aaad3121975d64,5e7cbf1f97aaad3121975d64,9,cake,critical,B,25,cake15.jpg,cake33.jpg,nogoal,NULL
1687281523,0a31c6ffb7b735918def8599f21d5dfc,PennController,12,0,experiment,NULL,Video,progression,buffer,0.011731,1687281352395,5e7cbf1f97aaad3121975d64,5e7cbf1f97aaad3121975d64,9,cake,critical,B,25,cake15.jpg,cake33.jpg,nogoal,NULL
1687281523,0a31c6ffb7b735918def8599f21d5dfc,PennController,12,0,experiment,NULL,Selector,choice,Selection,option1,1687281356633,5e7cbf1f97aaad3121975d64,5e7cbf1f97aaad3121975d64,9,cake,critical,B,25,cake15.jpg,cake33.jpg,nogoal,option1;option2
1687281523,0a31c6ffb7b735918def8599f21d5dfc,PennController,12,0,experiment,NULL,PennController,11,_Trial_,End,1687281356634,5e7cbf1f97aaad3121975d64,5e7cbf1f97aaad3121975d64,9,cake,critical,B,25,cake15.jpg,cake33.jpg,nogoal,NULL
1687281523,0a31c6ffb7b735918def8599f21d5dfc,PennController,4,0,experiment,NULL,PennController,3,_Trial_,Start,1687281356635,5e7cbf1f97aaad3121975d64,5e7cbf1f97aaad3121975d64,1,vase,critical,B,50,vase40.jpg,vase60.jpg,nogoal,NULL
1687281523,0a31c6ffb7b735918def8599f21d5dfc,PennController,4,0,experiment,NULL,PennController,3,_Header_,Start,1687281356636,5e7cbf1f97aaad3121975d64,5e7cbf1f97aaad3121975d64,1,vase,critical,B,50,vase40.jpg,vase60.jpg,nogoal,NULL
1687281523,0a31c6ffb7b735918def8599f21d5dfc,PennController,4,0,experiment,NULL,PennController,3,_Header_,End,1687281356636,5e7cbf1f97aaad3121975d64,5e7cbf1f97aaad3121975d64,1,vase,critical,B,50,vase40.jpg,vase60.jpg,nogoal,NULL
1687281523,0a31c6ffb7b735918def8599f21d5dfc,PennController,4,0,experiment,NULL,Canvas,canvas6,Print,NA,1687281361339,5e7cbf1f97aaad3121975d64,5e7cbf1f97aaad3121975d64,1,vase,critical,B,50,vase40.jpg,vase60.jpg,nogoal,NULL
1687281523,0a31c6ffb7b735918def8599f21d5dfc,PennController,4,0,experiment,NULL,Video,progression,buffer,0.01081,1687281358178,5e7cbf1f97aaad3121975d64,5e7cbf1f97aaad3121975d64,1,vase,critical,B,50,vase40.jpg,vase60.jpg,nogoal,NULL
1687281523,0a31c6ffb7b735918def8599f21d5dfc,PennController,4,0,experiment,NULL,Selector,choice,Selection,option2,1687281363525,5e7cbf1f97aaad3121975d64,5e7cbf1f97aaad3121975d64,1,vase,critical,B,50,vase40.jpg,vase60.jpg,nogoal,option2;option1
1687281523,0a31c6ffb7b735918def8599f21d5dfc,PennController,4,0,experiment,NULL,PennController,3,_Trial_,End,1687281363527,5e7cbf1f97aaad3121975d64,5e7cbf1f97aaad3121975d64,1,vase,critical,B,50,vase40.jpg,vase60.jpg,nogoal,NULL
1687281523,0a31c6ffb7b735918def8599f21d5dfc,PennController,29,0,experiment,NULL,PennController,28,_Trial_,Start,1687281363529,5e7cbf1f97aaad3121975d64,5e7cbf1f97aaad3121975d64,26,sandwich,filler,B,75,sandwich65.jpg,sandwich85.jpg,nogoal,NULL
1687281523,0a31c6ffb7b735918def8599f21d5dfc,PennController,29,0,experiment,NULL,PennController,28,_Header_,Start,1687281363529,5e7cbf1f97aaad3121975d64,5e7cbf1f97aaad3121975d64,26,sandwich,filler,B,75,sandwich65.jpg,sandwich85.jpg,nogoal,NULL
1687281523,0a31c6ffb7b735918def8599f21d5dfc,PennController,29,0,experiment,NULL,PennController,28,_Header_,End,1687281363529,5e7cbf1f97aaad3121975d64,5e7cbf1f97aaad3121975d64,26,sandwich,filler,B,75,sandwich65.jpg,sandwich85.jpg,nogoal,NULL
1687281523,0a31c6ffb7b735918def8599f21d5dfc,PennController,29,0,experiment,NULL,Canvas,canvas6,Print,NA,1687281369235,5e7cbf1f97aaad3121975d64,5e7cbf1f97aaad3121975d64,26,sandwich,filler,B,75,sandwich65.jpg,sandwich85.jpg,nogoal,NULL
1687281523,0a31c6ffb7b735918def8599f21d5dfc,PennController,29,0,experiment,NULL,Video,progression,buffer,0.004416,1687281365054,5e7cbf1f97aaad3121975d64,5e7cbf1f97aaad3121975d64,26,sandwich,filler,B,75,sandwich65.jpg,sandwich85.jpg,nogoal,NULL
1687281523,0a31c6ffb7b735918def8599f21d5dfc,PennController,29,0,experiment,NULL,Selector,choice,Selection,option2,1687281372117,5e7cbf1f97aaad3121975d64,5e7cbf1f97aaad3121975d64,26,sandwich,filler,B,75,sandwich65.jpg,sandwich85.jpg,nogoal,option2;option1
1687281523,0a31c6ffb7b735918def8599f21d5dfc,PennController,29,0,experiment,NULL,PennController,28,_Trial_,End,1687281372120,5e7cbf1f97aaad3121975d64,5e7cbf1f97aaad3121975d64,26,sandwich,filler,B,75,sandwich65.jpg,sandwich85.jpg,nogoal,NULL
1687281523,0a31c6ffb7b735918def8599f21d5dfc,PennController,13,0,experiment,NULL,PennController,12,_Trial_,Start,1687281372123,5e7cbf1f97aaad3121975d64,5e7cbf1f97aaad3121975d64,10,train,critical,B,50,train40.jpg,train60.jpg,nogoal,NULL
1687281523,0a31c6ffb7b735918def8599f21d5dfc,PennController,13,0,experiment,NULL,PennController,12,_Header_,Start,1687281372123,5e7cbf1f97aaad3121975d64,5e7cbf1f97aaad3121975d64,10,train,critical,B,50,train40.jpg,train60.jpg,nogoal,NULL
1687281523,0a31c6ffb7b735918def8599f21d5dfc,PennController,13,0,experiment,NULL,PennController,12,_Header_,End,1687281372123,5e7cbf1f97aaad3121975d64,5e7cbf1f97aaad3121975d64,10,train,critical,B,50,train40.jpg,train60.jpg,nogoal,NULL
1687281523,0a31c6ffb7b735918def8599f21d5dfc,PennController,13,0,experiment,NULL,Canvas,canvas6,Print,NA,1687281376819,5e7cbf1f97aaad3121975d64,5e7cbf1f97aaad3121975d64,10,train,critical,B,50,train40.jpg,train60.jpg,nogoal,NULL
1687281523,0a31c6ffb7b735918def8599f21d5dfc,PennController,13,0,experiment,NULL,Video,progression,buffer,0.008678,1687281373658,5e7cbf1f97aaad3121975d64,5e7cbf1f97aaad3121975d64,10,train,critical,B,50,train40.jpg,train60.jpg,nogoal,NULL
1687281523,0a31c6ffb7b735918def8599f21d5dfc,PennController,13,0,experiment,NULL,Selector,choice,Selection,option2,1687281378533,5e7cbf1f97aaad3121975d64,5e7cbf1f97aaad3121975d64,10,train,critical,B,50,train40.jpg,train60.jpg,nogoal,option1;option2
1687281523,0a31c6ffb7b735918def8599f21d5dfc,PennController,13,0,experiment,NULL,PennController,12,_Trial_,End,1687281378535,5e7cbf1f97aaad3121975d64,5e7cbf1f97aaad3121975d64,10,train,critical,B,50,train40.jpg,train60.jpg,nogoal,NULL
1687281523,0a31c6ffb7b735918def8599f21d5dfc,PennController,21,0,experiment,NULL,PennController,20,_Trial_,Start,1687281378536,5e7cbf1f97aaad3121975d64,5e7cbf1f97aaad3121975d64,18,ball,critical,B,25,ball15.jpg,ball35.jpg,nogoal,NULL
1687281523,0a31c6ffb7b735918def8599f21d5dfc,PennController,21,0,experiment,NULL,PennController,20,_Header_,Start,1687281378536,5e7cbf1f97aaad3121975d64,5e7cbf1f97aaad3121975d64,18,ball,critical,B,25,ball15.jpg,ball35.jpg,nogoal,NULL
1687281523,0a31c6ffb7b735918def8599f21d5dfc,PennController,21,0,experiment,NULL,PennController,20,_Header_,End,1687281378536,5e7cbf1f97aaad3121975d64,5e7cbf1f97aaad3121975d64,18,ball,critical,B,25,ball15.jpg,ball35.jpg,nogoal,NULL
1687281523,0a31c6ffb7b735918def8599f21d5dfc,PennController,21,0,experiment,NULL,Canvas,canvas6,Print,NA,1687281382238,5e7cbf1f97aaad3121975d64,5e7cbf1f97aaad3121975d64,18,ball,critical,B,25,ball15.jpg,ball35.jpg,nogoal,NULL
1687281523,0a31c6ffb7b735918def8599f21d5dfc,PennController,21,0,experiment,NULL,Video,progression,buffer,0.012143,1687281380078,5e7cbf1f97aaad3121975d64,5e7cbf1f97aaad3121975d64,18,ball,critical,B,25,ball15.jpg,ball35.jpg,nogoal,NULL
1687281523,0a31c6ffb7b735918def8599f21d5dfc,PennController,21,0,experiment,NULL,Selector,choice,Selection,option1,1687281383561,5e7cbf1f97aaad3121975d64,5e7cbf1f97aaad3121975d64,18,ball,critical,B,25,ball15.jpg,ball35.jpg,nogoal,option2;option1
1687281523,0a31c6ffb7b735918def8599f21d5dfc,PennController,21,0,experiment,NULL,PennController,20,_Trial_,End,1687281383562,5e7cbf1f97aaad3121975d64,5e7cbf1f97aaad3121975d64,18,ball,critical,B,25,ball15.jpg,ball35.jpg,nogoal,NULL
1687281523,0a31c6ffb7b735918def8599f21d5dfc,PennController,18,0,experiment,NULL,PennController,17,_Trial_,Start,1687281383563,5e7cbf1f97aaad3121975d64,5e7cbf1f97aaad3121975d64,15,zip,critical,B,25,zip15.jpg,zip35.jpg,nogoal,NULL
1687281523,0a31c6ffb7b735918def8599f21d5dfc,PennController,18,0,experiment,NULL,PennController,17,_Header_,Start,1687281383563,5e7cbf1f97aaad3121975d64,5e7cbf1f97aaad3121975d64,15,zip,critical,B,25,zip15.jpg,zip35.jpg,nogoal,NULL
1687281523,0a31c6ffb7b735918def8599f21d5dfc,PennController,18,0,experiment,NULL,PennController,17,_Header_,End,1687281383563,5e7cbf1f97aaad3121975d64,5e7cbf1f97aaad3121975d64,15,zip,critical,B,25,zip15.jpg,zip35.jpg,nogoal,NULL
1687281523,0a31c6ffb7b735918def8599f21d5dfc,PennController,18,0,experiment,NULL,Canvas,canvas6,Print,NA,1687281387295,5e7cbf1f97aaad3121975d64,5e7cbf1f97aaad3121975d64,15,zip,critical,B,25,zip15.jpg,zip35.jpg,nogoal,NULL
1687281523,0a31c6ffb7b735918def8599f21d5dfc,PennController,18,0,experiment,NULL,Video,progression,buffer,0.007155,1687281385116,5e7cbf1f97aaad3121975d64,5e7cbf1f97aaad3121975d64,15,zip,critical,B,25,zip15.jpg,zip35.jpg,nogoal,NULL
1687281523,0a31c6ffb7b735918def8599f21d5dfc,PennController,18,0,experiment,NULL,Selector,choice,Selection,option1,1687281388609,5e7cbf1f97aaad3121975d64,5e7cbf1f97aaad3121975d64,15,zip,critical,B,25,zip15.jpg,zip35.jpg,nogoal,option2;option1
1687281523,0a31c6ffb7b735918def8599f21d5dfc,PennController,18,0,experiment,NULL,PennController,17,_Trial_,End,1687281388610,5e7cbf1f97aaad3121975d64,5e7cbf1f97aaad3121975d64,15,zip,critical,B,25,zip15.jpg,zip35.jpg,nogoal,NULL
1687281523,0a31c6ffb7b735918def8599f21d5dfc,PennController,8,0,experiment,NULL,PennController,7,_Trial_,Start,1687281388611,5e7cbf1f97aaad3121975d64,5e7cbf1f97aaad3121975d64,5,book,critical,B,75,book65.jpg,book85.jpg,nogoal,NULL
1687281523,0a31c6ffb7b735918def8599f21d5dfc,PennController,8,0,experiment,NULL,PennController,7,_Header_,Start,1687281388611,5e7cbf1f97aaad3121975d64,5e7cbf1f97aaad3121975d64,5,book,critical,B,75,book65.jpg,book85.jpg,nogoal,NULL
1687281523,0a31c6ffb7b735918def8599f21d5dfc,PennController,8,0,experiment,NULL,PennController,7,_Header_,End,1687281388611,5e7cbf1f97aaad3121975d64,5e7cbf1f97aaad3121975d64,5,book,critical,B,75,book65.jpg,book85.jpg,nogoal,NULL
1687281523,0a31c6ffb7b735918def8599f21d5dfc,PennController,8,0,experiment,NULL,Canvas,canvas6,Print,NA,1687281394303,5e7cbf1f97aaad3121975d64,5e7cbf1f97aaad3121975d64,5,book,critical,B,75,book65.jpg,book85.jpg,nogoal,NULL
1687281523,0a31c6ffb7b735918def8599f21d5dfc,PennController,8,0,experiment,NULL,Video,progression,buffer,0.005683,1687281390137,5e7cbf1f97aaad3121975d64,5e7cbf1f97aaad3121975d64,5,book,critical,B,75,book65.jpg,book85.jpg,nogoal,NULL
1687281523,0a31c6ffb7b735918def8599f21d5dfc,PennController,8,0,experiment,NULL,Selector,choice,Selection,option1,1687281396157,5e7cbf1f97aaad3121975d64,5e7cbf1f97aaad3121975d64,5,book,critical,B,75,book65.jpg,book85.jpg,nogoal,option2;option1
1687281523,0a31c6ffb7b735918def8599f21d5dfc,PennController,8,0,experiment,NULL,PennController,7,_Trial_,End,1687281396158,5e7cbf1f97aaad3121975d64,5e7cbf1f97aaad3121975d64,5,book,critical,B,75,book65.jpg,book85.jpg,nogoal,NULL
1687281523,0a31c6ffb7b735918def8599f21d5dfc,PennController,25,0,experiment,NULL,PennController,24,_Trial_,Start,1687281396160,5e7cbf1f97aaad3121975d64,5e7cbf1f97aaad3121975d64,22,wall,filler,B,50,wall40.jpg,wall60.jpg,nogoal,NULL
1687281523,0a31c6ffb7b735918def8599f21d5dfc,PennController,25,0,experiment,NULL,PennController,24,_Header_,Start,1687281396160,5e7cbf1f97aaad3121975d64,5e7cbf1f97aaad3121975d64,22,wall,filler,B,50,wall40.jpg,wall60.jpg,nogoal,NULL
1687281523,0a31c6ffb7b735918def8599f21d5dfc,PennController,25,0,experiment,NULL,PennController,24,_Header_,End,1687281396160,5e7cbf1f97aaad3121975d64,5e7cbf1f97aaad3121975d64,22,wall,filler,B,50,wall40.jpg,wall60.jpg,nogoal,NULL
1687281523,0a31c6ffb7b735918def8599f21d5dfc,PennController,25,0,experiment,NULL,Canvas,canvas6,Print,NA,1687281400859,5e7cbf1f97aaad3121975d64,5e7cbf1f97aaad3121975d64,22,wall,filler,B,50,wall40.jpg,wall60.jpg,nogoal,NULL
1687281523,0a31c6ffb7b735918def8599f21d5dfc,PennController,25,0,experiment,NULL,Video,progression,buffer,0.010414,1687281397693,5e7cbf1f97aaad3121975d64,5e7cbf1f97aaad3121975d64,22,wall,filler,B,50,wall40.jpg,wall60.jpg,nogoal,NULL
1687281523,0a31c6ffb7b735918def8599f21d5dfc,PennController,25,0,experiment,NULL,Selector,choice,Selection,option2,1687281402729,5e7cbf1f97aaad3121975d64,5e7cbf1f97aaad3121975d64,22,wall,filler,B,50,wall40.jpg,wall60.jpg,nogoal,option2;option1
1687281523,0a31c6ffb7b735918def8599f21d5dfc,PennController,25,0,experiment,NULL,PennController,24,_Trial_,End,1687281402730,5e7cbf1f97aaad3121975d64,5e7cbf1f97aaad3121975d64,22,wall,filler,B,50,wall40.jpg,wall60.jpg,nogoal,NULL
1687281523,0a31c6ffb7b735918def8599f21d5dfc,PennController,32,0,experiment,NULL,PennController,31,_Trial_,Start,1687281402731,5e7cbf1f97aaad3121975d64,5e7cbf1f97aaad3121975d64,29,frog,filler,B,75,frog65.jpg,frog85.jpg,nogoal,NULL
1687281523,0a31c6ffb7b735918def8599f21d5dfc,PennController,32,0,experiment,NULL,PennController,31,_Header_,Start,1687281402731,5e7cbf1f97aaad3121975d64,5e7cbf1f97aaad3121975d64,29,frog,filler,B,75,frog65.jpg,frog85.jpg,nogoal,NULL
1687281523,0a31c6ffb7b735918def8599f21d5dfc,PennController,32,0,experiment,NULL,PennController,31,_Header_,End,1687281402731,5e7cbf1f97aaad3121975d64,5e7cbf1f97aaad3121975d64,29,frog,filler,B,75,frog65.jpg,frog85.jpg,nogoal,NULL
1687281523,0a31c6ffb7b735918def8599f21d5dfc,PennController,32,0,experiment,NULL,Canvas,canvas6,Print,NA,1687281408432,5e7cbf1f97aaad3121975d64,5e7cbf1f97aaad3121975d64,29,frog,filler,B,75,frog65.jpg,frog85.jpg,nogoal,NULL
1687281523,0a31c6ffb7b735918def8599f21d5dfc,PennController,32,0,experiment,NULL,Video,progression,buffer,0.010189,1687281404264,5e7cbf1f97aaad3121975d64,5e7cbf1f97aaad3121975d64,29,frog,filler,B,75,frog65.jpg,frog85.jpg,nogoal,NULL
1687281523,0a31c6ffb7b735918def8599f21d5dfc,PennController,32,0,experiment,NULL,Selector,choice,Selection,option2,1687281409729,5e7cbf1f97aaad3121975d64,5e7cbf1f97aaad3121975d64,29,frog,filler,B,75,frog65.jpg,frog85.jpg,nogoal,option2;option1
1687281523,0a31c6ffb7b735918def8599f21d5dfc,PennController,32,0,experiment,NULL,PennController,31,_Trial_,End,1687281409730,5e7cbf1f97aaad3121975d64,5e7cbf1f97aaad3121975d64,29,frog,filler,B,75,frog65.jpg,frog85.jpg,nogoal,NULL
1687281523,0a31c6ffb7b735918def8599f21d5dfc,PennController,27,0,experiment,NULL,PennController,26,_Trial_,Start,1687281409732,5e7cbf1f97aaad3121975d64,5e7cbf1f97aaad3121975d64,24,match,filler,B,25,match15.jpg,match35.jpg,nogoal,NULL
1687281523,0a31c6ffb7b735918def8599f21d5dfc,PennController,27,0,experiment,NULL,PennController,26,_Header_,Start,1687281409732,5e7cbf1f97aaad3121975d64,5e7cbf1f97aaad3121975d64,24,match,filler,B,25,match15.jpg,match35.jpg,nogoal,NULL
1687281523,0a31c6ffb7b735918def8599f21d5dfc,PennController,27,0,experiment,NULL,PennController,26,_Header_,End,1687281409732,5e7cbf1f97aaad3121975d64,5e7cbf1f97aaad3121975d64,24,match,filler,B,25,match15.jpg,match35.jpg,nogoal,NULL
1687281523,0a31c6ffb7b735918def8599f21d5dfc,PennController,27,0,experiment,NULL,Canvas,canvas6,Print,NA,1687281413431,5e7cbf1f97aaad3121975d64,5e7cbf1f97aaad3121975d64,24,match,filler,B,25,match15.jpg,match35.jpg,nogoal,NULL
1687281523,0a31c6ffb7b735918def8599f21d5dfc,PennController,27,0,experiment,NULL,Video,progression,buffer,0.013457,1687281411267,5e7cbf1f97aaad3121975d64,5e7cbf1f97aaad3121975d64,24,match,filler,B,25,match15.jpg,match35.jpg,nogoal,NULL
1687281523,0a31c6ffb7b735918def8599f21d5dfc,PennController,27,0,experiment,NULL,Selector,choice,Selection,option1,1687281416441,5e7cbf1f97aaad3121975d64,5e7cbf1f97aaad3121975d64,24,match,filler,B,25,match15.jpg,match35.jpg,nogoal,option1;option2
1687281523,0a31c6ffb7b735918def8599f21d5dfc,PennController,27,0,experiment,NULL,PennController,26,_Trial_,End,1687281416442,5e7cbf1f97aaad3121975d64,5e7cbf1f97aaad3121975d64,24,match,filler,B,25,match15.jpg,match35.jpg,nogoal,NULL
1687281523,0a31c6ffb7b735918def8599f21d5dfc,PennController,9,0,experiment,NULL,PennController,8,_Trial_,Start,1687281416443,5e7cbf1f97aaad3121975d64,5e7cbf1f97aaad3121975d64,6,flower,critical,B,25,flower15.jpg,flower35.jpg,nogoal,NULL
1687281523,0a31c6ffb7b735918def8599f21d5dfc,PennController,9,0,experiment,NULL,PennController,8,_Header_,Start,1687281416443,5e7cbf1f97aaad3121975d64,5e7cbf1f97aaad3121975d64,6,flower,critical,B,25,flower15.jpg,flower35.jpg,nogoal,NULL
1687281523,0a31c6ffb7b735918def8599f21d5dfc,PennController,9,0,experiment,NULL,PennController,8,_Header_,End,1687281416443,5e7cbf1f97aaad3121975d64,5e7cbf1f97aaad3121975d64,6,flower,critical,B,25,flower15.jpg,flower35.jpg,nogoal,NULL
1687281523,0a31c6ffb7b735918def8599f21d5dfc,PennController,9,0,experiment,NULL,Canvas,canvas6,Print,NA,1687281420142,5e7cbf1f97aaad3121975d64,5e7cbf1f97aaad3121975d64,6,flower,critical,B,25,flower15.jpg,flower35.jpg,nogoal,NULL
1687281523,0a31c6ffb7b735918def8599f21d5dfc,PennController,9,0,experiment,NULL,Video,progression,buffer,0.007701,1687281417974,5e7cbf1f97aaad3121975d64,5e7cbf1f97aaad3121975d64,6,flower,critical,B,25,flower15.jpg,flower35.jpg,nogoal,NULL
1687281523,0a31c6ffb7b735918def8599f21d5dfc,PennController,9,0,experiment,NULL,Selector,choice,Selection,option2,1687281425021,5e7cbf1f97aaad3121975d64,5e7cbf1f97aaad3121975d64,6,flower,critical,B,25,flower15.jpg,flower35.jpg,nogoal,option1;option2
1687281523,0a31c6ffb7b735918def8599f21d5dfc,PennController,9,0,experiment,NULL,PennController,8,_Trial_,End,1687281425022,5e7cbf1f97aaad3121975d64,5e7cbf1f97aaad3121975d64,6,flower,critical,B,25,flower15.jpg,flower35.jpg,nogoal,NULL
1687281523,0a31c6ffb7b735918def8599f21d5dfc,PennController,20,0,experiment,NULL,PennController,19,_Trial_,Start,1687281425023,5e7cbf1f97aaad3121975d64,5e7cbf1f97aaad3121975d64,17,roll,critical,B,75,roll65.jpg,roll85.jpg,nogoal,NULL
1687281523,0a31c6ffb7b735918def8599f21d5dfc,PennController,20,0,experiment,NULL,PennController,19,_Header_,Start,1687281425023,5e7cbf1f97aaad3121975d64,5e7cbf1f97aaad3121975d64,17,roll,critical,B,75,roll65.jpg,roll85.jpg,nogoal,NULL
1687281523,0a31c6ffb7b735918def8599f21d5dfc,PennController,20,0,experiment,NULL,PennController,19,_Header_,End,1687281425023,5e7cbf1f97aaad3121975d64,5e7cbf1f97aaad3121975d64,17,roll,critical,B,75,roll65.jpg,roll85.jpg,nogoal,NULL
1687281523,0a31c6ffb7b735918def8599f21d5dfc,PennController,20,0,experiment,NULL,Canvas,canvas6,Print,NA,1687281430730,5e7cbf1f97aaad3121975d64,5e7cbf1f97aaad3121975d64,17,roll,critical,B,75,roll65.jpg,roll85.jpg,nogoal,NULL
1687281523,0a31c6ffb7b735918def8599f21d5dfc,PennController,20,0,experiment,NULL,Video,progression,buffer,0.00836,1687281426552,5e7cbf1f97aaad3121975d64,5e7cbf1f97aaad3121975d64,17,roll,critical,B,75,roll65.jpg,roll85.jpg,nogoal,NULL
1687281523,0a31c6ffb7b735918def8599f21d5dfc,PennController,20,0,experiment,NULL,Selector,choice,Selection,option1,1687281432949,5e7cbf1f97aaad3121975d64,5e7cbf1f97aaad3121975d64,17,roll,critical,B,75,roll65.jpg,roll85.jpg,nogoal,option1;option2
1687281523,0a31c6ffb7b735918def8599f21d5dfc,PennController,20,0,experiment,NULL,PennController,19,_Trial_,End,1687281432950,5e7cbf1f97aaad3121975d64,5e7cbf1f97aaad3121975d64,17,roll,critical,B,75,roll65.jpg,roll85.jpg,nogoal,NULL
1687281523,0a31c6ffb7b735918def8599f21d5dfc,PennController,15,0,experiment,NULL,PennController,14,_Trial_,Start,1687281432950,5e7cbf1f97aaad3121975d64,5e7cbf1f97aaad3121975d64,12,erase,critical,B,25,erase15.jpg,erase33.jpg,nogoal,NULL
1687281523,0a31c6ffb7b735918def8599f21d5dfc,PennController,15,0,experiment,NULL,PennController,14,_Header_,Start,1687281432950,5e7cbf1f97aaad3121975d64,5e7cbf1f97aaad3121975d64,12,erase,critical,B,25,erase15.jpg,erase33.jpg,nogoal,NULL
1687281523,0a31c6ffb7b735918def8599f21d5dfc,PennController,15,0,experiment,NULL,PennController,14,_Header_,End,1687281432951,5e7cbf1f97aaad3121975d64,5e7cbf1f97aaad3121975d64,12,erase,critical,B,25,erase15.jpg,erase33.jpg,nogoal,NULL
1687281523,0a31c6ffb7b735918def8599f21d5dfc,PennController,15,0,experiment,NULL,Canvas,canvas6,Print,NA,1687281437254,5e7cbf1f97aaad3121975d64,5e7cbf1f97aaad3121975d64,12,erase,critical,B,25,erase15.jpg,erase33.jpg,nogoal,NULL
1687281523,0a31c6ffb7b735918def8599f21d5dfc,PennController,15,0,experiment,NULL,Video,progression,buffer,0.013995,1687281434486,5e7cbf1f97aaad3121975d64,5e7cbf1f97aaad3121975d64,12,erase,critical,B,25,erase15.jpg,erase33.jpg,nogoal,NULL
1687281523,0a31c6ffb7b735918def8599f21d5dfc,PennController,15,0,experiment,NULL,Selector,choice,Selection,option2,1687281438905,5e7cbf1f97aaad3121975d64,5e7cbf1f97aaad3121975d64,12,erase,critical,B,25,erase15.jpg,erase33.jpg,nogoal,option2;option1
1687281523,0a31c6ffb7b735918def8599f21d5dfc,PennController,15,0,experiment,NULL,PennController,14,_Trial_,End,1687281438906,5e7cbf1f97aaad3121975d64,5e7cbf1f97aaad3121975d64,12,erase,critical,B,25,erase15.jpg,erase33.jpg,nogoal,NULL
1687281523,0a31c6ffb7b735918def8599f21d5dfc,PennController,16,0,experiment,NULL,PennController,15,_Trial_,Start,1687281438907,5e7cbf1f97aaad3121975d64,5e7cbf1f97aaad3121975d64,13,mix,critical,B,50,mix40.jpg,mix60.jpg,nogoal,NULL
1687281523,0a31c6ffb7b735918def8599f21d5dfc,PennController,16,0,experiment,NULL,PennController,15,_Header_,Start,1687281438907,5e7cbf1f97aaad3121975d64,5e7cbf1f97aaad3121975d64,13,mix,critical,B,50,mix40.jpg,mix60.jpg,nogoal,NULL
1687281523,0a31c6ffb7b735918def8599f21d5dfc,PennController,16,0,experiment,NULL,PennController,15,_Header_,End,1687281438907,5e7cbf1f97aaad3121975d64,5e7cbf1f97aaad3121975d64,13,mix,critical,B,50,mix40.jpg,mix60.jpg,nogoal,NULL
1687281523,0a31c6ffb7b735918def8599f21d5dfc,PennController,16,0,experiment,NULL,Canvas,canvas6,Print,NA,1687281443595,5e7cbf1f97aaad3121975d64,5e7cbf1f97aaad3121975d64,13,mix,critical,B,50,mix40.jpg,mix60.jpg,nogoal,NULL
1687281523,0a31c6ffb7b735918def8599f21d5dfc,PennController,16,0,experiment,NULL,Video,progression,buffer,0.005342,1687281440433,5e7cbf1f97aaad3121975d64,5e7cbf1f97aaad3121975d64,13,mix,critical,B,50,mix40.jpg,mix60.jpg,nogoal,NULL
1687281523,0a31c6ffb7b735918def8599f21d5dfc,PennController,16,0,experiment,NULL,Selector,choice,Selection,option1,1687281445029,5e7cbf1f97aaad3121975d64,5e7cbf1f97aaad3121975d64,13,mix,critical,B,50,mix40.jpg,mix60.jpg,nogoal,option1;option2
1687281523,0a31c6ffb7b735918def8599f21d5dfc,PennController,16,0,experiment,NULL,PennController,15,_Trial_,End,1687281445030,5e7cbf1f97aaad3121975d64,5e7cbf1f97aaad3121975d64,13,mix,critical,B,50,mix40.jpg,mix60.jpg,nogoal,NULL
1687281523,0a31c6ffb7b735918def8599f21d5dfc,PennController,10,0,experiment,NULL,PennController,9,_Trial_,Start,1687281445031,5e7cbf1f97aaad3121975d64,5e7cbf1f97aaad3121975d64,7,stack,critical,B,50,stack40.jpg,stack60.jpg,nogoal,NULL
1687281523,0a31c6ffb7b735918def8599f21d5dfc,PennController,10,0,experiment,NULL,PennController,9,_Header_,Start,1687281445031,5e7cbf1f97aaad3121975d64,5e7cbf1f97aaad3121975d64,7,stack,critical,B,50,stack40.jpg,stack60.jpg,nogoal,NULL
1687281523,0a31c6ffb7b735918def8599f21d5dfc,PennController,10,0,experiment,NULL,PennController,9,_Header_,End,1687281445031,5e7cbf1f97aaad3121975d64,5e7cbf1f97aaad3121975d64,7,stack,critical,B,50,stack40.jpg,stack60.jpg,nogoal,NULL
1687281523,0a31c6ffb7b735918def8599f21d5dfc,PennController,10,0,experiment,NULL,Canvas,canvas6,Print,NA,1687281449723,5e7cbf1f97aaad3121975d64,5e7cbf1f97aaad3121975d64,7,stack,critical,B,50,stack40.jpg,stack60.jpg,nogoal,NULL
1687281523,0a31c6ffb7b735918def8599f21d5dfc,PennController,10,0,experiment,NULL,Video,progression,buffer,0.008234,1687281446559,5e7cbf1f97aaad3121975d64,5e7cbf1f97aaad3121975d64,7,stack,critical,B,50,stack40.jpg,stack60.jpg,nogoal,NULL
1687281523,0a31c6ffb7b735918def8599f21d5dfc,PennController,10,0,experiment,NULL,Selector,choice,Selection,option2,1687281453758,5e7cbf1f97aaad3121975d64,5e7cbf1f97aaad3121975d64,7,stack,critical,B,50,stack40.jpg,stack60.jpg,nogoal,option1;option2
1687281523,0a31c6ffb7b735918def8599f21d5dfc,PennController,10,0,experiment,NULL,PennController,9,_Trial_,End,1687281453758,5e7cbf1f97aaad3121975d64,5e7cbf1f97aaad3121975d64,7,stack,critical,B,50,stack40.jpg,stack60.jpg,nogoal,NULL
1687281523,0a31c6ffb7b735918def8599f21d5dfc,PennController,14,0,experiment,NULL,PennController,13,_Trial_,Start,1687281453759,5e7cbf1f97aaad3121975d64,5e7cbf1f97aaad3121975d64,11,beads,critical,B,75,beads65.jpg,beads85.jpg,nogoal,NULL
1687281523,0a31c6ffb7b735918def8599f21d5dfc,PennController,14,0,experiment,NULL,PennController,13,_Header_,Start,1687281453759,5e7cbf1f97aaad3121975d64,5e7cbf1f97aaad3121975d64,11,beads,critical,B,75,beads65.jpg,beads85.jpg,nogoal,NULL
1687281523,0a31c6ffb7b735918def8599f21d5dfc,PennController,14,0,experiment,NULL,PennController,13,_Header_,End,1687281453759,5e7cbf1f97aaad3121975d64,5e7cbf1f97aaad3121975d64,11,beads,critical,B,75,beads65.jpg,beads85.jpg,nogoal,NULL
1687281523,0a31c6ffb7b735918def8599f21d5dfc,PennController,14,0,experiment,NULL,Canvas,canvas6,Print,NA,1687281459460,5e7cbf1f97aaad3121975d64,5e7cbf1f97aaad3121975d64,11,beads,critical,B,75,beads65.jpg,beads85.jpg,nogoal,NULL
1687281523,0a31c6ffb7b735918def8599f21d5dfc,PennController,14,0,experiment,NULL,Video,progression,buffer,0.009703,1687281455292,5e7cbf1f97aaad3121975d64,5e7cbf1f97aaad3121975d64,11,beads,critical,B,75,beads65.jpg,beads85.jpg,nogoal,NULL
1687281523,0a31c6ffb7b735918def8599f21d5dfc,PennController,14,0,experiment,NULL,Selector,choice,Selection,option1,1687281462701,5e7cbf1f97aaad3121975d64,5e7cbf1f97aaad3121975d64,11,beads,critical,B,75,beads65.jpg,beads85.jpg,nogoal,option1;option2
1687281523,0a31c6ffb7b735918def8599f21d5dfc,PennController,14,0,experiment,NULL,PennController,13,_Trial_,End,1687281462702,5e7cbf1f97aaad3121975d64,5e7cbf1f97aaad3121975d64,11,beads,critical,B,75,beads65.jpg,beads85.jpg,nogoal,NULL
1687281523,0a31c6ffb7b735918def8599f21d5dfc,PennController,17,0,experiment,NULL,PennController,16,_Trial_,Start,1687281462705,5e7cbf1f97aaad3121975d64,5e7cbf1f97aaad3121975d64,14,cover,critical,B,75,cover66.jpg,cover84.jpg,nogoal,NULL
1687281523,0a31c6ffb7b735918def8599f21d5dfc,PennController,17,0,experiment,NULL,PennController,16,_Header_,Start,1687281462705,5e7cbf1f97aaad3121975d64,5e7cbf1f97aaad3121975d64,14,cover,critical,B,75,cover66.jpg,cover84.jpg,nogoal,NULL
1687281523,0a31c6ffb7b735918def8599f21d5dfc,PennController,17,0,experiment,NULL,PennController,16,_Header_,End,1687281462705,5e7cbf1f97aaad3121975d64,5e7cbf1f97aaad3121975d64,14,cover,critical,B,75,cover66.jpg,cover84.jpg,nogoal,NULL
1687281523,0a31c6ffb7b735918def8599f21d5dfc,PennController,17,0,experiment,NULL,Canvas,canvas6,Print,NA,1687281470391,5e7cbf1f97aaad3121975d64,5e7cbf1f97aaad3121975d64,14,cover,critical,B,75,cover66.jpg,cover84.jpg,nogoal,NULL
1687281523,0a31c6ffb7b735918def8599f21d5dfc,PennController,17,0,experiment,NULL,Video,progression,buffer,0.013836,1687281464241,5e7cbf1f97aaad3121975d64,5e7cbf1f97aaad3121975d64,14,cover,critical,B,75,cover66.jpg,cover84.jpg,nogoal,NULL
1687281523,0a31c6ffb7b735918def8599f21d5dfc,PennController,17,0,experiment,NULL,Selector,choice,Selection,option1,1687281473865,5e7cbf1f97aaad3121975d64,5e7cbf1f97aaad3121975d64,14,cover,critical,B,75,cover66.jpg,cover84.jpg,nogoal,option1;option2
1687281523,0a31c6ffb7b735918def8599f21d5dfc,PennController,17,0,experiment,NULL,PennController,16,_Trial_,End,1687281473865,5e7cbf1f97aaad3121975d64,5e7cbf1f97aaad3121975d64,14,cover,critical,B,75,cover66.jpg,cover84.jpg,nogoal,NULL
1687281523,0a31c6ffb7b735918def8599f21d5dfc,PennController,30,0,experiment,NULL,PennController,29,_Trial_,Start,1687281473866,5e7cbf1f97aaad3121975d64,5e7cbf1f97aaad3121975d64,27,square,filler,B,25,square15.jpg,square35.jpg,nogoal,NULL
1687281523,0a31c6ffb7b735918def8599f21d5dfc,PennController,30,0,experiment,NULL,PennController,29,_Header_,Start,1687281473866,5e7cbf1f97aaad3121975d64,5e7cbf1f97aaad3121975d64,27,square,filler,B,25,square15.jpg,square35.jpg,nogoal,NULL
1687281523,0a31c6ffb7b735918def8599f21d5dfc,PennController,30,0,experiment,NULL,PennController,29,_Header_,End,1687281473866,5e7cbf1f97aaad3121975d64,5e7cbf1f97aaad3121975d64,27,square,filler,B,25,square15.jpg,square35.jpg,nogoal,NULL
1687281523,0a31c6ffb7b735918def8599f21d5dfc,PennController,30,0,experiment,NULL,Canvas,canvas6,Print,NA,1687281477557,5e7cbf1f97aaad3121975d64,5e7cbf1f97aaad3121975d64,27,square,filler,B,25,square15.jpg,square35.jpg,nogoal,NULL
1687281523,0a31c6ffb7b735918def8599f21d5dfc,PennController,30,0,experiment,NULL,Video,progression,buffer,0.005206,1687281475392,5e7cbf1f97aaad3121975d64,5e7cbf1f97aaad3121975d64,27,square,filler,B,25,square15.jpg,square35.jpg,nogoal,NULL
1687281523,0a31c6ffb7b735918def8599f21d5dfc,PennController,30,0,experiment,NULL,Selector,choice,Selection,option1,1687281479024,5e7cbf1f97aaad3121975d64,5e7cbf1f97aaad3121975d64,27,square,filler,B,25,square15.jpg,square35.jpg,nogoal,option2;option1
1687281523,0a31c6ffb7b735918def8599f21d5dfc,PennController,30,0,experiment,NULL,PennController,29,_Trial_,End,1687281479025,5e7cbf1f97aaad3121975d64,5e7cbf1f97aaad3121975d64,27,square,filler,B,25,square15.jpg,square35.jpg,nogoal,NULL
1687281523,0a31c6ffb7b735918def8599f21d5dfc,PennController,28,0,experiment,NULL,PennController,27,_Trial_,Start,1687281479026,5e7cbf1f97aaad3121975d64,5e7cbf1f97aaad3121975d64,25,house,filler,B,50,house40.jpg,house60.jpg,nogoal,NULL
1687281523,0a31c6ffb7b735918def8599f21d5dfc,PennController,28,0,experiment,NULL,PennController,27,_Header_,Start,1687281479026,5e7cbf1f97aaad3121975d64,5e7cbf1f97aaad3121975d64,25,house,filler,B,50,house40.jpg,house60.jpg,nogoal,NULL
1687281523,0a31c6ffb7b735918def8599f21d5dfc,PennController,28,0,experiment,NULL,PennController,27,_Header_,End,1687281479026,5e7cbf1f97aaad3121975d64,5e7cbf1f97aaad3121975d64,25,house,filler,B,50,house40.jpg,house60.jpg,nogoal,NULL
1687281523,0a31c6ffb7b735918def8599f21d5dfc,PennController,28,0,experiment,NULL,Canvas,canvas6,Print,NA,1687281483713,5e7cbf1f97aaad3121975d64,5e7cbf1f97aaad3121975d64,25,house,filler,B,50,house40.jpg,house60.jpg,nogoal,NULL
1687281523,0a31c6ffb7b735918def8599f21d5dfc,PennController,28,0,experiment,NULL,Video,progression,buffer,0.009877,1687281480557,5e7cbf1f97aaad3121975d64,5e7cbf1f97aaad3121975d64,25,house,filler,B,50,house40.jpg,house60.jpg,nogoal,NULL
1687281523,0a31c6ffb7b735918def8599f21d5dfc,PennController,28,0,experiment,NULL,Selector,choice,Selection,option1,1687281485144,5e7cbf1f97aaad3121975d64,5e7cbf1f97aaad3121975d64,25,house,filler,B,50,house40.jpg,house60.jpg,nogoal,option2;option1
1687281523,0a31c6ffb7b735918def8599f21d5dfc,PennController,28,0,experiment,NULL,PennController,27,_Trial_,End,1687281485145,5e7cbf1f97aaad3121975d64,5e7cbf1f97aaad3121975d64,25,house,filler,B,50,house40.jpg,house60.jpg,nogoal,NULL
1687281523,0a31c6ffb7b735918def8599f21d5dfc,PennController,5,0,experiment,NULL,PennController,4,_Trial_,Start,1687281485147,5e7cbf1f97aaad3121975d64,5e7cbf1f97aaad3121975d64,2,door,critical,B,75,door65.jpg,door85.jpg,nogoal,NULL
1687281523,0a31c6ffb7b735918def8599f21d5dfc,PennController,5,0,experiment,NULL,PennController,4,_Header_,Start,1687281485147,5e7cbf1f97aaad3121975d64,5e7cbf1f97aaad3121975d64,2,door,critical,B,75,door65.jpg,door85.jpg,nogoal,NULL
1687281523,0a31c6ffb7b735918def8599f21d5dfc,PennController,5,0,experiment,NULL,PennController,4,_Header_,End,1687281485147,5e7cbf1f97aaad3121975d64,5e7cbf1f97aaad3121975d64,2,door,critical,B,75,door65.jpg,door85.jpg,nogoal,NULL
1687281523,0a31c6ffb7b735918def8599f21d5dfc,PennController,5,0,experiment,NULL,Canvas,canvas6,Print,NA,1687281490840,5e7cbf1f97aaad3121975d64,5e7cbf1f97aaad3121975d64,2,door,critical,B,75,door65.jpg,door85.jpg,nogoal,NULL
1687281523,0a31c6ffb7b735918def8599f21d5dfc,PennController,5,0,experiment,NULL,Video,progression,buffer,0.013212,1687281486684,5e7cbf1f97aaad3121975d64,5e7cbf1f97aaad3121975d64,2,door,critical,B,75,door65.jpg,door85.jpg,nogoal,NULL
1687281523,0a31c6ffb7b735918def8599f21d5dfc,PennController,5,0,experiment,NULL,Selector,choice,Selection,option1,1687281492352,5e7cbf1f97aaad3121975d64,5e7cbf1f97aaad3121975d64,2,door,critical,B,75,door65.jpg,door85.jpg,nogoal,option1;option2
1687281523,0a31c6ffb7b735918def8599f21d5dfc,PennController,5,0,experiment,NULL,PennController,4,_Trial_,End,1687281492353,5e7cbf1f97aaad3121975d64,5e7cbf1f97aaad3121975d64,2,door,critical,B,75,door65.jpg,door85.jpg,nogoal,NULL
1687281523,0a31c6ffb7b735918def8599f21d5dfc,PennController,23,0,experiment,NULL,PennController,22,_Trial_,Start,1687281492354,5e7cbf1f97aaad3121975d64,5e7cbf1f97aaad3121975d64,20,cat,filler,B,75,cat65.jpg,cat85.jpg,nogoal,NULL
1687281523,0a31c6ffb7b735918def8599f21d5dfc,PennController,23,0,experiment,NULL,PennController,22,_Header_,Start,1687281492354,5e7cbf1f97aaad3121975d64,5e7cbf1f97aaad3121975d64,20,cat,filler,B,75,cat65.jpg,cat85.jpg,nogoal,NULL
1687281523,0a31c6ffb7b735918def8599f21d5dfc,PennController,23,0,experiment,NULL,PennController,22,_Header_,End,1687281492354,5e7cbf1f97aaad3121975d64,5e7cbf1f97aaad3121975d64,20,cat,filler,B,75,cat65.jpg,cat85.jpg,nogoal,NULL
1687281523,0a31c6ffb7b735918def8599f21d5dfc,PennController,23,0,experiment,NULL,Canvas,canvas6,Print,NA,1687281498049,5e7cbf1f97aaad3121975d64,5e7cbf1f97aaad3121975d64,20,cat,filler,B,75,cat65.jpg,cat85.jpg,nogoal,NULL
1687281523,0a31c6ffb7b735918def8599f21d5dfc,PennController,23,0,experiment,NULL,Video,progression,buffer,0.010961,1687281493888,5e7cbf1f97aaad3121975d64,5e7cbf1f97aaad3121975d64,20,cat,filler,B,75,cat65.jpg,cat85.jpg,nogoal,NULL
1687281523,0a31c6ffb7b735918def8599f21d5dfc,PennController,23,0,experiment,NULL,Selector,choice,Selection,option2,1687281499585,5e7cbf1f97aaad3121975d64,5e7cbf1f97aaad3121975d64,20,cat,filler,B,75,cat65.jpg,cat85.jpg,nogoal,option1;option2
1687281523,0a31c6ffb7b735918def8599f21d5dfc,PennController,23,0,experiment,NULL,PennController,22,_Trial_,End,1687281499586,5e7cbf1f97aaad3121975d64,5e7cbf1f97aaad3121975d64,20,cat,filler,B,75,cat65.jpg,cat85.jpg,nogoal,NULL
1687281523,0a31c6ffb7b735918def8599f21d5dfc,PennController,22,0,experiment,NULL,PennController,21,_Trial_,Start,1687281499587,5e7cbf1f97aaad3121975d64,5e7cbf1f97aaad3121975d64,19,cup,filler,B,50,cup40.jpg,cup60.jpg,nogoal,NULL
1687281523,0a31c6ffb7b735918def8599f21d5dfc,PennController,22,0,experiment,NULL,PennController,21,_Header_,Start,1687281499587,5e7cbf1f97aaad3121975d64,5e7cbf1f97aaad3121975d64,19,cup,filler,B,50,cup40.jpg,cup60.jpg,nogoal,NULL
1687281523,0a31c6ffb7b735918def8599f21d5dfc,PennController,22,0,experiment,NULL,PennController,21,_Header_,End,1687281499587,5e7cbf1f97aaad3121975d64,5e7cbf1f97aaad3121975d64,19,cup,filler,B,50,cup40.jpg,cup60.jpg,nogoal,NULL
1687281523,0a31c6ffb7b735918def8599f21d5dfc,PennController,22,0,experiment,NULL,Canvas,canvas6,Print,NA,1687281504274,5e7cbf1f97aaad3121975d64,5e7cbf1f97aaad3121975d64,19,cup,filler,B,50,cup40.jpg,cup60.jpg,nogoal,NULL
1687281523,0a31c6ffb7b735918def8599f21d5dfc,PennController,22,0,experiment,NULL,Video,progression,buffer,0.01197,1687281501115,5e7cbf1f97aaad3121975d64,5e7cbf1f97aaad3121975d64,19,cup,filler,B,50,cup40.jpg,cup60.jpg,nogoal,NULL
1687281523,0a31c6ffb7b735918def8599f21d5dfc,PennController,22,0,experiment,NULL,Selector,choice,Selection,option2,1687281505428,5e7cbf1f97aaad3121975d64,5e7cbf1f97aaad3121975d64,19,cup,filler,B,50,cup40.jpg,cup60.jpg,nogoal,option1;option2
1687281523,0a31c6ffb7b735918def8599f21d5dfc,PennController,22,0,experiment,NULL,PennController,21,_Trial_,End,1687281505429,5e7cbf1f97aaad3121975d64,5e7cbf1f97aaad3121975d64,19,cup,filler,B,50,cup40.jpg,cup60.jpg,nogoal,NULL
1687281523,0a31c6ffb7b735918def8599f21d5dfc,PennController,26,0,experiment,NULL,PennController,25,_Trial_,Start,1687281505430,5e7cbf1f97aaad3121975d64,5e7cbf1f97aaad3121975d64,23,color,filler,B,75,color65.jpg,color85.jpg,nogoal,NULL
1687281523,0a31c6ffb7b735918def8599f21d5dfc,PennController,26,0,experiment,NULL,PennController,25,_Header_,Start,1687281505430,5e7cbf1f97aaad3121975d64,5e7cbf1f97aaad3121975d64,23,color,filler,B,75,color65.jpg,color85.jpg,nogoal,NULL
1687281523,0a31c6ffb7b735918def8599f21d5dfc,PennController,26,0,experiment,NULL,PennController,25,_Header_,End,1687281505430,5e7cbf1f97aaad3121975d64,5e7cbf1f97aaad3121975d64,23,color,filler,B,75,color65.jpg,color85.jpg,nogoal,NULL
1687281523,0a31c6ffb7b735918def8599f21d5dfc,PennController,26,0,experiment,NULL,Canvas,canvas6,Print,NA,1687281511118,5e7cbf1f97aaad3121975d64,5e7cbf1f97aaad3121975d64,23,color,filler,B,75,color65.jpg,color85.jpg,nogoal,NULL
1687281523,0a31c6ffb7b735918def8599f21d5dfc,PennController,26,0,experiment,NULL,Video,progression,buffer,0.008158,1687281506958,5e7cbf1f97aaad3121975d64,5e7cbf1f97aaad3121975d64,23,color,filler,B,75,color65.jpg,color85.jpg,nogoal,NULL
1687281523,0a31c6ffb7b735918def8599f21d5dfc,PennController,26,0,experiment,NULL,Selector,choice,Selection,option2,1687281512392,5e7cbf1f97aaad3121975d64,5e7cbf1f97aaad3121975d64,23,color,filler,B,75,color65.jpg,color85.jpg,nogoal,option1;option2
1687281523,0a31c6ffb7b735918def8599f21d5dfc,PennController,26,0,experiment,NULL,PennController,25,_Trial_,End,1687281512393,5e7cbf1f97aaad3121975d64,5e7cbf1f97aaad3121975d64,23,color,filler,B,75,color65.jpg,color85.jpg,nogoal,NULL
1687281523,0a31c6ffb7b735918def8599f21d5dfc,PennController,19,0,experiment,NULL,PennController,18,_Trial_,Start,1687281512394,5e7cbf1f97aaad3121975d64,5e7cbf1f97aaad3121975d64,16,blinds,critical,B,50,blinds42.jpg,blinds60.jpg,nogoal,NULL
1687281523,0a31c6ffb7b735918def8599f21d5dfc,PennController,19,0,experiment,NULL,PennController,18,_Header_,Start,1687281512394,5e7cbf1f97aaad3121975d64,5e7cbf1f97aaad3121975d64,16,blinds,critical,B,50,blinds42.jpg,blinds60.jpg,nogoal,NULL
1687281523,0a31c6ffb7b735918def8599f21d5dfc,PennController,19,0,experiment,NULL,PennController,18,_Header_,End,1687281512394,5e7cbf1f97aaad3121975d64,5e7cbf1f97aaad3121975d64,16,blinds,critical,B,50,blinds42.jpg,blinds60.jpg,nogoal,NULL
1687281523,0a31c6ffb7b735918def8599f21d5dfc,PennController,19,0,experiment,NULL,Canvas,canvas6,Print,NA,1687281518476,5e7cbf1f97aaad3121975d64,5e7cbf1f97aaad3121975d64,16,blinds,critical,B,50,blinds42.jpg,blinds60.jpg,nogoal,NULL
1687281523,0a31c6ffb7b735918def8599f21d5dfc,PennController,19,0,experiment,NULL,Video,progression,buffer,0.010966,1687281513923,5e7cbf1f97aaad3121975d64,5e7cbf1f97aaad3121975d64,16,blinds,critical,B,50,blinds42.jpg,blinds60.jpg,nogoal,NULL
1687281523,0a31c6ffb7b735918def8599f21d5dfc,PennController,19,0,experiment,NULL,Selector,choice,Selection,option2,1687281521420,5e7cbf1f97aaad3121975d64,5e7cbf1f97aaad3121975d64,16,blinds,critical,B,50,blinds42.jpg,blinds60.jpg,nogoal,option2;option1
1687281523,0a31c6ffb7b735918def8599f21d5dfc,PennController,19,0,experiment,NULL,PennController,18,_Trial_,End,1687281521421,5e7cbf1f97aaad3121975d64,5e7cbf1f97aaad3121975d64,16,blinds,critical,B,50,blinds42.jpg,blinds60.jpg,nogoal,NULL
