#
# Results on Tuesday June 20 2023 17:20:28 UTC
# USER AGENT: Mozilla/5.0 (Windows NT 10.0; Win64; x64) AppleWebKit/537.36 (KHTML, like Gecko) Chrome/114.0.0.0 Safari/537.36
# Design number was non-random = 4
#
# Columns below this comment are as follows:
# 1. Results reception time.
# 2. MD5 hash of participant's IP address.
# 3. Controller name.
# 4. Order number of item.
# 5. Inner element number.
# 6. Label.
# 7. Latin Square Group.
# 8. PennElementType.
# 9. PennElementName.
# 10. Parameter.
# 11. Value.
# 12. EventTime.
# 13. PROLIFIC_ID.
# 14. Comments.
1687281628,f64838f03bd88f4b0f65d7518b3c6fe5,PennController,2,0,consent,NULL,PennController,0,_Trial_,Start,1687281319445,61608b525e4e1e9c932f1421,NULL
1687281628,f64838f03bd88f4b0f65d7518b3c6fe5,PennController,2,0,consent,NULL,PennController,0,_Header_,Start,1687281319445,61608b525e4e1e9c932f1421,NULL
1687281628,f64838f03bd88f4b0f65d7518b3c6fe5,PennController,2,0,consent,NULL,PennController,0,_Header_,End,1687281319445,61608b525e4e1e9c932f1421,NULL
1687281628,f64838f03bd88f4b0f65d7518b3c6fe5,PennController,2,0,consent,NULL,PennController,0,_Trial_,End,1687281387844,61608b525e4e1e9c932f1421,NULL
# Columns below this comment are as follows:
# 14. ID.
# 15. Comments.
1687281628,f64838f03bd88f4b0f65d7518b3c6fe5,PennController,3,0,intro,NULL,PennController,1,_Trial_,Start,1687281387850,61608b525e4e1e9c932f1421,61608b525e4e1e9c932f1421,NULL
1687281628,f64838f03bd88f4b0f65d7518b3c6fe5,PennController,3,0,intro,NULL,PennController,1,_Header_,Start,1687281387850,61608b525e4e1e9c932f1421,61608b525e4e1e9c932f1421,NULL
1687281628,f64838f03bd88f4b0f65d7518b3c6fe5,PennController,3,0,intro,NULL,PennController,1,_Header_,End,1687281387850,61608b525e4e1e9c932f1421,61608b525e4e1e9c932f1421,NULL
1687281628,f64838f03bd88f4b0f65d7518b3c6fe5,PennController,3,0,intro,NULL,PennController,1,_Trial_,End,1687281406446,61608b525e4e1e9c932f1421,61608b525e4e1e9c932f1421,NULL
# Columns below this comment are as follows:
# 15. item_number.
# 16. item.
# 17. type.
# 18. Group.
# 19. prog.
# 20. prev_image.
# 21. next_image.
# 22. height.
# 23. Comments.
1687281628,f64838f03bd88f4b0f65d7518b3c6fe5,PennController,32,0,experiment,NULL,PennController,31,_Trial_,Start,1687281406460,61608b525e4e1e9c932f1421,61608b525e4e1e9c932f1421,29,frog,filler,B,75,frog65.jpg,frog85.jpg,nogoal,NULL
1687281628,f64838f03bd88f4b0f65d7518b3c6fe5,PennController,32,0,experiment,NULL,PennController,31,_Header_,Start,1687281406460,61608b525e4e1e9c932f1421,61608b525e4e1e9c932f1421,29,frog,filler,B,75,frog65.jpg,frog85.jpg,nogoal,NULL
1687281628,f64838f03bd88f4b0f65d7518b3c6fe5,PennController,32,0,experiment,NULL,PennController,31,_Header_,End,1687281406460,61608b525e4e1e9c932f1421,61608b525e4e1e9c932f1421,29,frog,filler,B,75,frog65.jpg,frog85.jpg,nogoal,NULL
1687281628,f64838f03bd88f4b0f65d7518b3c6fe5,PennController,32,0,experiment,NULL,Canvas,canvas6,Print,NA,1687281412192,61608b525e4e1e9c932f1421,61608b525e4e1e9c932f1421,29,frog,filler,B,75,frog65.jpg,frog85.jpg,nogoal,NULL
1687281628,f64838f03bd88f4b0f65d7518b3c6fe5,PennController,32,0,experiment,NULL,Video,progression,buffer,0.015969,1687281408021,61608b525e4e1e9c932f1421,61608b525e4e1e9c932f1421,29,frog,filler,B,75,frog65.jpg,frog85.jpg,nogoal,NULL
1687281628,f64838f03bd88f4b0f65d7518b3c6fe5,PennController,32,0,experiment,NULL,Selector,choice,Selection,option2,1687281421652,61608b525e4e1e9c932f1421,61608b525e4e1e9c932f1421,29,frog,filler,B,75,frog65.jpg,frog85.jpg,nogoal,option1;option2
1687281628,f64838f03bd88f4b0f65d7518b3c6fe5,PennController,32,0,experiment,NULL,PennController,31,_Trial_,End,1687281421655,61608b525e4e1e9c932f1421,61608b525e4e1e9c932f1421,29,frog,filler,B,75,frog65.jpg,frog85.jpg,nogoal,NULL
1687281628,f64838f03bd88f4b0f65d7518b3c6fe5,PennController,6,0,experiment,NULL,PennController,5,_Trial_,Start,1687281421658,61608b525e4e1e9c932f1421,61608b525e4e1e9c932f1421,3,clean,critical,B,25,clean15.jpg,clean35.jpg,nogoal,NULL
1687281628,f64838f03bd88f4b0f65d7518b3c6fe5,PennController,6,0,experiment,NULL,PennController,5,_Header_,Start,1687281421658,61608b525e4e1e9c932f1421,61608b525e4e1e9c932f1421,3,clean,critical,B,25,clean15.jpg,clean35.jpg,nogoal,NULL
1687281628,f64838f03bd88f4b0f65d7518b3c6fe5,PennController,6,0,experiment,NULL,PennController,5,_Header_,End,1687281421658,61608b525e4e1e9c932f1421,61608b525e4e1e9c932f1421,3,clean,critical,B,25,clean15.jpg,clean35.jpg,nogoal,NULL
1687281628,f64838f03bd88f4b0f65d7518b3c6fe5,PennController,6,0,experiment,NULL,Canvas,canvas6,Print,NA,1687281425366,61608b525e4e1e9c932f1421,61608b525e4e1e9c932f1421,3,clean,critical,B,25,clean15.jpg,clean35.jpg,nogoal,NULL
1687281628,f64838f03bd88f4b0f65d7518b3c6fe5,PennController,6,0,experiment,NULL,Video,progression,buffer,0.019589,1687281423204,61608b525e4e1e9c932f1421,61608b525e4e1e9c932f1421,3,clean,critical,B,25,clean15.jpg,clean35.jpg,nogoal,NULL
1687281628,f64838f03bd88f4b0f65d7518b3c6fe5,PennController,6,0,experiment,NULL,Selector,choice,Selection,option2,1687281426779,61608b525e4e1e9c932f1421,61608b525e4e1e9c932f1421,3,clean,critical,B,25,clean15.jpg,clean35.jpg,nogoal,option1;option2
1687281628,f64838f03bd88f4b0f65d7518b3c6fe5,PennController,6,0,experiment,NULL,PennController,5,_Trial_,End,1687281426781,61608b525e4e1e9c932f1421,61608b525e4e1e9c932f1421,3,clean,critical,B,25,clean15.jpg,clean35.jpg,nogoal,NULL
1687281628,f64838f03bd88f4b0f65d7518b3c6fe5,PennController,4,0,experiment,NULL,PennController,3,_Trial_,Start,1687281426783,61608b525e4e1e9c932f1421,61608b525e4e1e9c932f1421,1,vase,critical,B,50,vase40.jpg,vase60.jpg,nogoal,NULL
1687281628,f64838f03bd88f4b0f65d7518b3c6fe5,PennController,4,0,experiment,NULL,PennController,3,_Header_,Start,1687281426783,61608b525e4e1e9c932f1421,61608b525e4e1e9c932f1421,1,vase,critical,B,50,vase40.jpg,vase60.jpg,nogoal,NULL
1687281628,f64838f03bd88f4b0f65d7518b3c6fe5,PennController,4,0,experiment,NULL,PennController,3,_Header_,End,1687281426783,61608b525e4e1e9c932f1421,61608b525e4e1e9c932f1421,1,vase,critical,B,50,vase40.jpg,vase60.jpg,nogoal,NULL
1687281628,f64838f03bd88f4b0f65d7518b3c6fe5,PennController,4,0,experiment,NULL,Canvas,canvas6,Print,NA,1687281431481,61608b525e4e1e9c932f1421,61608b525e4e1e9c932f1421,1,vase,critical,B,50,vase40.jpg,vase60.jpg,nogoal,NULL
1687281628,f64838f03bd88f4b0f65d7518b3c6fe5,PennController,4,0,experiment,NULL,Video,progression,buffer,0.017927,1687281428326,61608b525e4e1e9c932f1421,61608b525e4e1e9c932f1421,1,vase,critical,B,50,vase40.jpg,vase60.jpg,nogoal,NULL
1687281628,f64838f03bd88f4b0f65d7518b3c6fe5,PennController,4,0,experiment,NULL,Selector,choice,Selection,option2,1687281433198,61608b525e4e1e9c932f1421,61608b525e4e1e9c932f1421,1,vase,critical,B,50,vase40.jpg,vase60.jpg,nogoal,option2;option1
1687281628,f64838f03bd88f4b0f65d7518b3c6fe5,PennController,4,0,experiment,NULL,PennController,3,_Trial_,End,1687281433200,61608b525e4e1e9c932f1421,61608b525e4e1e9c932f1421,1,vase,critical,B,50,vase40.jpg,vase60.jpg,nogoal,NULL
1687281628,f64838f03bd88f4b0f65d7518b3c6fe5,PennController,21,0,experiment,NULL,PennController,20,_Trial_,Start,1687281433203,61608b525e4e1e9c932f1421,61608b525e4e1e9c932f1421,18,ball,critical,B,25,ball15.jpg,ball35.jpg,nogoal,NULL
1687281628,f64838f03bd88f4b0f65d7518b3c6fe5,PennController,21,0,experiment,NULL,PennController,20,_Header_,Start,1687281433203,61608b525e4e1e9c932f1421,61608b525e4e1e9c932f1421,18,ball,critical,B,25,ball15.jpg,ball35.jpg,nogoal,NULL
1687281628,f64838f03bd88f4b0f65d7518b3c6fe5,PennController,21,0,experiment,NULL,PennController,20,_Header_,End,1687281433203,61608b525e4e1e9c932f1421,61608b525e4e1e9c932f1421,18,ball,critical,B,25,ball15.jpg,ball35.jpg,nogoal,NULL
1687281628,f64838f03bd88f4b0f65d7518b3c6fe5,PennController,21,0,experiment,NULL,Canvas,canvas6,Print,NA,1687281436916,61608b525e4e1e9c932f1421,61608b525e4e1e9c932f1421,18,ball,critical,B,25,ball15.jpg,ball35.jpg,nogoal,NULL
1687281628,f64838f03bd88f4b0f65d7518b3c6fe5,PennController,21,0,experiment,NULL,Video,progression,buffer,0.007639,1687281434734,61608b525e4e1e9c932f1421,61608b525e4e1e9c932f1421,18,ball,critical,B,25,ball15.jpg,ball35.jpg,nogoal,NULL
1687281628,f64838f03bd88f4b0f65d7518b3c6fe5,PennController,21,0,experiment,NULL,Selector,choice,Selection,option2,1687281438336,61608b525e4e1e9c932f1421,61608b525e4e1e9c932f1421,18,ball,critical,B,25,ball15.jpg,ball35.jpg,nogoal,option1;option2
1687281628,f64838f03bd88f4b0f65d7518b3c6fe5,PennController,21,0,experiment,NULL,PennController,20,_Trial_,End,1687281438338,61608b525e4e1e9c932f1421,61608b525e4e1e9c932f1421,18,ball,critical,B,25,ball15.jpg,ball35.jpg,nogoal,NULL
1687281628,f64838f03bd88f4b0f65d7518b3c6fe5,PennController,24,0,experiment,NULL,PennController,23,_Trial_,Start,1687281438341,61608b525e4e1e9c932f1421,61608b525e4e1e9c932f1421,21,visit,filler,B,25,visit15.jpg,visit35.jpg,nogoal,NULL
1687281628,f64838f03bd88f4b0f65d7518b3c6fe5,PennController,24,0,experiment,NULL,PennController,23,_Header_,Start,1687281438341,61608b525e4e1e9c932f1421,61608b525e4e1e9c932f1421,21,visit,filler,B,25,visit15.jpg,visit35.jpg,nogoal,NULL
1687281628,f64838f03bd88f4b0f65d7518b3c6fe5,PennController,24,0,experiment,NULL,PennController,23,_Header_,End,1687281438341,61608b525e4e1e9c932f1421,61608b525e4e1e9c932f1421,21,visit,filler,B,25,visit15.jpg,visit35.jpg,nogoal,NULL
1687281628,f64838f03bd88f4b0f65d7518b3c6fe5,PennController,24,0,experiment,NULL,Canvas,canvas6,Print,NA,1687281442048,61608b525e4e1e9c932f1421,61608b525e4e1e9c932f1421,21,visit,filler,B,25,visit15.jpg,visit35.jpg,nogoal,NULL
1687281628,f64838f03bd88f4b0f65d7518b3c6fe5,PennController,24,0,experiment,NULL,Video,progression,buffer,0.015532,1687281439880,61608b525e4e1e9c932f1421,61608b525e4e1e9c932f1421,21,visit,filler,B,25,visit15.jpg,visit35.jpg,nogoal,NULL
1687281628,f64838f03bd88f4b0f65d7518b3c6fe5,PennController,24,0,experiment,NULL,Selector,choice,Selection,option2,1687281443340,61608b525e4e1e9c932f1421,61608b525e4e1e9c932f1421,21,visit,filler,B,25,visit15.jpg,visit35.jpg,nogoal,option1;option2
1687281628,f64838f03bd88f4b0f65d7518b3c6fe5,PennController,24,0,experiment,NULL,PennController,23,_Trial_,End,1687281443342,61608b525e4e1e9c932f1421,61608b525e4e1e9c932f1421,21,visit,filler,B,25,visit15.jpg,visit35.jpg,nogoal,NULL
1687281628,f64838f03bd88f4b0f65d7518b3c6fe5,PennController,16,0,experiment,NULL,PennController,15,_Trial_,Start,1687281443344,61608b525e4e1e9c932f1421,61608b525e4e1e9c932f1421,13,mix,critical,B,50,mix40.jpg,mix60.jpg,nogoal,NULL
1687281628,f64838f03bd88f4b0f65d7518b3c6fe5,PennController,16,0,experiment,NULL,PennController,15,_Header_,Start,1687281443344,61608b525e4e1e9c932f1421,61608b525e4e1e9c932f1421,13,mix,critical,B,50,mix40.jpg,mix60.jpg,nogoal,NULL
1687281628,f64838f03bd88f4b0f65d7518b3c6fe5,PennController,16,0,experiment,NULL,PennController,15,_Header_,End,1687281443344,61608b525e4e1e9c932f1421,61608b525e4e1e9c932f1421,13,mix,critical,B,50,mix40.jpg,mix60.jpg,nogoal,NULL
1687281628,f64838f03bd88f4b0f65d7518b3c6fe5,PennController,16,0,experiment,NULL,Canvas,canvas6,Print,NA,1687281448046,61608b525e4e1e9c932f1421,61608b525e4e1e9c932f1421,13,mix,critical,B,50,mix40.jpg,mix60.jpg,nogoal,NULL
1687281628,f64838f03bd88f4b0f65d7518b3c6fe5,PennController,16,0,experiment,NULL,Video,progression,buffer,0.006331,1687281444873,61608b525e4e1e9c932f1421,61608b525e4e1e9c932f1421,13,mix,critical,B,50,mix40.jpg,mix60.jpg,nogoal,NULL
1687281628,f64838f03bd88f4b0f65d7518b3c6fe5,PennController,16,0,experiment,NULL,Selector,choice,Selection,option1,1687281449992,61608b525e4e1e9c932f1421,61608b525e4e1e9c932f1421,13,mix,critical,B,50,mix40.jpg,mix60.jpg,nogoal,option2;option1
1687281628,f64838f03bd88f4b0f65d7518b3c6fe5,PennController,16,0,experiment,NULL,PennController,15,_Trial_,End,1687281449994,61608b525e4e1e9c932f1421,61608b525e4e1e9c932f1421,13,mix,critical,B,50,mix40.jpg,mix60.jpg,nogoal,NULL
1687281628,f64838f03bd88f4b0f65d7518b3c6fe5,PennController,5,0,experiment,NULL,PennController,4,_Trial_,Start,1687281449997,61608b525e4e1e9c932f1421,61608b525e4e1e9c932f1421,2,door,critical,B,75,door65.jpg,door85.jpg,nogoal,NULL
1687281628,f64838f03bd88f4b0f65d7518b3c6fe5,PennController,5,0,experiment,NULL,PennController,4,_Header_,Start,1687281449997,61608b525e4e1e9c932f1421,61608b525e4e1e9c932f1421,2,door,critical,B,75,door65.jpg,door85.jpg,nogoal,NULL
1687281628,f64838f03bd88f4b0f65d7518b3c6fe5,PennController,5,0,experiment,NULL,PennController,4,_Header_,End,1687281449997,61608b525e4e1e9c932f1421,61608b525e4e1e9c932f1421,2,door,critical,B,75,door65.jpg,door85.jpg,nogoal,NULL
1687281628,f64838f03bd88f4b0f65d7518b3c6fe5,PennController,5,0,experiment,NULL,Canvas,canvas6,Print,NA,1687281455710,61608b525e4e1e9c932f1421,61608b525e4e1e9c932f1421,2,door,critical,B,75,door65.jpg,door85.jpg,nogoal,NULL
1687281628,f64838f03bd88f4b0f65d7518b3c6fe5,PennController,5,0,experiment,NULL,Video,progression,buffer,0.019477,1687281451542,61608b525e4e1e9c932f1421,61608b525e4e1e9c932f1421,2,door,critical,B,75,door65.jpg,door85.jpg,nogoal,NULL
1687281628,f64838f03bd88f4b0f65d7518b3c6fe5,PennController,5,0,experiment,NULL,Selector,choice,Selection,option2,1687281457634,61608b525e4e1e9c932f1421,61608b525e4e1e9c932f1421,2,door,critical,B,75,door65.jpg,door85.jpg,nogoal,option2;option1
1687281628,f64838f03bd88f4b0f65d7518b3c6fe5,PennController,5,0,experiment,NULL,PennController,4,_Trial_,End,1687281457635,61608b525e4e1e9c932f1421,61608b525e4e1e9c932f1421,2,door,critical,B,75,door65.jpg,door85.jpg,nogoal,NULL
1687281628,f64838f03bd88f4b0f65d7518b3c6fe5,PennController,10,0,experiment,NULL,PennController,9,_Trial_,Start,1687281457639,61608b525e4e1e9c932f1421,61608b525e4e1e9c932f1421,7,stack,critical,B,50,stack40.jpg,stack60.jpg,nogoal,NULL
1687281628,f64838f03bd88f4b0f65d7518b3c6fe5,PennController,10,0,experiment,NULL,PennController,9,_Header_,Start,1687281457639,61608b525e4e1e9c932f1421,61608b525e4e1e9c932f1421,7,stack,critical,B,50,stack40.jpg,stack60.jpg,nogoal,NULL
1687281628,f64838f03bd88f4b0f65d7518b3c6fe5,PennController,10,0,experiment,NULL,PennController,9,_Header_,End,1687281457639,61608b525e4e1e9c932f1421,61608b525e4e1e9c932f1421,7,stack,critical,B,50,stack40.jpg,stack60.jpg,nogoal,NULL
1687281628,f64838f03bd88f4b0f65d7518b3c6fe5,PennController,10,0,experiment,NULL,Canvas,canvas6,Print,NA,1687281462342,61608b525e4e1e9c932f1421,61608b525e4e1e9c932f1421,7,stack,critical,B,50,stack40.jpg,stack60.jpg,nogoal,NULL
1687281628,f64838f03bd88f4b0f65d7518b3c6fe5,PennController,10,0,experiment,NULL,Video,progression,buffer,0.017681,1687281459181,61608b525e4e1e9c932f1421,61608b525e4e1e9c932f1421,7,stack,critical,B,50,stack40.jpg,stack60.jpg,nogoal,NULL
1687281628,f64838f03bd88f4b0f65d7518b3c6fe5,PennController,10,0,experiment,NULL,Selector,choice,Selection,option2,1687281465639,61608b525e4e1e9c932f1421,61608b525e4e1e9c932f1421,7,stack,critical,B,50,stack40.jpg,stack60.jpg,nogoal,option1;option2
1687281628,f64838f03bd88f4b0f65d7518b3c6fe5,PennController,10,0,experiment,NULL,PennController,9,_Trial_,End,1687281465640,61608b525e4e1e9c932f1421,61608b525e4e1e9c932f1421,7,stack,critical,B,50,stack40.jpg,stack60.jpg,nogoal,NULL
1687281628,f64838f03bd88f4b0f65d7518b3c6fe5,PennController,19,0,experiment,NULL,PennController,18,_Trial_,Start,1687281465642,61608b525e4e1e9c932f1421,61608b525e4e1e9c932f1421,16,blinds,critical,B,50,blinds42.jpg,blinds60.jpg,nogoal,NULL
1687281628,f64838f03bd88f4b0f65d7518b3c6fe5,PennController,19,0,experiment,NULL,PennController,18,_Header_,Start,1687281465642,61608b525e4e1e9c932f1421,61608b525e4e1e9c932f1421,16,blinds,critical,B,50,blinds42.jpg,blinds60.jpg,nogoal,NULL
1687281628,f64838f03bd88f4b0f65d7518b3c6fe5,PennController,19,0,experiment,NULL,PennController,18,_Header_,End,1687281465642,61608b525e4e1e9c932f1421,61608b525e4e1e9c932f1421,16,blinds,critical,B,50,blinds42.jpg,blinds60.jpg,nogoal,NULL
1687281628,f64838f03bd88f4b0f65d7518b3c6fe5,PennController,19,0,experiment,NULL,Canvas,canvas6,Print,NA,1687281471821,61608b525e4e1e9c932f1421,61608b525e4e1e9c932f1421,16,blinds,critical,B,50,blinds42.jpg,blinds60.jpg,nogoal,NULL
1687281628,f64838f03bd88f4b0f65d7518b3c6fe5,PennController,19,0,experiment,NULL,Video,progression,buffer,0,1687281467185,61608b525e4e1e9c932f1421,61608b525e4e1e9c932f1421,16,blinds,critical,B,50,blinds42.jpg,blinds60.jpg,nogoal,NULL
1687281628,f64838f03bd88f4b0f65d7518b3c6fe5,PennController,19,0,experiment,NULL,Selector,choice,Selection,option2,1687281473474,61608b525e4e1e9c932f1421,61608b525e4e1e9c932f1421,16,blinds,critical,B,50,blinds42.jpg,blinds60.jpg,nogoal,option2;option1
1687281628,f64838f03bd88f4b0f65d7518b3c6fe5,PennController,19,0,experiment,NULL,PennController,18,_Trial_,End,1687281473475,61608b525e4e1e9c932f1421,61608b525e4e1e9c932f1421,16,blinds,critical,B,50,blinds42.jpg,blinds60.jpg,nogoal,NULL
1687281628,f64838f03bd88f4b0f65d7518b3c6fe5,PennController,23,0,experiment,NULL,PennController,22,_Trial_,Start,1687281473477,61608b525e4e1e9c932f1421,61608b525e4e1e9c932f1421,20,cat,filler,B,75,cat65.jpg,cat85.jpg,nogoal,NULL
1687281628,f64838f03bd88f4b0f65d7518b3c6fe5,PennController,23,0,experiment,NULL,PennController,22,_Header_,Start,1687281473477,61608b525e4e1e9c932f1421,61608b525e4e1e9c932f1421,20,cat,filler,B,75,cat65.jpg,cat85.jpg,nogoal,NULL
1687281628,f64838f03bd88f4b0f65d7518b3c6fe5,PennController,23,0,experiment,NULL,PennController,22,_Header_,End,1687281473477,61608b525e4e1e9c932f1421,61608b525e4e1e9c932f1421,20,cat,filler,B,75,cat65.jpg,cat85.jpg,nogoal,NULL
1687281628,f64838f03bd88f4b0f65d7518b3c6fe5,PennController,23,0,experiment,NULL,Canvas,canvas6,Print,NA,1687281479178,61608b525e4e1e9c932f1421,61608b525e4e1e9c932f1421,20,cat,filler,B,75,cat65.jpg,cat85.jpg,nogoal,NULL
1687281628,f64838f03bd88f4b0f65d7518b3c6fe5,PennController,23,0,experiment,NULL,Video,progression,buffer,0.01542,1687281475016,61608b525e4e1e9c932f1421,61608b525e4e1e9c932f1421,20,cat,filler,B,75,cat65.jpg,cat85.jpg,nogoal,NULL
1687281628,f64838f03bd88f4b0f65d7518b3c6fe5,PennController,23,0,experiment,NULL,Selector,choice,Selection,option2,1687281480740,61608b525e4e1e9c932f1421,61608b525e4e1e9c932f1421,20,cat,filler,B,75,cat65.jpg,cat85.jpg,nogoal,option2;option1
1687281628,f64838f03bd88f4b0f65d7518b3c6fe5,PennController,23,0,experiment,NULL,PennController,22,_Trial_,End,1687281480742,61608b525e4e1e9c932f1421,61608b525e4e1e9c932f1421,20,cat,filler,B,75,cat65.jpg,cat85.jpg,nogoal,NULL
1687281628,f64838f03bd88f4b0f65d7518b3c6fe5,PennController,25,0,experiment,NULL,PennController,24,_Trial_,Start,1687281480743,61608b525e4e1e9c932f1421,61608b525e4e1e9c932f1421,22,wall,filler,B,50,wall40.jpg,wall60.jpg,nogoal,NULL
1687281628,f64838f03bd88f4b0f65d7518b3c6fe5,PennController,25,0,experiment,NULL,PennController,24,_Header_,Start,1687281480743,61608b525e4e1e9c932f1421,61608b525e4e1e9c932f1421,22,wall,filler,B,50,wall40.jpg,wall60.jpg,nogoal,NULL
1687281628,f64838f03bd88f4b0f65d7518b3c6fe5,PennController,25,0,experiment,NULL,PennController,24,_Header_,End,1687281480743,61608b525e4e1e9c932f1421,61608b525e4e1e9c932f1421,22,wall,filler,B,50,wall40.jpg,wall60.jpg,nogoal,NULL
1687281628,f64838f03bd88f4b0f65d7518b3c6fe5,PennController,25,0,experiment,NULL,Canvas,canvas6,Print,NA,1687281485452,61608b525e4e1e9c932f1421,61608b525e4e1e9c932f1421,22,wall,filler,B,50,wall40.jpg,wall60.jpg,nogoal,NULL
1687281628,f64838f03bd88f4b0f65d7518b3c6fe5,PennController,25,0,experiment,NULL,Video,progression,buffer,0.021519,1687281482292,61608b525e4e1e9c932f1421,61608b525e4e1e9c932f1421,22,wall,filler,B,50,wall40.jpg,wall60.jpg,nogoal,NULL
1687281628,f64838f03bd88f4b0f65d7518b3c6fe5,PennController,25,0,experiment,NULL,Selector,choice,Selection,option2,1687281488310,61608b525e4e1e9c932f1421,61608b525e4e1e9c932f1421,22,wall,filler,B,50,wall40.jpg,wall60.jpg,nogoal,option1;option2
1687281628,f64838f03bd88f4b0f65d7518b3c6fe5,PennController,25,0,experiment,NULL,PennController,24,_Trial_,End,1687281488312,61608b525e4e1e9c932f1421,61608b525e4e1e9c932f1421,22,wall,filler,B,50,wall40.jpg,wall60.jpg,nogoal,NULL
1687281628,f64838f03bd88f4b0f65d7518b3c6fe5,PennController,31,0,experiment,NULL,PennController,30,_Trial_,Start,1687281488314,61608b525e4e1e9c932f1421,61608b525e4e1e9c932f1421,28,sort,filler,B,50,sort40.jpg,sort60.jpg,nogoal,NULL
1687281628,f64838f03bd88f4b0f65d7518b3c6fe5,PennController,31,0,experiment,NULL,PennController,30,_Header_,Start,1687281488314,61608b525e4e1e9c932f1421,61608b525e4e1e9c932f1421,28,sort,filler,B,50,sort40.jpg,sort60.jpg,nogoal,NULL
1687281628,f64838f03bd88f4b0f65d7518b3c6fe5,PennController,31,0,experiment,NULL,PennController,30,_Header_,End,1687281488314,61608b525e4e1e9c932f1421,61608b525e4e1e9c932f1421,28,sort,filler,B,50,sort40.jpg,sort60.jpg,nogoal,NULL
1687281628,f64838f03bd88f4b0f65d7518b3c6fe5,PennController,31,0,experiment,NULL,Canvas,canvas6,Print,NA,1687281493013,61608b525e4e1e9c932f1421,61608b525e4e1e9c932f1421,28,sort,filler,B,50,sort40.jpg,sort60.jpg,nogoal,NULL
1687281628,f64838f03bd88f4b0f65d7518b3c6fe5,PennController,31,0,experiment,NULL,Video,progression,buffer,0.008448,1687281489847,61608b525e4e1e9c932f1421,61608b525e4e1e9c932f1421,28,sort,filler,B,50,sort40.jpg,sort60.jpg,nogoal,NULL
1687281628,f64838f03bd88f4b0f65d7518b3c6fe5,PennController,31,0,experiment,NULL,Selector,choice,Selection,option1,1687281501446,61608b525e4e1e9c932f1421,61608b525e4e1e9c932f1421,28,sort,filler,B,50,sort40.jpg,sort60.jpg,nogoal,option2;option1
1687281628,f64838f03bd88f4b0f65d7518b3c6fe5,PennController,31,0,experiment,NULL,PennController,30,_Trial_,End,1687281501448,61608b525e4e1e9c932f1421,61608b525e4e1e9c932f1421,28,sort,filler,B,50,sort40.jpg,sort60.jpg,nogoal,NULL
1687281628,f64838f03bd88f4b0f65d7518b3c6fe5,PennController,30,0,experiment,NULL,PennController,29,_Trial_,Start,1687281501449,61608b525e4e1e9c932f1421,61608b525e4e1e9c932f1421,27,square,filler,B,25,square15.jpg,square35.jpg,nogoal,NULL
1687281628,f64838f03bd88f4b0f65d7518b3c6fe5,PennController,30,0,experiment,NULL,PennController,29,_Header_,Start,1687281501449,61608b525e4e1e9c932f1421,61608b525e4e1e9c932f1421,27,square,filler,B,25,square15.jpg,square35.jpg,nogoal,NULL
1687281628,f64838f03bd88f4b0f65d7518b3c6fe5,PennController,30,0,experiment,NULL,PennController,29,_Header_,End,1687281501449,61608b525e4e1e9c932f1421,61608b525e4e1e9c932f1421,27,square,filler,B,25,square15.jpg,square35.jpg,nogoal,NULL
1687281628,f64838f03bd88f4b0f65d7518b3c6fe5,PennController,30,0,experiment,NULL,Canvas,canvas6,Print,NA,1687281505160,61608b525e4e1e9c932f1421,61608b525e4e1e9c932f1421,27,square,filler,B,25,square15.jpg,square35.jpg,nogoal,NULL
1687281628,f64838f03bd88f4b0f65d7518b3c6fe5,PennController,30,0,experiment,NULL,Video,progression,buffer,0.021198,1687281503009,61608b525e4e1e9c932f1421,61608b525e4e1e9c932f1421,27,square,filler,B,25,square15.jpg,square35.jpg,nogoal,NULL
1687281628,f64838f03bd88f4b0f65d7518b3c6fe5,PennController,30,0,experiment,NULL,Selector,choice,Selection,option2,1687281507904,61608b525e4e1e9c932f1421,61608b525e4e1e9c932f1421,27,square,filler,B,25,square15.jpg,square35.jpg,nogoal,option1;option2
1687281628,f64838f03bd88f4b0f65d7518b3c6fe5,PennController,30,0,experiment,NULL,PennController,29,_Trial_,End,1687281507906,61608b525e4e1e9c932f1421,61608b525e4e1e9c932f1421,27,square,filler,B,25,square15.jpg,square35.jpg,nogoal,NULL
1687281628,f64838f03bd88f4b0f65d7518b3c6fe5,PennController,26,0,experiment,NULL,PennController,25,_Trial_,Start,1687281507909,61608b525e4e1e9c932f1421,61608b525e4e1e9c932f1421,23,color,filler,B,75,color65.jpg,color85.jpg,nogoal,NULL
1687281628,f64838f03bd88f4b0f65d7518b3c6fe5,PennController,26,0,experiment,NULL,PennController,25,_Header_,Start,1687281507909,61608b525e4e1e9c932f1421,61608b525e4e1e9c932f1421,23,color,filler,B,75,color65.jpg,color85.jpg,nogoal,NULL
1687281628,f64838f03bd88f4b0f65d7518b3c6fe5,PennController,26,0,experiment,NULL,PennController,25,_Header_,End,1687281507909,61608b525e4e1e9c932f1421,61608b525e4e1e9c932f1421,23,color,filler,B,75,color65.jpg,color85.jpg,nogoal,NULL
1687281628,f64838f03bd88f4b0f65d7518b3c6fe5,PennController,26,0,experiment,NULL,Canvas,canvas6,Print,NA,1687281513610,61608b525e4e1e9c932f1421,61608b525e4e1e9c932f1421,23,color,filler,B,75,color65.jpg,color85.jpg,nogoal,NULL
1687281628,f64838f03bd88f4b0f65d7518b3c6fe5,PennController,26,0,experiment,NULL,Video,progression,buffer,0.008631,1687281509442,61608b525e4e1e9c932f1421,61608b525e4e1e9c932f1421,23,color,filler,B,75,color65.jpg,color85.jpg,nogoal,NULL
1687281628,f64838f03bd88f4b0f65d7518b3c6fe5,PennController,26,0,experiment,NULL,Selector,choice,Selection,option2,1687281521080,61608b525e4e1e9c932f1421,61608b525e4e1e9c932f1421,23,color,filler,B,75,color65.jpg,color85.jpg,nogoal,option2;option1
1687281628,f64838f03bd88f4b0f65d7518b3c6fe5,PennController,26,0,experiment,NULL,PennController,25,_Trial_,End,1687281521081,61608b525e4e1e9c932f1421,61608b525e4e1e9c932f1421,23,color,filler,B,75,color65.jpg,color85.jpg,nogoal,NULL
1687281628,f64838f03bd88f4b0f65d7518b3c6fe5,PennController,18,0,experiment,NULL,PennController,17,_Trial_,Start,1687281521083,61608b525e4e1e9c932f1421,61608b525e4e1e9c932f1421,15,zip,critical,B,25,zip15.jpg,zip35.jpg,nogoal,NULL
1687281628,f64838f03bd88f4b0f65d7518b3c6fe5,PennController,18,0,experiment,NULL,PennController,17,_Header_,Start,1687281521083,61608b525e4e1e9c932f1421,61608b525e4e1e9c932f1421,15,zip,critical,B,25,zip15.jpg,zip35.jpg,nogoal,NULL
1687281628,f64838f03bd88f4b0f65d7518b3c6fe5,PennController,18,0,experiment,NULL,PennController,17,_Header_,End,1687281521083,61608b525e4e1e9c932f1421,61608b525e4e1e9c932f1421,15,zip,critical,B,25,zip15.jpg,zip35.jpg,nogoal,NULL
1687281628,f64838f03bd88f4b0f65d7518b3c6fe5,PennController,18,0,experiment,NULL,Canvas,canvas6,Print,NA,1687281524790,61608b525e4e1e9c932f1421,61608b525e4e1e9c932f1421,15,zip,critical,B,25,zip15.jpg,zip35.jpg,nogoal,NULL
1687281628,f64838f03bd88f4b0f65d7518b3c6fe5,PennController,18,0,experiment,NULL,Video,progression,buffer,0.015222,1687281522622,61608b525e4e1e9c932f1421,61608b525e4e1e9c932f1421,15,zip,critical,B,25,zip15.jpg,zip35.jpg,nogoal,NULL
1687281628,f64838f03bd88f4b0f65d7518b3c6fe5,PennController,18,0,experiment,NULL,Selector,choice,Selection,option2,1687281527924,61608b525e4e1e9c932f1421,61608b525e4e1e9c932f1421,15,zip,critical,B,25,zip15.jpg,zip35.jpg,nogoal,option1;option2
1687281628,f64838f03bd88f4b0f65d7518b3c6fe5,PennController,18,0,experiment,NULL,PennController,17,_Trial_,End,1687281527926,61608b525e4e1e9c932f1421,61608b525e4e1e9c932f1421,15,zip,critical,B,25,zip15.jpg,zip35.jpg,nogoal,NULL
1687281628,f64838f03bd88f4b0f65d7518b3c6fe5,PennController,22,0,experiment,NULL,PennController,21,_Trial_,Start,1687281527927,61608b525e4e1e9c932f1421,61608b525e4e1e9c932f1421,19,cup,filler,B,50,cup40.jpg,cup60.jpg,nogoal,NULL
1687281628,f64838f03bd88f4b0f65d7518b3c6fe5,PennController,22,0,experiment,NULL,PennController,21,_Header_,Start,1687281527927,61608b525e4e1e9c932f1421,61608b525e4e1e9c932f1421,19,cup,filler,B,50,cup40.jpg,cup60.jpg,nogoal,NULL
1687281628,f64838f03bd88f4b0f65d7518b3c6fe5,PennController,22,0,experiment,NULL,PennController,21,_Header_,End,1687281527927,61608b525e4e1e9c932f1421,61608b525e4e1e9c932f1421,19,cup,filler,B,50,cup40.jpg,cup60.jpg,nogoal,NULL
1687281628,f64838f03bd88f4b0f65d7518b3c6fe5,PennController,22,0,experiment,NULL,Canvas,canvas6,Print,NA,1687281532639,61608b525e4e1e9c932f1421,61608b525e4e1e9c932f1421,19,cup,filler,B,50,cup40.jpg,cup60.jpg,nogoal,NULL
1687281628,f64838f03bd88f4b0f65d7518b3c6fe5,PennController,22,0,experiment,NULL,Video,progression,buffer,0.013228,1687281529471,61608b525e4e1e9c932f1421,61608b525e4e1e9c932f1421,19,cup,filler,B,50,cup40.jpg,cup60.jpg,nogoal,NULL
1687281628,f64838f03bd88f4b0f65d7518b3c6fe5,PennController,22,0,experiment,NULL,Selector,choice,Selection,option1,1687281534050,61608b525e4e1e9c932f1421,61608b525e4e1e9c932f1421,19,cup,filler,B,50,cup40.jpg,cup60.jpg,nogoal,option2;option1
1687281628,f64838f03bd88f4b0f65d7518b3c6fe5,PennController,22,0,experiment,NULL,PennController,21,_Trial_,End,1687281534051,61608b525e4e1e9c932f1421,61608b525e4e1e9c932f1421,19,cup,filler,B,50,cup40.jpg,cup60.jpg,nogoal,NULL
1687281628,f64838f03bd88f4b0f65d7518b3c6fe5,PennController,17,0,experiment,NULL,PennController,16,_Trial_,Start,1687281534054,61608b525e4e1e9c932f1421,61608b525e4e1e9c932f1421,14,cover,critical,B,75,cover66.jpg,cover84.jpg,nogoal,NULL
1687281628,f64838f03bd88f4b0f65d7518b3c6fe5,PennController,17,0,experiment,NULL,PennController,16,_Header_,Start,1687281534054,61608b525e4e1e9c932f1421,61608b525e4e1e9c932f1421,14,cover,critical,B,75,cover66.jpg,cover84.jpg,nogoal,NULL
1687281628,f64838f03bd88f4b0f65d7518b3c6fe5,PennController,17,0,experiment,NULL,PennController,16,_Header_,End,1687281534054,61608b525e4e1e9c932f1421,61608b525e4e1e9c932f1421,14,cover,critical,B,75,cover66.jpg,cover84.jpg,nogoal,NULL
1687281628,f64838f03bd88f4b0f65d7518b3c6fe5,PennController,17,0,experiment,NULL,Canvas,canvas6,Print,NA,1687281541750,61608b525e4e1e9c932f1421,61608b525e4e1e9c932f1421,14,cover,critical,B,75,cover66.jpg,cover84.jpg,nogoal,NULL
1687281628,f64838f03bd88f4b0f65d7518b3c6fe5,PennController,17,0,experiment,NULL,Video,progression,buffer,0.010447,1687281535589,61608b525e4e1e9c932f1421,61608b525e4e1e9c932f1421,14,cover,critical,B,75,cover66.jpg,cover84.jpg,nogoal,NULL
1687281628,f64838f03bd88f4b0f65d7518b3c6fe5,PennController,17,0,experiment,NULL,Selector,choice,Selection,option1,1687281544799,61608b525e4e1e9c932f1421,61608b525e4e1e9c932f1421,14,cover,critical,B,75,cover66.jpg,cover84.jpg,nogoal,option1;option2
1687281628,f64838f03bd88f4b0f65d7518b3c6fe5,PennController,17,0,experiment,NULL,PennController,16,_Trial_,End,1687281544800,61608b525e4e1e9c932f1421,61608b525e4e1e9c932f1421,14,cover,critical,B,75,cover66.jpg,cover84.jpg,nogoal,NULL
1687281628,f64838f03bd88f4b0f65d7518b3c6fe5,PennController,7,0,experiment,NULL,PennController,6,_Trial_,Start,1687281544802,61608b525e4e1e9c932f1421,61608b525e4e1e9c932f1421,4,candy,critical,B,50,candy40.jpg,candy60.jpg,nogoal,NULL
1687281628,f64838f03bd88f4b0f65d7518b3c6fe5,PennController,7,0,experiment,NULL,PennController,6,_Header_,Start,1687281544802,61608b525e4e1e9c932f1421,61608b525e4e1e9c932f1421,4,candy,critical,B,50,candy40.jpg,candy60.jpg,nogoal,NULL
1687281628,f64838f03bd88f4b0f65d7518b3c6fe5,PennController,7,0,experiment,NULL,PennController,6,_Header_,End,1687281544802,61608b525e4e1e9c932f1421,61608b525e4e1e9c932f1421,4,candy,critical,B,50,candy40.jpg,candy60.jpg,nogoal,NULL
1687281628,f64838f03bd88f4b0f65d7518b3c6fe5,PennController,7,0,experiment,NULL,Canvas,canvas6,Print,NA,1687281549498,61608b525e4e1e9c932f1421,61608b525e4e1e9c932f1421,4,candy,critical,B,50,candy40.jpg,candy60.jpg,nogoal,NULL
1687281628,f64838f03bd88f4b0f65d7518b3c6fe5,PennController,7,0,experiment,NULL,Video,progression,buffer,0.006991,1687281546328,61608b525e4e1e9c932f1421,61608b525e4e1e9c932f1421,4,candy,critical,B,50,candy40.jpg,candy60.jpg,nogoal,NULL
1687281628,f64838f03bd88f4b0f65d7518b3c6fe5,PennController,7,0,experiment,NULL,Selector,choice,Selection,option2,1687281552940,61608b525e4e1e9c932f1421,61608b525e4e1e9c932f1421,4,candy,critical,B,50,candy40.jpg,candy60.jpg,nogoal,option1;option2
1687281628,f64838f03bd88f4b0f65d7518b3c6fe5,PennController,7,0,experiment,NULL,PennController,6,_Trial_,End,1687281552941,61608b525e4e1e9c932f1421,61608b525e4e1e9c932f1421,4,candy,critical,B,50,candy40.jpg,candy60.jpg,nogoal,NULL
1687281628,f64838f03bd88f4b0f65d7518b3c6fe5,PennController,20,0,experiment,NULL,PennController,19,_Trial_,Start,1687281552943,61608b525e4e1e9c932f1421,61608b525e4e1e9c932f1421,17,roll,critical,B,75,roll65.jpg,roll85.jpg,nogoal,NULL
1687281628,f64838f03bd88f4b0f65d7518b3c6fe5,PennController,20,0,experiment,NULL,PennController,19,_Header_,Start,1687281552943,61608b525e4e1e9c932f1421,61608b525e4e1e9c932f1421,17,roll,critical,B,75,roll65.jpg,roll85.jpg,nogoal,NULL
1687281628,f64838f03bd88f4b0f65d7518b3c6fe5,PennController,20,0,experiment,NULL,PennController,19,_Header_,End,1687281552943,61608b525e4e1e9c932f1421,61608b525e4e1e9c932f1421,17,roll,critical,B,75,roll65.jpg,roll85.jpg,nogoal,NULL
1687281628,f64838f03bd88f4b0f65d7518b3c6fe5,PennController,20,0,experiment,NULL,Canvas,canvas6,Print,NA,1687281558643,61608b525e4e1e9c932f1421,61608b525e4e1e9c932f1421,17,roll,critical,B,75,roll65.jpg,roll85.jpg,nogoal,NULL
1687281628,f64838f03bd88f4b0f65d7518b3c6fe5,PennController,20,0,experiment,NULL,Video,progression,buffer,0.009544,1687281554474,61608b525e4e1e9c932f1421,61608b525e4e1e9c932f1421,17,roll,critical,B,75,roll65.jpg,roll85.jpg,nogoal,NULL
1687281628,f64838f03bd88f4b0f65d7518b3c6fe5,PennController,20,0,experiment,NULL,Selector,choice,Selection,option1,1687281561701,61608b525e4e1e9c932f1421,61608b525e4e1e9c932f1421,17,roll,critical,B,75,roll65.jpg,roll85.jpg,nogoal,option1;option2
1687281628,f64838f03bd88f4b0f65d7518b3c6fe5,PennController,20,0,experiment,NULL,PennController,19,_Trial_,End,1687281561702,61608b525e4e1e9c932f1421,61608b525e4e1e9c932f1421,17,roll,critical,B,75,roll65.jpg,roll85.jpg,nogoal,NULL
1687281628,f64838f03bd88f4b0f65d7518b3c6fe5,PennController,12,0,experiment,NULL,PennController,11,_Trial_,Start,1687281561704,61608b525e4e1e9c932f1421,61608b525e4e1e9c932f1421,9,cake,critical,B,25,cake15.jpg,cake33.jpg,nogoal,NULL
1687281628,f64838f03bd88f4b0f65d7518b3c6fe5,PennController,12,0,experiment,NULL,PennController,11,_Header_,Start,1687281561704,61608b525e4e1e9c932f1421,61608b525e4e1e9c932f1421,9,cake,critical,B,25,cake15.jpg,cake33.jpg,nogoal,NULL
1687281628,f64838f03bd88f4b0f65d7518b3c6fe5,PennController,12,0,experiment,NULL,PennController,11,_Header_,End,1687281561704,61608b525e4e1e9c932f1421,61608b525e4e1e9c932f1421,9,cake,critical,B,25,cake15.jpg,cake33.jpg,nogoal,NULL
1687281628,f64838f03bd88f4b0f65d7518b3c6fe5,PennController,12,0,experiment,NULL,Canvas,canvas6,Print,NA,1687281566036,61608b525e4e1e9c932f1421,61608b525e4e1e9c932f1421,9,cake,critical,B,25,cake15.jpg,cake33.jpg,nogoal,NULL
1687281628,f64838f03bd88f4b0f65d7518b3c6fe5,PennController,12,0,experiment,NULL,Video,progression,buffer,0.019322,1687281563248,61608b525e4e1e9c932f1421,61608b525e4e1e9c932f1421,9,cake,critical,B,25,cake15.jpg,cake33.jpg,nogoal,NULL
1687281628,f64838f03bd88f4b0f65d7518b3c6fe5,PennController,12,0,experiment,NULL,Selector,choice,Selection,option2,1687281567784,61608b525e4e1e9c932f1421,61608b525e4e1e9c932f1421,9,cake,critical,B,25,cake15.jpg,cake33.jpg,nogoal,option2;option1
1687281628,f64838f03bd88f4b0f65d7518b3c6fe5,PennController,12,0,experiment,NULL,PennController,11,_Trial_,End,1687281567786,61608b525e4e1e9c932f1421,61608b525e4e1e9c932f1421,9,cake,critical,B,25,cake15.jpg,cake33.jpg,nogoal,NULL
1687281628,f64838f03bd88f4b0f65d7518b3c6fe5,PennController,11,0,experiment,NULL,PennController,10,_Trial_,Start,1687281567787,61608b525e4e1e9c932f1421,61608b525e4e1e9c932f1421,8,cucumber,critical,B,75,cucumber66.jpg,cucumber84.jpg,nogoal,NULL
1687281628,f64838f03bd88f4b0f65d7518b3c6fe5,PennController,11,0,experiment,NULL,PennController,10,_Header_,Start,1687281567787,61608b525e4e1e9c932f1421,61608b525e4e1e9c932f1421,8,cucumber,critical,B,75,cucumber66.jpg,cucumber84.jpg,nogoal,NULL
1687281628,f64838f03bd88f4b0f65d7518b3c6fe5,PennController,11,0,experiment,NULL,PennController,10,_Header_,End,1687281567787,61608b525e4e1e9c932f1421,61608b525e4e1e9c932f1421,8,cucumber,critical,B,75,cucumber66.jpg,cucumber84.jpg,nogoal,NULL
1687281628,f64838f03bd88f4b0f65d7518b3c6fe5,PennController,11,0,experiment,NULL,Canvas,canvas6,Print,NA,1687281575494,61608b525e4e1e9c932f1421,61608b525e4e1e9c932f1421,8,cucumber,critical,B,75,cucumber66.jpg,cucumber84.jpg,nogoal,NULL
1687281628,f64838f03bd88f4b0f65d7518b3c6fe5,PennController,11,0,experiment,NULL,Video,progression,buffer,0.016928,1687281569334,61608b525e4e1e9c932f1421,61608b525e4e1e9c932f1421,8,cucumber,critical,B,75,cucumber66.jpg,cucumber84.jpg,nogoal,NULL
1687281628,f64838f03bd88f4b0f65d7518b3c6fe5,PennController,11,0,experiment,NULL,Selector,choice,Selection,option2,1687281578055,61608b525e4e1e9c932f1421,61608b525e4e1e9c932f1421,8,cucumber,critical,B,75,cucumber66.jpg,cucumber84.jpg,nogoal,option2;option1
1687281628,f64838f03bd88f4b0f65d7518b3c6fe5,PennController,11,0,experiment,NULL,PennController,10,_Trial_,End,1687281578056,61608b525e4e1e9c932f1421,61608b525e4e1e9c932f1421,8,cucumber,critical,B,75,cucumber66.jpg,cucumber84.jpg,nogoal,NULL
1687281628,f64838f03bd88f4b0f65d7518b3c6fe5,PennController,27,0,experiment,NULL,PennController,26,_Trial_,Start,1687281578059,61608b525e4e1e9c932f1421,61608b525e4e1e9c932f1421,24,match,filler,B,25,match15.jpg,match35.jpg,nogoal,NULL
1687281628,f64838f03bd88f4b0f65d7518b3c6fe5,PennController,27,0,experiment,NULL,PennController,26,_Header_,Start,1687281578059,61608b525e4e1e9c932f1421,61608b525e4e1e9c932f1421,24,match,filler,B,25,match15.jpg,match35.jpg,nogoal,NULL
1687281628,f64838f03bd88f4b0f65d7518b3c6fe5,PennController,27,0,experiment,NULL,PennController,26,_Header_,End,1687281578059,61608b525e4e1e9c932f1421,61608b525e4e1e9c932f1421,24,match,filler,B,25,match15.jpg,match35.jpg,nogoal,NULL
1687281628,f64838f03bd88f4b0f65d7518b3c6fe5,PennController,27,0,experiment,NULL,Canvas,canvas6,Print,NA,1687281581767,61608b525e4e1e9c932f1421,61608b525e4e1e9c932f1421,24,match,filler,B,25,match15.jpg,match35.jpg,nogoal,NULL
1687281628,f64838f03bd88f4b0f65d7518b3c6fe5,PennController,27,0,experiment,NULL,Video,progression,buffer,0.011516,1687281579595,61608b525e4e1e9c932f1421,61608b525e4e1e9c932f1421,24,match,filler,B,25,match15.jpg,match35.jpg,nogoal,NULL
1687281628,f64838f03bd88f4b0f65d7518b3c6fe5,PennController,27,0,experiment,NULL,Selector,choice,Selection,option2,1687281584232,61608b525e4e1e9c932f1421,61608b525e4e1e9c932f1421,24,match,filler,B,25,match15.jpg,match35.jpg,nogoal,option1;option2
1687281628,f64838f03bd88f4b0f65d7518b3c6fe5,PennController,27,0,experiment,NULL,PennController,26,_Trial_,End,1687281584234,61608b525e4e1e9c932f1421,61608b525e4e1e9c932f1421,24,match,filler,B,25,match15.jpg,match35.jpg,nogoal,NULL
1687281628,f64838f03bd88f4b0f65d7518b3c6fe5,PennController,9,0,experiment,NULL,PennController,8,_Trial_,Start,1687281584236,61608b525e4e1e9c932f1421,61608b525e4e1e9c932f1421,6,flower,critical,B,25,flower15.jpg,flower35.jpg,nogoal,NULL
1687281628,f64838f03bd88f4b0f65d7518b3c6fe5,PennController,9,0,experiment,NULL,PennController,8,_Header_,Start,1687281584236,61608b525e4e1e9c932f1421,61608b525e4e1e9c932f1421,6,flower,critical,B,25,flower15.jpg,flower35.jpg,nogoal,NULL
1687281628,f64838f03bd88f4b0f65d7518b3c6fe5,PennController,9,0,experiment,NULL,PennController,8,_Header_,End,1687281584236,61608b525e4e1e9c932f1421,61608b525e4e1e9c932f1421,6,flower,critical,B,25,flower15.jpg,flower35.jpg,nogoal,NULL
1687281628,f64838f03bd88f4b0f65d7518b3c6fe5,PennController,9,0,experiment,NULL,Canvas,canvas6,Print,NA,1687281587936,61608b525e4e1e9c932f1421,61608b525e4e1e9c932f1421,6,flower,critical,B,25,flower15.jpg,flower35.jpg,nogoal,NULL
1687281628,f64838f03bd88f4b0f65d7518b3c6fe5,PennController,9,0,experiment,NULL,Video,progression,buffer,0.016845,1687281585780,61608b525e4e1e9c932f1421,61608b525e4e1e9c932f1421,6,flower,critical,B,25,flower15.jpg,flower35.jpg,nogoal,NULL
1687281628,f64838f03bd88f4b0f65d7518b3c6fe5,PennController,9,0,experiment,NULL,Selector,choice,Selection,option2,1687281589108,61608b525e4e1e9c932f1421,61608b525e4e1e9c932f1421,6,flower,critical,B,25,flower15.jpg,flower35.jpg,nogoal,option1;option2
1687281628,f64838f03bd88f4b0f65d7518b3c6fe5,PennController,9,0,experiment,NULL,PennController,8,_Trial_,End,1687281589109,61608b525e4e1e9c932f1421,61608b525e4e1e9c932f1421,6,flower,critical,B,25,flower15.jpg,flower35.jpg,nogoal,NULL
1687281628,f64838f03bd88f4b0f65d7518b3c6fe5,PennController,29,0,experiment,NULL,PennController,28,_Trial_,Start,1687281589111,61608b525e4e1e9c932f1421,61608b525e4e1e9c932f1421,26,sandwich,filler,B,75,sandwich65.jpg,sandwich85.jpg,nogoal,NULL
1687281628,f64838f03bd88f4b0f65d7518b3c6fe5,PennController,29,0,experiment,NULL,PennController,28,_Header_,Start,1687281589111,61608b525e4e1e9c932f1421,61608b525e4e1e9c932f1421,26,sandwich,filler,B,75,sandwich65.jpg,sandwich85.jpg,nogoal,NULL
1687281628,f64838f03bd88f4b0f65d7518b3c6fe5,PennController,29,0,experiment,NULL,PennController,28,_Header_,End,1687281589111,61608b525e4e1e9c932f1421,61608b525e4e1e9c932f1421,26,sandwich,filler,B,75,sandwich65.jpg,sandwich85.jpg,nogoal,NULL
1687281628,f64838f03bd88f4b0f65d7518b3c6fe5,PennController,29,0,experiment,NULL,Canvas,canvas6,Print,NA,1687281594806,61608b525e4e1e9c932f1421,61608b525e4e1e9c932f1421,26,sandwich,filler,B,75,sandwich65.jpg,sandwich85.jpg,nogoal,NULL
1687281628,f64838f03bd88f4b0f65d7518b3c6fe5,PennController,29,0,experiment,NULL,Video,progression,buffer,0.011604,1687281590645,61608b525e4e1e9c932f1421,61608b525e4e1e9c932f1421,26,sandwich,filler,B,75,sandwich65.jpg,sandwich85.jpg,nogoal,NULL
1687281628,f64838f03bd88f4b0f65d7518b3c6fe5,PennController,29,0,experiment,NULL,Selector,choice,Selection,option2,1687281595957,61608b525e4e1e9c932f1421,61608b525e4e1e9c932f1421,26,sandwich,filler,B,75,sandwich65.jpg,sandwich85.jpg,nogoal,option2;option1
1687281628,f64838f03bd88f4b0f65d7518b3c6fe5,PennController,29,0,experiment,NULL,PennController,28,_Trial_,End,1687281595958,61608b525e4e1e9c932f1421,61608b525e4e1e9c932f1421,26,sandwich,filler,B,75,sandwich65.jpg,sandwich85.jpg,nogoal,NULL
1687281628,f64838f03bd88f4b0f65d7518b3c6fe5,PennController,13,0,experiment,NULL,PennController,12,_Trial_,Start,1687281595960,61608b525e4e1e9c932f1421,61608b525e4e1e9c932f1421,10,train,critical,B,50,train40.jpg,train60.jpg,nogoal,NULL
1687281628,f64838f03bd88f4b0f65d7518b3c6fe5,PennController,13,0,experiment,NULL,PennController,12,_Header_,Start,1687281595960,61608b525e4e1e9c932f1421,61608b525e4e1e9c932f1421,10,train,critical,B,50,train40.jpg,train60.jpg,nogoal,NULL
1687281628,f64838f03bd88f4b0f65d7518b3c6fe5,PennController,13,0,experiment,NULL,PennController,12,_Header_,End,1687281595960,61608b525e4e1e9c932f1421,61608b525e4e1e9c932f1421,10,train,critical,B,50,train40.jpg,train60.jpg,nogoal,NULL
1687281628,f64838f03bd88f4b0f65d7518b3c6fe5,PennController,13,0,experiment,NULL,Canvas,canvas6,Print,NA,1687281600668,61608b525e4e1e9c932f1421,61608b525e4e1e9c932f1421,10,train,critical,B,50,train40.jpg,train60.jpg,nogoal,NULL
1687281628,f64838f03bd88f4b0f65d7518b3c6fe5,PennController,13,0,experiment,NULL,Video,progression,buffer,0.017926,1687281597504,61608b525e4e1e9c932f1421,61608b525e4e1e9c932f1421,10,train,critical,B,50,train40.jpg,train60.jpg,nogoal,NULL
1687281628,f64838f03bd88f4b0f65d7518b3c6fe5,PennController,13,0,experiment,NULL,Selector,choice,Selection,option2,1687281602418,61608b525e4e1e9c932f1421,61608b525e4e1e9c932f1421,10,train,critical,B,50,train40.jpg,train60.jpg,nogoal,option1;option2
1687281628,f64838f03bd88f4b0f65d7518b3c6fe5,PennController,13,0,experiment,NULL,PennController,12,_Trial_,End,1687281602420,61608b525e4e1e9c932f1421,61608b525e4e1e9c932f1421,10,train,critical,B,50,train40.jpg,train60.jpg,nogoal,NULL
1687281628,f64838f03bd88f4b0f65d7518b3c6fe5,PennController,8,0,experiment,NULL,PennController,7,_Trial_,Start,1687281602422,61608b525e4e1e9c932f1421,61608b525e4e1e9c932f1421,5,book,critical,B,75,book65.jpg,book85.jpg,nogoal,NULL
1687281628,f64838f03bd88f4b0f65d7518b3c6fe5,PennController,8,0,experiment,NULL,PennController,7,_Header_,Start,1687281602422,61608b525e4e1e9c932f1421,61608b525e4e1e9c932f1421,5,book,critical,B,75,book65.jpg,book85.jpg,nogoal,NULL
1687281628,f64838f03bd88f4b0f65d7518b3c6fe5,PennController,8,0,experiment,NULL,PennController,7,_Header_,End,1687281602422,61608b525e4e1e9c932f1421,61608b525e4e1e9c932f1421,5,book,critical,B,75,book65.jpg,book85.jpg,nogoal,NULL
1687281628,f64838f03bd88f4b0f65d7518b3c6fe5,PennController,8,0,experiment,NULL,Canvas,canvas6,Print,NA,1687281608116,61608b525e4e1e9c932f1421,61608b525e4e1e9c932f1421,5,book,critical,B,75,book65.jpg,book85.jpg,nogoal,NULL
1687281628,f64838f03bd88f4b0f65d7518b3c6fe5,PennController,8,0,experiment,NULL,Video,progression,buffer,0.010418,1687281603955,61608b525e4e1e9c932f1421,61608b525e4e1e9c932f1421,5,book,critical,B,75,book65.jpg,book85.jpg,nogoal,NULL
1687281628,f64838f03bd88f4b0f65d7518b3c6fe5,PennController,8,0,experiment,NULL,Selector,choice,Selection,option1,1687281610273,61608b525e4e1e9c932f1421,61608b525e4e1e9c932f1421,5,book,critical,B,75,book65.jpg,book85.jpg,nogoal,option1;option2
1687281628,f64838f03bd88f4b0f65d7518b3c6fe5,PennController,8,0,experiment,NULL,PennController,7,_Trial_,End,1687281610274,61608b525e4e1e9c932f1421,61608b525e4e1e9c932f1421,5,book,critical,B,75,book65.jpg,book85.jpg,nogoal,NULL
1687281628,f64838f03bd88f4b0f65d7518b3c6fe5,PennController,14,0,experiment,NULL,PennController,13,_Trial_,Start,1687281610275,61608b525e4e1e9c932f1421,61608b525e4e1e9c932f1421,11,beads,critical,B,75,beads65.jpg,beads85.jpg,nogoal,NULL
1687281628,f64838f03bd88f4b0f65d7518b3c6fe5,PennController,14,0,experiment,NULL,PennController,13,_Header_,Start,1687281610275,61608b525e4e1e9c932f1421,61608b525e4e1e9c932f1421,11,beads,critical,B,75,beads65.jpg,beads85.jpg,nogoal,NULL
1687281628,f64838f03bd88f4b0f65d7518b3c6fe5,PennController,14,0,experiment,NULL,PennController,13,_Header_,End,1687281610275,61608b525e4e1e9c932f1421,61608b525e4e1e9c932f1421,11,beads,critical,B,75,beads65.jpg,beads85.jpg,nogoal,NULL
1687281628,f64838f03bd88f4b0f65d7518b3c6fe5,PennController,14,0,experiment,NULL,Canvas,canvas6,Print,NA,1687281615980,61608b525e4e1e9c932f1421,61608b525e4e1e9c932f1421,11,beads,critical,B,75,beads65.jpg,beads85.jpg,nogoal,NULL
1687281628,f64838f03bd88f4b0f65d7518b3c6fe5,PennController,14,0,experiment,NULL,Video,progression,buffer,0.017218,1687281611817,61608b525e4e1e9c932f1421,61608b525e4e1e9c932f1421,11,beads,critical,B,75,beads65.jpg,beads85.jpg,nogoal,NULL
1687281628,f64838f03bd88f4b0f65d7518b3c6fe5,PennController,14,0,experiment,NULL,Selector,choice,Selection,option2,1687281619308,61608b525e4e1e9c932f1421,61608b525e4e1e9c932f1421,11,beads,critical,B,75,beads65.jpg,beads85.jpg,nogoal,option1;option2
1687281628,f64838f03bd88f4b0f65d7518b3c6fe5,PennController,14,0,experiment,NULL,PennController,13,_Trial_,End,1687281619311,61608b525e4e1e9c932f1421,61608b525e4e1e9c932f1421,11,beads,critical,B,75,beads65.jpg,beads85.jpg,nogoal,NULL
1687281628,f64838f03bd88f4b0f65d7518b3c6fe5,PennController,28,0,experiment,NULL,PennController,27,_Trial_,Start,1687281619313,61608b525e4e1e9c932f1421,61608b525e4e1e9c932f1421,25,house,filler,B,50,house40.jpg,house60.jpg,nogoal,NULL
1687281628,f64838f03bd88f4b0f65d7518b3c6fe5,PennController,28,0,experiment,NULL,PennController,27,_Header_,Start,1687281619313,61608b525e4e1e9c932f1421,61608b525e4e1e9c932f1421,25,house,filler,B,50,house40.jpg,house60.jpg,nogoal,NULL
1687281628,f64838f03bd88f4b0f65d7518b3c6fe5,PennController,28,0,experiment,NULL,PennController,27,_Header_,End,1687281619313,61608b525e4e1e9c932f1421,61608b525e4e1e9c932f1421,25,house,filler,B,50,house40.jpg,house60.jpg,nogoal,NULL
1687281628,f64838f03bd88f4b0f65d7518b3c6fe5,PennController,28,0,experiment,NULL,Canvas,canvas6,Print,NA,1687281624012,61608b525e4e1e9c932f1421,61608b525e4e1e9c932f1421,25,house,filler,B,50,house40.jpg,house60.jpg,nogoal,NULL
1687281628,f64838f03bd88f4b0f65d7518b3c6fe5,PennController,28,0,experiment,NULL,Video,progression,buffer,0.012406,1687281620851,61608b525e4e1e9c932f1421,61608b525e4e1e9c932f1421,25,house,filler,B,50,house40.jpg,house60.jpg,nogoal,NULL
1687281628,f64838f03bd88f4b0f65d7518b3c6fe5,PennController,28,0,experiment,NULL,Selector,choice,Selection,option2,1687281628144,61608b525e4e1e9c932f1421,61608b525e4e1e9c932f1421,25,house,filler,B,50,house40.jpg,house60.jpg,nogoal,option1;option2
1687281628,f64838f03bd88f4b0f65d7518b3c6fe5,PennController,28,0,experiment,NULL,PennController,27,_Trial_,End,1687281628146,61608b525e4e1e9c932f1421,61608b525e4e1e9c932f1421,25,house,filler,B,50,house40.jpg,house60.jpg,nogoal,NULL
1687281628,f64838f03bd88f4b0f65d7518b3c6fe5,PennController,15,0,experiment,NULL,PennController,14,_Trial_,Start,1687281628147,61608b525e4e1e9c932f1421,61608b525e4e1e9c932f1421,12,erase,critical,B,25,erase15.jpg,erase33.jpg,nogoal,NULL
1687281628,f64838f03bd88f4b0f65d7518b3c6fe5,PennController,15,0,experiment,NULL,PennController,14,_Header_,Start,1687281628147,61608b525e4e1e9c932f1421,61608b525e4e1e9c932f1421,12,erase,critical,B,25,erase15.jpg,erase33.jpg,nogoal,NULL
1687281628,f64838f03bd88f4b0f65d7518b3c6fe5,PennController,15,0,experiment,NULL,PennController,14,_Header_,End,1687281628147,61608b525e4e1e9c932f1421,61608b525e4e1e9c932f1421,12,erase,critical,B,25,erase15.jpg,erase33.jpg,nogoal,NULL
1687281628,f64838f03bd88f4b0f65d7518b3c6fe5,PennController,15,0,experiment,NULL,Canvas,canvas6,Print,NA,1687281632446,61608b525e4e1e9c932f1421,61608b525e4e1e9c932f1421,12,erase,critical,B,25,erase15.jpg,erase33.jpg,nogoal,NULL
1687281628,f64838f03bd88f4b0f65d7518b3c6fe5,PennController,15,0,experiment,NULL,Video,progression,buffer,0.013408,1687281629684,61608b525e4e1e9c932f1421,61608b525e4e1e9c932f1421,12,erase,critical,B,25,erase15.jpg,erase33.jpg,nogoal,NULL
1687281628,f64838f03bd88f4b0f65d7518b3c6fe5,PennController,15,0,experiment,NULL,Selector,choice,Selection,option2,1687281634426,61608b525e4e1e9c932f1421,61608b525e4e1e9c932f1421,12,erase,critical,B,25,erase15.jpg,erase33.jpg,nogoal,option2;option1
1687281628,f64838f03bd88f4b0f65d7518b3c6fe5,PennController,15,0,experiment,NULL,PennController,14,_Trial_,End,1687281634427,61608b525e4e1e9c932f1421,61608b525e4e1e9c932f1421,12,erase,critical,B,25,erase15.jpg,erase33.jpg,nogoal,NULL
