#
# Results on Tuesday June 20 2023 17:18:21 UTC
# USER AGENT: Mozilla/5.0 (Windows NT 10.0; Win64; x64) AppleWebKit/537.36 (KHTML, like Gecko) Chrome/113.0.0.0 Safari/537.36 OPR/99.0.0.0
# Design number was non-random = 4
#
# Columns below this comment are as follows:
# 1. Results reception time.
# 2. MD5 hash of participant's IP address.
# 3. Controller name.
# 4. Order number of item.
# 5. Inner element number.
# 6. Label.
# 7. Latin Square Group.
# 8. PennElementType.
# 9. PennElementName.
# 10. Parameter.
# 11. Value.
# 12. EventTime.
# 13. PROLIFIC_ID.
# 14. Comments.
1687281501,3159d318495612b5fd976c89fc4c4be9,PennController,2,0,consent,NULL,PennController,0,_Trial_,Start,1687281301820,5ff5922c4721d5000981fcde,NULL
1687281501,3159d318495612b5fd976c89fc4c4be9,PennController,2,0,consent,NULL,PennController,0,_Header_,Start,1687281301820,5ff5922c4721d5000981fcde,NULL
1687281501,3159d318495612b5fd976c89fc4c4be9,PennController,2,0,consent,NULL,PennController,0,_Header_,End,1687281301820,5ff5922c4721d5000981fcde,NULL
1687281501,3159d318495612b5fd976c89fc4c4be9,PennController,2,0,consent,NULL,PennController,0,_Trial_,End,1687281304754,5ff5922c4721d5000981fcde,NULL
# Columns below this comment are as follows:
# 14. ID.
# 15. Comments.
1687281501,3159d318495612b5fd976c89fc4c4be9,PennController,3,0,intro,NULL,PennController,1,_Trial_,Start,1687281304756,5ff5922c4721d5000981fcde,5ff5922c4721d5000981fcde,NULL
1687281501,3159d318495612b5fd976c89fc4c4be9,PennController,3,0,intro,NULL,PennController,1,_Header_,Start,1687281304756,5ff5922c4721d5000981fcde,5ff5922c4721d5000981fcde,NULL
1687281501,3159d318495612b5fd976c89fc4c4be9,PennController,3,0,intro,NULL,PennController,1,_Header_,End,1687281304756,5ff5922c4721d5000981fcde,5ff5922c4721d5000981fcde,NULL
1687281501,3159d318495612b5fd976c89fc4c4be9,PennController,3,0,intro,NULL,PennController,1,_Trial_,End,1687281309727,5ff5922c4721d5000981fcde,5ff5922c4721d5000981fcde,NULL
# Columns below this comment are as follows:
# 15. item_number.
# 16. item.
# 17. type.
# 18. Group.
# 19. prog.
# 20. prev_image.
# 21. next_image.
# 22. height.
# 23. Comments.
1687281501,3159d318495612b5fd976c89fc4c4be9,PennController,9,0,experiment,NULL,PennController,8,_Trial_,Start,1687281309728,5ff5922c4721d5000981fcde,5ff5922c4721d5000981fcde,6,flower,critical,B,25,flower15.jpg,flower35.jpg,nogoal,NULL
1687281501,3159d318495612b5fd976c89fc4c4be9,PennController,9,0,experiment,NULL,PennController,8,_Header_,Start,1687281309728,5ff5922c4721d5000981fcde,5ff5922c4721d5000981fcde,6,flower,critical,B,25,flower15.jpg,flower35.jpg,nogoal,NULL
1687281501,3159d318495612b5fd976c89fc4c4be9,PennController,9,0,experiment,NULL,PennController,8,_Header_,End,1687281309728,5ff5922c4721d5000981fcde,5ff5922c4721d5000981fcde,6,flower,critical,B,25,flower15.jpg,flower35.jpg,nogoal,NULL
1687281501,3159d318495612b5fd976c89fc4c4be9,PennController,9,0,experiment,NULL,Canvas,canvas6,Print,NA,1687281313432,5ff5922c4721d5000981fcde,5ff5922c4721d5000981fcde,6,flower,critical,B,25,flower15.jpg,flower35.jpg,nogoal,NULL
1687281501,3159d318495612b5fd976c89fc4c4be9,PennController,9,0,experiment,NULL,Video,progression,buffer,0.003413,1687281311245,5ff5922c4721d5000981fcde,5ff5922c4721d5000981fcde,6,flower,critical,B,25,flower15.jpg,flower35.jpg,nogoal,NULL
1687281501,3159d318495612b5fd976c89fc4c4be9,PennController,9,0,experiment,NULL,Selector,choice,Selection,option1,1687281316723,5ff5922c4721d5000981fcde,5ff5922c4721d5000981fcde,6,flower,critical,B,25,flower15.jpg,flower35.jpg,nogoal,option2;option1
1687281501,3159d318495612b5fd976c89fc4c4be9,PennController,9,0,experiment,NULL,PennController,8,_Trial_,End,1687281316724,5ff5922c4721d5000981fcde,5ff5922c4721d5000981fcde,6,flower,critical,B,25,flower15.jpg,flower35.jpg,nogoal,NULL
1687281501,3159d318495612b5fd976c89fc4c4be9,PennController,11,0,experiment,NULL,PennController,10,_Trial_,Start,1687281316725,5ff5922c4721d5000981fcde,5ff5922c4721d5000981fcde,8,cucumber,critical,B,75,cucumber66.jpg,cucumber84.jpg,nogoal,NULL
1687281501,3159d318495612b5fd976c89fc4c4be9,PennController,11,0,experiment,NULL,PennController,10,_Header_,Start,1687281316725,5ff5922c4721d5000981fcde,5ff5922c4721d5000981fcde,8,cucumber,critical,B,75,cucumber66.jpg,cucumber84.jpg,nogoal,NULL
1687281501,3159d318495612b5fd976c89fc4c4be9,PennController,11,0,experiment,NULL,PennController,10,_Header_,End,1687281316725,5ff5922c4721d5000981fcde,5ff5922c4721d5000981fcde,8,cucumber,critical,B,75,cucumber66.jpg,cucumber84.jpg,nogoal,NULL
1687281501,3159d318495612b5fd976c89fc4c4be9,PennController,11,0,experiment,NULL,Canvas,canvas6,Print,NA,1687281324425,5ff5922c4721d5000981fcde,5ff5922c4721d5000981fcde,8,cucumber,critical,B,75,cucumber66.jpg,cucumber84.jpg,nogoal,NULL
1687281501,3159d318495612b5fd976c89fc4c4be9,PennController,11,0,experiment,NULL,Video,progression,buffer,0.001846,1687281318236,5ff5922c4721d5000981fcde,5ff5922c4721d5000981fcde,8,cucumber,critical,B,75,cucumber66.jpg,cucumber84.jpg,nogoal,NULL
1687281501,3159d318495612b5fd976c89fc4c4be9,PennController,11,0,experiment,NULL,Selector,choice,Selection,option1,1687281326994,5ff5922c4721d5000981fcde,5ff5922c4721d5000981fcde,8,cucumber,critical,B,75,cucumber66.jpg,cucumber84.jpg,nogoal,option1;option2
1687281501,3159d318495612b5fd976c89fc4c4be9,PennController,11,0,experiment,NULL,PennController,10,_Trial_,End,1687281326995,5ff5922c4721d5000981fcde,5ff5922c4721d5000981fcde,8,cucumber,critical,B,75,cucumber66.jpg,cucumber84.jpg,nogoal,NULL
1687281501,3159d318495612b5fd976c89fc4c4be9,PennController,18,0,experiment,NULL,PennController,17,_Trial_,Start,1687281326996,5ff5922c4721d5000981fcde,5ff5922c4721d5000981fcde,15,zip,critical,B,25,zip15.jpg,zip35.jpg,nogoal,NULL
1687281501,3159d318495612b5fd976c89fc4c4be9,PennController,18,0,experiment,NULL,PennController,17,_Header_,Start,1687281326996,5ff5922c4721d5000981fcde,5ff5922c4721d5000981fcde,15,zip,critical,B,25,zip15.jpg,zip35.jpg,nogoal,NULL
1687281501,3159d318495612b5fd976c89fc4c4be9,PennController,18,0,experiment,NULL,PennController,17,_Header_,End,1687281326996,5ff5922c4721d5000981fcde,5ff5922c4721d5000981fcde,15,zip,critical,B,25,zip15.jpg,zip35.jpg,nogoal,NULL
1687281501,3159d318495612b5fd976c89fc4c4be9,PennController,18,0,experiment,NULL,Canvas,canvas6,Print,NA,1687281330696,5ff5922c4721d5000981fcde,5ff5922c4721d5000981fcde,15,zip,critical,B,25,zip15.jpg,zip35.jpg,nogoal,NULL
1687281501,3159d318495612b5fd976c89fc4c4be9,PennController,18,0,experiment,NULL,Video,progression,buffer,0.001496,1687281328503,5ff5922c4721d5000981fcde,5ff5922c4721d5000981fcde,15,zip,critical,B,25,zip15.jpg,zip35.jpg,nogoal,NULL
1687281501,3159d318495612b5fd976c89fc4c4be9,PennController,18,0,experiment,NULL,Selector,choice,Selection,option1,1687281333446,5ff5922c4721d5000981fcde,5ff5922c4721d5000981fcde,15,zip,critical,B,25,zip15.jpg,zip35.jpg,nogoal,option2;option1
1687281501,3159d318495612b5fd976c89fc4c4be9,PennController,18,0,experiment,NULL,PennController,17,_Trial_,End,1687281333446,5ff5922c4721d5000981fcde,5ff5922c4721d5000981fcde,15,zip,critical,B,25,zip15.jpg,zip35.jpg,nogoal,NULL
1687281501,3159d318495612b5fd976c89fc4c4be9,PennController,10,0,experiment,NULL,PennController,9,_Trial_,Start,1687281333447,5ff5922c4721d5000981fcde,5ff5922c4721d5000981fcde,7,stack,critical,B,50,stack40.jpg,stack60.jpg,nogoal,NULL
1687281501,3159d318495612b5fd976c89fc4c4be9,PennController,10,0,experiment,NULL,PennController,9,_Header_,Start,1687281333447,5ff5922c4721d5000981fcde,5ff5922c4721d5000981fcde,7,stack,critical,B,50,stack40.jpg,stack60.jpg,nogoal,NULL
1687281501,3159d318495612b5fd976c89fc4c4be9,PennController,10,0,experiment,NULL,PennController,9,_Header_,End,1687281333447,5ff5922c4721d5000981fcde,5ff5922c4721d5000981fcde,7,stack,critical,B,50,stack40.jpg,stack60.jpg,nogoal,NULL
1687281501,3159d318495612b5fd976c89fc4c4be9,PennController,10,0,experiment,NULL,Canvas,canvas6,Print,NA,1687281338146,5ff5922c4721d5000981fcde,5ff5922c4721d5000981fcde,7,stack,critical,B,50,stack40.jpg,stack60.jpg,nogoal,NULL
1687281501,3159d318495612b5fd976c89fc4c4be9,PennController,10,0,experiment,NULL,Video,progression,buffer,0.002609,1687281334961,5ff5922c4721d5000981fcde,5ff5922c4721d5000981fcde,7,stack,critical,B,50,stack40.jpg,stack60.jpg,nogoal,NULL
1687281501,3159d318495612b5fd976c89fc4c4be9,PennController,10,0,experiment,NULL,Selector,choice,Selection,option2,1687281341413,5ff5922c4721d5000981fcde,5ff5922c4721d5000981fcde,7,stack,critical,B,50,stack40.jpg,stack60.jpg,nogoal,option2;option1
1687281501,3159d318495612b5fd976c89fc4c4be9,PennController,10,0,experiment,NULL,PennController,9,_Trial_,End,1687281341414,5ff5922c4721d5000981fcde,5ff5922c4721d5000981fcde,7,stack,critical,B,50,stack40.jpg,stack60.jpg,nogoal,NULL
1687281501,3159d318495612b5fd976c89fc4c4be9,PennController,22,0,experiment,NULL,PennController,21,_Trial_,Start,1687281341415,5ff5922c4721d5000981fcde,5ff5922c4721d5000981fcde,19,cup,filler,B,50,cup40.jpg,cup60.jpg,nogoal,NULL
1687281501,3159d318495612b5fd976c89fc4c4be9,PennController,22,0,experiment,NULL,PennController,21,_Header_,Start,1687281341415,5ff5922c4721d5000981fcde,5ff5922c4721d5000981fcde,19,cup,filler,B,50,cup40.jpg,cup60.jpg,nogoal,NULL
1687281501,3159d318495612b5fd976c89fc4c4be9,PennController,22,0,experiment,NULL,PennController,21,_Header_,End,1687281341415,5ff5922c4721d5000981fcde,5ff5922c4721d5000981fcde,19,cup,filler,B,50,cup40.jpg,cup60.jpg,nogoal,NULL
1687281501,3159d318495612b5fd976c89fc4c4be9,PennController,22,0,experiment,NULL,Canvas,canvas6,Print,NA,1687281346121,5ff5922c4721d5000981fcde,5ff5922c4721d5000981fcde,19,cup,filler,B,50,cup40.jpg,cup60.jpg,nogoal,NULL
1687281501,3159d318495612b5fd976c89fc4c4be9,PennController,22,0,experiment,NULL,Video,progression,buffer,0.001402,1687281342928,5ff5922c4721d5000981fcde,5ff5922c4721d5000981fcde,19,cup,filler,B,50,cup40.jpg,cup60.jpg,nogoal,NULL
1687281501,3159d318495612b5fd976c89fc4c4be9,PennController,22,0,experiment,NULL,Selector,choice,Selection,option1,1687281348034,5ff5922c4721d5000981fcde,5ff5922c4721d5000981fcde,19,cup,filler,B,50,cup40.jpg,cup60.jpg,nogoal,option1;option2
1687281501,3159d318495612b5fd976c89fc4c4be9,PennController,22,0,experiment,NULL,PennController,21,_Trial_,End,1687281348034,5ff5922c4721d5000981fcde,5ff5922c4721d5000981fcde,19,cup,filler,B,50,cup40.jpg,cup60.jpg,nogoal,NULL
1687281501,3159d318495612b5fd976c89fc4c4be9,PennController,6,0,experiment,NULL,PennController,5,_Trial_,Start,1687281348035,5ff5922c4721d5000981fcde,5ff5922c4721d5000981fcde,3,clean,critical,B,25,clean15.jpg,clean35.jpg,nogoal,NULL
1687281501,3159d318495612b5fd976c89fc4c4be9,PennController,6,0,experiment,NULL,PennController,5,_Header_,Start,1687281348035,5ff5922c4721d5000981fcde,5ff5922c4721d5000981fcde,3,clean,critical,B,25,clean15.jpg,clean35.jpg,nogoal,NULL
1687281501,3159d318495612b5fd976c89fc4c4be9,PennController,6,0,experiment,NULL,PennController,5,_Header_,End,1687281348035,5ff5922c4721d5000981fcde,5ff5922c4721d5000981fcde,3,clean,critical,B,25,clean15.jpg,clean35.jpg,nogoal,NULL
1687281501,3159d318495612b5fd976c89fc4c4be9,PennController,6,0,experiment,NULL,Canvas,canvas6,Print,NA,1687281351738,5ff5922c4721d5000981fcde,5ff5922c4721d5000981fcde,3,clean,critical,B,25,clean15.jpg,clean35.jpg,nogoal,NULL
1687281501,3159d318495612b5fd976c89fc4c4be9,PennController,6,0,experiment,NULL,Video,progression,buffer,0.001285,1687281349543,5ff5922c4721d5000981fcde,5ff5922c4721d5000981fcde,3,clean,critical,B,25,clean15.jpg,clean35.jpg,nogoal,NULL
1687281501,3159d318495612b5fd976c89fc4c4be9,PennController,6,0,experiment,NULL,Selector,choice,Selection,option2,1687281354176,5ff5922c4721d5000981fcde,5ff5922c4721d5000981fcde,3,clean,critical,B,25,clean15.jpg,clean35.jpg,nogoal,option1;option2
1687281501,3159d318495612b5fd976c89fc4c4be9,PennController,6,0,experiment,NULL,PennController,5,_Trial_,End,1687281354176,5ff5922c4721d5000981fcde,5ff5922c4721d5000981fcde,3,clean,critical,B,25,clean15.jpg,clean35.jpg,nogoal,NULL
1687281501,3159d318495612b5fd976c89fc4c4be9,PennController,21,0,experiment,NULL,PennController,20,_Trial_,Start,1687281354177,5ff5922c4721d5000981fcde,5ff5922c4721d5000981fcde,18,ball,critical,B,25,ball15.jpg,ball35.jpg,nogoal,NULL
1687281501,3159d318495612b5fd976c89fc4c4be9,PennController,21,0,experiment,NULL,PennController,20,_Header_,Start,1687281354177,5ff5922c4721d5000981fcde,5ff5922c4721d5000981fcde,18,ball,critical,B,25,ball15.jpg,ball35.jpg,nogoal,NULL
1687281501,3159d318495612b5fd976c89fc4c4be9,PennController,21,0,experiment,NULL,PennController,20,_Header_,End,1687281354177,5ff5922c4721d5000981fcde,5ff5922c4721d5000981fcde,18,ball,critical,B,25,ball15.jpg,ball35.jpg,nogoal,NULL
1687281501,3159d318495612b5fd976c89fc4c4be9,PennController,21,0,experiment,NULL,Canvas,canvas6,Print,NA,1687281357883,5ff5922c4721d5000981fcde,5ff5922c4721d5000981fcde,18,ball,critical,B,25,ball15.jpg,ball35.jpg,nogoal,NULL
1687281501,3159d318495612b5fd976c89fc4c4be9,PennController,21,0,experiment,NULL,Video,progression,buffer,0.001902,1687281355689,5ff5922c4721d5000981fcde,5ff5922c4721d5000981fcde,18,ball,critical,B,25,ball15.jpg,ball35.jpg,nogoal,NULL
1687281501,3159d318495612b5fd976c89fc4c4be9,PennController,21,0,experiment,NULL,Selector,choice,Selection,option1,1687281359712,5ff5922c4721d5000981fcde,5ff5922c4721d5000981fcde,18,ball,critical,B,25,ball15.jpg,ball35.jpg,nogoal,option1;option2
1687281501,3159d318495612b5fd976c89fc4c4be9,PennController,21,0,experiment,NULL,PennController,20,_Trial_,End,1687281359713,5ff5922c4721d5000981fcde,5ff5922c4721d5000981fcde,18,ball,critical,B,25,ball15.jpg,ball35.jpg,nogoal,NULL
1687281501,3159d318495612b5fd976c89fc4c4be9,PennController,27,0,experiment,NULL,PennController,26,_Trial_,Start,1687281359713,5ff5922c4721d5000981fcde,5ff5922c4721d5000981fcde,24,match,filler,B,25,match15.jpg,match35.jpg,nogoal,NULL
1687281501,3159d318495612b5fd976c89fc4c4be9,PennController,27,0,experiment,NULL,PennController,26,_Header_,Start,1687281359713,5ff5922c4721d5000981fcde,5ff5922c4721d5000981fcde,24,match,filler,B,25,match15.jpg,match35.jpg,nogoal,NULL
1687281501,3159d318495612b5fd976c89fc4c4be9,PennController,27,0,experiment,NULL,PennController,26,_Header_,End,1687281359713,5ff5922c4721d5000981fcde,5ff5922c4721d5000981fcde,24,match,filler,B,25,match15.jpg,match35.jpg,nogoal,NULL
1687281501,3159d318495612b5fd976c89fc4c4be9,PennController,27,0,experiment,NULL,Canvas,canvas6,Print,NA,1687281363418,5ff5922c4721d5000981fcde,5ff5922c4721d5000981fcde,24,match,filler,B,25,match15.jpg,match35.jpg,nogoal,NULL
1687281501,3159d318495612b5fd976c89fc4c4be9,PennController,27,0,experiment,NULL,Video,progression,buffer,0.001419,1687281361227,5ff5922c4721d5000981fcde,5ff5922c4721d5000981fcde,24,match,filler,B,25,match15.jpg,match35.jpg,nogoal,NULL
1687281501,3159d318495612b5fd976c89fc4c4be9,PennController,27,0,experiment,NULL,Selector,choice,Selection,option2,1687281365240,5ff5922c4721d5000981fcde,5ff5922c4721d5000981fcde,24,match,filler,B,25,match15.jpg,match35.jpg,nogoal,option2;option1
1687281501,3159d318495612b5fd976c89fc4c4be9,PennController,27,0,experiment,NULL,PennController,26,_Trial_,End,1687281365241,5ff5922c4721d5000981fcde,5ff5922c4721d5000981fcde,24,match,filler,B,25,match15.jpg,match35.jpg,nogoal,NULL
1687281501,3159d318495612b5fd976c89fc4c4be9,PennController,31,0,experiment,NULL,PennController,30,_Trial_,Start,1687281365242,5ff5922c4721d5000981fcde,5ff5922c4721d5000981fcde,28,sort,filler,B,50,sort40.jpg,sort60.jpg,nogoal,NULL
1687281501,3159d318495612b5fd976c89fc4c4be9,PennController,31,0,experiment,NULL,PennController,30,_Header_,Start,1687281365242,5ff5922c4721d5000981fcde,5ff5922c4721d5000981fcde,28,sort,filler,B,50,sort40.jpg,sort60.jpg,nogoal,NULL
1687281501,3159d318495612b5fd976c89fc4c4be9,PennController,31,0,experiment,NULL,PennController,30,_Header_,End,1687281365242,5ff5922c4721d5000981fcde,5ff5922c4721d5000981fcde,28,sort,filler,B,50,sort40.jpg,sort60.jpg,nogoal,NULL
1687281501,3159d318495612b5fd976c89fc4c4be9,PennController,31,0,experiment,NULL,Canvas,canvas6,Print,NA,1687281369940,5ff5922c4721d5000981fcde,5ff5922c4721d5000981fcde,28,sort,filler,B,50,sort40.jpg,sort60.jpg,nogoal,NULL
1687281501,3159d318495612b5fd976c89fc4c4be9,PennController,31,0,experiment,NULL,Video,progression,buffer,0.00201,1687281366750,5ff5922c4721d5000981fcde,5ff5922c4721d5000981fcde,28,sort,filler,B,50,sort40.jpg,sort60.jpg,nogoal,NULL
1687281501,3159d318495612b5fd976c89fc4c4be9,PennController,31,0,experiment,NULL,Selector,choice,Selection,option2,1687281371663,5ff5922c4721d5000981fcde,5ff5922c4721d5000981fcde,28,sort,filler,B,50,sort40.jpg,sort60.jpg,nogoal,option2;option1
1687281501,3159d318495612b5fd976c89fc4c4be9,PennController,31,0,experiment,NULL,PennController,30,_Trial_,End,1687281371664,5ff5922c4721d5000981fcde,5ff5922c4721d5000981fcde,28,sort,filler,B,50,sort40.jpg,sort60.jpg,nogoal,NULL
1687281501,3159d318495612b5fd976c89fc4c4be9,PennController,26,0,experiment,NULL,PennController,25,_Trial_,Start,1687281371664,5ff5922c4721d5000981fcde,5ff5922c4721d5000981fcde,23,color,filler,B,75,color65.jpg,color85.jpg,nogoal,NULL
1687281501,3159d318495612b5fd976c89fc4c4be9,PennController,26,0,experiment,NULL,PennController,25,_Header_,Start,1687281371664,5ff5922c4721d5000981fcde,5ff5922c4721d5000981fcde,23,color,filler,B,75,color65.jpg,color85.jpg,nogoal,NULL
1687281501,3159d318495612b5fd976c89fc4c4be9,PennController,26,0,experiment,NULL,PennController,25,_Header_,End,1687281371664,5ff5922c4721d5000981fcde,5ff5922c4721d5000981fcde,23,color,filler,B,75,color65.jpg,color85.jpg,nogoal,NULL
1687281501,3159d318495612b5fd976c89fc4c4be9,PennController,26,0,experiment,NULL,Canvas,canvas6,Print,NA,1687281377362,5ff5922c4721d5000981fcde,5ff5922c4721d5000981fcde,23,color,filler,B,75,color65.jpg,color85.jpg,nogoal,NULL
1687281501,3159d318495612b5fd976c89fc4c4be9,PennController,26,0,experiment,NULL,Video,progression,buffer,0.002149,1687281373174,5ff5922c4721d5000981fcde,5ff5922c4721d5000981fcde,23,color,filler,B,75,color65.jpg,color85.jpg,nogoal,NULL
1687281501,3159d318495612b5fd976c89fc4c4be9,PennController,26,0,experiment,NULL,Selector,choice,Selection,option2,1687281379292,5ff5922c4721d5000981fcde,5ff5922c4721d5000981fcde,23,color,filler,B,75,color65.jpg,color85.jpg,nogoal,option1;option2
1687281501,3159d318495612b5fd976c89fc4c4be9,PennController,26,0,experiment,NULL,PennController,25,_Trial_,End,1687281379292,5ff5922c4721d5000981fcde,5ff5922c4721d5000981fcde,23,color,filler,B,75,color65.jpg,color85.jpg,nogoal,NULL
1687281501,3159d318495612b5fd976c89fc4c4be9,PennController,8,0,experiment,NULL,PennController,7,_Trial_,Start,1687281379293,5ff5922c4721d5000981fcde,5ff5922c4721d5000981fcde,5,book,critical,B,75,book65.jpg,book85.jpg,nogoal,NULL
1687281501,3159d318495612b5fd976c89fc4c4be9,PennController,8,0,experiment,NULL,PennController,7,_Header_,Start,1687281379293,5ff5922c4721d5000981fcde,5ff5922c4721d5000981fcde,5,book,critical,B,75,book65.jpg,book85.jpg,nogoal,NULL
1687281501,3159d318495612b5fd976c89fc4c4be9,PennController,8,0,experiment,NULL,PennController,7,_Header_,End,1687281379293,5ff5922c4721d5000981fcde,5ff5922c4721d5000981fcde,5,book,critical,B,75,book65.jpg,book85.jpg,nogoal,NULL
1687281501,3159d318495612b5fd976c89fc4c4be9,PennController,8,0,experiment,NULL,Canvas,canvas6,Print,NA,1687281384996,5ff5922c4721d5000981fcde,5ff5922c4721d5000981fcde,5,book,critical,B,75,book65.jpg,book85.jpg,nogoal,NULL
1687281501,3159d318495612b5fd976c89fc4c4be9,PennController,8,0,experiment,NULL,Video,progression,buffer,0.001261,1687281380802,5ff5922c4721d5000981fcde,5ff5922c4721d5000981fcde,5,book,critical,B,75,book65.jpg,book85.jpg,nogoal,NULL
1687281501,3159d318495612b5fd976c89fc4c4be9,PennController,8,0,experiment,NULL,Selector,choice,Selection,option1,1687281386286,5ff5922c4721d5000981fcde,5ff5922c4721d5000981fcde,5,book,critical,B,75,book65.jpg,book85.jpg,nogoal,option1;option2
1687281501,3159d318495612b5fd976c89fc4c4be9,PennController,8,0,experiment,NULL,PennController,7,_Trial_,End,1687281386286,5ff5922c4721d5000981fcde,5ff5922c4721d5000981fcde,5,book,critical,B,75,book65.jpg,book85.jpg,nogoal,NULL
1687281501,3159d318495612b5fd976c89fc4c4be9,PennController,29,0,experiment,NULL,PennController,28,_Trial_,Start,1687281386287,5ff5922c4721d5000981fcde,5ff5922c4721d5000981fcde,26,sandwich,filler,B,75,sandwich65.jpg,sandwich85.jpg,nogoal,NULL
1687281501,3159d318495612b5fd976c89fc4c4be9,PennController,29,0,experiment,NULL,PennController,28,_Header_,Start,1687281386287,5ff5922c4721d5000981fcde,5ff5922c4721d5000981fcde,26,sandwich,filler,B,75,sandwich65.jpg,sandwich85.jpg,nogoal,NULL
1687281501,3159d318495612b5fd976c89fc4c4be9,PennController,29,0,experiment,NULL,PennController,28,_Header_,End,1687281386287,5ff5922c4721d5000981fcde,5ff5922c4721d5000981fcde,26,sandwich,filler,B,75,sandwich65.jpg,sandwich85.jpg,nogoal,NULL
1687281501,3159d318495612b5fd976c89fc4c4be9,PennController,29,0,experiment,NULL,Canvas,canvas6,Print,NA,1687281391991,5ff5922c4721d5000981fcde,5ff5922c4721d5000981fcde,26,sandwich,filler,B,75,sandwich65.jpg,sandwich85.jpg,nogoal,NULL
1687281501,3159d318495612b5fd976c89fc4c4be9,PennController,29,0,experiment,NULL,Video,progression,buffer,0.001308,1687281387798,5ff5922c4721d5000981fcde,5ff5922c4721d5000981fcde,26,sandwich,filler,B,75,sandwich65.jpg,sandwich85.jpg,nogoal,NULL
1687281501,3159d318495612b5fd976c89fc4c4be9,PennController,29,0,experiment,NULL,Selector,choice,Selection,option1,1687281392917,5ff5922c4721d5000981fcde,5ff5922c4721d5000981fcde,26,sandwich,filler,B,75,sandwich65.jpg,sandwich85.jpg,nogoal,option1;option2
1687281501,3159d318495612b5fd976c89fc4c4be9,PennController,29,0,experiment,NULL,PennController,28,_Trial_,End,1687281392918,5ff5922c4721d5000981fcde,5ff5922c4721d5000981fcde,26,sandwich,filler,B,75,sandwich65.jpg,sandwich85.jpg,nogoal,NULL
1687281501,3159d318495612b5fd976c89fc4c4be9,PennController,24,0,experiment,NULL,PennController,23,_Trial_,Start,1687281392918,5ff5922c4721d5000981fcde,5ff5922c4721d5000981fcde,21,visit,filler,B,25,visit15.jpg,visit35.jpg,nogoal,NULL
1687281501,3159d318495612b5fd976c89fc4c4be9,PennController,24,0,experiment,NULL,PennController,23,_Header_,Start,1687281392918,5ff5922c4721d5000981fcde,5ff5922c4721d5000981fcde,21,visit,filler,B,25,visit15.jpg,visit35.jpg,nogoal,NULL
1687281501,3159d318495612b5fd976c89fc4c4be9,PennController,24,0,experiment,NULL,PennController,23,_Header_,End,1687281392918,5ff5922c4721d5000981fcde,5ff5922c4721d5000981fcde,21,visit,filler,B,25,visit15.jpg,visit35.jpg,nogoal,NULL
1687281501,3159d318495612b5fd976c89fc4c4be9,PennController,24,0,experiment,NULL,Canvas,canvas6,Print,NA,1687281396620,5ff5922c4721d5000981fcde,5ff5922c4721d5000981fcde,21,visit,filler,B,25,visit15.jpg,visit35.jpg,nogoal,NULL
1687281501,3159d318495612b5fd976c89fc4c4be9,PennController,24,0,experiment,NULL,Video,progression,buffer,0.00139,1687281394427,5ff5922c4721d5000981fcde,5ff5922c4721d5000981fcde,21,visit,filler,B,25,visit15.jpg,visit35.jpg,nogoal,NULL
1687281501,3159d318495612b5fd976c89fc4c4be9,PennController,24,0,experiment,NULL,Selector,choice,Selection,option2,1687281397578,5ff5922c4721d5000981fcde,5ff5922c4721d5000981fcde,21,visit,filler,B,25,visit15.jpg,visit35.jpg,nogoal,option1;option2
1687281501,3159d318495612b5fd976c89fc4c4be9,PennController,24,0,experiment,NULL,PennController,23,_Trial_,End,1687281397579,5ff5922c4721d5000981fcde,5ff5922c4721d5000981fcde,21,visit,filler,B,25,visit15.jpg,visit35.jpg,nogoal,NULL
1687281501,3159d318495612b5fd976c89fc4c4be9,PennController,15,0,experiment,NULL,PennController,14,_Trial_,Start,1687281397579,5ff5922c4721d5000981fcde,5ff5922c4721d5000981fcde,12,erase,critical,B,25,erase15.jpg,erase33.jpg,nogoal,NULL
1687281501,3159d318495612b5fd976c89fc4c4be9,PennController,15,0,experiment,NULL,PennController,14,_Header_,Start,1687281397579,5ff5922c4721d5000981fcde,5ff5922c4721d5000981fcde,12,erase,critical,B,25,erase15.jpg,erase33.jpg,nogoal,NULL
1687281501,3159d318495612b5fd976c89fc4c4be9,PennController,15,0,experiment,NULL,PennController,14,_Header_,End,1687281397579,5ff5922c4721d5000981fcde,5ff5922c4721d5000981fcde,12,erase,critical,B,25,erase15.jpg,erase33.jpg,nogoal,NULL
1687281501,3159d318495612b5fd976c89fc4c4be9,PennController,15,0,experiment,NULL,Canvas,canvas6,Print,NA,1687281401876,5ff5922c4721d5000981fcde,5ff5922c4721d5000981fcde,12,erase,critical,B,25,erase15.jpg,erase33.jpg,nogoal,NULL
1687281501,3159d318495612b5fd976c89fc4c4be9,PennController,15,0,experiment,NULL,Video,progression,buffer,0.001262,1687281399087,5ff5922c4721d5000981fcde,5ff5922c4721d5000981fcde,12,erase,critical,B,25,erase15.jpg,erase33.jpg,nogoal,NULL
1687281501,3159d318495612b5fd976c89fc4c4be9,PennController,15,0,experiment,NULL,Selector,choice,Selection,option1,1687281402687,5ff5922c4721d5000981fcde,5ff5922c4721d5000981fcde,12,erase,critical,B,25,erase15.jpg,erase33.jpg,nogoal,option1;option2
1687281501,3159d318495612b5fd976c89fc4c4be9,PennController,15,0,experiment,NULL,PennController,14,_Trial_,End,1687281402688,5ff5922c4721d5000981fcde,5ff5922c4721d5000981fcde,12,erase,critical,B,25,erase15.jpg,erase33.jpg,nogoal,NULL
1687281501,3159d318495612b5fd976c89fc4c4be9,PennController,20,0,experiment,NULL,PennController,19,_Trial_,Start,1687281402688,5ff5922c4721d5000981fcde,5ff5922c4721d5000981fcde,17,roll,critical,B,75,roll65.jpg,roll85.jpg,nogoal,NULL
1687281501,3159d318495612b5fd976c89fc4c4be9,PennController,20,0,experiment,NULL,PennController,19,_Header_,Start,1687281402688,5ff5922c4721d5000981fcde,5ff5922c4721d5000981fcde,17,roll,critical,B,75,roll65.jpg,roll85.jpg,nogoal,NULL
1687281501,3159d318495612b5fd976c89fc4c4be9,PennController,20,0,experiment,NULL,PennController,19,_Header_,End,1687281402689,5ff5922c4721d5000981fcde,5ff5922c4721d5000981fcde,17,roll,critical,B,75,roll65.jpg,roll85.jpg,nogoal,NULL
1687281501,3159d318495612b5fd976c89fc4c4be9,PennController,20,0,experiment,NULL,Canvas,canvas6,Print,NA,1687281408390,5ff5922c4721d5000981fcde,5ff5922c4721d5000981fcde,17,roll,critical,B,75,roll65.jpg,roll85.jpg,nogoal,NULL
1687281501,3159d318495612b5fd976c89fc4c4be9,PennController,20,0,experiment,NULL,Video,progression,buffer,0.00138,1687281404200,5ff5922c4721d5000981fcde,5ff5922c4721d5000981fcde,17,roll,critical,B,75,roll65.jpg,roll85.jpg,nogoal,NULL
1687281501,3159d318495612b5fd976c89fc4c4be9,PennController,20,0,experiment,NULL,Selector,choice,Selection,option2,1687281409506,5ff5922c4721d5000981fcde,5ff5922c4721d5000981fcde,17,roll,critical,B,75,roll65.jpg,roll85.jpg,nogoal,option2;option1
1687281501,3159d318495612b5fd976c89fc4c4be9,PennController,20,0,experiment,NULL,PennController,19,_Trial_,End,1687281409507,5ff5922c4721d5000981fcde,5ff5922c4721d5000981fcde,17,roll,critical,B,75,roll65.jpg,roll85.jpg,nogoal,NULL
1687281501,3159d318495612b5fd976c89fc4c4be9,PennController,17,0,experiment,NULL,PennController,16,_Trial_,Start,1687281409507,5ff5922c4721d5000981fcde,5ff5922c4721d5000981fcde,14,cover,critical,B,75,cover66.jpg,cover84.jpg,nogoal,NULL
1687281501,3159d318495612b5fd976c89fc4c4be9,PennController,17,0,experiment,NULL,PennController,16,_Header_,Start,1687281409507,5ff5922c4721d5000981fcde,5ff5922c4721d5000981fcde,14,cover,critical,B,75,cover66.jpg,cover84.jpg,nogoal,NULL
1687281501,3159d318495612b5fd976c89fc4c4be9,PennController,17,0,experiment,NULL,PennController,16,_Header_,End,1687281409507,5ff5922c4721d5000981fcde,5ff5922c4721d5000981fcde,14,cover,critical,B,75,cover66.jpg,cover84.jpg,nogoal,NULL
1687281501,3159d318495612b5fd976c89fc4c4be9,PennController,17,0,experiment,NULL,Canvas,canvas6,Print,NA,1687281417211,5ff5922c4721d5000981fcde,5ff5922c4721d5000981fcde,14,cover,critical,B,75,cover66.jpg,cover84.jpg,nogoal,NULL
1687281501,3159d318495612b5fd976c89fc4c4be9,PennController,17,0,experiment,NULL,Video,progression,buffer,0.001683,1687281411018,5ff5922c4721d5000981fcde,5ff5922c4721d5000981fcde,14,cover,critical,B,75,cover66.jpg,cover84.jpg,nogoal,NULL
1687281501,3159d318495612b5fd976c89fc4c4be9,PennController,17,0,experiment,NULL,Selector,choice,Selection,option1,1687281418964,5ff5922c4721d5000981fcde,5ff5922c4721d5000981fcde,14,cover,critical,B,75,cover66.jpg,cover84.jpg,nogoal,option1;option2
1687281501,3159d318495612b5fd976c89fc4c4be9,PennController,17,0,experiment,NULL,PennController,16,_Trial_,End,1687281418965,5ff5922c4721d5000981fcde,5ff5922c4721d5000981fcde,14,cover,critical,B,75,cover66.jpg,cover84.jpg,nogoal,NULL
1687281501,3159d318495612b5fd976c89fc4c4be9,PennController,32,0,experiment,NULL,PennController,31,_Trial_,Start,1687281418965,5ff5922c4721d5000981fcde,5ff5922c4721d5000981fcde,29,frog,filler,B,75,frog65.jpg,frog85.jpg,nogoal,NULL
1687281501,3159d318495612b5fd976c89fc4c4be9,PennController,32,0,experiment,NULL,PennController,31,_Header_,Start,1687281418965,5ff5922c4721d5000981fcde,5ff5922c4721d5000981fcde,29,frog,filler,B,75,frog65.jpg,frog85.jpg,nogoal,NULL
1687281501,3159d318495612b5fd976c89fc4c4be9,PennController,32,0,experiment,NULL,PennController,31,_Header_,End,1687281418966,5ff5922c4721d5000981fcde,5ff5922c4721d5000981fcde,29,frog,filler,B,75,frog65.jpg,frog85.jpg,nogoal,NULL
1687281501,3159d318495612b5fd976c89fc4c4be9,PennController,32,0,experiment,NULL,Canvas,canvas6,Print,NA,1687281424662,5ff5922c4721d5000981fcde,5ff5922c4721d5000981fcde,29,frog,filler,B,75,frog65.jpg,frog85.jpg,nogoal,NULL
1687281501,3159d318495612b5fd976c89fc4c4be9,PennController,32,0,experiment,NULL,Video,progression,buffer,0.001277,1687281420470,5ff5922c4721d5000981fcde,5ff5922c4721d5000981fcde,29,frog,filler,B,75,frog65.jpg,frog85.jpg,nogoal,NULL
1687281501,3159d318495612b5fd976c89fc4c4be9,PennController,32,0,experiment,NULL,Selector,choice,Selection,option2,1687281425519,5ff5922c4721d5000981fcde,5ff5922c4721d5000981fcde,29,frog,filler,B,75,frog65.jpg,frog85.jpg,nogoal,option2;option1
1687281501,3159d318495612b5fd976c89fc4c4be9,PennController,32,0,experiment,NULL,PennController,31,_Trial_,End,1687281425519,5ff5922c4721d5000981fcde,5ff5922c4721d5000981fcde,29,frog,filler,B,75,frog65.jpg,frog85.jpg,nogoal,NULL
1687281501,3159d318495612b5fd976c89fc4c4be9,PennController,12,0,experiment,NULL,PennController,11,_Trial_,Start,1687281425520,5ff5922c4721d5000981fcde,5ff5922c4721d5000981fcde,9,cake,critical,B,25,cake15.jpg,cake33.jpg,nogoal,NULL
1687281501,3159d318495612b5fd976c89fc4c4be9,PennController,12,0,experiment,NULL,PennController,11,_Header_,Start,1687281425520,5ff5922c4721d5000981fcde,5ff5922c4721d5000981fcde,9,cake,critical,B,25,cake15.jpg,cake33.jpg,nogoal,NULL
1687281501,3159d318495612b5fd976c89fc4c4be9,PennController,12,0,experiment,NULL,PennController,11,_Header_,End,1687281425520,5ff5922c4721d5000981fcde,5ff5922c4721d5000981fcde,9,cake,critical,B,25,cake15.jpg,cake33.jpg,nogoal,NULL
1687281501,3159d318495612b5fd976c89fc4c4be9,PennController,12,0,experiment,NULL,Canvas,canvas6,Print,NA,1687281429823,5ff5922c4721d5000981fcde,5ff5922c4721d5000981fcde,9,cake,critical,B,25,cake15.jpg,cake33.jpg,nogoal,NULL
1687281501,3159d318495612b5fd976c89fc4c4be9,PennController,12,0,experiment,NULL,Video,progression,buffer,0.001252,1687281427030,5ff5922c4721d5000981fcde,5ff5922c4721d5000981fcde,9,cake,critical,B,25,cake15.jpg,cake33.jpg,nogoal,NULL
1687281501,3159d318495612b5fd976c89fc4c4be9,PennController,12,0,experiment,NULL,Selector,choice,Selection,option1,1687281431442,5ff5922c4721d5000981fcde,5ff5922c4721d5000981fcde,9,cake,critical,B,25,cake15.jpg,cake33.jpg,nogoal,option1;option2
1687281501,3159d318495612b5fd976c89fc4c4be9,PennController,12,0,experiment,NULL,PennController,11,_Trial_,End,1687281431442,5ff5922c4721d5000981fcde,5ff5922c4721d5000981fcde,9,cake,critical,B,25,cake15.jpg,cake33.jpg,nogoal,NULL
1687281501,3159d318495612b5fd976c89fc4c4be9,PennController,28,0,experiment,NULL,PennController,27,_Trial_,Start,1687281431443,5ff5922c4721d5000981fcde,5ff5922c4721d5000981fcde,25,house,filler,B,50,house40.jpg,house60.jpg,nogoal,NULL
1687281501,3159d318495612b5fd976c89fc4c4be9,PennController,28,0,experiment,NULL,PennController,27,_Header_,Start,1687281431443,5ff5922c4721d5000981fcde,5ff5922c4721d5000981fcde,25,house,filler,B,50,house40.jpg,house60.jpg,nogoal,NULL
1687281501,3159d318495612b5fd976c89fc4c4be9,PennController,28,0,experiment,NULL,PennController,27,_Header_,End,1687281431443,5ff5922c4721d5000981fcde,5ff5922c4721d5000981fcde,25,house,filler,B,50,house40.jpg,house60.jpg,nogoal,NULL
1687281501,3159d318495612b5fd976c89fc4c4be9,PennController,28,0,experiment,NULL,Canvas,canvas6,Print,NA,1687281436141,5ff5922c4721d5000981fcde,5ff5922c4721d5000981fcde,25,house,filler,B,50,house40.jpg,house60.jpg,nogoal,NULL
1687281501,3159d318495612b5fd976c89fc4c4be9,PennController,28,0,experiment,NULL,Video,progression,buffer,0.001289,1687281432949,5ff5922c4721d5000981fcde,5ff5922c4721d5000981fcde,25,house,filler,B,50,house40.jpg,house60.jpg,nogoal,NULL
1687281501,3159d318495612b5fd976c89fc4c4be9,PennController,28,0,experiment,NULL,Selector,choice,Selection,option2,1687281438558,5ff5922c4721d5000981fcde,5ff5922c4721d5000981fcde,25,house,filler,B,50,house40.jpg,house60.jpg,nogoal,option2;option1
1687281501,3159d318495612b5fd976c89fc4c4be9,PennController,28,0,experiment,NULL,PennController,27,_Trial_,End,1687281438558,5ff5922c4721d5000981fcde,5ff5922c4721d5000981fcde,25,house,filler,B,50,house40.jpg,house60.jpg,nogoal,NULL
1687281501,3159d318495612b5fd976c89fc4c4be9,PennController,4,0,experiment,NULL,PennController,3,_Trial_,Start,1687281438559,5ff5922c4721d5000981fcde,5ff5922c4721d5000981fcde,1,vase,critical,B,50,vase40.jpg,vase60.jpg,nogoal,NULL
1687281501,3159d318495612b5fd976c89fc4c4be9,PennController,4,0,experiment,NULL,PennController,3,_Header_,Start,1687281438559,5ff5922c4721d5000981fcde,5ff5922c4721d5000981fcde,1,vase,critical,B,50,vase40.jpg,vase60.jpg,nogoal,NULL
1687281501,3159d318495612b5fd976c89fc4c4be9,PennController,4,0,experiment,NULL,PennController,3,_Header_,End,1687281438559,5ff5922c4721d5000981fcde,5ff5922c4721d5000981fcde,1,vase,critical,B,50,vase40.jpg,vase60.jpg,nogoal,NULL
1687281501,3159d318495612b5fd976c89fc4c4be9,PennController,4,0,experiment,NULL,Canvas,canvas6,Print,NA,1687281443259,5ff5922c4721d5000981fcde,5ff5922c4721d5000981fcde,1,vase,critical,B,50,vase40.jpg,vase60.jpg,nogoal,NULL
1687281501,3159d318495612b5fd976c89fc4c4be9,PennController,4,0,experiment,NULL,Video,progression,buffer,0.001478,1687281440068,5ff5922c4721d5000981fcde,5ff5922c4721d5000981fcde,1,vase,critical,B,50,vase40.jpg,vase60.jpg,nogoal,NULL
1687281501,3159d318495612b5fd976c89fc4c4be9,PennController,4,0,experiment,NULL,Selector,choice,Selection,option2,1687281444173,5ff5922c4721d5000981fcde,5ff5922c4721d5000981fcde,1,vase,critical,B,50,vase40.jpg,vase60.jpg,nogoal,option1;option2
1687281501,3159d318495612b5fd976c89fc4c4be9,PennController,4,0,experiment,NULL,PennController,3,_Trial_,End,1687281444173,5ff5922c4721d5000981fcde,5ff5922c4721d5000981fcde,1,vase,critical,B,50,vase40.jpg,vase60.jpg,nogoal,NULL
1687281501,3159d318495612b5fd976c89fc4c4be9,PennController,19,0,experiment,NULL,PennController,18,_Trial_,Start,1687281444174,5ff5922c4721d5000981fcde,5ff5922c4721d5000981fcde,16,blinds,critical,B,50,blinds42.jpg,blinds60.jpg,nogoal,NULL
1687281501,3159d318495612b5fd976c89fc4c4be9,PennController,19,0,experiment,NULL,PennController,18,_Header_,Start,1687281444174,5ff5922c4721d5000981fcde,5ff5922c4721d5000981fcde,16,blinds,critical,B,50,blinds42.jpg,blinds60.jpg,nogoal,NULL
1687281501,3159d318495612b5fd976c89fc4c4be9,PennController,19,0,experiment,NULL,PennController,18,_Header_,End,1687281444174,5ff5922c4721d5000981fcde,5ff5922c4721d5000981fcde,16,blinds,critical,B,50,blinds42.jpg,blinds60.jpg,nogoal,NULL
1687281501,3159d318495612b5fd976c89fc4c4be9,PennController,19,0,experiment,NULL,Canvas,canvas6,Print,NA,1687281450271,5ff5922c4721d5000981fcde,5ff5922c4721d5000981fcde,16,blinds,critical,B,50,blinds42.jpg,blinds60.jpg,nogoal,NULL
1687281501,3159d318495612b5fd976c89fc4c4be9,PennController,19,0,experiment,NULL,Video,progression,buffer,0.001361,1687281445685,5ff5922c4721d5000981fcde,5ff5922c4721d5000981fcde,16,blinds,critical,B,50,blinds42.jpg,blinds60.jpg,nogoal,NULL
1687281501,3159d318495612b5fd976c89fc4c4be9,PennController,19,0,experiment,NULL,Selector,choice,Selection,option2,1687281451383,5ff5922c4721d5000981fcde,5ff5922c4721d5000981fcde,16,blinds,critical,B,50,blinds42.jpg,blinds60.jpg,nogoal,option2;option1
1687281501,3159d318495612b5fd976c89fc4c4be9,PennController,19,0,experiment,NULL,PennController,18,_Trial_,End,1687281451383,5ff5922c4721d5000981fcde,5ff5922c4721d5000981fcde,16,blinds,critical,B,50,blinds42.jpg,blinds60.jpg,nogoal,NULL
1687281501,3159d318495612b5fd976c89fc4c4be9,PennController,23,0,experiment,NULL,PennController,22,_Trial_,Start,1687281451384,5ff5922c4721d5000981fcde,5ff5922c4721d5000981fcde,20,cat,filler,B,75,cat65.jpg,cat85.jpg,nogoal,NULL
1687281501,3159d318495612b5fd976c89fc4c4be9,PennController,23,0,experiment,NULL,PennController,22,_Header_,Start,1687281451384,5ff5922c4721d5000981fcde,5ff5922c4721d5000981fcde,20,cat,filler,B,75,cat65.jpg,cat85.jpg,nogoal,NULL
1687281501,3159d318495612b5fd976c89fc4c4be9,PennController,23,0,experiment,NULL,PennController,22,_Header_,End,1687281451384,5ff5922c4721d5000981fcde,5ff5922c4721d5000981fcde,20,cat,filler,B,75,cat65.jpg,cat85.jpg,nogoal,NULL
1687281501,3159d318495612b5fd976c89fc4c4be9,PennController,23,0,experiment,NULL,Canvas,canvas6,Print,NA,1687281457092,5ff5922c4721d5000981fcde,5ff5922c4721d5000981fcde,20,cat,filler,B,75,cat65.jpg,cat85.jpg,nogoal,NULL
1687281501,3159d318495612b5fd976c89fc4c4be9,PennController,23,0,experiment,NULL,Video,progression,buffer,0.001416,1687281452897,5ff5922c4721d5000981fcde,5ff5922c4721d5000981fcde,20,cat,filler,B,75,cat65.jpg,cat85.jpg,nogoal,NULL
1687281501,3159d318495612b5fd976c89fc4c4be9,PennController,23,0,experiment,NULL,Selector,choice,Selection,option2,1687281458174,5ff5922c4721d5000981fcde,5ff5922c4721d5000981fcde,20,cat,filler,B,75,cat65.jpg,cat85.jpg,nogoal,option1;option2
1687281501,3159d318495612b5fd976c89fc4c4be9,PennController,23,0,experiment,NULL,PennController,22,_Trial_,End,1687281458174,5ff5922c4721d5000981fcde,5ff5922c4721d5000981fcde,20,cat,filler,B,75,cat65.jpg,cat85.jpg,nogoal,NULL
1687281501,3159d318495612b5fd976c89fc4c4be9,PennController,5,0,experiment,NULL,PennController,4,_Trial_,Start,1687281458175,5ff5922c4721d5000981fcde,5ff5922c4721d5000981fcde,2,door,critical,B,75,door65.jpg,door85.jpg,nogoal,NULL
1687281501,3159d318495612b5fd976c89fc4c4be9,PennController,5,0,experiment,NULL,PennController,4,_Header_,Start,1687281458175,5ff5922c4721d5000981fcde,5ff5922c4721d5000981fcde,2,door,critical,B,75,door65.jpg,door85.jpg,nogoal,NULL
1687281501,3159d318495612b5fd976c89fc4c4be9,PennController,5,0,experiment,NULL,PennController,4,_Header_,End,1687281458175,5ff5922c4721d5000981fcde,5ff5922c4721d5000981fcde,2,door,critical,B,75,door65.jpg,door85.jpg,nogoal,NULL
1687281501,3159d318495612b5fd976c89fc4c4be9,PennController,5,0,experiment,NULL,Canvas,canvas6,Print,NA,1687281463883,5ff5922c4721d5000981fcde,5ff5922c4721d5000981fcde,2,door,critical,B,75,door65.jpg,door85.jpg,nogoal,NULL
1687281501,3159d318495612b5fd976c89fc4c4be9,PennController,5,0,experiment,NULL,Video,progression,buffer,0,1687281459683,5ff5922c4721d5000981fcde,5ff5922c4721d5000981fcde,2,door,critical,B,75,door65.jpg,door85.jpg,nogoal,NULL
1687281501,3159d318495612b5fd976c89fc4c4be9,PennController,5,0,experiment,NULL,Selector,choice,Selection,option2,1687281465261,5ff5922c4721d5000981fcde,5ff5922c4721d5000981fcde,2,door,critical,B,75,door65.jpg,door85.jpg,nogoal,option1;option2
1687281501,3159d318495612b5fd976c89fc4c4be9,PennController,5,0,experiment,NULL,PennController,4,_Trial_,End,1687281465261,5ff5922c4721d5000981fcde,5ff5922c4721d5000981fcde,2,door,critical,B,75,door65.jpg,door85.jpg,nogoal,NULL
1687281501,3159d318495612b5fd976c89fc4c4be9,PennController,30,0,experiment,NULL,PennController,29,_Trial_,Start,1687281465262,5ff5922c4721d5000981fcde,5ff5922c4721d5000981fcde,27,square,filler,B,25,square15.jpg,square35.jpg,nogoal,NULL
1687281501,3159d318495612b5fd976c89fc4c4be9,PennController,30,0,experiment,NULL,PennController,29,_Header_,Start,1687281465262,5ff5922c4721d5000981fcde,5ff5922c4721d5000981fcde,27,square,filler,B,25,square15.jpg,square35.jpg,nogoal,NULL
1687281501,3159d318495612b5fd976c89fc4c4be9,PennController,30,0,experiment,NULL,PennController,29,_Header_,End,1687281465262,5ff5922c4721d5000981fcde,5ff5922c4721d5000981fcde,27,square,filler,B,25,square15.jpg,square35.jpg,nogoal,NULL
1687281501,3159d318495612b5fd976c89fc4c4be9,PennController,30,0,experiment,NULL,Canvas,canvas6,Print,NA,1687281468961,5ff5922c4721d5000981fcde,5ff5922c4721d5000981fcde,27,square,filler,B,25,square15.jpg,square35.jpg,nogoal,NULL
1687281501,3159d318495612b5fd976c89fc4c4be9,PennController,30,0,experiment,NULL,Video,progression,buffer,0.001388,1687281466768,5ff5922c4721d5000981fcde,5ff5922c4721d5000981fcde,27,square,filler,B,25,square15.jpg,square35.jpg,nogoal,NULL
1687281501,3159d318495612b5fd976c89fc4c4be9,PennController,30,0,experiment,NULL,Selector,choice,Selection,option1,1687281470194,5ff5922c4721d5000981fcde,5ff5922c4721d5000981fcde,27,square,filler,B,25,square15.jpg,square35.jpg,nogoal,option1;option2
1687281501,3159d318495612b5fd976c89fc4c4be9,PennController,30,0,experiment,NULL,PennController,29,_Trial_,End,1687281470194,5ff5922c4721d5000981fcde,5ff5922c4721d5000981fcde,27,square,filler,B,25,square15.jpg,square35.jpg,nogoal,NULL
1687281501,3159d318495612b5fd976c89fc4c4be9,PennController,25,0,experiment,NULL,PennController,24,_Trial_,Start,1687281470195,5ff5922c4721d5000981fcde,5ff5922c4721d5000981fcde,22,wall,filler,B,50,wall40.jpg,wall60.jpg,nogoal,NULL
1687281501,3159d318495612b5fd976c89fc4c4be9,PennController,25,0,experiment,NULL,PennController,24,_Header_,Start,1687281470195,5ff5922c4721d5000981fcde,5ff5922c4721d5000981fcde,22,wall,filler,B,50,wall40.jpg,wall60.jpg,nogoal,NULL
1687281501,3159d318495612b5fd976c89fc4c4be9,PennController,25,0,experiment,NULL,PennController,24,_Header_,End,1687281470195,5ff5922c4721d5000981fcde,5ff5922c4721d5000981fcde,22,wall,filler,B,50,wall40.jpg,wall60.jpg,nogoal,NULL
1687281501,3159d318495612b5fd976c89fc4c4be9,PennController,25,0,experiment,NULL,Canvas,canvas6,Print,NA,1687281474898,5ff5922c4721d5000981fcde,5ff5922c4721d5000981fcde,22,wall,filler,B,50,wall40.jpg,wall60.jpg,nogoal,NULL
1687281501,3159d318495612b5fd976c89fc4c4be9,PennController,25,0,experiment,NULL,Video,progression,buffer,0.001373,1687281471702,5ff5922c4721d5000981fcde,5ff5922c4721d5000981fcde,22,wall,filler,B,50,wall40.jpg,wall60.jpg,nogoal,NULL
1687281501,3159d318495612b5fd976c89fc4c4be9,PennController,25,0,experiment,NULL,Selector,choice,Selection,option1,1687281476160,5ff5922c4721d5000981fcde,5ff5922c4721d5000981fcde,22,wall,filler,B,50,wall40.jpg,wall60.jpg,nogoal,option2;option1
1687281501,3159d318495612b5fd976c89fc4c4be9,PennController,25,0,experiment,NULL,PennController,24,_Trial_,End,1687281476160,5ff5922c4721d5000981fcde,5ff5922c4721d5000981fcde,22,wall,filler,B,50,wall40.jpg,wall60.jpg,nogoal,NULL
1687281501,3159d318495612b5fd976c89fc4c4be9,PennController,7,0,experiment,NULL,PennController,6,_Trial_,Start,1687281476161,5ff5922c4721d5000981fcde,5ff5922c4721d5000981fcde,4,candy,critical,B,50,candy40.jpg,candy60.jpg,nogoal,NULL
1687281501,3159d318495612b5fd976c89fc4c4be9,PennController,7,0,experiment,NULL,PennController,6,_Header_,Start,1687281476161,5ff5922c4721d5000981fcde,5ff5922c4721d5000981fcde,4,candy,critical,B,50,candy40.jpg,candy60.jpg,nogoal,NULL
1687281501,3159d318495612b5fd976c89fc4c4be9,PennController,7,0,experiment,NULL,PennController,6,_Header_,End,1687281476161,5ff5922c4721d5000981fcde,5ff5922c4721d5000981fcde,4,candy,critical,B,50,candy40.jpg,candy60.jpg,nogoal,NULL
1687281501,3159d318495612b5fd976c89fc4c4be9,PennController,7,0,experiment,NULL,Canvas,canvas6,Print,NA,1687281480863,5ff5922c4721d5000981fcde,5ff5922c4721d5000981fcde,4,candy,critical,B,50,candy40.jpg,candy60.jpg,nogoal,NULL
1687281501,3159d318495612b5fd976c89fc4c4be9,PennController,7,0,experiment,NULL,Video,progression,buffer,0.001259,1687281477670,5ff5922c4721d5000981fcde,5ff5922c4721d5000981fcde,4,candy,critical,B,50,candy40.jpg,candy60.jpg,nogoal,NULL
1687281501,3159d318495612b5fd976c89fc4c4be9,PennController,7,0,experiment,NULL,Selector,choice,Selection,option2,1687281482279,5ff5922c4721d5000981fcde,5ff5922c4721d5000981fcde,4,candy,critical,B,50,candy40.jpg,candy60.jpg,nogoal,option2;option1
1687281501,3159d318495612b5fd976c89fc4c4be9,PennController,7,0,experiment,NULL,PennController,6,_Trial_,End,1687281482279,5ff5922c4721d5000981fcde,5ff5922c4721d5000981fcde,4,candy,critical,B,50,candy40.jpg,candy60.jpg,nogoal,NULL
1687281501,3159d318495612b5fd976c89fc4c4be9,PennController,14,0,experiment,NULL,PennController,13,_Trial_,Start,1687281482280,5ff5922c4721d5000981fcde,5ff5922c4721d5000981fcde,11,beads,critical,B,75,beads65.jpg,beads85.jpg,nogoal,NULL
1687281501,3159d318495612b5fd976c89fc4c4be9,PennController,14,0,experiment,NULL,PennController,13,_Header_,Start,1687281482280,5ff5922c4721d5000981fcde,5ff5922c4721d5000981fcde,11,beads,critical,B,75,beads65.jpg,beads85.jpg,nogoal,NULL
1687281501,3159d318495612b5fd976c89fc4c4be9,PennController,14,0,experiment,NULL,PennController,13,_Header_,End,1687281482280,5ff5922c4721d5000981fcde,5ff5922c4721d5000981fcde,11,beads,critical,B,75,beads65.jpg,beads85.jpg,nogoal,NULL
1687281501,3159d318495612b5fd976c89fc4c4be9,PennController,14,0,experiment,NULL,Canvas,canvas6,Print,NA,1687281487980,5ff5922c4721d5000981fcde,5ff5922c4721d5000981fcde,11,beads,critical,B,75,beads65.jpg,beads85.jpg,nogoal,NULL
1687281501,3159d318495612b5fd976c89fc4c4be9,PennController,14,0,experiment,NULL,Video,progression,buffer,0.001729,1687281483794,5ff5922c4721d5000981fcde,5ff5922c4721d5000981fcde,11,beads,critical,B,75,beads65.jpg,beads85.jpg,nogoal,NULL
1687281501,3159d318495612b5fd976c89fc4c4be9,PennController,14,0,experiment,NULL,Selector,choice,Selection,option2,1687281489542,5ff5922c4721d5000981fcde,5ff5922c4721d5000981fcde,11,beads,critical,B,75,beads65.jpg,beads85.jpg,nogoal,option1;option2
1687281501,3159d318495612b5fd976c89fc4c4be9,PennController,14,0,experiment,NULL,PennController,13,_Trial_,End,1687281489542,5ff5922c4721d5000981fcde,5ff5922c4721d5000981fcde,11,beads,critical,B,75,beads65.jpg,beads85.jpg,nogoal,NULL
1687281501,3159d318495612b5fd976c89fc4c4be9,PennController,16,0,experiment,NULL,PennController,15,_Trial_,Start,1687281489543,5ff5922c4721d5000981fcde,5ff5922c4721d5000981fcde,13,mix,critical,B,50,mix40.jpg,mix60.jpg,nogoal,NULL
1687281501,3159d318495612b5fd976c89fc4c4be9,PennController,16,0,experiment,NULL,PennController,15,_Header_,Start,1687281489543,5ff5922c4721d5000981fcde,5ff5922c4721d5000981fcde,13,mix,critical,B,50,mix40.jpg,mix60.jpg,nogoal,NULL
1687281501,3159d318495612b5fd976c89fc4c4be9,PennController,16,0,experiment,NULL,PennController,15,_Header_,End,1687281489543,5ff5922c4721d5000981fcde,5ff5922c4721d5000981fcde,13,mix,critical,B,50,mix40.jpg,mix60.jpg,nogoal,NULL
1687281501,3159d318495612b5fd976c89fc4c4be9,PennController,16,0,experiment,NULL,Canvas,canvas6,Print,NA,1687281494246,5ff5922c4721d5000981fcde,5ff5922c4721d5000981fcde,13,mix,critical,B,50,mix40.jpg,mix60.jpg,nogoal,NULL
1687281501,3159d318495612b5fd976c89fc4c4be9,PennController,16,0,experiment,NULL,Video,progression,buffer,0.001884,1687281491054,5ff5922c4721d5000981fcde,5ff5922c4721d5000981fcde,13,mix,critical,B,50,mix40.jpg,mix60.jpg,nogoal,NULL
1687281501,3159d318495612b5fd976c89fc4c4be9,PennController,16,0,experiment,NULL,Selector,choice,Selection,option1,1687281495390,5ff5922c4721d5000981fcde,5ff5922c4721d5000981fcde,13,mix,critical,B,50,mix40.jpg,mix60.jpg,nogoal,option2;option1
1687281501,3159d318495612b5fd976c89fc4c4be9,PennController,16,0,experiment,NULL,PennController,15,_Trial_,End,1687281495390,5ff5922c4721d5000981fcde,5ff5922c4721d5000981fcde,13,mix,critical,B,50,mix40.jpg,mix60.jpg,nogoal,NULL
1687281501,3159d318495612b5fd976c89fc4c4be9,PennController,13,0,experiment,NULL,PennController,12,_Trial_,Start,1687281495391,5ff5922c4721d5000981fcde,5ff5922c4721d5000981fcde,10,train,critical,B,50,train40.jpg,train60.jpg,nogoal,NULL
1687281501,3159d318495612b5fd976c89fc4c4be9,PennController,13,0,experiment,NULL,PennController,12,_Header_,Start,1687281495391,5ff5922c4721d5000981fcde,5ff5922c4721d5000981fcde,10,train,critical,B,50,train40.jpg,train60.jpg,nogoal,NULL
1687281501,3159d318495612b5fd976c89fc4c4be9,PennController,13,0,experiment,NULL,PennController,12,_Header_,End,1687281495391,5ff5922c4721d5000981fcde,5ff5922c4721d5000981fcde,10,train,critical,B,50,train40.jpg,train60.jpg,nogoal,NULL
1687281501,3159d318495612b5fd976c89fc4c4be9,PennController,13,0,experiment,NULL,Canvas,canvas6,Print,NA,1687281500091,5ff5922c4721d5000981fcde,5ff5922c4721d5000981fcde,10,train,critical,B,50,train40.jpg,train60.jpg,nogoal,NULL
1687281501,3159d318495612b5fd976c89fc4c4be9,PennController,13,0,experiment,NULL,Video,progression,buffer,0.001386,1687281496900,5ff5922c4721d5000981fcde,5ff5922c4721d5000981fcde,10,train,critical,B,50,train40.jpg,train60.jpg,nogoal,NULL
1687281501,3159d318495612b5fd976c89fc4c4be9,PennController,13,0,experiment,NULL,Selector,choice,Selection,option2,1687281501150,5ff5922c4721d5000981fcde,5ff5922c4721d5000981fcde,10,train,critical,B,50,train40.jpg,train60.jpg,nogoal,option2;option1
1687281501,3159d318495612b5fd976c89fc4c4be9,PennController,13,0,experiment,NULL,PennController,12,_Trial_,End,1687281501151,5ff5922c4721d5000981fcde,5ff5922c4721d5000981fcde,10,train,critical,B,50,train40.jpg,train60.jpg,nogoal,NULL
