#
# Results on Monday June 19 2023 15:20:22 UTC
# USER AGENT: Mozilla/5.0 (Windows NT 10.0; Win64; x64) AppleWebKit/537.36 (KHTML, like Gecko) Chrome/114.0.0.0 Safari/537.36
# Design number was non-random = 0
#
# Columns below this comment are as follows:
# 1. Results reception time.
# 2. MD5 hash of participant's IP address.
# 3. Controller name.
# 4. Order number of item.
# 5. Inner element number.
# 6. Label.
# 7. Latin Square Group.
# 8. PennElementType.
# 9. PennElementName.
# 10. Parameter.
# 11. Value.
# 12. EventTime.
# 13. PROLIFIC_ID.
# 14. Comments.
1687188022,6e0951818889afaf0fb3bb4db8e40557,PennController,2,0,consent,NULL,PennController,0,_Trial_,Start,1687187831507,60806b3eedf64f508355a746,NULL
1687188022,6e0951818889afaf0fb3bb4db8e40557,PennController,2,0,consent,NULL,PennController,0,_Header_,Start,1687187831507,60806b3eedf64f508355a746,NULL
1687188022,6e0951818889afaf0fb3bb4db8e40557,PennController,2,0,consent,NULL,PennController,0,_Header_,End,1687187831507,60806b3eedf64f508355a746,NULL
1687188022,6e0951818889afaf0fb3bb4db8e40557,PennController,2,0,consent,NULL,PennController,0,_Trial_,End,1687187834917,60806b3eedf64f508355a746,NULL
# Columns below this comment are as follows:
# 14. ID.
# 15. Comments.
1687188022,6e0951818889afaf0fb3bb4db8e40557,PennController,3,0,intro,NULL,PennController,1,_Trial_,Start,1687187834919,60806b3eedf64f508355a746,sthtstjn,NULL
1687188022,6e0951818889afaf0fb3bb4db8e40557,PennController,3,0,intro,NULL,PennController,1,_Header_,Start,1687187834919,60806b3eedf64f508355a746,sthtstjn,NULL
1687188022,6e0951818889afaf0fb3bb4db8e40557,PennController,3,0,intro,NULL,PennController,1,_Header_,End,1687187834919,60806b3eedf64f508355a746,sthtstjn,NULL
1687188022,6e0951818889afaf0fb3bb4db8e40557,PennController,3,0,intro,NULL,PennController,1,_Trial_,End,1687187838421,60806b3eedf64f508355a746,sthtstjn,NULL
# Columns below this comment are as follows:
# 15. item_number.
# 16. item.
# 17. type.
# 18. Group.
# 19. prog.
# 20. prev_image.
# 21. next_image.
# 22. height.
# 23. Comments.
1687188022,6e0951818889afaf0fb3bb4db8e40557,PennController,29,0,experiment,NULL,PennController,28,_Trial_,Start,1687187838423,60806b3eedf64f508355a746,sthtstjn,26,sandwich,filler,A,50,sandwich40.jpg,sandwich60.jpg,nogoal,NULL
1687188022,6e0951818889afaf0fb3bb4db8e40557,PennController,29,0,experiment,NULL,PennController,28,_Header_,Start,1687187838423,60806b3eedf64f508355a746,sthtstjn,26,sandwich,filler,A,50,sandwich40.jpg,sandwich60.jpg,nogoal,NULL
1687188022,6e0951818889afaf0fb3bb4db8e40557,PennController,29,0,experiment,NULL,PennController,28,_Header_,End,1687187838423,60806b3eedf64f508355a746,sthtstjn,26,sandwich,filler,A,50,sandwich40.jpg,sandwich60.jpg,nogoal,NULL
1687188022,6e0951818889afaf0fb3bb4db8e40557,PennController,29,0,experiment,NULL,Canvas,canvas6,Print,NA,1687187843100,60806b3eedf64f508355a746,sthtstjn,26,sandwich,filler,A,50,sandwich40.jpg,sandwich60.jpg,nogoal,NULL
1687188022,6e0951818889afaf0fb3bb4db8e40557,PennController,29,0,experiment,NULL,Video,progression,buffer,0.002512,1687187839941,60806b3eedf64f508355a746,sthtstjn,26,sandwich,filler,A,50,sandwich40.jpg,sandwich60.jpg,nogoal,NULL
1687188022,6e0951818889afaf0fb3bb4db8e40557,PennController,29,0,experiment,NULL,Selector,choice,Selection,option1,1687187848144,60806b3eedf64f508355a746,sthtstjn,26,sandwich,filler,A,50,sandwich40.jpg,sandwich60.jpg,nogoal,option2;option1
1687188022,6e0951818889afaf0fb3bb4db8e40557,PennController,29,0,experiment,NULL,PennController,28,_Trial_,End,1687187848146,60806b3eedf64f508355a746,sthtstjn,26,sandwich,filler,A,50,sandwich40.jpg,sandwich60.jpg,nogoal,NULL
1687188022,6e0951818889afaf0fb3bb4db8e40557,PennController,26,0,experiment,NULL,PennController,25,_Trial_,Start,1687187848148,60806b3eedf64f508355a746,sthtstjn,23,color,filler,A,50,color40.jpg,color60.jpg,nogoal,NULL
1687188022,6e0951818889afaf0fb3bb4db8e40557,PennController,26,0,experiment,NULL,PennController,25,_Header_,Start,1687187848148,60806b3eedf64f508355a746,sthtstjn,23,color,filler,A,50,color40.jpg,color60.jpg,nogoal,NULL
1687188022,6e0951818889afaf0fb3bb4db8e40557,PennController,26,0,experiment,NULL,PennController,25,_Header_,End,1687187848148,60806b3eedf64f508355a746,sthtstjn,23,color,filler,A,50,color40.jpg,color60.jpg,nogoal,NULL
1687188022,6e0951818889afaf0fb3bb4db8e40557,PennController,26,0,experiment,NULL,Canvas,canvas6,Print,NA,1687187852834,60806b3eedf64f508355a746,sthtstjn,23,color,filler,A,50,color40.jpg,color60.jpg,nogoal,NULL
1687188022,6e0951818889afaf0fb3bb4db8e40557,PennController,26,0,experiment,NULL,Video,progression,buffer,0.004287,1687187849662,60806b3eedf64f508355a746,sthtstjn,23,color,filler,A,50,color40.jpg,color60.jpg,nogoal,NULL
1687188022,6e0951818889afaf0fb3bb4db8e40557,PennController,26,0,experiment,NULL,Selector,choice,Selection,option2,1687187854264,60806b3eedf64f508355a746,sthtstjn,23,color,filler,A,50,color40.jpg,color60.jpg,nogoal,option1;option2
1687188022,6e0951818889afaf0fb3bb4db8e40557,PennController,26,0,experiment,NULL,PennController,25,_Trial_,End,1687187854265,60806b3eedf64f508355a746,sthtstjn,23,color,filler,A,50,color40.jpg,color60.jpg,nogoal,NULL
1687188022,6e0951818889afaf0fb3bb4db8e40557,PennController,12,0,experiment,NULL,PennController,11,_Trial_,Start,1687187854266,60806b3eedf64f508355a746,sthtstjn,9,cake,critical,A,75,cake66.jpg,cake84.jpg,nogoal,NULL
1687188022,6e0951818889afaf0fb3bb4db8e40557,PennController,12,0,experiment,NULL,PennController,11,_Header_,Start,1687187854266,60806b3eedf64f508355a746,sthtstjn,9,cake,critical,A,75,cake66.jpg,cake84.jpg,nogoal,NULL
1687188022,6e0951818889afaf0fb3bb4db8e40557,PennController,12,0,experiment,NULL,PennController,11,_Header_,End,1687187854266,60806b3eedf64f508355a746,sthtstjn,9,cake,critical,A,75,cake66.jpg,cake84.jpg,nogoal,NULL
1687188022,6e0951818889afaf0fb3bb4db8e40557,PennController,12,0,experiment,NULL,Canvas,canvas6,Print,NA,1687187861947,60806b3eedf64f508355a746,sthtstjn,9,cake,critical,A,75,cake66.jpg,cake84.jpg,nogoal,NULL
1687188022,6e0951818889afaf0fb3bb4db8e40557,PennController,12,0,experiment,NULL,Video,progression,buffer,0.001645,1687187855780,60806b3eedf64f508355a746,sthtstjn,9,cake,critical,A,75,cake66.jpg,cake84.jpg,nogoal,NULL
1687188022,6e0951818889afaf0fb3bb4db8e40557,PennController,12,0,experiment,NULL,Selector,choice,Selection,option1,1687187862800,60806b3eedf64f508355a746,sthtstjn,9,cake,critical,A,75,cake66.jpg,cake84.jpg,nogoal,option1;option2
1687188022,6e0951818889afaf0fb3bb4db8e40557,PennController,12,0,experiment,NULL,PennController,11,_Trial_,End,1687187862802,60806b3eedf64f508355a746,sthtstjn,9,cake,critical,A,75,cake66.jpg,cake84.jpg,nogoal,NULL
1687188022,6e0951818889afaf0fb3bb4db8e40557,PennController,6,0,experiment,NULL,PennController,5,_Trial_,Start,1687187862803,60806b3eedf64f508355a746,sthtstjn,3,clean,critical,A,75,clean65.jpg,clean85.jpg,nogoal,NULL
1687188022,6e0951818889afaf0fb3bb4db8e40557,PennController,6,0,experiment,NULL,PennController,5,_Header_,Start,1687187862803,60806b3eedf64f508355a746,sthtstjn,3,clean,critical,A,75,clean65.jpg,clean85.jpg,nogoal,NULL
1687188022,6e0951818889afaf0fb3bb4db8e40557,PennController,6,0,experiment,NULL,PennController,5,_Header_,End,1687187862803,60806b3eedf64f508355a746,sthtstjn,3,clean,critical,A,75,clean65.jpg,clean85.jpg,nogoal,NULL
1687188022,6e0951818889afaf0fb3bb4db8e40557,PennController,6,0,experiment,NULL,Canvas,canvas6,Print,NA,1687187868479,60806b3eedf64f508355a746,sthtstjn,3,clean,critical,A,75,clean65.jpg,clean85.jpg,nogoal,NULL
1687188022,6e0951818889afaf0fb3bb4db8e40557,PennController,6,0,experiment,NULL,Video,progression,buffer,0.002864,1687187864317,60806b3eedf64f508355a746,sthtstjn,3,clean,critical,A,75,clean65.jpg,clean85.jpg,nogoal,NULL
1687188022,6e0951818889afaf0fb3bb4db8e40557,PennController,6,0,experiment,NULL,Selector,choice,Selection,option1,1687187869360,60806b3eedf64f508355a746,sthtstjn,3,clean,critical,A,75,clean65.jpg,clean85.jpg,nogoal,option1;option2
1687188022,6e0951818889afaf0fb3bb4db8e40557,PennController,6,0,experiment,NULL,PennController,5,_Trial_,End,1687187869361,60806b3eedf64f508355a746,sthtstjn,3,clean,critical,A,75,clean65.jpg,clean85.jpg,nogoal,NULL
1687188022,6e0951818889afaf0fb3bb4db8e40557,PennController,10,0,experiment,NULL,PennController,9,_Trial_,Start,1687187869361,60806b3eedf64f508355a746,sthtstjn,7,stack,critical,A,25,stack15.jpg,stack35.jpg,nogoal,NULL
1687188022,6e0951818889afaf0fb3bb4db8e40557,PennController,10,0,experiment,NULL,PennController,9,_Header_,Start,1687187869361,60806b3eedf64f508355a746,sthtstjn,7,stack,critical,A,25,stack15.jpg,stack35.jpg,nogoal,NULL
1687188022,6e0951818889afaf0fb3bb4db8e40557,PennController,10,0,experiment,NULL,PennController,9,_Header_,End,1687187869361,60806b3eedf64f508355a746,sthtstjn,7,stack,critical,A,25,stack15.jpg,stack35.jpg,nogoal,NULL
1687188022,6e0951818889afaf0fb3bb4db8e40557,PennController,10,0,experiment,NULL,Canvas,canvas6,Print,NA,1687187873031,60806b3eedf64f508355a746,sthtstjn,7,stack,critical,A,25,stack15.jpg,stack35.jpg,nogoal,NULL
1687188022,6e0951818889afaf0fb3bb4db8e40557,PennController,10,0,experiment,NULL,Video,progression,buffer,0.001513,1687187870871,60806b3eedf64f508355a746,sthtstjn,7,stack,critical,A,25,stack15.jpg,stack35.jpg,nogoal,NULL
1687188022,6e0951818889afaf0fb3bb4db8e40557,PennController,10,0,experiment,NULL,Selector,choice,Selection,option2,1687187873600,60806b3eedf64f508355a746,sthtstjn,7,stack,critical,A,25,stack15.jpg,stack35.jpg,nogoal,option2;option1
1687188022,6e0951818889afaf0fb3bb4db8e40557,PennController,10,0,experiment,NULL,PennController,9,_Trial_,End,1687187873601,60806b3eedf64f508355a746,sthtstjn,7,stack,critical,A,25,stack15.jpg,stack35.jpg,nogoal,NULL
1687188022,6e0951818889afaf0fb3bb4db8e40557,PennController,31,0,experiment,NULL,PennController,30,_Trial_,Start,1687187873602,60806b3eedf64f508355a746,sthtstjn,28,sort,filler,A,25,sort15.jpg,sort35.jpg,nogoal,NULL
1687188022,6e0951818889afaf0fb3bb4db8e40557,PennController,31,0,experiment,NULL,PennController,30,_Header_,Start,1687187873602,60806b3eedf64f508355a746,sthtstjn,28,sort,filler,A,25,sort15.jpg,sort35.jpg,nogoal,NULL
1687188022,6e0951818889afaf0fb3bb4db8e40557,PennController,31,0,experiment,NULL,PennController,30,_Header_,End,1687187873602,60806b3eedf64f508355a746,sthtstjn,28,sort,filler,A,25,sort15.jpg,sort35.jpg,nogoal,NULL
1687188022,6e0951818889afaf0fb3bb4db8e40557,PennController,31,0,experiment,NULL,Canvas,canvas6,Print,NA,1687187877278,60806b3eedf64f508355a746,sthtstjn,28,sort,filler,A,25,sort15.jpg,sort35.jpg,nogoal,NULL
1687188022,6e0951818889afaf0fb3bb4db8e40557,PennController,31,0,experiment,NULL,Video,progression,buffer,0.00319,1687187875118,60806b3eedf64f508355a746,sthtstjn,28,sort,filler,A,25,sort15.jpg,sort35.jpg,nogoal,NULL
1687188022,6e0951818889afaf0fb3bb4db8e40557,PennController,31,0,experiment,NULL,Selector,choice,Selection,option1,1687187878168,60806b3eedf64f508355a746,sthtstjn,28,sort,filler,A,25,sort15.jpg,sort35.jpg,nogoal,option1;option2
1687188022,6e0951818889afaf0fb3bb4db8e40557,PennController,31,0,experiment,NULL,PennController,30,_Trial_,End,1687187878169,60806b3eedf64f508355a746,sthtstjn,28,sort,filler,A,25,sort15.jpg,sort35.jpg,nogoal,NULL
1687188022,6e0951818889afaf0fb3bb4db8e40557,PennController,4,0,experiment,NULL,PennController,3,_Trial_,Start,1687187878170,60806b3eedf64f508355a746,sthtstjn,1,vase,critical,A,25,vase15.jpg,vase35.jpg,nogoal,NULL
1687188022,6e0951818889afaf0fb3bb4db8e40557,PennController,4,0,experiment,NULL,PennController,3,_Header_,Start,1687187878170,60806b3eedf64f508355a746,sthtstjn,1,vase,critical,A,25,vase15.jpg,vase35.jpg,nogoal,NULL
1687188022,6e0951818889afaf0fb3bb4db8e40557,PennController,4,0,experiment,NULL,PennController,3,_Header_,End,1687187878170,60806b3eedf64f508355a746,sthtstjn,1,vase,critical,A,25,vase15.jpg,vase35.jpg,nogoal,NULL
1687188022,6e0951818889afaf0fb3bb4db8e40557,PennController,4,0,experiment,NULL,Canvas,canvas6,Print,NA,1687187881845,60806b3eedf64f508355a746,sthtstjn,1,vase,critical,A,25,vase15.jpg,vase35.jpg,nogoal,NULL
1687188022,6e0951818889afaf0fb3bb4db8e40557,PennController,4,0,experiment,NULL,Video,progression,buffer,0.001697,1687187879680,60806b3eedf64f508355a746,sthtstjn,1,vase,critical,A,25,vase15.jpg,vase35.jpg,nogoal,NULL
1687188022,6e0951818889afaf0fb3bb4db8e40557,PennController,4,0,experiment,NULL,Selector,choice,Selection,option2,1687187883040,60806b3eedf64f508355a746,sthtstjn,1,vase,critical,A,25,vase15.jpg,vase35.jpg,nogoal,option1;option2
1687188022,6e0951818889afaf0fb3bb4db8e40557,PennController,4,0,experiment,NULL,PennController,3,_Trial_,End,1687187883040,60806b3eedf64f508355a746,sthtstjn,1,vase,critical,A,25,vase15.jpg,vase35.jpg,nogoal,NULL
1687188022,6e0951818889afaf0fb3bb4db8e40557,PennController,32,0,experiment,NULL,PennController,31,_Trial_,Start,1687187883041,60806b3eedf64f508355a746,sthtstjn,29,frog,filler,A,50,frog40.jpg,frog60.jpg,nogoal,NULL
1687188022,6e0951818889afaf0fb3bb4db8e40557,PennController,32,0,experiment,NULL,PennController,31,_Header_,Start,1687187883041,60806b3eedf64f508355a746,sthtstjn,29,frog,filler,A,50,frog40.jpg,frog60.jpg,nogoal,NULL
1687188022,6e0951818889afaf0fb3bb4db8e40557,PennController,32,0,experiment,NULL,PennController,31,_Header_,End,1687187883041,60806b3eedf64f508355a746,sthtstjn,29,frog,filler,A,50,frog40.jpg,frog60.jpg,nogoal,NULL
1687188022,6e0951818889afaf0fb3bb4db8e40557,PennController,32,0,experiment,NULL,Canvas,canvas6,Print,NA,1687187887709,60806b3eedf64f508355a746,sthtstjn,29,frog,filler,A,50,frog40.jpg,frog60.jpg,nogoal,NULL
1687188022,6e0951818889afaf0fb3bb4db8e40557,PennController,32,0,experiment,NULL,Video,progression,buffer,0.002517,1687187884555,60806b3eedf64f508355a746,sthtstjn,29,frog,filler,A,50,frog40.jpg,frog60.jpg,nogoal,NULL
1687188022,6e0951818889afaf0fb3bb4db8e40557,PennController,32,0,experiment,NULL,Selector,choice,Selection,option1,1687187888584,60806b3eedf64f508355a746,sthtstjn,29,frog,filler,A,50,frog40.jpg,frog60.jpg,nogoal,option1;option2
1687188022,6e0951818889afaf0fb3bb4db8e40557,PennController,32,0,experiment,NULL,PennController,31,_Trial_,End,1687187888585,60806b3eedf64f508355a746,sthtstjn,29,frog,filler,A,50,frog40.jpg,frog60.jpg,nogoal,NULL
1687188022,6e0951818889afaf0fb3bb4db8e40557,PennController,5,0,experiment,NULL,PennController,4,_Trial_,Start,1687187888586,60806b3eedf64f508355a746,sthtstjn,2,door,critical,A,50,door40.jpg,door60.jpg,nogoal,NULL
1687188022,6e0951818889afaf0fb3bb4db8e40557,PennController,5,0,experiment,NULL,PennController,4,_Header_,Start,1687187888586,60806b3eedf64f508355a746,sthtstjn,2,door,critical,A,50,door40.jpg,door60.jpg,nogoal,NULL
1687188022,6e0951818889afaf0fb3bb4db8e40557,PennController,5,0,experiment,NULL,PennController,4,_Header_,End,1687187888586,60806b3eedf64f508355a746,sthtstjn,2,door,critical,A,50,door40.jpg,door60.jpg,nogoal,NULL
1687188022,6e0951818889afaf0fb3bb4db8e40557,PennController,5,0,experiment,NULL,Canvas,canvas6,Print,NA,1687187893308,60806b3eedf64f508355a746,sthtstjn,2,door,critical,A,50,door40.jpg,door60.jpg,nogoal,NULL
1687188022,6e0951818889afaf0fb3bb4db8e40557,PennController,5,0,experiment,NULL,Video,progression,buffer,0,1687187890102,60806b3eedf64f508355a746,sthtstjn,2,door,critical,A,50,door40.jpg,door60.jpg,nogoal,NULL
1687188022,6e0951818889afaf0fb3bb4db8e40557,PennController,5,0,experiment,NULL,Selector,choice,Selection,option2,1687187893848,60806b3eedf64f508355a746,sthtstjn,2,door,critical,A,50,door40.jpg,door60.jpg,nogoal,option1;option2
1687188022,6e0951818889afaf0fb3bb4db8e40557,PennController,5,0,experiment,NULL,PennController,4,_Trial_,End,1687187893849,60806b3eedf64f508355a746,sthtstjn,2,door,critical,A,50,door40.jpg,door60.jpg,nogoal,NULL
1687188022,6e0951818889afaf0fb3bb4db8e40557,PennController,27,0,experiment,NULL,PennController,26,_Trial_,Start,1687187893850,60806b3eedf64f508355a746,sthtstjn,24,match,filler,A,75,match65.jpg,match85.jpg,nogoal,NULL
1687188022,6e0951818889afaf0fb3bb4db8e40557,PennController,27,0,experiment,NULL,PennController,26,_Header_,Start,1687187893850,60806b3eedf64f508355a746,sthtstjn,24,match,filler,A,75,match65.jpg,match85.jpg,nogoal,NULL
1687188022,6e0951818889afaf0fb3bb4db8e40557,PennController,27,0,experiment,NULL,PennController,26,_Header_,End,1687187893850,60806b3eedf64f508355a746,sthtstjn,24,match,filler,A,75,match65.jpg,match85.jpg,nogoal,NULL
1687188022,6e0951818889afaf0fb3bb4db8e40557,PennController,27,0,experiment,NULL,Canvas,canvas6,Print,NA,1687187899530,60806b3eedf64f508355a746,sthtstjn,24,match,filler,A,75,match65.jpg,match85.jpg,nogoal,NULL
1687188022,6e0951818889afaf0fb3bb4db8e40557,PennController,27,0,experiment,NULL,Video,progression,buffer,0.001546,1687187895360,60806b3eedf64f508355a746,sthtstjn,24,match,filler,A,75,match65.jpg,match85.jpg,nogoal,NULL
1687188022,6e0951818889afaf0fb3bb4db8e40557,PennController,27,0,experiment,NULL,Selector,choice,Selection,option2,1687187900720,60806b3eedf64f508355a746,sthtstjn,24,match,filler,A,75,match65.jpg,match85.jpg,nogoal,option2;option1
1687188022,6e0951818889afaf0fb3bb4db8e40557,PennController,27,0,experiment,NULL,PennController,26,_Trial_,End,1687187900721,60806b3eedf64f508355a746,sthtstjn,24,match,filler,A,75,match65.jpg,match85.jpg,nogoal,NULL
1687188022,6e0951818889afaf0fb3bb4db8e40557,PennController,8,0,experiment,NULL,PennController,7,_Trial_,Start,1687187900723,60806b3eedf64f508355a746,sthtstjn,5,book,critical,A,50,book40.jpg,book60.jpg,nogoal,NULL
1687188022,6e0951818889afaf0fb3bb4db8e40557,PennController,8,0,experiment,NULL,PennController,7,_Header_,Start,1687187900723,60806b3eedf64f508355a746,sthtstjn,5,book,critical,A,50,book40.jpg,book60.jpg,nogoal,NULL
1687188022,6e0951818889afaf0fb3bb4db8e40557,PennController,8,0,experiment,NULL,PennController,7,_Header_,End,1687187900723,60806b3eedf64f508355a746,sthtstjn,5,book,critical,A,50,book40.jpg,book60.jpg,nogoal,NULL
1687188022,6e0951818889afaf0fb3bb4db8e40557,PennController,8,0,experiment,NULL,Canvas,canvas6,Print,NA,1687187905393,60806b3eedf64f508355a746,sthtstjn,5,book,critical,A,50,book40.jpg,book60.jpg,nogoal,NULL
1687188022,6e0951818889afaf0fb3bb4db8e40557,PennController,8,0,experiment,NULL,Video,progression,buffer,0.002381,1687187902235,60806b3eedf64f508355a746,sthtstjn,5,book,critical,A,50,book40.jpg,book60.jpg,nogoal,NULL
1687188022,6e0951818889afaf0fb3bb4db8e40557,PennController,8,0,experiment,NULL,Selector,choice,Selection,option1,1687187906224,60806b3eedf64f508355a746,sthtstjn,5,book,critical,A,50,book40.jpg,book60.jpg,nogoal,option2;option1
1687188022,6e0951818889afaf0fb3bb4db8e40557,PennController,8,0,experiment,NULL,PennController,7,_Trial_,End,1687187906225,60806b3eedf64f508355a746,sthtstjn,5,book,critical,A,50,book40.jpg,book60.jpg,nogoal,NULL
1687188022,6e0951818889afaf0fb3bb4db8e40557,PennController,20,0,experiment,NULL,PennController,19,_Trial_,Start,1687187906225,60806b3eedf64f508355a746,sthtstjn,17,roll,critical,A,50,roll40.jpg,roll60.jpg,nogoal,NULL
1687188022,6e0951818889afaf0fb3bb4db8e40557,PennController,20,0,experiment,NULL,PennController,19,_Header_,Start,1687187906225,60806b3eedf64f508355a746,sthtstjn,17,roll,critical,A,50,roll40.jpg,roll60.jpg,nogoal,NULL
1687188022,6e0951818889afaf0fb3bb4db8e40557,PennController,20,0,experiment,NULL,PennController,19,_Header_,End,1687187906225,60806b3eedf64f508355a746,sthtstjn,17,roll,critical,A,50,roll40.jpg,roll60.jpg,nogoal,NULL
1687188022,6e0951818889afaf0fb3bb4db8e40557,PennController,20,0,experiment,NULL,Canvas,canvas6,Print,NA,1687187910928,60806b3eedf64f508355a746,sthtstjn,17,roll,critical,A,50,roll40.jpg,roll60.jpg,nogoal,NULL
1687188022,6e0951818889afaf0fb3bb4db8e40557,PennController,20,0,experiment,NULL,Video,progression,buffer,0,1687187907742,60806b3eedf64f508355a746,sthtstjn,17,roll,critical,A,50,roll40.jpg,roll60.jpg,nogoal,NULL
1687188022,6e0951818889afaf0fb3bb4db8e40557,PennController,20,0,experiment,NULL,Selector,choice,Selection,option2,1687187912145,60806b3eedf64f508355a746,sthtstjn,17,roll,critical,A,50,roll40.jpg,roll60.jpg,nogoal,option2;option1
1687188022,6e0951818889afaf0fb3bb4db8e40557,PennController,20,0,experiment,NULL,PennController,19,_Trial_,End,1687187912145,60806b3eedf64f508355a746,sthtstjn,17,roll,critical,A,50,roll40.jpg,roll60.jpg,nogoal,NULL
1687188022,6e0951818889afaf0fb3bb4db8e40557,PennController,17,0,experiment,NULL,PennController,16,_Trial_,Start,1687187912146,60806b3eedf64f508355a746,sthtstjn,14,cover,critical,A,50,cover42.jpg,cover60.jpg,nogoal,NULL
1687188022,6e0951818889afaf0fb3bb4db8e40557,PennController,17,0,experiment,NULL,PennController,16,_Header_,Start,1687187912146,60806b3eedf64f508355a746,sthtstjn,14,cover,critical,A,50,cover42.jpg,cover60.jpg,nogoal,NULL
1687188022,6e0951818889afaf0fb3bb4db8e40557,PennController,17,0,experiment,NULL,PennController,16,_Header_,End,1687187912146,60806b3eedf64f508355a746,sthtstjn,14,cover,critical,A,50,cover42.jpg,cover60.jpg,nogoal,NULL
1687188022,6e0951818889afaf0fb3bb4db8e40557,PennController,17,0,experiment,NULL,Canvas,canvas6,Print,NA,1687187918227,60806b3eedf64f508355a746,sthtstjn,14,cover,critical,A,50,cover42.jpg,cover60.jpg,nogoal,NULL
1687188022,6e0951818889afaf0fb3bb4db8e40557,PennController,17,0,experiment,NULL,Video,progression,buffer,0.003493,1687187913664,60806b3eedf64f508355a746,sthtstjn,14,cover,critical,A,50,cover42.jpg,cover60.jpg,nogoal,NULL
1687188022,6e0951818889afaf0fb3bb4db8e40557,PennController,17,0,experiment,NULL,Selector,choice,Selection,option2,1687187919448,60806b3eedf64f508355a746,sthtstjn,14,cover,critical,A,50,cover42.jpg,cover60.jpg,nogoal,option2;option1
1687188022,6e0951818889afaf0fb3bb4db8e40557,PennController,17,0,experiment,NULL,PennController,16,_Trial_,End,1687187919449,60806b3eedf64f508355a746,sthtstjn,14,cover,critical,A,50,cover42.jpg,cover60.jpg,nogoal,NULL
1687188022,6e0951818889afaf0fb3bb4db8e40557,PennController,14,0,experiment,NULL,PennController,13,_Trial_,Start,1687187919450,60806b3eedf64f508355a746,sthtstjn,11,beads,critical,A,50,beads40.jpg,beads60.jpg,nogoal,NULL
1687188022,6e0951818889afaf0fb3bb4db8e40557,PennController,14,0,experiment,NULL,PennController,13,_Header_,Start,1687187919450,60806b3eedf64f508355a746,sthtstjn,11,beads,critical,A,50,beads40.jpg,beads60.jpg,nogoal,NULL
1687188022,6e0951818889afaf0fb3bb4db8e40557,PennController,14,0,experiment,NULL,PennController,13,_Header_,End,1687187919450,60806b3eedf64f508355a746,sthtstjn,11,beads,critical,A,50,beads40.jpg,beads60.jpg,nogoal,NULL
1687188022,6e0951818889afaf0fb3bb4db8e40557,PennController,14,0,experiment,NULL,Canvas,canvas6,Print,NA,1687187924132,60806b3eedf64f508355a746,sthtstjn,11,beads,critical,A,50,beads40.jpg,beads60.jpg,nogoal,NULL
1687188022,6e0951818889afaf0fb3bb4db8e40557,PennController,14,0,experiment,NULL,Video,progression,buffer,0.002299,1687187920967,60806b3eedf64f508355a746,sthtstjn,11,beads,critical,A,50,beads40.jpg,beads60.jpg,nogoal,NULL
1687188022,6e0951818889afaf0fb3bb4db8e40557,PennController,14,0,experiment,NULL,Selector,choice,Selection,option2,1687187925528,60806b3eedf64f508355a746,sthtstjn,11,beads,critical,A,50,beads40.jpg,beads60.jpg,nogoal,option1;option2
1687188022,6e0951818889afaf0fb3bb4db8e40557,PennController,14,0,experiment,NULL,PennController,13,_Trial_,End,1687187925529,60806b3eedf64f508355a746,sthtstjn,11,beads,critical,A,50,beads40.jpg,beads60.jpg,nogoal,NULL
1687188022,6e0951818889afaf0fb3bb4db8e40557,PennController,28,0,experiment,NULL,PennController,27,_Trial_,Start,1687187925530,60806b3eedf64f508355a746,sthtstjn,25,house,filler,A,25,house15.jpg,house35.jpg,nogoal,NULL
1687188022,6e0951818889afaf0fb3bb4db8e40557,PennController,28,0,experiment,NULL,PennController,27,_Header_,Start,1687187925530,60806b3eedf64f508355a746,sthtstjn,25,house,filler,A,25,house15.jpg,house35.jpg,nogoal,NULL
1687188022,6e0951818889afaf0fb3bb4db8e40557,PennController,28,0,experiment,NULL,PennController,27,_Header_,End,1687187925530,60806b3eedf64f508355a746,sthtstjn,25,house,filler,A,25,house15.jpg,house35.jpg,nogoal,NULL
1687188022,6e0951818889afaf0fb3bb4db8e40557,PennController,28,0,experiment,NULL,Canvas,canvas6,Print,NA,1687187929212,60806b3eedf64f508355a746,sthtstjn,25,house,filler,A,25,house15.jpg,house35.jpg,nogoal,NULL
1687188022,6e0951818889afaf0fb3bb4db8e40557,PennController,28,0,experiment,NULL,Video,progression,buffer,0.00356,1687187927043,60806b3eedf64f508355a746,sthtstjn,25,house,filler,A,25,house15.jpg,house35.jpg,nogoal,NULL
1687188022,6e0951818889afaf0fb3bb4db8e40557,PennController,28,0,experiment,NULL,Selector,choice,Selection,option2,1687187930152,60806b3eedf64f508355a746,sthtstjn,25,house,filler,A,25,house15.jpg,house35.jpg,nogoal,option2;option1
1687188022,6e0951818889afaf0fb3bb4db8e40557,PennController,28,0,experiment,NULL,PennController,27,_Trial_,End,1687187930153,60806b3eedf64f508355a746,sthtstjn,25,house,filler,A,25,house15.jpg,house35.jpg,nogoal,NULL
1687188022,6e0951818889afaf0fb3bb4db8e40557,PennController,30,0,experiment,NULL,PennController,29,_Trial_,Start,1687187930154,60806b3eedf64f508355a746,sthtstjn,27,square,filler,A,75,square65.jpg,square85.jpg,nogoal,NULL
1687188022,6e0951818889afaf0fb3bb4db8e40557,PennController,30,0,experiment,NULL,PennController,29,_Header_,Start,1687187930154,60806b3eedf64f508355a746,sthtstjn,27,square,filler,A,75,square65.jpg,square85.jpg,nogoal,NULL
1687188022,6e0951818889afaf0fb3bb4db8e40557,PennController,30,0,experiment,NULL,PennController,29,_Header_,End,1687187930154,60806b3eedf64f508355a746,sthtstjn,27,square,filler,A,75,square65.jpg,square85.jpg,nogoal,NULL
1687188022,6e0951818889afaf0fb3bb4db8e40557,PennController,30,0,experiment,NULL,Canvas,canvas6,Print,NA,1687187935826,60806b3eedf64f508355a746,sthtstjn,27,square,filler,A,75,square65.jpg,square85.jpg,nogoal,NULL
1687188022,6e0951818889afaf0fb3bb4db8e40557,PennController,30,0,experiment,NULL,Video,progression,buffer,0.002427,1687187931665,60806b3eedf64f508355a746,sthtstjn,27,square,filler,A,75,square65.jpg,square85.jpg,nogoal,NULL
1687188022,6e0951818889afaf0fb3bb4db8e40557,PennController,30,0,experiment,NULL,Selector,choice,Selection,option1,1687187936352,60806b3eedf64f508355a746,sthtstjn,27,square,filler,A,75,square65.jpg,square85.jpg,nogoal,option2;option1
1687188022,6e0951818889afaf0fb3bb4db8e40557,PennController,30,0,experiment,NULL,PennController,29,_Trial_,End,1687187936353,60806b3eedf64f508355a746,sthtstjn,27,square,filler,A,75,square65.jpg,square85.jpg,nogoal,NULL
1687188022,6e0951818889afaf0fb3bb4db8e40557,PennController,23,0,experiment,NULL,PennController,22,_Trial_,Start,1687187936353,60806b3eedf64f508355a746,sthtstjn,20,cat,filler,A,50,cat40.jpg,cat60.jpg,nogoal,NULL
1687188022,6e0951818889afaf0fb3bb4db8e40557,PennController,23,0,experiment,NULL,PennController,22,_Header_,Start,1687187936353,60806b3eedf64f508355a746,sthtstjn,20,cat,filler,A,50,cat40.jpg,cat60.jpg,nogoal,NULL
1687188022,6e0951818889afaf0fb3bb4db8e40557,PennController,23,0,experiment,NULL,PennController,22,_Header_,End,1687187936353,60806b3eedf64f508355a746,sthtstjn,20,cat,filler,A,50,cat40.jpg,cat60.jpg,nogoal,NULL
1687188022,6e0951818889afaf0fb3bb4db8e40557,PennController,23,0,experiment,NULL,Canvas,canvas6,Print,NA,1687187941022,60806b3eedf64f508355a746,sthtstjn,20,cat,filler,A,50,cat40.jpg,cat60.jpg,nogoal,NULL
1687188022,6e0951818889afaf0fb3bb4db8e40557,PennController,23,0,experiment,NULL,Video,progression,buffer,0.001678,1687187937867,60806b3eedf64f508355a746,sthtstjn,20,cat,filler,A,50,cat40.jpg,cat60.jpg,nogoal,NULL
1687188022,6e0951818889afaf0fb3bb4db8e40557,PennController,23,0,experiment,NULL,Selector,choice,Selection,option1,1687187943024,60806b3eedf64f508355a746,sthtstjn,20,cat,filler,A,50,cat40.jpg,cat60.jpg,nogoal,option2;option1
1687188022,6e0951818889afaf0fb3bb4db8e40557,PennController,23,0,experiment,NULL,PennController,22,_Trial_,End,1687187943025,60806b3eedf64f508355a746,sthtstjn,20,cat,filler,A,50,cat40.jpg,cat60.jpg,nogoal,NULL
1687188022,6e0951818889afaf0fb3bb4db8e40557,PennController,15,0,experiment,NULL,PennController,14,_Trial_,Start,1687187943026,60806b3eedf64f508355a746,sthtstjn,12,erase,critical,A,75,erase66.jpg,erase84.jpg,nogoal,NULL
1687188022,6e0951818889afaf0fb3bb4db8e40557,PennController,15,0,experiment,NULL,PennController,14,_Header_,Start,1687187943026,60806b3eedf64f508355a746,sthtstjn,12,erase,critical,A,75,erase66.jpg,erase84.jpg,nogoal,NULL
1687188022,6e0951818889afaf0fb3bb4db8e40557,PennController,15,0,experiment,NULL,PennController,14,_Header_,End,1687187943026,60806b3eedf64f508355a746,sthtstjn,12,erase,critical,A,75,erase66.jpg,erase84.jpg,nogoal,NULL
1687188022,6e0951818889afaf0fb3bb4db8e40557,PennController,15,0,experiment,NULL,Canvas,canvas6,Print,NA,1687187950694,60806b3eedf64f508355a746,sthtstjn,12,erase,critical,A,75,erase66.jpg,erase84.jpg,nogoal,NULL
1687188022,6e0951818889afaf0fb3bb4db8e40557,PennController,15,0,experiment,NULL,Video,progression,buffer,0.002036,1687187944535,60806b3eedf64f508355a746,sthtstjn,12,erase,critical,A,75,erase66.jpg,erase84.jpg,nogoal,NULL
1687188022,6e0951818889afaf0fb3bb4db8e40557,PennController,15,0,experiment,NULL,Selector,choice,Selection,option2,1687187952144,60806b3eedf64f508355a746,sthtstjn,12,erase,critical,A,75,erase66.jpg,erase84.jpg,nogoal,option1;option2
1687188022,6e0951818889afaf0fb3bb4db8e40557,PennController,15,0,experiment,NULL,PennController,14,_Trial_,End,1687187952145,60806b3eedf64f508355a746,sthtstjn,12,erase,critical,A,75,erase66.jpg,erase84.jpg,nogoal,NULL
1687188022,6e0951818889afaf0fb3bb4db8e40557,PennController,24,0,experiment,NULL,PennController,23,_Trial_,Start,1687187952146,60806b3eedf64f508355a746,sthtstjn,21,visit,filler,A,75,visit65.jpg,visit85.jpg,nogoal,NULL
1687188022,6e0951818889afaf0fb3bb4db8e40557,PennController,24,0,experiment,NULL,PennController,23,_Header_,Start,1687187952146,60806b3eedf64f508355a746,sthtstjn,21,visit,filler,A,75,visit65.jpg,visit85.jpg,nogoal,NULL
1687188022,6e0951818889afaf0fb3bb4db8e40557,PennController,24,0,experiment,NULL,PennController,23,_Header_,End,1687187952146,60806b3eedf64f508355a746,sthtstjn,21,visit,filler,A,75,visit65.jpg,visit85.jpg,nogoal,NULL
1687188022,6e0951818889afaf0fb3bb4db8e40557,PennController,24,0,experiment,NULL,Canvas,canvas6,Print,NA,1687187957825,60806b3eedf64f508355a746,sthtstjn,21,visit,filler,A,75,visit65.jpg,visit85.jpg,nogoal,NULL
1687188022,6e0951818889afaf0fb3bb4db8e40557,PennController,24,0,experiment,NULL,Video,progression,buffer,0.002865,1687187953663,60806b3eedf64f508355a746,sthtstjn,21,visit,filler,A,75,visit65.jpg,visit85.jpg,nogoal,NULL
1687188022,6e0951818889afaf0fb3bb4db8e40557,PennController,24,0,experiment,NULL,Selector,choice,Selection,option2,1687187964224,60806b3eedf64f508355a746,sthtstjn,21,visit,filler,A,75,visit65.jpg,visit85.jpg,nogoal,option1;option2
1687188022,6e0951818889afaf0fb3bb4db8e40557,PennController,24,0,experiment,NULL,PennController,23,_Trial_,End,1687187964224,60806b3eedf64f508355a746,sthtstjn,21,visit,filler,A,75,visit65.jpg,visit85.jpg,nogoal,NULL
1687188022,6e0951818889afaf0fb3bb4db8e40557,PennController,16,0,experiment,NULL,PennController,15,_Trial_,Start,1687187964225,60806b3eedf64f508355a746,sthtstjn,13,mix,critical,A,25,mix15.jpg,mix35.jpg,nogoal,NULL
1687188022,6e0951818889afaf0fb3bb4db8e40557,PennController,16,0,experiment,NULL,PennController,15,_Header_,Start,1687187964225,60806b3eedf64f508355a746,sthtstjn,13,mix,critical,A,25,mix15.jpg,mix35.jpg,nogoal,NULL
1687188022,6e0951818889afaf0fb3bb4db8e40557,PennController,16,0,experiment,NULL,PennController,15,_Header_,End,1687187964225,60806b3eedf64f508355a746,sthtstjn,13,mix,critical,A,25,mix15.jpg,mix35.jpg,nogoal,NULL
1687188022,6e0951818889afaf0fb3bb4db8e40557,PennController,16,0,experiment,NULL,Canvas,canvas6,Print,NA,1687187967911,60806b3eedf64f508355a746,sthtstjn,13,mix,critical,A,25,mix15.jpg,mix35.jpg,nogoal,NULL
1687188022,6e0951818889afaf0fb3bb4db8e40557,PennController,16,0,experiment,NULL,Video,progression,buffer,0.004078,1687187965740,60806b3eedf64f508355a746,sthtstjn,13,mix,critical,A,25,mix15.jpg,mix35.jpg,nogoal,NULL
1687188022,6e0951818889afaf0fb3bb4db8e40557,PennController,16,0,experiment,NULL,Selector,choice,Selection,option2,1687187970024,60806b3eedf64f508355a746,sthtstjn,13,mix,critical,A,25,mix15.jpg,mix35.jpg,nogoal,option1;option2
1687188022,6e0951818889afaf0fb3bb4db8e40557,PennController,16,0,experiment,NULL,PennController,15,_Trial_,End,1687187970025,60806b3eedf64f508355a746,sthtstjn,13,mix,critical,A,25,mix15.jpg,mix35.jpg,nogoal,NULL
1687188022,6e0951818889afaf0fb3bb4db8e40557,PennController,25,0,experiment,NULL,PennController,24,_Trial_,Start,1687187970026,60806b3eedf64f508355a746,sthtstjn,22,wall,filler,A,25,wall15.jpg,wall35.jpg,nogoal,NULL
1687188022,6e0951818889afaf0fb3bb4db8e40557,PennController,25,0,experiment,NULL,PennController,24,_Header_,Start,1687187970026,60806b3eedf64f508355a746,sthtstjn,22,wall,filler,A,25,wall15.jpg,wall35.jpg,nogoal,NULL
1687188022,6e0951818889afaf0fb3bb4db8e40557,PennController,25,0,experiment,NULL,PennController,24,_Header_,End,1687187970026,60806b3eedf64f508355a746,sthtstjn,22,wall,filler,A,25,wall15.jpg,wall35.jpg,nogoal,NULL
1687188022,6e0951818889afaf0fb3bb4db8e40557,PennController,25,0,experiment,NULL,Canvas,canvas6,Print,NA,1687187973707,60806b3eedf64f508355a746,sthtstjn,22,wall,filler,A,25,wall15.jpg,wall35.jpg,nogoal,NULL
1687188022,6e0951818889afaf0fb3bb4db8e40557,PennController,25,0,experiment,NULL,Video,progression,buffer,0.002635,1687187971543,60806b3eedf64f508355a746,sthtstjn,22,wall,filler,A,25,wall15.jpg,wall35.jpg,nogoal,NULL
1687188022,6e0951818889afaf0fb3bb4db8e40557,PennController,25,0,experiment,NULL,Selector,choice,Selection,option1,1687187976112,60806b3eedf64f508355a746,sthtstjn,22,wall,filler,A,25,wall15.jpg,wall35.jpg,nogoal,option2;option1
1687188022,6e0951818889afaf0fb3bb4db8e40557,PennController,25,0,experiment,NULL,PennController,24,_Trial_,End,1687187976113,60806b3eedf64f508355a746,sthtstjn,22,wall,filler,A,25,wall15.jpg,wall35.jpg,nogoal,NULL
1687188022,6e0951818889afaf0fb3bb4db8e40557,PennController,21,0,experiment,NULL,PennController,20,_Trial_,Start,1687187976114,60806b3eedf64f508355a746,sthtstjn,18,ball,critical,A,75,ball65.jpg,ball85.jpg,nogoal,NULL
1687188022,6e0951818889afaf0fb3bb4db8e40557,PennController,21,0,experiment,NULL,PennController,20,_Header_,Start,1687187976114,60806b3eedf64f508355a746,sthtstjn,18,ball,critical,A,75,ball65.jpg,ball85.jpg,nogoal,NULL
1687188022,6e0951818889afaf0fb3bb4db8e40557,PennController,21,0,experiment,NULL,PennController,20,_Header_,End,1687187976114,60806b3eedf64f508355a746,sthtstjn,18,ball,critical,A,75,ball65.jpg,ball85.jpg,nogoal,NULL
1687188022,6e0951818889afaf0fb3bb4db8e40557,PennController,21,0,experiment,NULL,Canvas,canvas6,Print,NA,1687187981790,60806b3eedf64f508355a746,sthtstjn,18,ball,critical,A,75,ball65.jpg,ball85.jpg,nogoal,NULL
1687188022,6e0951818889afaf0fb3bb4db8e40557,PennController,21,0,experiment,NULL,Video,progression,buffer,0.002046,1687187977629,60806b3eedf64f508355a746,sthtstjn,18,ball,critical,A,75,ball65.jpg,ball85.jpg,nogoal,NULL
1687188022,6e0951818889afaf0fb3bb4db8e40557,PennController,21,0,experiment,NULL,Selector,choice,Selection,option2,1687187982952,60806b3eedf64f508355a746,sthtstjn,18,ball,critical,A,75,ball65.jpg,ball85.jpg,nogoal,option2;option1
1687188022,6e0951818889afaf0fb3bb4db8e40557,PennController,21,0,experiment,NULL,PennController,20,_Trial_,End,1687187982953,60806b3eedf64f508355a746,sthtstjn,18,ball,critical,A,75,ball65.jpg,ball85.jpg,nogoal,NULL
1687188022,6e0951818889afaf0fb3bb4db8e40557,PennController,22,0,experiment,NULL,PennController,21,_Trial_,Start,1687187982953,60806b3eedf64f508355a746,sthtstjn,19,cup,filler,A,25,cup15.jpg,cup35.jpg,nogoal,NULL
1687188022,6e0951818889afaf0fb3bb4db8e40557,PennController,22,0,experiment,NULL,PennController,21,_Header_,Start,1687187982953,60806b3eedf64f508355a746,sthtstjn,19,cup,filler,A,25,cup15.jpg,cup35.jpg,nogoal,NULL
1687188022,6e0951818889afaf0fb3bb4db8e40557,PennController,22,0,experiment,NULL,PennController,21,_Header_,End,1687187982954,60806b3eedf64f508355a746,sthtstjn,19,cup,filler,A,25,cup15.jpg,cup35.jpg,nogoal,NULL
1687188022,6e0951818889afaf0fb3bb4db8e40557,PennController,22,0,experiment,NULL,Canvas,canvas6,Print,NA,1687187986624,60806b3eedf64f508355a746,sthtstjn,19,cup,filler,A,25,cup15.jpg,cup35.jpg,nogoal,NULL
1687188022,6e0951818889afaf0fb3bb4db8e40557,PennController,22,0,experiment,NULL,Video,progression,buffer,0.002058,1687187984466,60806b3eedf64f508355a746,sthtstjn,19,cup,filler,A,25,cup15.jpg,cup35.jpg,nogoal,NULL
1687188022,6e0951818889afaf0fb3bb4db8e40557,PennController,22,0,experiment,NULL,Selector,choice,Selection,option2,1687187988968,60806b3eedf64f508355a746,sthtstjn,19,cup,filler,A,25,cup15.jpg,cup35.jpg,nogoal,option1;option2
1687188022,6e0951818889afaf0fb3bb4db8e40557,PennController,22,0,experiment,NULL,PennController,21,_Trial_,End,1687187988969,60806b3eedf64f508355a746,sthtstjn,19,cup,filler,A,25,cup15.jpg,cup35.jpg,nogoal,NULL
1687188022,6e0951818889afaf0fb3bb4db8e40557,PennController,13,0,experiment,NULL,PennController,12,_Trial_,Start,1687187988969,60806b3eedf64f508355a746,sthtstjn,10,train,critical,A,25,train15.jpg,train35.jpg,nogoal,NULL
1687188022,6e0951818889afaf0fb3bb4db8e40557,PennController,13,0,experiment,NULL,PennController,12,_Header_,Start,1687187988969,60806b3eedf64f508355a746,sthtstjn,10,train,critical,A,25,train15.jpg,train35.jpg,nogoal,NULL
1687188022,6e0951818889afaf0fb3bb4db8e40557,PennController,13,0,experiment,NULL,PennController,12,_Header_,End,1687187988970,60806b3eedf64f508355a746,sthtstjn,10,train,critical,A,25,train15.jpg,train35.jpg,nogoal,NULL
1687188022,6e0951818889afaf0fb3bb4db8e40557,PennController,13,0,experiment,NULL,Canvas,canvas6,Print,NA,1687187992655,60806b3eedf64f508355a746,sthtstjn,10,train,critical,A,25,train15.jpg,train35.jpg,nogoal,NULL
1687188022,6e0951818889afaf0fb3bb4db8e40557,PennController,13,0,experiment,NULL,Video,progression,buffer,0.002674,1687187990484,60806b3eedf64f508355a746,sthtstjn,10,train,critical,A,25,train15.jpg,train35.jpg,nogoal,NULL
1687188022,6e0951818889afaf0fb3bb4db8e40557,PennController,13,0,experiment,NULL,Selector,choice,Selection,option2,1687187993664,60806b3eedf64f508355a746,sthtstjn,10,train,critical,A,25,train15.jpg,train35.jpg,nogoal,option1;option2
1687188022,6e0951818889afaf0fb3bb4db8e40557,PennController,13,0,experiment,NULL,PennController,12,_Trial_,End,1687187993665,60806b3eedf64f508355a746,sthtstjn,10,train,critical,A,25,train15.jpg,train35.jpg,nogoal,NULL
1687188022,6e0951818889afaf0fb3bb4db8e40557,PennController,7,0,experiment,NULL,PennController,6,_Trial_,Start,1687187993665,60806b3eedf64f508355a746,sthtstjn,4,candy,critical,A,25,candy15.jpg,candy35.jpg,nogoal,NULL
1687188022,6e0951818889afaf0fb3bb4db8e40557,PennController,7,0,experiment,NULL,PennController,6,_Header_,Start,1687187993665,60806b3eedf64f508355a746,sthtstjn,4,candy,critical,A,25,candy15.jpg,candy35.jpg,nogoal,NULL
1687188022,6e0951818889afaf0fb3bb4db8e40557,PennController,7,0,experiment,NULL,PennController,6,_Header_,End,1687187993666,60806b3eedf64f508355a746,sthtstjn,4,candy,critical,A,25,candy15.jpg,candy35.jpg,nogoal,NULL
1687188022,6e0951818889afaf0fb3bb4db8e40557,PennController,7,0,experiment,NULL,Canvas,canvas6,Print,NA,1687187997336,60806b3eedf64f508355a746,sthtstjn,4,candy,critical,A,25,candy15.jpg,candy35.jpg,nogoal,NULL
1687188022,6e0951818889afaf0fb3bb4db8e40557,PennController,7,0,experiment,NULL,Video,progression,buffer,0.00194,1687187995181,60806b3eedf64f508355a746,sthtstjn,4,candy,critical,A,25,candy15.jpg,candy35.jpg,nogoal,NULL
1687188022,6e0951818889afaf0fb3bb4db8e40557,PennController,7,0,experiment,NULL,Selector,choice,Selection,option1,1687187998544,60806b3eedf64f508355a746,sthtstjn,4,candy,critical,A,25,candy15.jpg,candy35.jpg,nogoal,option2;option1
1687188022,6e0951818889afaf0fb3bb4db8e40557,PennController,7,0,experiment,NULL,PennController,6,_Trial_,End,1687187998545,60806b3eedf64f508355a746,sthtstjn,4,candy,critical,A,25,candy15.jpg,candy35.jpg,nogoal,NULL
1687188022,6e0951818889afaf0fb3bb4db8e40557,PennController,11,0,experiment,NULL,PennController,10,_Trial_,Start,1687187998546,60806b3eedf64f508355a746,sthtstjn,8,cucumber,critical,A,50,cucumber42.jpg,cucumber60.jpg,nogoal,NULL
1687188022,6e0951818889afaf0fb3bb4db8e40557,PennController,11,0,experiment,NULL,PennController,10,_Header_,Start,1687187998546,60806b3eedf64f508355a746,sthtstjn,8,cucumber,critical,A,50,cucumber42.jpg,cucumber60.jpg,nogoal,NULL
1687188022,6e0951818889afaf0fb3bb4db8e40557,PennController,11,0,experiment,NULL,PennController,10,_Header_,End,1687187998546,60806b3eedf64f508355a746,sthtstjn,8,cucumber,critical,A,50,cucumber42.jpg,cucumber60.jpg,nogoal,NULL
1687188022,6e0951818889afaf0fb3bb4db8e40557,PennController,11,0,experiment,NULL,Canvas,canvas6,Print,NA,1687188004618,60806b3eedf64f508355a746,sthtstjn,8,cucumber,critical,A,50,cucumber42.jpg,cucumber60.jpg,nogoal,NULL
1687188022,6e0951818889afaf0fb3bb4db8e40557,PennController,11,0,experiment,NULL,Video,progression,buffer,0.001706,1687188000058,60806b3eedf64f508355a746,sthtstjn,8,cucumber,critical,A,50,cucumber42.jpg,cucumber60.jpg,nogoal,NULL
1687188022,6e0951818889afaf0fb3bb4db8e40557,PennController,11,0,experiment,NULL,Selector,choice,Selection,option2,1687188005280,60806b3eedf64f508355a746,sthtstjn,8,cucumber,critical,A,50,cucumber42.jpg,cucumber60.jpg,nogoal,option1;option2
1687188022,6e0951818889afaf0fb3bb4db8e40557,PennController,11,0,experiment,NULL,PennController,10,_Trial_,End,1687188005281,60806b3eedf64f508355a746,sthtstjn,8,cucumber,critical,A,50,cucumber42.jpg,cucumber60.jpg,nogoal,NULL
1687188022,6e0951818889afaf0fb3bb4db8e40557,PennController,9,0,experiment,NULL,PennController,8,_Trial_,Start,1687188005282,60806b3eedf64f508355a746,sthtstjn,6,flower,critical,A,75,flower65.jpg,flower85.jpg,nogoal,NULL
1687188022,6e0951818889afaf0fb3bb4db8e40557,PennController,9,0,experiment,NULL,PennController,8,_Header_,Start,1687188005282,60806b3eedf64f508355a746,sthtstjn,6,flower,critical,A,75,flower65.jpg,flower85.jpg,nogoal,NULL
1687188022,6e0951818889afaf0fb3bb4db8e40557,PennController,9,0,experiment,NULL,PennController,8,_Header_,End,1687188005282,60806b3eedf64f508355a746,sthtstjn,6,flower,critical,A,75,flower65.jpg,flower85.jpg,nogoal,NULL
1687188022,6e0951818889afaf0fb3bb4db8e40557,PennController,9,0,experiment,NULL,Canvas,canvas6,Print,NA,1687188010971,60806b3eedf64f508355a746,sthtstjn,6,flower,critical,A,75,flower65.jpg,flower85.jpg,nogoal,NULL
1687188022,6e0951818889afaf0fb3bb4db8e40557,PennController,9,0,experiment,NULL,Video,progression,buffer,0.002528,1687188006801,60806b3eedf64f508355a746,sthtstjn,6,flower,critical,A,75,flower65.jpg,flower85.jpg,nogoal,NULL
1687188022,6e0951818889afaf0fb3bb4db8e40557,PennController,9,0,experiment,NULL,Selector,choice,Selection,option1,1687188011232,60806b3eedf64f508355a746,sthtstjn,6,flower,critical,A,75,flower65.jpg,flower85.jpg,nogoal,option2;option1
1687188022,6e0951818889afaf0fb3bb4db8e40557,PennController,9,0,experiment,NULL,PennController,8,_Trial_,End,1687188011233,60806b3eedf64f508355a746,sthtstjn,6,flower,critical,A,75,flower65.jpg,flower85.jpg,nogoal,NULL
1687188022,6e0951818889afaf0fb3bb4db8e40557,PennController,19,0,experiment,NULL,PennController,18,_Trial_,Start,1687188011233,60806b3eedf64f508355a746,sthtstjn,16,blinds,critical,A,25,blinds15.jpg,blinds33.jpg,nogoal,NULL
1687188022,6e0951818889afaf0fb3bb4db8e40557,PennController,19,0,experiment,NULL,PennController,18,_Header_,Start,1687188011233,60806b3eedf64f508355a746,sthtstjn,16,blinds,critical,A,25,blinds15.jpg,blinds33.jpg,nogoal,NULL
1687188022,6e0951818889afaf0fb3bb4db8e40557,PennController,19,0,experiment,NULL,PennController,18,_Header_,End,1687188011233,60806b3eedf64f508355a746,sthtstjn,16,blinds,critical,A,25,blinds15.jpg,blinds33.jpg,nogoal,NULL
1687188022,6e0951818889afaf0fb3bb4db8e40557,PennController,19,0,experiment,NULL,Canvas,canvas6,Print,NA,1687188015507,60806b3eedf64f508355a746,sthtstjn,16,blinds,critical,A,25,blinds15.jpg,blinds33.jpg,nogoal,NULL
1687188022,6e0951818889afaf0fb3bb4db8e40557,PennController,19,0,experiment,NULL,Video,progression,buffer,0.002181,1687188012746,60806b3eedf64f508355a746,sthtstjn,16,blinds,critical,A,25,blinds15.jpg,blinds33.jpg,nogoal,NULL
1687188022,6e0951818889afaf0fb3bb4db8e40557,PennController,19,0,experiment,NULL,Selector,choice,Selection,option2,1687188015808,60806b3eedf64f508355a746,sthtstjn,16,blinds,critical,A,25,blinds15.jpg,blinds33.jpg,nogoal,option1;option2
1687188022,6e0951818889afaf0fb3bb4db8e40557,PennController,19,0,experiment,NULL,PennController,18,_Trial_,End,1687188015809,60806b3eedf64f508355a746,sthtstjn,16,blinds,critical,A,25,blinds15.jpg,blinds33.jpg,nogoal,NULL
1687188022,6e0951818889afaf0fb3bb4db8e40557,PennController,18,0,experiment,NULL,PennController,17,_Trial_,Start,1687188015810,60806b3eedf64f508355a746,sthtstjn,15,zip,critical,A,75,zip65.jpg,zip85.jpg,nogoal,NULL
1687188022,6e0951818889afaf0fb3bb4db8e40557,PennController,18,0,experiment,NULL,PennController,17,_Header_,Start,1687188015810,60806b3eedf64f508355a746,sthtstjn,15,zip,critical,A,75,zip65.jpg,zip85.jpg,nogoal,NULL
1687188022,6e0951818889afaf0fb3bb4db8e40557,PennController,18,0,experiment,NULL,PennController,17,_Header_,End,1687188015810,60806b3eedf64f508355a746,sthtstjn,15,zip,critical,A,75,zip65.jpg,zip85.jpg,nogoal,NULL
1687188022,6e0951818889afaf0fb3bb4db8e40557,PennController,18,0,experiment,NULL,Canvas,canvas6,Print,NA,1687188021487,60806b3eedf64f508355a746,sthtstjn,15,zip,critical,A,75,zip65.jpg,zip85.jpg,nogoal,NULL
1687188022,6e0951818889afaf0fb3bb4db8e40557,PennController,18,0,experiment,NULL,Video,progression,buffer,0.002872,1687188017326,60806b3eedf64f508355a746,sthtstjn,15,zip,critical,A,75,zip65.jpg,zip85.jpg,nogoal,NULL
1687188022,6e0951818889afaf0fb3bb4db8e40557,PennController,18,0,experiment,NULL,Selector,choice,Selection,option2,1687188022152,60806b3eedf64f508355a746,sthtstjn,15,zip,critical,A,75,zip65.jpg,zip85.jpg,nogoal,option1;option2
1687188022,6e0951818889afaf0fb3bb4db8e40557,PennController,18,0,experiment,NULL,PennController,17,_Trial_,End,1687188022153,60806b3eedf64f508355a746,sthtstjn,15,zip,critical,A,75,zip65.jpg,zip85.jpg,nogoal,NULL
