#
# Results on Tuesday June 20 2023 17:17:36 UTC
# USER AGENT: Mozilla/5.0 (Windows NT 10.0; Win64; x64) AppleWebKit/537.36 (KHTML, like Gecko) Chrome/114.0.0.0 Safari/537.36
# Design number was non-random = 4
#
# Columns below this comment are as follows:
# 1. Results reception time.
# 2. MD5 hash of participant's IP address.
# 3. Controller name.
# 4. Order number of item.
# 5. Inner element number.
# 6. Label.
# 7. Latin Square Group.
# 8. PennElementType.
# 9. PennElementName.
# 10. Parameter.
# 11. Value.
# 12. EventTime.
# 13. PROLIFIC_ID.
# 14. Comments.
1687281456,c9c6aae4d0a16f71cc0d4cf5c0b44373,PennController,2,0,consent,NULL,PennController,0,_Trial_,Start,1687281223949,60ccdd2c461e041ac1dc2b41,NULL
1687281456,c9c6aae4d0a16f71cc0d4cf5c0b44373,PennController,2,0,consent,NULL,PennController,0,_Header_,Start,1687281223949,60ccdd2c461e041ac1dc2b41,NULL
1687281456,c9c6aae4d0a16f71cc0d4cf5c0b44373,PennController,2,0,consent,NULL,PennController,0,_Header_,End,1687281223949,60ccdd2c461e041ac1dc2b41,NULL
1687281456,c9c6aae4d0a16f71cc0d4cf5c0b44373,PennController,2,0,consent,NULL,PennController,0,_Trial_,End,1687281232940,60ccdd2c461e041ac1dc2b41,NULL
# Columns below this comment are as follows:
# 14. ID.
# 15. Comments.
1687281456,c9c6aae4d0a16f71cc0d4cf5c0b44373,PennController,3,0,intro,NULL,PennController,1,_Trial_,Start,1687281232942,60ccdd2c461e041ac1dc2b41,60ccdd2c461e041ac1dc2b41,NULL
1687281456,c9c6aae4d0a16f71cc0d4cf5c0b44373,PennController,3,0,intro,NULL,PennController,1,_Header_,Start,1687281232942,60ccdd2c461e041ac1dc2b41,60ccdd2c461e041ac1dc2b41,NULL
1687281456,c9c6aae4d0a16f71cc0d4cf5c0b44373,PennController,3,0,intro,NULL,PennController,1,_Header_,End,1687281232943,60ccdd2c461e041ac1dc2b41,60ccdd2c461e041ac1dc2b41,NULL
1687281456,c9c6aae4d0a16f71cc0d4cf5c0b44373,PennController,3,0,intro,NULL,PennController,1,_Trial_,End,1687281254748,60ccdd2c461e041ac1dc2b41,60ccdd2c461e041ac1dc2b41,NULL
# Columns below this comment are as follows:
# 15. item_number.
# 16. item.
# 17. type.
# 18. Group.
# 19. prog.
# 20. prev_image.
# 21. next_image.
# 22. height.
# 23. Comments.
1687281456,c9c6aae4d0a16f71cc0d4cf5c0b44373,PennController,13,0,experiment,NULL,PennController,12,_Trial_,Start,1687281254751,60ccdd2c461e041ac1dc2b41,60ccdd2c461e041ac1dc2b41,10,train,critical,B,50,train40.jpg,train60.jpg,nogoal,NULL
1687281456,c9c6aae4d0a16f71cc0d4cf5c0b44373,PennController,13,0,experiment,NULL,PennController,12,_Header_,Start,1687281254751,60ccdd2c461e041ac1dc2b41,60ccdd2c461e041ac1dc2b41,10,train,critical,B,50,train40.jpg,train60.jpg,nogoal,NULL
1687281456,c9c6aae4d0a16f71cc0d4cf5c0b44373,PennController,13,0,experiment,NULL,PennController,12,_Header_,End,1687281254752,60ccdd2c461e041ac1dc2b41,60ccdd2c461e041ac1dc2b41,10,train,critical,B,50,train40.jpg,train60.jpg,nogoal,NULL
1687281456,c9c6aae4d0a16f71cc0d4cf5c0b44373,PennController,13,0,experiment,NULL,Canvas,canvas6,Print,NA,1687281259463,60ccdd2c461e041ac1dc2b41,60ccdd2c461e041ac1dc2b41,10,train,critical,B,50,train40.jpg,train60.jpg,nogoal,NULL
1687281456,c9c6aae4d0a16f71cc0d4cf5c0b44373,PennController,13,0,experiment,NULL,Video,progression,buffer,0.004889,1687281256295,60ccdd2c461e041ac1dc2b41,60ccdd2c461e041ac1dc2b41,10,train,critical,B,50,train40.jpg,train60.jpg,nogoal,NULL
1687281456,c9c6aae4d0a16f71cc0d4cf5c0b44373,PennController,13,0,experiment,NULL,Selector,choice,Selection,option2,1687281261190,60ccdd2c461e041ac1dc2b41,60ccdd2c461e041ac1dc2b41,10,train,critical,B,50,train40.jpg,train60.jpg,nogoal,option2;option1
1687281456,c9c6aae4d0a16f71cc0d4cf5c0b44373,PennController,13,0,experiment,NULL,PennController,12,_Trial_,End,1687281261194,60ccdd2c461e041ac1dc2b41,60ccdd2c461e041ac1dc2b41,10,train,critical,B,50,train40.jpg,train60.jpg,nogoal,NULL
1687281456,c9c6aae4d0a16f71cc0d4cf5c0b44373,PennController,7,0,experiment,NULL,PennController,6,_Trial_,Start,1687281261195,60ccdd2c461e041ac1dc2b41,60ccdd2c461e041ac1dc2b41,4,candy,critical,B,50,candy40.jpg,candy60.jpg,nogoal,NULL
1687281456,c9c6aae4d0a16f71cc0d4cf5c0b44373,PennController,7,0,experiment,NULL,PennController,6,_Header_,Start,1687281261195,60ccdd2c461e041ac1dc2b41,60ccdd2c461e041ac1dc2b41,4,candy,critical,B,50,candy40.jpg,candy60.jpg,nogoal,NULL
1687281456,c9c6aae4d0a16f71cc0d4cf5c0b44373,PennController,7,0,experiment,NULL,PennController,6,_Header_,End,1687281261195,60ccdd2c461e041ac1dc2b41,60ccdd2c461e041ac1dc2b41,4,candy,critical,B,50,candy40.jpg,candy60.jpg,nogoal,NULL
1687281456,c9c6aae4d0a16f71cc0d4cf5c0b44373,PennController,7,0,experiment,NULL,Canvas,canvas6,Print,NA,1687281265888,60ccdd2c461e041ac1dc2b41,60ccdd2c461e041ac1dc2b41,4,candy,critical,B,50,candy40.jpg,candy60.jpg,nogoal,NULL
1687281456,c9c6aae4d0a16f71cc0d4cf5c0b44373,PennController,7,0,experiment,NULL,Video,progression,buffer,0.006325,1687281262722,60ccdd2c461e041ac1dc2b41,60ccdd2c461e041ac1dc2b41,4,candy,critical,B,50,candy40.jpg,candy60.jpg,nogoal,NULL
1687281456,c9c6aae4d0a16f71cc0d4cf5c0b44373,PennController,7,0,experiment,NULL,Selector,choice,Selection,option1,1687281268423,60ccdd2c461e041ac1dc2b41,60ccdd2c461e041ac1dc2b41,4,candy,critical,B,50,candy40.jpg,candy60.jpg,nogoal,option2;option1
1687281456,c9c6aae4d0a16f71cc0d4cf5c0b44373,PennController,7,0,experiment,NULL,PennController,6,_Trial_,End,1687281268425,60ccdd2c461e041ac1dc2b41,60ccdd2c461e041ac1dc2b41,4,candy,critical,B,50,candy40.jpg,candy60.jpg,nogoal,NULL
1687281456,c9c6aae4d0a16f71cc0d4cf5c0b44373,PennController,23,0,experiment,NULL,PennController,22,_Trial_,Start,1687281268426,60ccdd2c461e041ac1dc2b41,60ccdd2c461e041ac1dc2b41,20,cat,filler,B,75,cat65.jpg,cat85.jpg,nogoal,NULL
1687281456,c9c6aae4d0a16f71cc0d4cf5c0b44373,PennController,23,0,experiment,NULL,PennController,22,_Header_,Start,1687281268426,60ccdd2c461e041ac1dc2b41,60ccdd2c461e041ac1dc2b41,20,cat,filler,B,75,cat65.jpg,cat85.jpg,nogoal,NULL
1687281456,c9c6aae4d0a16f71cc0d4cf5c0b44373,PennController,23,0,experiment,NULL,PennController,22,_Header_,End,1687281268426,60ccdd2c461e041ac1dc2b41,60ccdd2c461e041ac1dc2b41,20,cat,filler,B,75,cat65.jpg,cat85.jpg,nogoal,NULL
1687281456,c9c6aae4d0a16f71cc0d4cf5c0b44373,PennController,23,0,experiment,NULL,Canvas,canvas6,Print,NA,1687281274118,60ccdd2c461e041ac1dc2b41,60ccdd2c461e041ac1dc2b41,20,cat,filler,B,75,cat65.jpg,cat85.jpg,nogoal,NULL
1687281456,c9c6aae4d0a16f71cc0d4cf5c0b44373,PennController,23,0,experiment,NULL,Video,progression,buffer,0.006221,1687281269952,60ccdd2c461e041ac1dc2b41,60ccdd2c461e041ac1dc2b41,20,cat,filler,B,75,cat65.jpg,cat85.jpg,nogoal,NULL
1687281456,c9c6aae4d0a16f71cc0d4cf5c0b44373,PennController,23,0,experiment,NULL,Selector,choice,Selection,option2,1687281275703,60ccdd2c461e041ac1dc2b41,60ccdd2c461e041ac1dc2b41,20,cat,filler,B,75,cat65.jpg,cat85.jpg,nogoal,option2;option1
1687281456,c9c6aae4d0a16f71cc0d4cf5c0b44373,PennController,23,0,experiment,NULL,PennController,22,_Trial_,End,1687281275705,60ccdd2c461e041ac1dc2b41,60ccdd2c461e041ac1dc2b41,20,cat,filler,B,75,cat65.jpg,cat85.jpg,nogoal,NULL
1687281456,c9c6aae4d0a16f71cc0d4cf5c0b44373,PennController,4,0,experiment,NULL,PennController,3,_Trial_,Start,1687281275706,60ccdd2c461e041ac1dc2b41,60ccdd2c461e041ac1dc2b41,1,vase,critical,B,50,vase40.jpg,vase60.jpg,nogoal,NULL
1687281456,c9c6aae4d0a16f71cc0d4cf5c0b44373,PennController,4,0,experiment,NULL,PennController,3,_Header_,Start,1687281275707,60ccdd2c461e041ac1dc2b41,60ccdd2c461e041ac1dc2b41,1,vase,critical,B,50,vase40.jpg,vase60.jpg,nogoal,NULL
1687281456,c9c6aae4d0a16f71cc0d4cf5c0b44373,PennController,4,0,experiment,NULL,PennController,3,_Header_,End,1687281275707,60ccdd2c461e041ac1dc2b41,60ccdd2c461e041ac1dc2b41,1,vase,critical,B,50,vase40.jpg,vase60.jpg,nogoal,NULL
1687281456,c9c6aae4d0a16f71cc0d4cf5c0b44373,PennController,4,0,experiment,NULL,Canvas,canvas6,Print,NA,1687281280408,60ccdd2c461e041ac1dc2b41,60ccdd2c461e041ac1dc2b41,1,vase,critical,B,50,vase40.jpg,vase60.jpg,nogoal,NULL
1687281456,c9c6aae4d0a16f71cc0d4cf5c0b44373,PennController,4,0,experiment,NULL,Video,progression,buffer,0.004591,1687281277234,60ccdd2c461e041ac1dc2b41,60ccdd2c461e041ac1dc2b41,1,vase,critical,B,50,vase40.jpg,vase60.jpg,nogoal,NULL
1687281456,c9c6aae4d0a16f71cc0d4cf5c0b44373,PennController,4,0,experiment,NULL,Selector,choice,Selection,option2,1687281281783,60ccdd2c461e041ac1dc2b41,60ccdd2c461e041ac1dc2b41,1,vase,critical,B,50,vase40.jpg,vase60.jpg,nogoal,option2;option1
1687281456,c9c6aae4d0a16f71cc0d4cf5c0b44373,PennController,4,0,experiment,NULL,PennController,3,_Trial_,End,1687281281785,60ccdd2c461e041ac1dc2b41,60ccdd2c461e041ac1dc2b41,1,vase,critical,B,50,vase40.jpg,vase60.jpg,nogoal,NULL
1687281456,c9c6aae4d0a16f71cc0d4cf5c0b44373,PennController,8,0,experiment,NULL,PennController,7,_Trial_,Start,1687281281786,60ccdd2c461e041ac1dc2b41,60ccdd2c461e041ac1dc2b41,5,book,critical,B,75,book65.jpg,book85.jpg,nogoal,NULL
1687281456,c9c6aae4d0a16f71cc0d4cf5c0b44373,PennController,8,0,experiment,NULL,PennController,7,_Header_,Start,1687281281786,60ccdd2c461e041ac1dc2b41,60ccdd2c461e041ac1dc2b41,5,book,critical,B,75,book65.jpg,book85.jpg,nogoal,NULL
1687281456,c9c6aae4d0a16f71cc0d4cf5c0b44373,PennController,8,0,experiment,NULL,PennController,7,_Header_,End,1687281281786,60ccdd2c461e041ac1dc2b41,60ccdd2c461e041ac1dc2b41,5,book,critical,B,75,book65.jpg,book85.jpg,nogoal,NULL
1687281456,c9c6aae4d0a16f71cc0d4cf5c0b44373,PennController,8,0,experiment,NULL,Canvas,canvas6,Print,NA,1687281287474,60ccdd2c461e041ac1dc2b41,60ccdd2c461e041ac1dc2b41,5,book,critical,B,75,book65.jpg,book85.jpg,nogoal,NULL
1687281456,c9c6aae4d0a16f71cc0d4cf5c0b44373,PennController,8,0,experiment,NULL,Video,progression,buffer,0.003245,1687281283313,60ccdd2c461e041ac1dc2b41,60ccdd2c461e041ac1dc2b41,5,book,critical,B,75,book65.jpg,book85.jpg,nogoal,NULL
1687281456,c9c6aae4d0a16f71cc0d4cf5c0b44373,PennController,8,0,experiment,NULL,Selector,choice,Selection,option2,1687281288661,60ccdd2c461e041ac1dc2b41,60ccdd2c461e041ac1dc2b41,5,book,critical,B,75,book65.jpg,book85.jpg,nogoal,option2;option1
1687281456,c9c6aae4d0a16f71cc0d4cf5c0b44373,PennController,8,0,experiment,NULL,PennController,7,_Trial_,End,1687281288663,60ccdd2c461e041ac1dc2b41,60ccdd2c461e041ac1dc2b41,5,book,critical,B,75,book65.jpg,book85.jpg,nogoal,NULL
1687281456,c9c6aae4d0a16f71cc0d4cf5c0b44373,PennController,15,0,experiment,NULL,PennController,14,_Trial_,Start,1687281288664,60ccdd2c461e041ac1dc2b41,60ccdd2c461e041ac1dc2b41,12,erase,critical,B,25,erase15.jpg,erase33.jpg,nogoal,NULL
1687281456,c9c6aae4d0a16f71cc0d4cf5c0b44373,PennController,15,0,experiment,NULL,PennController,14,_Header_,Start,1687281288664,60ccdd2c461e041ac1dc2b41,60ccdd2c461e041ac1dc2b41,12,erase,critical,B,25,erase15.jpg,erase33.jpg,nogoal,NULL
1687281456,c9c6aae4d0a16f71cc0d4cf5c0b44373,PennController,15,0,experiment,NULL,PennController,14,_Header_,End,1687281288664,60ccdd2c461e041ac1dc2b41,60ccdd2c461e041ac1dc2b41,12,erase,critical,B,25,erase15.jpg,erase33.jpg,nogoal,NULL
1687281456,c9c6aae4d0a16f71cc0d4cf5c0b44373,PennController,15,0,experiment,NULL,Canvas,canvas6,Print,NA,1687281292970,60ccdd2c461e041ac1dc2b41,60ccdd2c461e041ac1dc2b41,12,erase,critical,B,25,erase15.jpg,erase33.jpg,nogoal,NULL
1687281456,c9c6aae4d0a16f71cc0d4cf5c0b44373,PennController,15,0,experiment,NULL,Video,progression,buffer,0.00655,1687281290193,60ccdd2c461e041ac1dc2b41,60ccdd2c461e041ac1dc2b41,12,erase,critical,B,25,erase15.jpg,erase33.jpg,nogoal,NULL
1687281456,c9c6aae4d0a16f71cc0d4cf5c0b44373,PennController,15,0,experiment,NULL,Selector,choice,Selection,option2,1687281295894,60ccdd2c461e041ac1dc2b41,60ccdd2c461e041ac1dc2b41,12,erase,critical,B,25,erase15.jpg,erase33.jpg,nogoal,option1;option2
1687281456,c9c6aae4d0a16f71cc0d4cf5c0b44373,PennController,15,0,experiment,NULL,PennController,14,_Trial_,End,1687281295896,60ccdd2c461e041ac1dc2b41,60ccdd2c461e041ac1dc2b41,12,erase,critical,B,25,erase15.jpg,erase33.jpg,nogoal,NULL
1687281456,c9c6aae4d0a16f71cc0d4cf5c0b44373,PennController,29,0,experiment,NULL,PennController,28,_Trial_,Start,1687281295897,60ccdd2c461e041ac1dc2b41,60ccdd2c461e041ac1dc2b41,26,sandwich,filler,B,75,sandwich65.jpg,sandwich85.jpg,nogoal,NULL
1687281456,c9c6aae4d0a16f71cc0d4cf5c0b44373,PennController,29,0,experiment,NULL,PennController,28,_Header_,Start,1687281295897,60ccdd2c461e041ac1dc2b41,60ccdd2c461e041ac1dc2b41,26,sandwich,filler,B,75,sandwich65.jpg,sandwich85.jpg,nogoal,NULL
1687281456,c9c6aae4d0a16f71cc0d4cf5c0b44373,PennController,29,0,experiment,NULL,PennController,28,_Header_,End,1687281295897,60ccdd2c461e041ac1dc2b41,60ccdd2c461e041ac1dc2b41,26,sandwich,filler,B,75,sandwich65.jpg,sandwich85.jpg,nogoal,NULL
1687281456,c9c6aae4d0a16f71cc0d4cf5c0b44373,PennController,29,0,experiment,NULL,Canvas,canvas6,Print,NA,1687281301600,60ccdd2c461e041ac1dc2b41,60ccdd2c461e041ac1dc2b41,26,sandwich,filler,B,75,sandwich65.jpg,sandwich85.jpg,nogoal,NULL
1687281456,c9c6aae4d0a16f71cc0d4cf5c0b44373,PennController,29,0,experiment,NULL,Video,progression,buffer,0.003684,1687281297424,60ccdd2c461e041ac1dc2b41,60ccdd2c461e041ac1dc2b41,26,sandwich,filler,B,75,sandwich65.jpg,sandwich85.jpg,nogoal,NULL
1687281456,c9c6aae4d0a16f71cc0d4cf5c0b44373,PennController,29,0,experiment,NULL,Selector,choice,Selection,option2,1687281302918,60ccdd2c461e041ac1dc2b41,60ccdd2c461e041ac1dc2b41,26,sandwich,filler,B,75,sandwich65.jpg,sandwich85.jpg,nogoal,option1;option2
1687281456,c9c6aae4d0a16f71cc0d4cf5c0b44373,PennController,29,0,experiment,NULL,PennController,28,_Trial_,End,1687281302920,60ccdd2c461e041ac1dc2b41,60ccdd2c461e041ac1dc2b41,26,sandwich,filler,B,75,sandwich65.jpg,sandwich85.jpg,nogoal,NULL
1687281456,c9c6aae4d0a16f71cc0d4cf5c0b44373,PennController,21,0,experiment,NULL,PennController,20,_Trial_,Start,1687281302921,60ccdd2c461e041ac1dc2b41,60ccdd2c461e041ac1dc2b41,18,ball,critical,B,25,ball15.jpg,ball35.jpg,nogoal,NULL
1687281456,c9c6aae4d0a16f71cc0d4cf5c0b44373,PennController,21,0,experiment,NULL,PennController,20,_Header_,Start,1687281302921,60ccdd2c461e041ac1dc2b41,60ccdd2c461e041ac1dc2b41,18,ball,critical,B,25,ball15.jpg,ball35.jpg,nogoal,NULL
1687281456,c9c6aae4d0a16f71cc0d4cf5c0b44373,PennController,21,0,experiment,NULL,PennController,20,_Header_,End,1687281302921,60ccdd2c461e041ac1dc2b41,60ccdd2c461e041ac1dc2b41,18,ball,critical,B,25,ball15.jpg,ball35.jpg,nogoal,NULL
1687281456,c9c6aae4d0a16f71cc0d4cf5c0b44373,PennController,21,0,experiment,NULL,Canvas,canvas6,Print,NA,1687281306617,60ccdd2c461e041ac1dc2b41,60ccdd2c461e041ac1dc2b41,18,ball,critical,B,25,ball15.jpg,ball35.jpg,nogoal,NULL
1687281456,c9c6aae4d0a16f71cc0d4cf5c0b44373,PennController,21,0,experiment,NULL,Video,progression,buffer,0.006944,1687281304448,60ccdd2c461e041ac1dc2b41,60ccdd2c461e041ac1dc2b41,18,ball,critical,B,25,ball15.jpg,ball35.jpg,nogoal,NULL
1687281456,c9c6aae4d0a16f71cc0d4cf5c0b44373,PennController,21,0,experiment,NULL,Selector,choice,Selection,option2,1687281309597,60ccdd2c461e041ac1dc2b41,60ccdd2c461e041ac1dc2b41,18,ball,critical,B,25,ball15.jpg,ball35.jpg,nogoal,option1;option2
1687281456,c9c6aae4d0a16f71cc0d4cf5c0b44373,PennController,21,0,experiment,NULL,PennController,20,_Trial_,End,1687281309598,60ccdd2c461e041ac1dc2b41,60ccdd2c461e041ac1dc2b41,18,ball,critical,B,25,ball15.jpg,ball35.jpg,nogoal,NULL
1687281456,c9c6aae4d0a16f71cc0d4cf5c0b44373,PennController,17,0,experiment,NULL,PennController,16,_Trial_,Start,1687281309599,60ccdd2c461e041ac1dc2b41,60ccdd2c461e041ac1dc2b41,14,cover,critical,B,75,cover66.jpg,cover84.jpg,nogoal,NULL
1687281456,c9c6aae4d0a16f71cc0d4cf5c0b44373,PennController,17,0,experiment,NULL,PennController,16,_Header_,Start,1687281309599,60ccdd2c461e041ac1dc2b41,60ccdd2c461e041ac1dc2b41,14,cover,critical,B,75,cover66.jpg,cover84.jpg,nogoal,NULL
1687281456,c9c6aae4d0a16f71cc0d4cf5c0b44373,PennController,17,0,experiment,NULL,PennController,16,_Header_,End,1687281309600,60ccdd2c461e041ac1dc2b41,60ccdd2c461e041ac1dc2b41,14,cover,critical,B,75,cover66.jpg,cover84.jpg,nogoal,NULL
1687281456,c9c6aae4d0a16f71cc0d4cf5c0b44373,PennController,17,0,experiment,NULL,Canvas,canvas6,Print,NA,1687281317316,60ccdd2c461e041ac1dc2b41,60ccdd2c461e041ac1dc2b41,14,cover,critical,B,75,cover66.jpg,cover84.jpg,nogoal,NULL
1687281456,c9c6aae4d0a16f71cc0d4cf5c0b44373,PennController,17,0,experiment,NULL,Video,progression,buffer,0.003398,1687281311131,60ccdd2c461e041ac1dc2b41,60ccdd2c461e041ac1dc2b41,14,cover,critical,B,75,cover66.jpg,cover84.jpg,nogoal,NULL
1687281456,c9c6aae4d0a16f71cc0d4cf5c0b44373,PennController,17,0,experiment,NULL,Selector,choice,Selection,option1,1687281319013,60ccdd2c461e041ac1dc2b41,60ccdd2c461e041ac1dc2b41,14,cover,critical,B,75,cover66.jpg,cover84.jpg,nogoal,option1;option2
1687281456,c9c6aae4d0a16f71cc0d4cf5c0b44373,PennController,17,0,experiment,NULL,PennController,16,_Trial_,End,1687281319015,60ccdd2c461e041ac1dc2b41,60ccdd2c461e041ac1dc2b41,14,cover,critical,B,75,cover66.jpg,cover84.jpg,nogoal,NULL
1687281456,c9c6aae4d0a16f71cc0d4cf5c0b44373,PennController,10,0,experiment,NULL,PennController,9,_Trial_,Start,1687281319016,60ccdd2c461e041ac1dc2b41,60ccdd2c461e041ac1dc2b41,7,stack,critical,B,50,stack40.jpg,stack60.jpg,nogoal,NULL
1687281456,c9c6aae4d0a16f71cc0d4cf5c0b44373,PennController,10,0,experiment,NULL,PennController,9,_Header_,Start,1687281319016,60ccdd2c461e041ac1dc2b41,60ccdd2c461e041ac1dc2b41,7,stack,critical,B,50,stack40.jpg,stack60.jpg,nogoal,NULL
1687281456,c9c6aae4d0a16f71cc0d4cf5c0b44373,PennController,10,0,experiment,NULL,PennController,9,_Header_,End,1687281319016,60ccdd2c461e041ac1dc2b41,60ccdd2c461e041ac1dc2b41,7,stack,critical,B,50,stack40.jpg,stack60.jpg,nogoal,NULL
1687281456,c9c6aae4d0a16f71cc0d4cf5c0b44373,PennController,10,0,experiment,NULL,Canvas,canvas6,Print,NA,1687281323701,60ccdd2c461e041ac1dc2b41,60ccdd2c461e041ac1dc2b41,7,stack,critical,B,50,stack40.jpg,stack60.jpg,nogoal,NULL
1687281456,c9c6aae4d0a16f71cc0d4cf5c0b44373,PennController,10,0,experiment,NULL,Video,progression,buffer,0.006432,1687281320538,60ccdd2c461e041ac1dc2b41,60ccdd2c461e041ac1dc2b41,7,stack,critical,B,50,stack40.jpg,stack60.jpg,nogoal,NULL
1687281456,c9c6aae4d0a16f71cc0d4cf5c0b44373,PennController,10,0,experiment,NULL,Selector,choice,Selection,option2,1687281324878,60ccdd2c461e041ac1dc2b41,60ccdd2c461e041ac1dc2b41,7,stack,critical,B,50,stack40.jpg,stack60.jpg,nogoal,option2;option1
1687281456,c9c6aae4d0a16f71cc0d4cf5c0b44373,PennController,10,0,experiment,NULL,PennController,9,_Trial_,End,1687281324880,60ccdd2c461e041ac1dc2b41,60ccdd2c461e041ac1dc2b41,7,stack,critical,B,50,stack40.jpg,stack60.jpg,nogoal,NULL
1687281456,c9c6aae4d0a16f71cc0d4cf5c0b44373,PennController,32,0,experiment,NULL,PennController,31,_Trial_,Start,1687281324881,60ccdd2c461e041ac1dc2b41,60ccdd2c461e041ac1dc2b41,29,frog,filler,B,75,frog65.jpg,frog85.jpg,nogoal,NULL
1687281456,c9c6aae4d0a16f71cc0d4cf5c0b44373,PennController,32,0,experiment,NULL,PennController,31,_Header_,Start,1687281324881,60ccdd2c461e041ac1dc2b41,60ccdd2c461e041ac1dc2b41,29,frog,filler,B,75,frog65.jpg,frog85.jpg,nogoal,NULL
1687281456,c9c6aae4d0a16f71cc0d4cf5c0b44373,PennController,32,0,experiment,NULL,PennController,31,_Header_,End,1687281324881,60ccdd2c461e041ac1dc2b41,60ccdd2c461e041ac1dc2b41,29,frog,filler,B,75,frog65.jpg,frog85.jpg,nogoal,NULL
1687281456,c9c6aae4d0a16f71cc0d4cf5c0b44373,PennController,32,0,experiment,NULL,Canvas,canvas6,Print,NA,1687281330577,60ccdd2c461e041ac1dc2b41,60ccdd2c461e041ac1dc2b41,29,frog,filler,B,75,frog65.jpg,frog85.jpg,nogoal,NULL
1687281456,c9c6aae4d0a16f71cc0d4cf5c0b44373,PennController,32,0,experiment,NULL,Video,progression,buffer,0.003307,1687281326409,60ccdd2c461e041ac1dc2b41,60ccdd2c461e041ac1dc2b41,29,frog,filler,B,75,frog65.jpg,frog85.jpg,nogoal,NULL
1687281456,c9c6aae4d0a16f71cc0d4cf5c0b44373,PennController,32,0,experiment,NULL,Selector,choice,Selection,option2,1687281332070,60ccdd2c461e041ac1dc2b41,60ccdd2c461e041ac1dc2b41,29,frog,filler,B,75,frog65.jpg,frog85.jpg,nogoal,option1;option2
1687281456,c9c6aae4d0a16f71cc0d4cf5c0b44373,PennController,32,0,experiment,NULL,PennController,31,_Trial_,End,1687281332072,60ccdd2c461e041ac1dc2b41,60ccdd2c461e041ac1dc2b41,29,frog,filler,B,75,frog65.jpg,frog85.jpg,nogoal,NULL
1687281456,c9c6aae4d0a16f71cc0d4cf5c0b44373,PennController,11,0,experiment,NULL,PennController,10,_Trial_,Start,1687281332073,60ccdd2c461e041ac1dc2b41,60ccdd2c461e041ac1dc2b41,8,cucumber,critical,B,75,cucumber66.jpg,cucumber84.jpg,nogoal,NULL
1687281456,c9c6aae4d0a16f71cc0d4cf5c0b44373,PennController,11,0,experiment,NULL,PennController,10,_Header_,Start,1687281332073,60ccdd2c461e041ac1dc2b41,60ccdd2c461e041ac1dc2b41,8,cucumber,critical,B,75,cucumber66.jpg,cucumber84.jpg,nogoal,NULL
1687281456,c9c6aae4d0a16f71cc0d4cf5c0b44373,PennController,11,0,experiment,NULL,PennController,10,_Header_,End,1687281332073,60ccdd2c461e041ac1dc2b41,60ccdd2c461e041ac1dc2b41,8,cucumber,critical,B,75,cucumber66.jpg,cucumber84.jpg,nogoal,NULL
1687281456,c9c6aae4d0a16f71cc0d4cf5c0b44373,PennController,11,0,experiment,NULL,Canvas,canvas6,Print,NA,1687281339766,60ccdd2c461e041ac1dc2b41,60ccdd2c461e041ac1dc2b41,8,cucumber,critical,B,75,cucumber66.jpg,cucumber84.jpg,nogoal,NULL
1687281456,c9c6aae4d0a16f71cc0d4cf5c0b44373,PennController,11,0,experiment,NULL,Video,progression,buffer,0.005213,1687281333604,60ccdd2c461e041ac1dc2b41,60ccdd2c461e041ac1dc2b41,8,cucumber,critical,B,75,cucumber66.jpg,cucumber84.jpg,nogoal,NULL
1687281456,c9c6aae4d0a16f71cc0d4cf5c0b44373,PennController,11,0,experiment,NULL,Selector,choice,Selection,option2,1687281341413,60ccdd2c461e041ac1dc2b41,60ccdd2c461e041ac1dc2b41,8,cucumber,critical,B,75,cucumber66.jpg,cucumber84.jpg,nogoal,option2;option1
1687281456,c9c6aae4d0a16f71cc0d4cf5c0b44373,PennController,11,0,experiment,NULL,PennController,10,_Trial_,End,1687281341414,60ccdd2c461e041ac1dc2b41,60ccdd2c461e041ac1dc2b41,8,cucumber,critical,B,75,cucumber66.jpg,cucumber84.jpg,nogoal,NULL
1687281456,c9c6aae4d0a16f71cc0d4cf5c0b44373,PennController,22,0,experiment,NULL,PennController,21,_Trial_,Start,1687281341415,60ccdd2c461e041ac1dc2b41,60ccdd2c461e041ac1dc2b41,19,cup,filler,B,50,cup40.jpg,cup60.jpg,nogoal,NULL
1687281456,c9c6aae4d0a16f71cc0d4cf5c0b44373,PennController,22,0,experiment,NULL,PennController,21,_Header_,Start,1687281341415,60ccdd2c461e041ac1dc2b41,60ccdd2c461e041ac1dc2b41,19,cup,filler,B,50,cup40.jpg,cup60.jpg,nogoal,NULL
1687281456,c9c6aae4d0a16f71cc0d4cf5c0b44373,PennController,22,0,experiment,NULL,PennController,21,_Header_,End,1687281341415,60ccdd2c461e041ac1dc2b41,60ccdd2c461e041ac1dc2b41,19,cup,filler,B,50,cup40.jpg,cup60.jpg,nogoal,NULL
1687281456,c9c6aae4d0a16f71cc0d4cf5c0b44373,PennController,22,0,experiment,NULL,Canvas,canvas6,Print,NA,1687281346113,60ccdd2c461e041ac1dc2b41,60ccdd2c461e041ac1dc2b41,19,cup,filler,B,50,cup40.jpg,cup60.jpg,nogoal,NULL
1687281456,c9c6aae4d0a16f71cc0d4cf5c0b44373,PennController,22,0,experiment,NULL,Video,progression,buffer,0.003565,1687281342940,60ccdd2c461e041ac1dc2b41,60ccdd2c461e041ac1dc2b41,19,cup,filler,B,50,cup40.jpg,cup60.jpg,nogoal,NULL
1687281456,c9c6aae4d0a16f71cc0d4cf5c0b44373,PennController,22,0,experiment,NULL,Selector,choice,Selection,option2,1687281349477,60ccdd2c461e041ac1dc2b41,60ccdd2c461e041ac1dc2b41,19,cup,filler,B,50,cup40.jpg,cup60.jpg,nogoal,option1;option2
1687281456,c9c6aae4d0a16f71cc0d4cf5c0b44373,PennController,22,0,experiment,NULL,PennController,21,_Trial_,End,1687281349478,60ccdd2c461e041ac1dc2b41,60ccdd2c461e041ac1dc2b41,19,cup,filler,B,50,cup40.jpg,cup60.jpg,nogoal,NULL
1687281456,c9c6aae4d0a16f71cc0d4cf5c0b44373,PennController,20,0,experiment,NULL,PennController,19,_Trial_,Start,1687281349480,60ccdd2c461e041ac1dc2b41,60ccdd2c461e041ac1dc2b41,17,roll,critical,B,75,roll65.jpg,roll85.jpg,nogoal,NULL
1687281456,c9c6aae4d0a16f71cc0d4cf5c0b44373,PennController,20,0,experiment,NULL,PennController,19,_Header_,Start,1687281349480,60ccdd2c461e041ac1dc2b41,60ccdd2c461e041ac1dc2b41,17,roll,critical,B,75,roll65.jpg,roll85.jpg,nogoal,NULL
1687281456,c9c6aae4d0a16f71cc0d4cf5c0b44373,PennController,20,0,experiment,NULL,PennController,19,_Header_,End,1687281349480,60ccdd2c461e041ac1dc2b41,60ccdd2c461e041ac1dc2b41,17,roll,critical,B,75,roll65.jpg,roll85.jpg,nogoal,NULL
1687281456,c9c6aae4d0a16f71cc0d4cf5c0b44373,PennController,20,0,experiment,NULL,Canvas,canvas6,Print,NA,1687281355175,60ccdd2c461e041ac1dc2b41,60ccdd2c461e041ac1dc2b41,17,roll,critical,B,75,roll65.jpg,roll85.jpg,nogoal,NULL
1687281456,c9c6aae4d0a16f71cc0d4cf5c0b44373,PennController,20,0,experiment,NULL,Video,progression,buffer,0.002936,1687281351000,60ccdd2c461e041ac1dc2b41,60ccdd2c461e041ac1dc2b41,17,roll,critical,B,75,roll65.jpg,roll85.jpg,nogoal,NULL
1687281456,c9c6aae4d0a16f71cc0d4cf5c0b44373,PennController,20,0,experiment,NULL,Selector,choice,Selection,option2,1687281356157,60ccdd2c461e041ac1dc2b41,60ccdd2c461e041ac1dc2b41,17,roll,critical,B,75,roll65.jpg,roll85.jpg,nogoal,option1;option2
1687281456,c9c6aae4d0a16f71cc0d4cf5c0b44373,PennController,20,0,experiment,NULL,PennController,19,_Trial_,End,1687281356158,60ccdd2c461e041ac1dc2b41,60ccdd2c461e041ac1dc2b41,17,roll,critical,B,75,roll65.jpg,roll85.jpg,nogoal,NULL
1687281456,c9c6aae4d0a16f71cc0d4cf5c0b44373,PennController,14,0,experiment,NULL,PennController,13,_Trial_,Start,1687281356160,60ccdd2c461e041ac1dc2b41,60ccdd2c461e041ac1dc2b41,11,beads,critical,B,75,beads65.jpg,beads85.jpg,nogoal,NULL
1687281456,c9c6aae4d0a16f71cc0d4cf5c0b44373,PennController,14,0,experiment,NULL,PennController,13,_Header_,Start,1687281356160,60ccdd2c461e041ac1dc2b41,60ccdd2c461e041ac1dc2b41,11,beads,critical,B,75,beads65.jpg,beads85.jpg,nogoal,NULL
1687281456,c9c6aae4d0a16f71cc0d4cf5c0b44373,PennController,14,0,experiment,NULL,PennController,13,_Header_,End,1687281356160,60ccdd2c461e041ac1dc2b41,60ccdd2c461e041ac1dc2b41,11,beads,critical,B,75,beads65.jpg,beads85.jpg,nogoal,NULL
1687281456,c9c6aae4d0a16f71cc0d4cf5c0b44373,PennController,14,0,experiment,NULL,Canvas,canvas6,Print,NA,1687281361858,60ccdd2c461e041ac1dc2b41,60ccdd2c461e041ac1dc2b41,11,beads,critical,B,75,beads65.jpg,beads85.jpg,nogoal,NULL
1687281456,c9c6aae4d0a16f71cc0d4cf5c0b44373,PennController,14,0,experiment,NULL,Video,progression,buffer,0.003551,1687281357688,60ccdd2c461e041ac1dc2b41,60ccdd2c461e041ac1dc2b41,11,beads,critical,B,75,beads65.jpg,beads85.jpg,nogoal,NULL
1687281456,c9c6aae4d0a16f71cc0d4cf5c0b44373,PennController,14,0,experiment,NULL,Selector,choice,Selection,option1,1687281363829,60ccdd2c461e041ac1dc2b41,60ccdd2c461e041ac1dc2b41,11,beads,critical,B,75,beads65.jpg,beads85.jpg,nogoal,option2;option1
1687281456,c9c6aae4d0a16f71cc0d4cf5c0b44373,PennController,14,0,experiment,NULL,PennController,13,_Trial_,End,1687281363830,60ccdd2c461e041ac1dc2b41,60ccdd2c461e041ac1dc2b41,11,beads,critical,B,75,beads65.jpg,beads85.jpg,nogoal,NULL
1687281456,c9c6aae4d0a16f71cc0d4cf5c0b44373,PennController,19,0,experiment,NULL,PennController,18,_Trial_,Start,1687281363831,60ccdd2c461e041ac1dc2b41,60ccdd2c461e041ac1dc2b41,16,blinds,critical,B,50,blinds42.jpg,blinds60.jpg,nogoal,NULL
1687281456,c9c6aae4d0a16f71cc0d4cf5c0b44373,PennController,19,0,experiment,NULL,PennController,18,_Header_,Start,1687281363831,60ccdd2c461e041ac1dc2b41,60ccdd2c461e041ac1dc2b41,16,blinds,critical,B,50,blinds42.jpg,blinds60.jpg,nogoal,NULL
1687281456,c9c6aae4d0a16f71cc0d4cf5c0b44373,PennController,19,0,experiment,NULL,PennController,18,_Header_,End,1687281363831,60ccdd2c461e041ac1dc2b41,60ccdd2c461e041ac1dc2b41,16,blinds,critical,B,50,blinds42.jpg,blinds60.jpg,nogoal,NULL
1687281456,c9c6aae4d0a16f71cc0d4cf5c0b44373,PennController,19,0,experiment,NULL,Canvas,canvas6,Print,NA,1687281369929,60ccdd2c461e041ac1dc2b41,60ccdd2c461e041ac1dc2b41,16,blinds,critical,B,50,blinds42.jpg,blinds60.jpg,nogoal,NULL
1687281456,c9c6aae4d0a16f71cc0d4cf5c0b44373,PennController,19,0,experiment,NULL,Video,progression,buffer,0.003562,1687281365354,60ccdd2c461e041ac1dc2b41,60ccdd2c461e041ac1dc2b41,16,blinds,critical,B,50,blinds42.jpg,blinds60.jpg,nogoal,NULL
1687281456,c9c6aae4d0a16f71cc0d4cf5c0b44373,PennController,19,0,experiment,NULL,Selector,choice,Selection,option2,1687281372285,60ccdd2c461e041ac1dc2b41,60ccdd2c461e041ac1dc2b41,16,blinds,critical,B,50,blinds42.jpg,blinds60.jpg,nogoal,option2;option1
1687281456,c9c6aae4d0a16f71cc0d4cf5c0b44373,PennController,19,0,experiment,NULL,PennController,18,_Trial_,End,1687281372286,60ccdd2c461e041ac1dc2b41,60ccdd2c461e041ac1dc2b41,16,blinds,critical,B,50,blinds42.jpg,blinds60.jpg,nogoal,NULL
1687281456,c9c6aae4d0a16f71cc0d4cf5c0b44373,PennController,5,0,experiment,NULL,PennController,4,_Trial_,Start,1687281372288,60ccdd2c461e041ac1dc2b41,60ccdd2c461e041ac1dc2b41,2,door,critical,B,75,door65.jpg,door85.jpg,nogoal,NULL
1687281456,c9c6aae4d0a16f71cc0d4cf5c0b44373,PennController,5,0,experiment,NULL,PennController,4,_Header_,Start,1687281372288,60ccdd2c461e041ac1dc2b41,60ccdd2c461e041ac1dc2b41,2,door,critical,B,75,door65.jpg,door85.jpg,nogoal,NULL
1687281456,c9c6aae4d0a16f71cc0d4cf5c0b44373,PennController,5,0,experiment,NULL,PennController,4,_Header_,End,1687281372288,60ccdd2c461e041ac1dc2b41,60ccdd2c461e041ac1dc2b41,2,door,critical,B,75,door65.jpg,door85.jpg,nogoal,NULL
1687281456,c9c6aae4d0a16f71cc0d4cf5c0b44373,PennController,5,0,experiment,NULL,Canvas,canvas6,Print,NA,1687281378030,60ccdd2c461e041ac1dc2b41,60ccdd2c461e041ac1dc2b41,2,door,critical,B,75,door65.jpg,door85.jpg,nogoal,NULL
1687281456,c9c6aae4d0a16f71cc0d4cf5c0b44373,PennController,5,0,experiment,NULL,Video,progression,buffer,0,1687281373818,60ccdd2c461e041ac1dc2b41,60ccdd2c461e041ac1dc2b41,2,door,critical,B,75,door65.jpg,door85.jpg,nogoal,NULL
1687281456,c9c6aae4d0a16f71cc0d4cf5c0b44373,PennController,5,0,experiment,NULL,Selector,choice,Selection,option2,1687281380501,60ccdd2c461e041ac1dc2b41,60ccdd2c461e041ac1dc2b41,2,door,critical,B,75,door65.jpg,door85.jpg,nogoal,option1;option2
1687281456,c9c6aae4d0a16f71cc0d4cf5c0b44373,PennController,5,0,experiment,NULL,PennController,4,_Trial_,End,1687281380502,60ccdd2c461e041ac1dc2b41,60ccdd2c461e041ac1dc2b41,2,door,critical,B,75,door65.jpg,door85.jpg,nogoal,NULL
1687281456,c9c6aae4d0a16f71cc0d4cf5c0b44373,PennController,30,0,experiment,NULL,PennController,29,_Trial_,Start,1687281380504,60ccdd2c461e041ac1dc2b41,60ccdd2c461e041ac1dc2b41,27,square,filler,B,25,square15.jpg,square35.jpg,nogoal,NULL
1687281456,c9c6aae4d0a16f71cc0d4cf5c0b44373,PennController,30,0,experiment,NULL,PennController,29,_Header_,Start,1687281380504,60ccdd2c461e041ac1dc2b41,60ccdd2c461e041ac1dc2b41,27,square,filler,B,25,square15.jpg,square35.jpg,nogoal,NULL
1687281456,c9c6aae4d0a16f71cc0d4cf5c0b44373,PennController,30,0,experiment,NULL,PennController,29,_Header_,End,1687281380504,60ccdd2c461e041ac1dc2b41,60ccdd2c461e041ac1dc2b41,27,square,filler,B,25,square15.jpg,square35.jpg,nogoal,NULL
1687281456,c9c6aae4d0a16f71cc0d4cf5c0b44373,PennController,30,0,experiment,NULL,Canvas,canvas6,Print,NA,1687281384199,60ccdd2c461e041ac1dc2b41,60ccdd2c461e041ac1dc2b41,27,square,filler,B,25,square15.jpg,square35.jpg,nogoal,NULL
1687281456,c9c6aae4d0a16f71cc0d4cf5c0b44373,PennController,30,0,experiment,NULL,Video,progression,buffer,0.004964,1687281382033,60ccdd2c461e041ac1dc2b41,60ccdd2c461e041ac1dc2b41,27,square,filler,B,25,square15.jpg,square35.jpg,nogoal,NULL
1687281456,c9c6aae4d0a16f71cc0d4cf5c0b44373,PennController,30,0,experiment,NULL,Selector,choice,Selection,option2,1687281385309,60ccdd2c461e041ac1dc2b41,60ccdd2c461e041ac1dc2b41,27,square,filler,B,25,square15.jpg,square35.jpg,nogoal,option2;option1
1687281456,c9c6aae4d0a16f71cc0d4cf5c0b44373,PennController,30,0,experiment,NULL,PennController,29,_Trial_,End,1687281385310,60ccdd2c461e041ac1dc2b41,60ccdd2c461e041ac1dc2b41,27,square,filler,B,25,square15.jpg,square35.jpg,nogoal,NULL
1687281456,c9c6aae4d0a16f71cc0d4cf5c0b44373,PennController,16,0,experiment,NULL,PennController,15,_Trial_,Start,1687281385311,60ccdd2c461e041ac1dc2b41,60ccdd2c461e041ac1dc2b41,13,mix,critical,B,50,mix40.jpg,mix60.jpg,nogoal,NULL
1687281456,c9c6aae4d0a16f71cc0d4cf5c0b44373,PennController,16,0,experiment,NULL,PennController,15,_Header_,Start,1687281385311,60ccdd2c461e041ac1dc2b41,60ccdd2c461e041ac1dc2b41,13,mix,critical,B,50,mix40.jpg,mix60.jpg,nogoal,NULL
1687281456,c9c6aae4d0a16f71cc0d4cf5c0b44373,PennController,16,0,experiment,NULL,PennController,15,_Header_,End,1687281385311,60ccdd2c461e041ac1dc2b41,60ccdd2c461e041ac1dc2b41,13,mix,critical,B,50,mix40.jpg,mix60.jpg,nogoal,NULL
1687281456,c9c6aae4d0a16f71cc0d4cf5c0b44373,PennController,16,0,experiment,NULL,Canvas,canvas6,Print,NA,1687281390010,60ccdd2c461e041ac1dc2b41,60ccdd2c461e041ac1dc2b41,13,mix,critical,B,50,mix40.jpg,mix60.jpg,nogoal,NULL
1687281456,c9c6aae4d0a16f71cc0d4cf5c0b44373,PennController,16,0,experiment,NULL,Video,progression,buffer,0.004868,1687281386838,60ccdd2c461e041ac1dc2b41,60ccdd2c461e041ac1dc2b41,13,mix,critical,B,50,mix40.jpg,mix60.jpg,nogoal,NULL
1687281456,c9c6aae4d0a16f71cc0d4cf5c0b44373,PennController,16,0,experiment,NULL,Selector,choice,Selection,option2,1687281392573,60ccdd2c461e041ac1dc2b41,60ccdd2c461e041ac1dc2b41,13,mix,critical,B,50,mix40.jpg,mix60.jpg,nogoal,option2;option1
1687281456,c9c6aae4d0a16f71cc0d4cf5c0b44373,PennController,16,0,experiment,NULL,PennController,15,_Trial_,End,1687281392574,60ccdd2c461e041ac1dc2b41,60ccdd2c461e041ac1dc2b41,13,mix,critical,B,50,mix40.jpg,mix60.jpg,nogoal,NULL
1687281456,c9c6aae4d0a16f71cc0d4cf5c0b44373,PennController,9,0,experiment,NULL,PennController,8,_Trial_,Start,1687281392575,60ccdd2c461e041ac1dc2b41,60ccdd2c461e041ac1dc2b41,6,flower,critical,B,25,flower15.jpg,flower35.jpg,nogoal,NULL
1687281456,c9c6aae4d0a16f71cc0d4cf5c0b44373,PennController,9,0,experiment,NULL,PennController,8,_Header_,Start,1687281392575,60ccdd2c461e041ac1dc2b41,60ccdd2c461e041ac1dc2b41,6,flower,critical,B,25,flower15.jpg,flower35.jpg,nogoal,NULL
1687281456,c9c6aae4d0a16f71cc0d4cf5c0b44373,PennController,9,0,experiment,NULL,PennController,8,_Header_,End,1687281392575,60ccdd2c461e041ac1dc2b41,60ccdd2c461e041ac1dc2b41,6,flower,critical,B,25,flower15.jpg,flower35.jpg,nogoal,NULL
1687281456,c9c6aae4d0a16f71cc0d4cf5c0b44373,PennController,9,0,experiment,NULL,Canvas,canvas6,Print,NA,1687281396266,60ccdd2c461e041ac1dc2b41,60ccdd2c461e041ac1dc2b41,6,flower,critical,B,25,flower15.jpg,flower35.jpg,nogoal,NULL
1687281456,c9c6aae4d0a16f71cc0d4cf5c0b44373,PennController,9,0,experiment,NULL,Video,progression,buffer,0.004423,1687281394098,60ccdd2c461e041ac1dc2b41,60ccdd2c461e041ac1dc2b41,6,flower,critical,B,25,flower15.jpg,flower35.jpg,nogoal,NULL
1687281456,c9c6aae4d0a16f71cc0d4cf5c0b44373,PennController,9,0,experiment,NULL,Selector,choice,Selection,option2,1687281397285,60ccdd2c461e041ac1dc2b41,60ccdd2c461e041ac1dc2b41,6,flower,critical,B,25,flower15.jpg,flower35.jpg,nogoal,option2;option1
1687281456,c9c6aae4d0a16f71cc0d4cf5c0b44373,PennController,9,0,experiment,NULL,PennController,8,_Trial_,End,1687281397286,60ccdd2c461e041ac1dc2b41,60ccdd2c461e041ac1dc2b41,6,flower,critical,B,25,flower15.jpg,flower35.jpg,nogoal,NULL
1687281456,c9c6aae4d0a16f71cc0d4cf5c0b44373,PennController,12,0,experiment,NULL,PennController,11,_Trial_,Start,1687281397288,60ccdd2c461e041ac1dc2b41,60ccdd2c461e041ac1dc2b41,9,cake,critical,B,25,cake15.jpg,cake33.jpg,nogoal,NULL
1687281456,c9c6aae4d0a16f71cc0d4cf5c0b44373,PennController,12,0,experiment,NULL,PennController,11,_Header_,Start,1687281397288,60ccdd2c461e041ac1dc2b41,60ccdd2c461e041ac1dc2b41,9,cake,critical,B,25,cake15.jpg,cake33.jpg,nogoal,NULL
1687281456,c9c6aae4d0a16f71cc0d4cf5c0b44373,PennController,12,0,experiment,NULL,PennController,11,_Header_,End,1687281397288,60ccdd2c461e041ac1dc2b41,60ccdd2c461e041ac1dc2b41,9,cake,critical,B,25,cake15.jpg,cake33.jpg,nogoal,NULL
1687281456,c9c6aae4d0a16f71cc0d4cf5c0b44373,PennController,12,0,experiment,NULL,Canvas,canvas6,Print,NA,1687281401583,60ccdd2c461e041ac1dc2b41,60ccdd2c461e041ac1dc2b41,9,cake,critical,B,25,cake15.jpg,cake33.jpg,nogoal,NULL
1687281456,c9c6aae4d0a16f71cc0d4cf5c0b44373,PennController,12,0,experiment,NULL,Video,progression,buffer,0.006001,1687281398816,60ccdd2c461e041ac1dc2b41,60ccdd2c461e041ac1dc2b41,9,cake,critical,B,25,cake15.jpg,cake33.jpg,nogoal,NULL
1687281456,c9c6aae4d0a16f71cc0d4cf5c0b44373,PennController,12,0,experiment,NULL,Selector,choice,Selection,option2,1687281404659,60ccdd2c461e041ac1dc2b41,60ccdd2c461e041ac1dc2b41,9,cake,critical,B,25,cake15.jpg,cake33.jpg,nogoal,option2;option1
1687281456,c9c6aae4d0a16f71cc0d4cf5c0b44373,PennController,12,0,experiment,NULL,PennController,11,_Trial_,End,1687281404660,60ccdd2c461e041ac1dc2b41,60ccdd2c461e041ac1dc2b41,9,cake,critical,B,25,cake15.jpg,cake33.jpg,nogoal,NULL
1687281456,c9c6aae4d0a16f71cc0d4cf5c0b44373,PennController,6,0,experiment,NULL,PennController,5,_Trial_,Start,1687281404662,60ccdd2c461e041ac1dc2b41,60ccdd2c461e041ac1dc2b41,3,clean,critical,B,25,clean15.jpg,clean35.jpg,nogoal,NULL
1687281456,c9c6aae4d0a16f71cc0d4cf5c0b44373,PennController,6,0,experiment,NULL,PennController,5,_Header_,Start,1687281404662,60ccdd2c461e041ac1dc2b41,60ccdd2c461e041ac1dc2b41,3,clean,critical,B,25,clean15.jpg,clean35.jpg,nogoal,NULL
1687281456,c9c6aae4d0a16f71cc0d4cf5c0b44373,PennController,6,0,experiment,NULL,PennController,5,_Header_,End,1687281404662,60ccdd2c461e041ac1dc2b41,60ccdd2c461e041ac1dc2b41,3,clean,critical,B,25,clean15.jpg,clean35.jpg,nogoal,NULL
1687281456,c9c6aae4d0a16f71cc0d4cf5c0b44373,PennController,6,0,experiment,NULL,Canvas,canvas6,Print,NA,1687281408351,60ccdd2c461e041ac1dc2b41,60ccdd2c461e041ac1dc2b41,3,clean,critical,B,25,clean15.jpg,clean35.jpg,nogoal,NULL
1687281456,c9c6aae4d0a16f71cc0d4cf5c0b44373,PennController,6,0,experiment,NULL,Video,progression,buffer,0.004556,1687281406179,60ccdd2c461e041ac1dc2b41,60ccdd2c461e041ac1dc2b41,3,clean,critical,B,25,clean15.jpg,clean35.jpg,nogoal,NULL
1687281456,c9c6aae4d0a16f71cc0d4cf5c0b44373,PennController,6,0,experiment,NULL,Selector,choice,Selection,option1,1687281410045,60ccdd2c461e041ac1dc2b41,60ccdd2c461e041ac1dc2b41,3,clean,critical,B,25,clean15.jpg,clean35.jpg,nogoal,option1;option2
1687281456,c9c6aae4d0a16f71cc0d4cf5c0b44373,PennController,6,0,experiment,NULL,PennController,5,_Trial_,End,1687281410046,60ccdd2c461e041ac1dc2b41,60ccdd2c461e041ac1dc2b41,3,clean,critical,B,25,clean15.jpg,clean35.jpg,nogoal,NULL
1687281456,c9c6aae4d0a16f71cc0d4cf5c0b44373,PennController,27,0,experiment,NULL,PennController,26,_Trial_,Start,1687281410047,60ccdd2c461e041ac1dc2b41,60ccdd2c461e041ac1dc2b41,24,match,filler,B,25,match15.jpg,match35.jpg,nogoal,NULL
1687281456,c9c6aae4d0a16f71cc0d4cf5c0b44373,PennController,27,0,experiment,NULL,PennController,26,_Header_,Start,1687281410047,60ccdd2c461e041ac1dc2b41,60ccdd2c461e041ac1dc2b41,24,match,filler,B,25,match15.jpg,match35.jpg,nogoal,NULL
1687281456,c9c6aae4d0a16f71cc0d4cf5c0b44373,PennController,27,0,experiment,NULL,PennController,26,_Header_,End,1687281410047,60ccdd2c461e041ac1dc2b41,60ccdd2c461e041ac1dc2b41,24,match,filler,B,25,match15.jpg,match35.jpg,nogoal,NULL
1687281456,c9c6aae4d0a16f71cc0d4cf5c0b44373,PennController,27,0,experiment,NULL,Canvas,canvas6,Print,NA,1687281413735,60ccdd2c461e041ac1dc2b41,60ccdd2c461e041ac1dc2b41,24,match,filler,B,25,match15.jpg,match35.jpg,nogoal,NULL
1687281456,c9c6aae4d0a16f71cc0d4cf5c0b44373,PennController,27,0,experiment,NULL,Video,progression,buffer,0.0052,1687281411566,60ccdd2c461e041ac1dc2b41,60ccdd2c461e041ac1dc2b41,24,match,filler,B,25,match15.jpg,match35.jpg,nogoal,NULL
1687281456,c9c6aae4d0a16f71cc0d4cf5c0b44373,PennController,27,0,experiment,NULL,Selector,choice,Selection,option1,1687281415853,60ccdd2c461e041ac1dc2b41,60ccdd2c461e041ac1dc2b41,24,match,filler,B,25,match15.jpg,match35.jpg,nogoal,option2;option1
1687281456,c9c6aae4d0a16f71cc0d4cf5c0b44373,PennController,27,0,experiment,NULL,PennController,26,_Trial_,End,1687281415854,60ccdd2c461e041ac1dc2b41,60ccdd2c461e041ac1dc2b41,24,match,filler,B,25,match15.jpg,match35.jpg,nogoal,NULL
1687281456,c9c6aae4d0a16f71cc0d4cf5c0b44373,PennController,25,0,experiment,NULL,PennController,24,_Trial_,Start,1687281415855,60ccdd2c461e041ac1dc2b41,60ccdd2c461e041ac1dc2b41,22,wall,filler,B,50,wall40.jpg,wall60.jpg,nogoal,NULL
1687281456,c9c6aae4d0a16f71cc0d4cf5c0b44373,PennController,25,0,experiment,NULL,PennController,24,_Header_,Start,1687281415855,60ccdd2c461e041ac1dc2b41,60ccdd2c461e041ac1dc2b41,22,wall,filler,B,50,wall40.jpg,wall60.jpg,nogoal,NULL
1687281456,c9c6aae4d0a16f71cc0d4cf5c0b44373,PennController,25,0,experiment,NULL,PennController,24,_Header_,End,1687281415855,60ccdd2c461e041ac1dc2b41,60ccdd2c461e041ac1dc2b41,22,wall,filler,B,50,wall40.jpg,wall60.jpg,nogoal,NULL
1687281456,c9c6aae4d0a16f71cc0d4cf5c0b44373,PennController,25,0,experiment,NULL,Canvas,canvas6,Print,NA,1687281420562,60ccdd2c461e041ac1dc2b41,60ccdd2c461e041ac1dc2b41,22,wall,filler,B,50,wall40.jpg,wall60.jpg,nogoal,NULL
1687281456,c9c6aae4d0a16f71cc0d4cf5c0b44373,PennController,25,0,experiment,NULL,Video,progression,buffer,0.004582,1687281417383,60ccdd2c461e041ac1dc2b41,60ccdd2c461e041ac1dc2b41,22,wall,filler,B,50,wall40.jpg,wall60.jpg,nogoal,NULL
1687281456,c9c6aae4d0a16f71cc0d4cf5c0b44373,PennController,25,0,experiment,NULL,Selector,choice,Selection,option1,1687281422461,60ccdd2c461e041ac1dc2b41,60ccdd2c461e041ac1dc2b41,22,wall,filler,B,50,wall40.jpg,wall60.jpg,nogoal,option1;option2
1687281456,c9c6aae4d0a16f71cc0d4cf5c0b44373,PennController,25,0,experiment,NULL,PennController,24,_Trial_,End,1687281422462,60ccdd2c461e041ac1dc2b41,60ccdd2c461e041ac1dc2b41,22,wall,filler,B,50,wall40.jpg,wall60.jpg,nogoal,NULL
1687281456,c9c6aae4d0a16f71cc0d4cf5c0b44373,PennController,26,0,experiment,NULL,PennController,25,_Trial_,Start,1687281422464,60ccdd2c461e041ac1dc2b41,60ccdd2c461e041ac1dc2b41,23,color,filler,B,75,color65.jpg,color85.jpg,nogoal,NULL
1687281456,c9c6aae4d0a16f71cc0d4cf5c0b44373,PennController,26,0,experiment,NULL,PennController,25,_Header_,Start,1687281422464,60ccdd2c461e041ac1dc2b41,60ccdd2c461e041ac1dc2b41,23,color,filler,B,75,color65.jpg,color85.jpg,nogoal,NULL
1687281456,c9c6aae4d0a16f71cc0d4cf5c0b44373,PennController,26,0,experiment,NULL,PennController,25,_Header_,End,1687281422464,60ccdd2c461e041ac1dc2b41,60ccdd2c461e041ac1dc2b41,23,color,filler,B,75,color65.jpg,color85.jpg,nogoal,NULL
1687281456,c9c6aae4d0a16f71cc0d4cf5c0b44373,PennController,26,0,experiment,NULL,Canvas,canvas6,Print,NA,1687281428170,60ccdd2c461e041ac1dc2b41,60ccdd2c461e041ac1dc2b41,23,color,filler,B,75,color65.jpg,color85.jpg,nogoal,NULL
1687281456,c9c6aae4d0a16f71cc0d4cf5c0b44373,PennController,26,0,experiment,NULL,Video,progression,buffer,0.006059,1687281423990,60ccdd2c461e041ac1dc2b41,60ccdd2c461e041ac1dc2b41,23,color,filler,B,75,color65.jpg,color85.jpg,nogoal,NULL
1687281456,c9c6aae4d0a16f71cc0d4cf5c0b44373,PennController,26,0,experiment,NULL,Selector,choice,Selection,option2,1687281430725,60ccdd2c461e041ac1dc2b41,60ccdd2c461e041ac1dc2b41,23,color,filler,B,75,color65.jpg,color85.jpg,nogoal,option2;option1
1687281456,c9c6aae4d0a16f71cc0d4cf5c0b44373,PennController,26,0,experiment,NULL,PennController,25,_Trial_,End,1687281430726,60ccdd2c461e041ac1dc2b41,60ccdd2c461e041ac1dc2b41,23,color,filler,B,75,color65.jpg,color85.jpg,nogoal,NULL
1687281456,c9c6aae4d0a16f71cc0d4cf5c0b44373,PennController,31,0,experiment,NULL,PennController,30,_Trial_,Start,1687281430727,60ccdd2c461e041ac1dc2b41,60ccdd2c461e041ac1dc2b41,28,sort,filler,B,50,sort40.jpg,sort60.jpg,nogoal,NULL
1687281456,c9c6aae4d0a16f71cc0d4cf5c0b44373,PennController,31,0,experiment,NULL,PennController,30,_Header_,Start,1687281430727,60ccdd2c461e041ac1dc2b41,60ccdd2c461e041ac1dc2b41,28,sort,filler,B,50,sort40.jpg,sort60.jpg,nogoal,NULL
1687281456,c9c6aae4d0a16f71cc0d4cf5c0b44373,PennController,31,0,experiment,NULL,PennController,30,_Header_,End,1687281430727,60ccdd2c461e041ac1dc2b41,60ccdd2c461e041ac1dc2b41,28,sort,filler,B,50,sort40.jpg,sort60.jpg,nogoal,NULL
1687281456,c9c6aae4d0a16f71cc0d4cf5c0b44373,PennController,31,0,experiment,NULL,Canvas,canvas6,Print,NA,1687281435427,60ccdd2c461e041ac1dc2b41,60ccdd2c461e041ac1dc2b41,28,sort,filler,B,50,sort40.jpg,sort60.jpg,nogoal,NULL
1687281456,c9c6aae4d0a16f71cc0d4cf5c0b44373,PennController,31,0,experiment,NULL,Video,progression,buffer,0.00796,1687281432251,60ccdd2c461e041ac1dc2b41,60ccdd2c461e041ac1dc2b41,28,sort,filler,B,50,sort40.jpg,sort60.jpg,nogoal,NULL
1687281456,c9c6aae4d0a16f71cc0d4cf5c0b44373,PennController,31,0,experiment,NULL,Selector,choice,Selection,option2,1687281437371,60ccdd2c461e041ac1dc2b41,60ccdd2c461e041ac1dc2b41,28,sort,filler,B,50,sort40.jpg,sort60.jpg,nogoal,option1;option2
1687281456,c9c6aae4d0a16f71cc0d4cf5c0b44373,PennController,31,0,experiment,NULL,PennController,30,_Trial_,End,1687281437372,60ccdd2c461e041ac1dc2b41,60ccdd2c461e041ac1dc2b41,28,sort,filler,B,50,sort40.jpg,sort60.jpg,nogoal,NULL
1687281456,c9c6aae4d0a16f71cc0d4cf5c0b44373,PennController,28,0,experiment,NULL,PennController,27,_Trial_,Start,1687281437373,60ccdd2c461e041ac1dc2b41,60ccdd2c461e041ac1dc2b41,25,house,filler,B,50,house40.jpg,house60.jpg,nogoal,NULL
1687281456,c9c6aae4d0a16f71cc0d4cf5c0b44373,PennController,28,0,experiment,NULL,PennController,27,_Header_,Start,1687281437373,60ccdd2c461e041ac1dc2b41,60ccdd2c461e041ac1dc2b41,25,house,filler,B,50,house40.jpg,house60.jpg,nogoal,NULL
1687281456,c9c6aae4d0a16f71cc0d4cf5c0b44373,PennController,28,0,experiment,NULL,PennController,27,_Header_,End,1687281437373,60ccdd2c461e041ac1dc2b41,60ccdd2c461e041ac1dc2b41,25,house,filler,B,50,house40.jpg,house60.jpg,nogoal,NULL
1687281456,c9c6aae4d0a16f71cc0d4cf5c0b44373,PennController,28,0,experiment,NULL,Canvas,canvas6,Print,NA,1687281442069,60ccdd2c461e041ac1dc2b41,60ccdd2c461e041ac1dc2b41,25,house,filler,B,50,house40.jpg,house60.jpg,nogoal,NULL
1687281456,c9c6aae4d0a16f71cc0d4cf5c0b44373,PennController,28,0,experiment,NULL,Video,progression,buffer,0.005709,1687281438892,60ccdd2c461e041ac1dc2b41,60ccdd2c461e041ac1dc2b41,25,house,filler,B,50,house40.jpg,house60.jpg,nogoal,NULL
1687281456,c9c6aae4d0a16f71cc0d4cf5c0b44373,PennController,28,0,experiment,NULL,Selector,choice,Selection,option2,1687281443506,60ccdd2c461e041ac1dc2b41,60ccdd2c461e041ac1dc2b41,25,house,filler,B,50,house40.jpg,house60.jpg,nogoal,option2;option1
1687281456,c9c6aae4d0a16f71cc0d4cf5c0b44373,PennController,28,0,experiment,NULL,PennController,27,_Trial_,End,1687281443508,60ccdd2c461e041ac1dc2b41,60ccdd2c461e041ac1dc2b41,25,house,filler,B,50,house40.jpg,house60.jpg,nogoal,NULL
1687281456,c9c6aae4d0a16f71cc0d4cf5c0b44373,PennController,24,0,experiment,NULL,PennController,23,_Trial_,Start,1687281443509,60ccdd2c461e041ac1dc2b41,60ccdd2c461e041ac1dc2b41,21,visit,filler,B,25,visit15.jpg,visit35.jpg,nogoal,NULL
1687281456,c9c6aae4d0a16f71cc0d4cf5c0b44373,PennController,24,0,experiment,NULL,PennController,23,_Header_,Start,1687281443509,60ccdd2c461e041ac1dc2b41,60ccdd2c461e041ac1dc2b41,21,visit,filler,B,25,visit15.jpg,visit35.jpg,nogoal,NULL
1687281456,c9c6aae4d0a16f71cc0d4cf5c0b44373,PennController,24,0,experiment,NULL,PennController,23,_Header_,End,1687281443509,60ccdd2c461e041ac1dc2b41,60ccdd2c461e041ac1dc2b41,21,visit,filler,B,25,visit15.jpg,visit35.jpg,nogoal,NULL
1687281456,c9c6aae4d0a16f71cc0d4cf5c0b44373,PennController,24,0,experiment,NULL,Canvas,canvas6,Print,NA,1687281447206,60ccdd2c461e041ac1dc2b41,60ccdd2c461e041ac1dc2b41,21,visit,filler,B,25,visit15.jpg,visit35.jpg,nogoal,NULL
1687281456,c9c6aae4d0a16f71cc0d4cf5c0b44373,PennController,24,0,experiment,NULL,Video,progression,buffer,0.004276,1687281445033,60ccdd2c461e041ac1dc2b41,60ccdd2c461e041ac1dc2b41,21,visit,filler,B,25,visit15.jpg,visit35.jpg,nogoal,NULL
1687281456,c9c6aae4d0a16f71cc0d4cf5c0b44373,PennController,24,0,experiment,NULL,Selector,choice,Selection,option2,1687281451013,60ccdd2c461e041ac1dc2b41,60ccdd2c461e041ac1dc2b41,21,visit,filler,B,25,visit15.jpg,visit35.jpg,nogoal,option1;option2
1687281456,c9c6aae4d0a16f71cc0d4cf5c0b44373,PennController,24,0,experiment,NULL,PennController,23,_Trial_,End,1687281451014,60ccdd2c461e041ac1dc2b41,60ccdd2c461e041ac1dc2b41,21,visit,filler,B,25,visit15.jpg,visit35.jpg,nogoal,NULL
1687281456,c9c6aae4d0a16f71cc0d4cf5c0b44373,PennController,18,0,experiment,NULL,PennController,17,_Trial_,Start,1687281451015,60ccdd2c461e041ac1dc2b41,60ccdd2c461e041ac1dc2b41,15,zip,critical,B,25,zip15.jpg,zip35.jpg,nogoal,NULL
1687281456,c9c6aae4d0a16f71cc0d4cf5c0b44373,PennController,18,0,experiment,NULL,PennController,17,_Header_,Start,1687281451015,60ccdd2c461e041ac1dc2b41,60ccdd2c461e041ac1dc2b41,15,zip,critical,B,25,zip15.jpg,zip35.jpg,nogoal,NULL
1687281456,c9c6aae4d0a16f71cc0d4cf5c0b44373,PennController,18,0,experiment,NULL,PennController,17,_Header_,End,1687281451015,60ccdd2c461e041ac1dc2b41,60ccdd2c461e041ac1dc2b41,15,zip,critical,B,25,zip15.jpg,zip35.jpg,nogoal,NULL
1687281456,c9c6aae4d0a16f71cc0d4cf5c0b44373,PennController,18,0,experiment,NULL,Canvas,canvas6,Print,NA,1687281454713,60ccdd2c461e041ac1dc2b41,60ccdd2c461e041ac1dc2b41,15,zip,critical,B,25,zip15.jpg,zip35.jpg,nogoal,NULL
1687281456,c9c6aae4d0a16f71cc0d4cf5c0b44373,PennController,18,0,experiment,NULL,Video,progression,buffer,0.004308,1687281452542,60ccdd2c461e041ac1dc2b41,60ccdd2c461e041ac1dc2b41,15,zip,critical,B,25,zip15.jpg,zip35.jpg,nogoal,NULL
1687281456,c9c6aae4d0a16f71cc0d4cf5c0b44373,PennController,18,0,experiment,NULL,Selector,choice,Selection,option1,1687281455850,60ccdd2c461e041ac1dc2b41,60ccdd2c461e041ac1dc2b41,15,zip,critical,B,25,zip15.jpg,zip35.jpg,nogoal,option2;option1
1687281456,c9c6aae4d0a16f71cc0d4cf5c0b44373,PennController,18,0,experiment,NULL,PennController,17,_Trial_,End,1687281455853,60ccdd2c461e041ac1dc2b41,60ccdd2c461e041ac1dc2b41,15,zip,critical,B,25,zip15.jpg,zip35.jpg,nogoal,NULL
