#
# Results on Tuesday June 20 2023 17:19:42 UTC
# USER AGENT: Mozilla/5.0 (Windows NT 10.0; Win64; x64) AppleWebKit/537.36 (KHTML, like Gecko) Chrome/114.0.0.0 Safari/537.36
# Design number was non-random = 4
#
# Columns below this comment are as follows:
# 1. Results reception time.
# 2. MD5 hash of participant's IP address.
# 3. Controller name.
# 4. Order number of item.
# 5. Inner element number.
# 6. Label.
# 7. Latin Square Group.
# 8. PennElementType.
# 9. PennElementName.
# 10. Parameter.
# 11. Value.
# 12. EventTime.
# 13. PROLIFIC_ID.
# 14. Comments.
1687281582,39890b285e4f27b0c5c106daea1ec920,PennController,2,0,consent,NULL,PennController,0,_Trial_,Start,1687281293773,5db9877aee6f57000b1487c5,NULL
1687281582,39890b285e4f27b0c5c106daea1ec920,PennController,2,0,consent,NULL,PennController,0,_Header_,Start,1687281293773,5db9877aee6f57000b1487c5,NULL
1687281582,39890b285e4f27b0c5c106daea1ec920,PennController,2,0,consent,NULL,PennController,0,_Header_,End,1687281293774,5db9877aee6f57000b1487c5,NULL
1687281582,39890b285e4f27b0c5c106daea1ec920,PennController,2,0,consent,NULL,PennController,0,_Trial_,End,1687281329920,5db9877aee6f57000b1487c5,NULL
# Columns below this comment are as follows:
# 14. ID.
# 15. Comments.
1687281582,39890b285e4f27b0c5c106daea1ec920,PennController,3,0,intro,NULL,PennController,1,_Trial_,Start,1687281329925,5db9877aee6f57000b1487c5,5db9877aee6f57000b1487c5,NULL
1687281582,39890b285e4f27b0c5c106daea1ec920,PennController,3,0,intro,NULL,PennController,1,_Header_,Start,1687281329925,5db9877aee6f57000b1487c5,5db9877aee6f57000b1487c5,NULL
1687281582,39890b285e4f27b0c5c106daea1ec920,PennController,3,0,intro,NULL,PennController,1,_Header_,End,1687281329925,5db9877aee6f57000b1487c5,5db9877aee6f57000b1487c5,NULL
1687281582,39890b285e4f27b0c5c106daea1ec920,PennController,3,0,intro,NULL,PennController,1,_Trial_,End,1687281347154,5db9877aee6f57000b1487c5,5db9877aee6f57000b1487c5,NULL
# Columns below this comment are as follows:
# 15. item_number.
# 16. item.
# 17. type.
# 18. Group.
# 19. prog.
# 20. prev_image.
# 21. next_image.
# 22. height.
# 23. Comments.
1687281582,39890b285e4f27b0c5c106daea1ec920,PennController,19,0,experiment,NULL,PennController,18,_Trial_,Start,1687281347160,5db9877aee6f57000b1487c5,5db9877aee6f57000b1487c5,16,blinds,critical,B,50,blinds42.jpg,blinds60.jpg,nogoal,NULL
1687281582,39890b285e4f27b0c5c106daea1ec920,PennController,19,0,experiment,NULL,PennController,18,_Header_,Start,1687281347160,5db9877aee6f57000b1487c5,5db9877aee6f57000b1487c5,16,blinds,critical,B,50,blinds42.jpg,blinds60.jpg,nogoal,NULL
1687281582,39890b285e4f27b0c5c106daea1ec920,PennController,19,0,experiment,NULL,PennController,18,_Header_,End,1687281347160,5db9877aee6f57000b1487c5,5db9877aee6f57000b1487c5,16,blinds,critical,B,50,blinds42.jpg,blinds60.jpg,nogoal,NULL
1687281582,39890b285e4f27b0c5c106daea1ec920,PennController,19,0,experiment,NULL,Canvas,canvas6,Print,NA,1687281353269,5db9877aee6f57000b1487c5,5db9877aee6f57000b1487c5,16,blinds,critical,B,50,blinds42.jpg,blinds60.jpg,nogoal,NULL
1687281582,39890b285e4f27b0c5c106daea1ec920,PennController,19,0,experiment,NULL,Video,progression,buffer,0.011225,1687281348714,5db9877aee6f57000b1487c5,5db9877aee6f57000b1487c5,16,blinds,critical,B,50,blinds42.jpg,blinds60.jpg,nogoal,NULL
1687281582,39890b285e4f27b0c5c106daea1ec920,PennController,19,0,experiment,NULL,Selector,choice,Selection,option2,1687281355587,5db9877aee6f57000b1487c5,5db9877aee6f57000b1487c5,16,blinds,critical,B,50,blinds42.jpg,blinds60.jpg,nogoal,option2;option1
1687281582,39890b285e4f27b0c5c106daea1ec920,PennController,19,0,experiment,NULL,PennController,18,_Trial_,End,1687281355604,5db9877aee6f57000b1487c5,5db9877aee6f57000b1487c5,16,blinds,critical,B,50,blinds42.jpg,blinds60.jpg,nogoal,NULL
1687281582,39890b285e4f27b0c5c106daea1ec920,PennController,14,0,experiment,NULL,PennController,13,_Trial_,Start,1687281355611,5db9877aee6f57000b1487c5,5db9877aee6f57000b1487c5,11,beads,critical,B,75,beads65.jpg,beads85.jpg,nogoal,NULL
1687281582,39890b285e4f27b0c5c106daea1ec920,PennController,14,0,experiment,NULL,PennController,13,_Header_,Start,1687281355611,5db9877aee6f57000b1487c5,5db9877aee6f57000b1487c5,11,beads,critical,B,75,beads65.jpg,beads85.jpg,nogoal,NULL
1687281582,39890b285e4f27b0c5c106daea1ec920,PennController,14,0,experiment,NULL,PennController,13,_Header_,End,1687281355611,5db9877aee6f57000b1487c5,5db9877aee6f57000b1487c5,11,beads,critical,B,75,beads65.jpg,beads85.jpg,nogoal,NULL
1687281582,39890b285e4f27b0c5c106daea1ec920,PennController,14,0,experiment,NULL,Canvas,canvas6,Print,NA,1687281361308,5db9877aee6f57000b1487c5,5db9877aee6f57000b1487c5,11,beads,critical,B,75,beads65.jpg,beads85.jpg,nogoal,NULL
1687281582,39890b285e4f27b0c5c106daea1ec920,PennController,14,0,experiment,NULL,Video,progression,buffer,0.018627,1687281357164,5db9877aee6f57000b1487c5,5db9877aee6f57000b1487c5,11,beads,critical,B,75,beads65.jpg,beads85.jpg,nogoal,NULL
1687281582,39890b285e4f27b0c5c106daea1ec920,PennController,14,0,experiment,NULL,Selector,choice,Selection,option1,1687281364529,5db9877aee6f57000b1487c5,5db9877aee6f57000b1487c5,11,beads,critical,B,75,beads65.jpg,beads85.jpg,nogoal,option1;option2
1687281582,39890b285e4f27b0c5c106daea1ec920,PennController,14,0,experiment,NULL,PennController,13,_Trial_,End,1687281364540,5db9877aee6f57000b1487c5,5db9877aee6f57000b1487c5,11,beads,critical,B,75,beads65.jpg,beads85.jpg,nogoal,NULL
1687281582,39890b285e4f27b0c5c106daea1ec920,PennController,16,0,experiment,NULL,PennController,15,_Trial_,Start,1687281364545,5db9877aee6f57000b1487c5,5db9877aee6f57000b1487c5,13,mix,critical,B,50,mix40.jpg,mix60.jpg,nogoal,NULL
1687281582,39890b285e4f27b0c5c106daea1ec920,PennController,16,0,experiment,NULL,PennController,15,_Header_,Start,1687281364545,5db9877aee6f57000b1487c5,5db9877aee6f57000b1487c5,13,mix,critical,B,50,mix40.jpg,mix60.jpg,nogoal,NULL
1687281582,39890b285e4f27b0c5c106daea1ec920,PennController,16,0,experiment,NULL,PennController,15,_Header_,End,1687281364545,5db9877aee6f57000b1487c5,5db9877aee6f57000b1487c5,13,mix,critical,B,50,mix40.jpg,mix60.jpg,nogoal,NULL
1687281582,39890b285e4f27b0c5c106daea1ec920,PennController,16,0,experiment,NULL,Canvas,canvas6,Print,NA,1687281369238,5db9877aee6f57000b1487c5,5db9877aee6f57000b1487c5,13,mix,critical,B,50,mix40.jpg,mix60.jpg,nogoal,NULL
1687281582,39890b285e4f27b0c5c106daea1ec920,PennController,16,0,experiment,NULL,Video,progression,buffer,0.013481,1687281366087,5db9877aee6f57000b1487c5,5db9877aee6f57000b1487c5,13,mix,critical,B,50,mix40.jpg,mix60.jpg,nogoal,NULL
1687281582,39890b285e4f27b0c5c106daea1ec920,PennController,16,0,experiment,NULL,Selector,choice,Selection,option2,1687281372872,5db9877aee6f57000b1487c5,5db9877aee6f57000b1487c5,13,mix,critical,B,50,mix40.jpg,mix60.jpg,nogoal,option2;option1
1687281582,39890b285e4f27b0c5c106daea1ec920,PennController,16,0,experiment,NULL,PennController,15,_Trial_,End,1687281372889,5db9877aee6f57000b1487c5,5db9877aee6f57000b1487c5,13,mix,critical,B,50,mix40.jpg,mix60.jpg,nogoal,NULL
1687281582,39890b285e4f27b0c5c106daea1ec920,PennController,28,0,experiment,NULL,PennController,27,_Trial_,Start,1687281372893,5db9877aee6f57000b1487c5,5db9877aee6f57000b1487c5,25,house,filler,B,50,house40.jpg,house60.jpg,nogoal,NULL
1687281582,39890b285e4f27b0c5c106daea1ec920,PennController,28,0,experiment,NULL,PennController,27,_Header_,Start,1687281372893,5db9877aee6f57000b1487c5,5db9877aee6f57000b1487c5,25,house,filler,B,50,house40.jpg,house60.jpg,nogoal,NULL
1687281582,39890b285e4f27b0c5c106daea1ec920,PennController,28,0,experiment,NULL,PennController,27,_Header_,End,1687281372893,5db9877aee6f57000b1487c5,5db9877aee6f57000b1487c5,25,house,filler,B,50,house40.jpg,house60.jpg,nogoal,NULL
1687281582,39890b285e4f27b0c5c106daea1ec920,PennController,28,0,experiment,NULL,Canvas,canvas6,Print,NA,1687281377620,5db9877aee6f57000b1487c5,5db9877aee6f57000b1487c5,25,house,filler,B,50,house40.jpg,house60.jpg,nogoal,NULL
1687281582,39890b285e4f27b0c5c106daea1ec920,PennController,28,0,experiment,NULL,Video,progression,buffer,0.013185,1687281374446,5db9877aee6f57000b1487c5,5db9877aee6f57000b1487c5,25,house,filler,B,50,house40.jpg,house60.jpg,nogoal,NULL
1687281582,39890b285e4f27b0c5c106daea1ec920,PennController,28,0,experiment,NULL,Selector,choice,Selection,option1,1687281378991,5db9877aee6f57000b1487c5,5db9877aee6f57000b1487c5,25,house,filler,B,50,house40.jpg,house60.jpg,nogoal,option2;option1
1687281582,39890b285e4f27b0c5c106daea1ec920,PennController,28,0,experiment,NULL,PennController,27,_Trial_,End,1687281379007,5db9877aee6f57000b1487c5,5db9877aee6f57000b1487c5,25,house,filler,B,50,house40.jpg,house60.jpg,nogoal,NULL
1687281582,39890b285e4f27b0c5c106daea1ec920,PennController,12,0,experiment,NULL,PennController,11,_Trial_,Start,1687281379013,5db9877aee6f57000b1487c5,5db9877aee6f57000b1487c5,9,cake,critical,B,25,cake15.jpg,cake33.jpg,nogoal,NULL
1687281582,39890b285e4f27b0c5c106daea1ec920,PennController,12,0,experiment,NULL,PennController,11,_Header_,Start,1687281379013,5db9877aee6f57000b1487c5,5db9877aee6f57000b1487c5,9,cake,critical,B,25,cake15.jpg,cake33.jpg,nogoal,NULL
1687281582,39890b285e4f27b0c5c106daea1ec920,PennController,12,0,experiment,NULL,PennController,11,_Header_,End,1687281379013,5db9877aee6f57000b1487c5,5db9877aee6f57000b1487c5,9,cake,critical,B,25,cake15.jpg,cake33.jpg,nogoal,NULL
1687281582,39890b285e4f27b0c5c106daea1ec920,PennController,12,0,experiment,NULL,Canvas,canvas6,Print,NA,1687281383322,5db9877aee6f57000b1487c5,5db9877aee6f57000b1487c5,9,cake,critical,B,25,cake15.jpg,cake33.jpg,nogoal,NULL
1687281582,39890b285e4f27b0c5c106daea1ec920,PennController,12,0,experiment,NULL,Video,progression,buffer,0.010398,1687281380549,5db9877aee6f57000b1487c5,5db9877aee6f57000b1487c5,9,cake,critical,B,25,cake15.jpg,cake33.jpg,nogoal,NULL
1687281582,39890b285e4f27b0c5c106daea1ec920,PennController,12,0,experiment,NULL,Selector,choice,Selection,option2,1687281385150,5db9877aee6f57000b1487c5,5db9877aee6f57000b1487c5,9,cake,critical,B,25,cake15.jpg,cake33.jpg,nogoal,option2;option1
1687281582,39890b285e4f27b0c5c106daea1ec920,PennController,12,0,experiment,NULL,PennController,11,_Trial_,End,1687281385166,5db9877aee6f57000b1487c5,5db9877aee6f57000b1487c5,9,cake,critical,B,25,cake15.jpg,cake33.jpg,nogoal,NULL
1687281582,39890b285e4f27b0c5c106daea1ec920,PennController,17,0,experiment,NULL,PennController,16,_Trial_,Start,1687281385170,5db9877aee6f57000b1487c5,5db9877aee6f57000b1487c5,14,cover,critical,B,75,cover66.jpg,cover84.jpg,nogoal,NULL
1687281582,39890b285e4f27b0c5c106daea1ec920,PennController,17,0,experiment,NULL,PennController,16,_Header_,Start,1687281385170,5db9877aee6f57000b1487c5,5db9877aee6f57000b1487c5,14,cover,critical,B,75,cover66.jpg,cover84.jpg,nogoal,NULL
1687281582,39890b285e4f27b0c5c106daea1ec920,PennController,17,0,experiment,NULL,PennController,16,_Header_,End,1687281385170,5db9877aee6f57000b1487c5,5db9877aee6f57000b1487c5,14,cover,critical,B,75,cover66.jpg,cover84.jpg,nogoal,NULL
1687281582,39890b285e4f27b0c5c106daea1ec920,PennController,17,0,experiment,NULL,Canvas,canvas6,Print,NA,1687281392878,5db9877aee6f57000b1487c5,5db9877aee6f57000b1487c5,14,cover,critical,B,75,cover66.jpg,cover84.jpg,nogoal,NULL
1687281582,39890b285e4f27b0c5c106daea1ec920,PennController,17,0,experiment,NULL,Video,progression,buffer,0.015048,1687281386715,5db9877aee6f57000b1487c5,5db9877aee6f57000b1487c5,14,cover,critical,B,75,cover66.jpg,cover84.jpg,nogoal,NULL
1687281582,39890b285e4f27b0c5c106daea1ec920,PennController,17,0,experiment,NULL,Selector,choice,Selection,option1,1687281394592,5db9877aee6f57000b1487c5,5db9877aee6f57000b1487c5,14,cover,critical,B,75,cover66.jpg,cover84.jpg,nogoal,option1;option2
1687281582,39890b285e4f27b0c5c106daea1ec920,PennController,17,0,experiment,NULL,PennController,16,_Trial_,End,1687281394621,5db9877aee6f57000b1487c5,5db9877aee6f57000b1487c5,14,cover,critical,B,75,cover66.jpg,cover84.jpg,nogoal,NULL
1687281582,39890b285e4f27b0c5c106daea1ec920,PennController,22,0,experiment,NULL,PennController,21,_Trial_,Start,1687281394629,5db9877aee6f57000b1487c5,5db9877aee6f57000b1487c5,19,cup,filler,B,50,cup40.jpg,cup60.jpg,nogoal,NULL
1687281582,39890b285e4f27b0c5c106daea1ec920,PennController,22,0,experiment,NULL,PennController,21,_Header_,Start,1687281394629,5db9877aee6f57000b1487c5,5db9877aee6f57000b1487c5,19,cup,filler,B,50,cup40.jpg,cup60.jpg,nogoal,NULL
1687281582,39890b285e4f27b0c5c106daea1ec920,PennController,22,0,experiment,NULL,PennController,21,_Header_,End,1687281394629,5db9877aee6f57000b1487c5,5db9877aee6f57000b1487c5,19,cup,filler,B,50,cup40.jpg,cup60.jpg,nogoal,NULL
1687281582,39890b285e4f27b0c5c106daea1ec920,PennController,22,0,experiment,NULL,Canvas,canvas6,Print,NA,1687281399332,5db9877aee6f57000b1487c5,5db9877aee6f57000b1487c5,19,cup,filler,B,50,cup40.jpg,cup60.jpg,nogoal,NULL
1687281582,39890b285e4f27b0c5c106daea1ec920,PennController,22,0,experiment,NULL,Video,progression,buffer,0.01621,1687281396177,5db9877aee6f57000b1487c5,5db9877aee6f57000b1487c5,19,cup,filler,B,50,cup40.jpg,cup60.jpg,nogoal,NULL
1687281582,39890b285e4f27b0c5c106daea1ec920,PennController,22,0,experiment,NULL,Selector,choice,Selection,option1,1687281406669,5db9877aee6f57000b1487c5,5db9877aee6f57000b1487c5,19,cup,filler,B,50,cup40.jpg,cup60.jpg,nogoal,option1;option2
1687281582,39890b285e4f27b0c5c106daea1ec920,PennController,22,0,experiment,NULL,PennController,21,_Trial_,End,1687281406692,5db9877aee6f57000b1487c5,5db9877aee6f57000b1487c5,19,cup,filler,B,50,cup40.jpg,cup60.jpg,nogoal,NULL
1687281582,39890b285e4f27b0c5c106daea1ec920,PennController,11,0,experiment,NULL,PennController,10,_Trial_,Start,1687281406697,5db9877aee6f57000b1487c5,5db9877aee6f57000b1487c5,8,cucumber,critical,B,75,cucumber66.jpg,cucumber84.jpg,nogoal,NULL
1687281582,39890b285e4f27b0c5c106daea1ec920,PennController,11,0,experiment,NULL,PennController,10,_Header_,Start,1687281406697,5db9877aee6f57000b1487c5,5db9877aee6f57000b1487c5,8,cucumber,critical,B,75,cucumber66.jpg,cucumber84.jpg,nogoal,NULL
1687281582,39890b285e4f27b0c5c106daea1ec920,PennController,11,0,experiment,NULL,PennController,10,_Header_,End,1687281406697,5db9877aee6f57000b1487c5,5db9877aee6f57000b1487c5,8,cucumber,critical,B,75,cucumber66.jpg,cucumber84.jpg,nogoal,NULL
1687281582,39890b285e4f27b0c5c106daea1ec920,PennController,11,0,experiment,NULL,Canvas,canvas6,Print,NA,1687281414396,5db9877aee6f57000b1487c5,5db9877aee6f57000b1487c5,8,cucumber,critical,B,75,cucumber66.jpg,cucumber84.jpg,nogoal,NULL
1687281582,39890b285e4f27b0c5c106daea1ec920,PennController,11,0,experiment,NULL,Video,progression,buffer,0.012325,1687281408234,5db9877aee6f57000b1487c5,5db9877aee6f57000b1487c5,8,cucumber,critical,B,75,cucumber66.jpg,cucumber84.jpg,nogoal,NULL
1687281582,39890b285e4f27b0c5c106daea1ec920,PennController,11,0,experiment,NULL,Selector,choice,Selection,option1,1687281416474,5db9877aee6f57000b1487c5,5db9877aee6f57000b1487c5,8,cucumber,critical,B,75,cucumber66.jpg,cucumber84.jpg,nogoal,option2;option1
1687281582,39890b285e4f27b0c5c106daea1ec920,PennController,11,0,experiment,NULL,PennController,10,_Trial_,End,1687281416493,5db9877aee6f57000b1487c5,5db9877aee6f57000b1487c5,8,cucumber,critical,B,75,cucumber66.jpg,cucumber84.jpg,nogoal,NULL
1687281582,39890b285e4f27b0c5c106daea1ec920,PennController,5,0,experiment,NULL,PennController,4,_Trial_,Start,1687281416498,5db9877aee6f57000b1487c5,5db9877aee6f57000b1487c5,2,door,critical,B,75,door65.jpg,door85.jpg,nogoal,NULL
1687281582,39890b285e4f27b0c5c106daea1ec920,PennController,5,0,experiment,NULL,PennController,4,_Header_,Start,1687281416498,5db9877aee6f57000b1487c5,5db9877aee6f57000b1487c5,2,door,critical,B,75,door65.jpg,door85.jpg,nogoal,NULL
1687281582,39890b285e4f27b0c5c106daea1ec920,PennController,5,0,experiment,NULL,PennController,4,_Header_,End,1687281416498,5db9877aee6f57000b1487c5,5db9877aee6f57000b1487c5,2,door,critical,B,75,door65.jpg,door85.jpg,nogoal,NULL
1687281582,39890b285e4f27b0c5c106daea1ec920,PennController,5,0,experiment,NULL,Canvas,canvas6,Print,NA,1687281422304,5db9877aee6f57000b1487c5,5db9877aee6f57000b1487c5,2,door,critical,B,75,door65.jpg,door85.jpg,nogoal,NULL
1687281582,39890b285e4f27b0c5c106daea1ec920,PennController,5,0,experiment,NULL,Video,progression,buffer,0,1687281418053,5db9877aee6f57000b1487c5,5db9877aee6f57000b1487c5,2,door,critical,B,75,door65.jpg,door85.jpg,nogoal,NULL
1687281582,39890b285e4f27b0c5c106daea1ec920,PennController,5,0,experiment,NULL,Selector,choice,Selection,option1,1687281427504,5db9877aee6f57000b1487c5,5db9877aee6f57000b1487c5,2,door,critical,B,75,door65.jpg,door85.jpg,nogoal,option1;option2
1687281582,39890b285e4f27b0c5c106daea1ec920,PennController,5,0,experiment,NULL,PennController,4,_Trial_,End,1687281427514,5db9877aee6f57000b1487c5,5db9877aee6f57000b1487c5,2,door,critical,B,75,door65.jpg,door85.jpg,nogoal,NULL
1687281582,39890b285e4f27b0c5c106daea1ec920,PennController,27,0,experiment,NULL,PennController,26,_Trial_,Start,1687281427519,5db9877aee6f57000b1487c5,5db9877aee6f57000b1487c5,24,match,filler,B,25,match15.jpg,match35.jpg,nogoal,NULL
1687281582,39890b285e4f27b0c5c106daea1ec920,PennController,27,0,experiment,NULL,PennController,26,_Header_,Start,1687281427519,5db9877aee6f57000b1487c5,5db9877aee6f57000b1487c5,24,match,filler,B,25,match15.jpg,match35.jpg,nogoal,NULL
1687281582,39890b285e4f27b0c5c106daea1ec920,PennController,27,0,experiment,NULL,PennController,26,_Header_,End,1687281427519,5db9877aee6f57000b1487c5,5db9877aee6f57000b1487c5,24,match,filler,B,25,match15.jpg,match35.jpg,nogoal,NULL
1687281582,39890b285e4f27b0c5c106daea1ec920,PennController,27,0,experiment,NULL,Canvas,canvas6,Print,NA,1687281431230,5db9877aee6f57000b1487c5,5db9877aee6f57000b1487c5,24,match,filler,B,25,match15.jpg,match35.jpg,nogoal,NULL
1687281582,39890b285e4f27b0c5c106daea1ec920,PennController,27,0,experiment,NULL,Video,progression,buffer,0.012639,1687281429061,5db9877aee6f57000b1487c5,5db9877aee6f57000b1487c5,24,match,filler,B,25,match15.jpg,match35.jpg,nogoal,NULL
1687281582,39890b285e4f27b0c5c106daea1ec920,PennController,27,0,experiment,NULL,Selector,choice,Selection,option1,1687281436332,5db9877aee6f57000b1487c5,5db9877aee6f57000b1487c5,24,match,filler,B,25,match15.jpg,match35.jpg,nogoal,option1;option2
1687281582,39890b285e4f27b0c5c106daea1ec920,PennController,27,0,experiment,NULL,PennController,26,_Trial_,End,1687281436350,5db9877aee6f57000b1487c5,5db9877aee6f57000b1487c5,24,match,filler,B,25,match15.jpg,match35.jpg,nogoal,NULL
1687281582,39890b285e4f27b0c5c106daea1ec920,PennController,21,0,experiment,NULL,PennController,20,_Trial_,Start,1687281436354,5db9877aee6f57000b1487c5,5db9877aee6f57000b1487c5,18,ball,critical,B,25,ball15.jpg,ball35.jpg,nogoal,NULL
1687281582,39890b285e4f27b0c5c106daea1ec920,PennController,21,0,experiment,NULL,PennController,20,_Header_,Start,1687281436354,5db9877aee6f57000b1487c5,5db9877aee6f57000b1487c5,18,ball,critical,B,25,ball15.jpg,ball35.jpg,nogoal,NULL
1687281582,39890b285e4f27b0c5c106daea1ec920,PennController,21,0,experiment,NULL,PennController,20,_Header_,End,1687281436355,5db9877aee6f57000b1487c5,5db9877aee6f57000b1487c5,18,ball,critical,B,25,ball15.jpg,ball35.jpg,nogoal,NULL
1687281582,39890b285e4f27b0c5c106daea1ec920,PennController,21,0,experiment,NULL,Canvas,canvas6,Print,NA,1687281440066,5db9877aee6f57000b1487c5,5db9877aee6f57000b1487c5,18,ball,critical,B,25,ball15.jpg,ball35.jpg,nogoal,NULL
1687281582,39890b285e4f27b0c5c106daea1ec920,PennController,21,0,experiment,NULL,Video,progression,buffer,0.011105,1687281437899,5db9877aee6f57000b1487c5,5db9877aee6f57000b1487c5,18,ball,critical,B,25,ball15.jpg,ball35.jpg,nogoal,NULL
1687281582,39890b285e4f27b0c5c106daea1ec920,PennController,21,0,experiment,NULL,Selector,choice,Selection,option1,1687281447814,5db9877aee6f57000b1487c5,5db9877aee6f57000b1487c5,18,ball,critical,B,25,ball15.jpg,ball35.jpg,nogoal,option1;option2
1687281582,39890b285e4f27b0c5c106daea1ec920,PennController,21,0,experiment,NULL,PennController,20,_Trial_,End,1687281447831,5db9877aee6f57000b1487c5,5db9877aee6f57000b1487c5,18,ball,critical,B,25,ball15.jpg,ball35.jpg,nogoal,NULL
1687281582,39890b285e4f27b0c5c106daea1ec920,PennController,32,0,experiment,NULL,PennController,31,_Trial_,Start,1687281447836,5db9877aee6f57000b1487c5,5db9877aee6f57000b1487c5,29,frog,filler,B,75,frog65.jpg,frog85.jpg,nogoal,NULL
1687281582,39890b285e4f27b0c5c106daea1ec920,PennController,32,0,experiment,NULL,PennController,31,_Header_,Start,1687281447836,5db9877aee6f57000b1487c5,5db9877aee6f57000b1487c5,29,frog,filler,B,75,frog65.jpg,frog85.jpg,nogoal,NULL
1687281582,39890b285e4f27b0c5c106daea1ec920,PennController,32,0,experiment,NULL,PennController,31,_Header_,End,1687281447836,5db9877aee6f57000b1487c5,5db9877aee6f57000b1487c5,29,frog,filler,B,75,frog65.jpg,frog85.jpg,nogoal,NULL
1687281582,39890b285e4f27b0c5c106daea1ec920,PennController,32,0,experiment,NULL,Canvas,canvas6,Print,NA,1687281453536,5db9877aee6f57000b1487c5,5db9877aee6f57000b1487c5,29,frog,filler,B,75,frog65.jpg,frog85.jpg,nogoal,NULL
1687281582,39890b285e4f27b0c5c106daea1ec920,PennController,32,0,experiment,NULL,Video,progression,buffer,0.009328,1687281449376,5db9877aee6f57000b1487c5,5db9877aee6f57000b1487c5,29,frog,filler,B,75,frog65.jpg,frog85.jpg,nogoal,NULL
1687281582,39890b285e4f27b0c5c106daea1ec920,PennController,32,0,experiment,NULL,Selector,choice,Selection,option1,1687281455580,5db9877aee6f57000b1487c5,5db9877aee6f57000b1487c5,29,frog,filler,B,75,frog65.jpg,frog85.jpg,nogoal,option2;option1
1687281582,39890b285e4f27b0c5c106daea1ec920,PennController,32,0,experiment,NULL,PennController,31,_Trial_,End,1687281455598,5db9877aee6f57000b1487c5,5db9877aee6f57000b1487c5,29,frog,filler,B,75,frog65.jpg,frog85.jpg,nogoal,NULL
1687281582,39890b285e4f27b0c5c106daea1ec920,PennController,13,0,experiment,NULL,PennController,12,_Trial_,Start,1687281455602,5db9877aee6f57000b1487c5,5db9877aee6f57000b1487c5,10,train,critical,B,50,train40.jpg,train60.jpg,nogoal,NULL
1687281582,39890b285e4f27b0c5c106daea1ec920,PennController,13,0,experiment,NULL,PennController,12,_Header_,Start,1687281455602,5db9877aee6f57000b1487c5,5db9877aee6f57000b1487c5,10,train,critical,B,50,train40.jpg,train60.jpg,nogoal,NULL
1687281582,39890b285e4f27b0c5c106daea1ec920,PennController,13,0,experiment,NULL,PennController,12,_Header_,End,1687281455602,5db9877aee6f57000b1487c5,5db9877aee6f57000b1487c5,10,train,critical,B,50,train40.jpg,train60.jpg,nogoal,NULL
1687281582,39890b285e4f27b0c5c106daea1ec920,PennController,13,0,experiment,NULL,Canvas,canvas6,Print,NA,1687281460314,5db9877aee6f57000b1487c5,5db9877aee6f57000b1487c5,10,train,critical,B,50,train40.jpg,train60.jpg,nogoal,NULL
1687281582,39890b285e4f27b0c5c106daea1ec920,PennController,13,0,experiment,NULL,Video,progression,buffer,0.017518,1687281457159,5db9877aee6f57000b1487c5,5db9877aee6f57000b1487c5,10,train,critical,B,50,train40.jpg,train60.jpg,nogoal,NULL
1687281582,39890b285e4f27b0c5c106daea1ec920,PennController,13,0,experiment,NULL,Selector,choice,Selection,option2,1687281461932,5db9877aee6f57000b1487c5,5db9877aee6f57000b1487c5,10,train,critical,B,50,train40.jpg,train60.jpg,nogoal,option1;option2
1687281582,39890b285e4f27b0c5c106daea1ec920,PennController,13,0,experiment,NULL,PennController,12,_Trial_,End,1687281461954,5db9877aee6f57000b1487c5,5db9877aee6f57000b1487c5,10,train,critical,B,50,train40.jpg,train60.jpg,nogoal,NULL
1687281582,39890b285e4f27b0c5c106daea1ec920,PennController,6,0,experiment,NULL,PennController,5,_Trial_,Start,1687281461959,5db9877aee6f57000b1487c5,5db9877aee6f57000b1487c5,3,clean,critical,B,25,clean15.jpg,clean35.jpg,nogoal,NULL
1687281582,39890b285e4f27b0c5c106daea1ec920,PennController,6,0,experiment,NULL,PennController,5,_Header_,Start,1687281461959,5db9877aee6f57000b1487c5,5db9877aee6f57000b1487c5,3,clean,critical,B,25,clean15.jpg,clean35.jpg,nogoal,NULL
1687281582,39890b285e4f27b0c5c106daea1ec920,PennController,6,0,experiment,NULL,PennController,5,_Header_,End,1687281461959,5db9877aee6f57000b1487c5,5db9877aee6f57000b1487c5,3,clean,critical,B,25,clean15.jpg,clean35.jpg,nogoal,NULL
1687281582,39890b285e4f27b0c5c106daea1ec920,PennController,6,0,experiment,NULL,Canvas,canvas6,Print,NA,1687281465665,5db9877aee6f57000b1487c5,5db9877aee6f57000b1487c5,3,clean,critical,B,25,clean15.jpg,clean35.jpg,nogoal,NULL
1687281582,39890b285e4f27b0c5c106daea1ec920,PennController,6,0,experiment,NULL,Video,progression,buffer,0.012412,1687281463495,5db9877aee6f57000b1487c5,5db9877aee6f57000b1487c5,3,clean,critical,B,25,clean15.jpg,clean35.jpg,nogoal,NULL
1687281582,39890b285e4f27b0c5c106daea1ec920,PennController,6,0,experiment,NULL,Selector,choice,Selection,option2,1687281467500,5db9877aee6f57000b1487c5,5db9877aee6f57000b1487c5,3,clean,critical,B,25,clean15.jpg,clean35.jpg,nogoal,option1;option2
1687281582,39890b285e4f27b0c5c106daea1ec920,PennController,6,0,experiment,NULL,PennController,5,_Trial_,End,1687281467515,5db9877aee6f57000b1487c5,5db9877aee6f57000b1487c5,3,clean,critical,B,25,clean15.jpg,clean35.jpg,nogoal,NULL
1687281582,39890b285e4f27b0c5c106daea1ec920,PennController,8,0,experiment,NULL,PennController,7,_Trial_,Start,1687281467519,5db9877aee6f57000b1487c5,5db9877aee6f57000b1487c5,5,book,critical,B,75,book65.jpg,book85.jpg,nogoal,NULL
1687281582,39890b285e4f27b0c5c106daea1ec920,PennController,8,0,experiment,NULL,PennController,7,_Header_,Start,1687281467519,5db9877aee6f57000b1487c5,5db9877aee6f57000b1487c5,5,book,critical,B,75,book65.jpg,book85.jpg,nogoal,NULL
1687281582,39890b285e4f27b0c5c106daea1ec920,PennController,8,0,experiment,NULL,PennController,7,_Header_,End,1687281467519,5db9877aee6f57000b1487c5,5db9877aee6f57000b1487c5,5,book,critical,B,75,book65.jpg,book85.jpg,nogoal,NULL
1687281582,39890b285e4f27b0c5c106daea1ec920,PennController,8,0,experiment,NULL,Canvas,canvas6,Print,NA,1687281473211,5db9877aee6f57000b1487c5,5db9877aee6f57000b1487c5,5,book,critical,B,75,book65.jpg,book85.jpg,nogoal,NULL
1687281582,39890b285e4f27b0c5c106daea1ec920,PennController,8,0,experiment,NULL,Video,progression,buffer,0.009159,1687281469056,5db9877aee6f57000b1487c5,5db9877aee6f57000b1487c5,5,book,critical,B,75,book65.jpg,book85.jpg,nogoal,NULL
1687281582,39890b285e4f27b0c5c106daea1ec920,PennController,8,0,experiment,NULL,Selector,choice,Selection,option1,1687281475313,5db9877aee6f57000b1487c5,5db9877aee6f57000b1487c5,5,book,critical,B,75,book65.jpg,book85.jpg,nogoal,option2;option1
1687281582,39890b285e4f27b0c5c106daea1ec920,PennController,8,0,experiment,NULL,PennController,7,_Trial_,End,1687281475330,5db9877aee6f57000b1487c5,5db9877aee6f57000b1487c5,5,book,critical,B,75,book65.jpg,book85.jpg,nogoal,NULL
1687281582,39890b285e4f27b0c5c106daea1ec920,PennController,20,0,experiment,NULL,PennController,19,_Trial_,Start,1687281475335,5db9877aee6f57000b1487c5,5db9877aee6f57000b1487c5,17,roll,critical,B,75,roll65.jpg,roll85.jpg,nogoal,NULL
1687281582,39890b285e4f27b0c5c106daea1ec920,PennController,20,0,experiment,NULL,PennController,19,_Header_,Start,1687281475335,5db9877aee6f57000b1487c5,5db9877aee6f57000b1487c5,17,roll,critical,B,75,roll65.jpg,roll85.jpg,nogoal,NULL
1687281582,39890b285e4f27b0c5c106daea1ec920,PennController,20,0,experiment,NULL,PennController,19,_Header_,End,1687281475335,5db9877aee6f57000b1487c5,5db9877aee6f57000b1487c5,17,roll,critical,B,75,roll65.jpg,roll85.jpg,nogoal,NULL
1687281582,39890b285e4f27b0c5c106daea1ec920,PennController,20,0,experiment,NULL,Canvas,canvas6,Print,NA,1687281481151,5db9877aee6f57000b1487c5,5db9877aee6f57000b1487c5,17,roll,critical,B,75,roll65.jpg,roll85.jpg,nogoal,NULL
1687281582,39890b285e4f27b0c5c106daea1ec920,PennController,20,0,experiment,NULL,Video,progression,buffer,0,1687281476875,5db9877aee6f57000b1487c5,5db9877aee6f57000b1487c5,17,roll,critical,B,75,roll65.jpg,roll85.jpg,nogoal,NULL
1687281582,39890b285e4f27b0c5c106daea1ec920,PennController,20,0,experiment,NULL,Selector,choice,Selection,option2,1687281483146,5db9877aee6f57000b1487c5,5db9877aee6f57000b1487c5,17,roll,critical,B,75,roll65.jpg,roll85.jpg,nogoal,option2;option1
1687281582,39890b285e4f27b0c5c106daea1ec920,PennController,20,0,experiment,NULL,PennController,19,_Trial_,End,1687281483163,5db9877aee6f57000b1487c5,5db9877aee6f57000b1487c5,17,roll,critical,B,75,roll65.jpg,roll85.jpg,nogoal,NULL
1687281582,39890b285e4f27b0c5c106daea1ec920,PennController,31,0,experiment,NULL,PennController,30,_Trial_,Start,1687281483167,5db9877aee6f57000b1487c5,5db9877aee6f57000b1487c5,28,sort,filler,B,50,sort40.jpg,sort60.jpg,nogoal,NULL
1687281582,39890b285e4f27b0c5c106daea1ec920,PennController,31,0,experiment,NULL,PennController,30,_Header_,Start,1687281483167,5db9877aee6f57000b1487c5,5db9877aee6f57000b1487c5,28,sort,filler,B,50,sort40.jpg,sort60.jpg,nogoal,NULL
1687281582,39890b285e4f27b0c5c106daea1ec920,PennController,31,0,experiment,NULL,PennController,30,_Header_,End,1687281483167,5db9877aee6f57000b1487c5,5db9877aee6f57000b1487c5,28,sort,filler,B,50,sort40.jpg,sort60.jpg,nogoal,NULL
1687281582,39890b285e4f27b0c5c106daea1ec920,PennController,31,0,experiment,NULL,Canvas,canvas6,Print,NA,1687281487854,5db9877aee6f57000b1487c5,5db9877aee6f57000b1487c5,28,sort,filler,B,50,sort40.jpg,sort60.jpg,nogoal,NULL
1687281582,39890b285e4f27b0c5c106daea1ec920,PennController,31,0,experiment,NULL,Video,progression,buffer,0.008682,1687281484697,5db9877aee6f57000b1487c5,5db9877aee6f57000b1487c5,28,sort,filler,B,50,sort40.jpg,sort60.jpg,nogoal,NULL
1687281582,39890b285e4f27b0c5c106daea1ec920,PennController,31,0,experiment,NULL,Selector,choice,Selection,option1,1687281493369,5db9877aee6f57000b1487c5,5db9877aee6f57000b1487c5,28,sort,filler,B,50,sort40.jpg,sort60.jpg,nogoal,option1;option2
1687281582,39890b285e4f27b0c5c106daea1ec920,PennController,31,0,experiment,NULL,PennController,30,_Trial_,End,1687281493387,5db9877aee6f57000b1487c5,5db9877aee6f57000b1487c5,28,sort,filler,B,50,sort40.jpg,sort60.jpg,nogoal,NULL
1687281582,39890b285e4f27b0c5c106daea1ec920,PennController,30,0,experiment,NULL,PennController,29,_Trial_,Start,1687281493392,5db9877aee6f57000b1487c5,5db9877aee6f57000b1487c5,27,square,filler,B,25,square15.jpg,square35.jpg,nogoal,NULL
1687281582,39890b285e4f27b0c5c106daea1ec920,PennController,30,0,experiment,NULL,PennController,29,_Header_,Start,1687281493392,5db9877aee6f57000b1487c5,5db9877aee6f57000b1487c5,27,square,filler,B,25,square15.jpg,square35.jpg,nogoal,NULL
1687281582,39890b285e4f27b0c5c106daea1ec920,PennController,30,0,experiment,NULL,PennController,29,_Header_,End,1687281493392,5db9877aee6f57000b1487c5,5db9877aee6f57000b1487c5,27,square,filler,B,25,square15.jpg,square35.jpg,nogoal,NULL
1687281582,39890b285e4f27b0c5c106daea1ec920,PennController,30,0,experiment,NULL,Canvas,canvas6,Print,NA,1687281497103,5db9877aee6f57000b1487c5,5db9877aee6f57000b1487c5,27,square,filler,B,25,square15.jpg,square35.jpg,nogoal,NULL
1687281582,39890b285e4f27b0c5c106daea1ec920,PennController,30,0,experiment,NULL,Video,progression,buffer,0.012734,1687281494937,5db9877aee6f57000b1487c5,5db9877aee6f57000b1487c5,27,square,filler,B,25,square15.jpg,square35.jpg,nogoal,NULL
1687281582,39890b285e4f27b0c5c106daea1ec920,PennController,30,0,experiment,NULL,Selector,choice,Selection,option1,1687281500203,5db9877aee6f57000b1487c5,5db9877aee6f57000b1487c5,27,square,filler,B,25,square15.jpg,square35.jpg,nogoal,option2;option1
1687281582,39890b285e4f27b0c5c106daea1ec920,PennController,30,0,experiment,NULL,PennController,29,_Trial_,End,1687281500216,5db9877aee6f57000b1487c5,5db9877aee6f57000b1487c5,27,square,filler,B,25,square15.jpg,square35.jpg,nogoal,NULL
1687281582,39890b285e4f27b0c5c106daea1ec920,PennController,9,0,experiment,NULL,PennController,8,_Trial_,Start,1687281500219,5db9877aee6f57000b1487c5,5db9877aee6f57000b1487c5,6,flower,critical,B,25,flower15.jpg,flower35.jpg,nogoal,NULL
1687281582,39890b285e4f27b0c5c106daea1ec920,PennController,9,0,experiment,NULL,PennController,8,_Header_,Start,1687281500219,5db9877aee6f57000b1487c5,5db9877aee6f57000b1487c5,6,flower,critical,B,25,flower15.jpg,flower35.jpg,nogoal,NULL
1687281582,39890b285e4f27b0c5c106daea1ec920,PennController,9,0,experiment,NULL,PennController,8,_Header_,End,1687281500219,5db9877aee6f57000b1487c5,5db9877aee6f57000b1487c5,6,flower,critical,B,25,flower15.jpg,flower35.jpg,nogoal,NULL
1687281582,39890b285e4f27b0c5c106daea1ec920,PennController,9,0,experiment,NULL,Canvas,canvas6,Print,NA,1687281503925,5db9877aee6f57000b1487c5,5db9877aee6f57000b1487c5,6,flower,critical,B,25,flower15.jpg,flower35.jpg,nogoal,NULL
1687281582,39890b285e4f27b0c5c106daea1ec920,PennController,9,0,experiment,NULL,Video,progression,buffer,0.012227,1687281501761,5db9877aee6f57000b1487c5,5db9877aee6f57000b1487c5,6,flower,critical,B,25,flower15.jpg,flower35.jpg,nogoal,NULL
1687281582,39890b285e4f27b0c5c106daea1ec920,PennController,9,0,experiment,NULL,Selector,choice,Selection,option2,1687281505578,5db9877aee6f57000b1487c5,5db9877aee6f57000b1487c5,6,flower,critical,B,25,flower15.jpg,flower35.jpg,nogoal,option2;option1
1687281582,39890b285e4f27b0c5c106daea1ec920,PennController,9,0,experiment,NULL,PennController,8,_Trial_,End,1687281505595,5db9877aee6f57000b1487c5,5db9877aee6f57000b1487c5,6,flower,critical,B,25,flower15.jpg,flower35.jpg,nogoal,NULL
1687281582,39890b285e4f27b0c5c106daea1ec920,PennController,26,0,experiment,NULL,PennController,25,_Trial_,Start,1687281505604,5db9877aee6f57000b1487c5,5db9877aee6f57000b1487c5,23,color,filler,B,75,color65.jpg,color85.jpg,nogoal,NULL
1687281582,39890b285e4f27b0c5c106daea1ec920,PennController,26,0,experiment,NULL,PennController,25,_Header_,Start,1687281505604,5db9877aee6f57000b1487c5,5db9877aee6f57000b1487c5,23,color,filler,B,75,color65.jpg,color85.jpg,nogoal,NULL
1687281582,39890b285e4f27b0c5c106daea1ec920,PennController,26,0,experiment,NULL,PennController,25,_Header_,End,1687281505604,5db9877aee6f57000b1487c5,5db9877aee6f57000b1487c5,23,color,filler,B,75,color65.jpg,color85.jpg,nogoal,NULL
1687281582,39890b285e4f27b0c5c106daea1ec920,PennController,26,0,experiment,NULL,Canvas,canvas6,Print,NA,1687281511309,5db9877aee6f57000b1487c5,5db9877aee6f57000b1487c5,23,color,filler,B,75,color65.jpg,color85.jpg,nogoal,NULL
1687281582,39890b285e4f27b0c5c106daea1ec920,PennController,26,0,experiment,NULL,Video,progression,buffer,0.011435,1687281507146,5db9877aee6f57000b1487c5,5db9877aee6f57000b1487c5,23,color,filler,B,75,color65.jpg,color85.jpg,nogoal,NULL
1687281582,39890b285e4f27b0c5c106daea1ec920,PennController,26,0,experiment,NULL,Selector,choice,Selection,option1,1687281513338,5db9877aee6f57000b1487c5,5db9877aee6f57000b1487c5,23,color,filler,B,75,color65.jpg,color85.jpg,nogoal,option2;option1
1687281582,39890b285e4f27b0c5c106daea1ec920,PennController,26,0,experiment,NULL,PennController,25,_Trial_,End,1687281513356,5db9877aee6f57000b1487c5,5db9877aee6f57000b1487c5,23,color,filler,B,75,color65.jpg,color85.jpg,nogoal,NULL
1687281582,39890b285e4f27b0c5c106daea1ec920,PennController,4,0,experiment,NULL,PennController,3,_Trial_,Start,1687281513361,5db9877aee6f57000b1487c5,5db9877aee6f57000b1487c5,1,vase,critical,B,50,vase40.jpg,vase60.jpg,nogoal,NULL
1687281582,39890b285e4f27b0c5c106daea1ec920,PennController,4,0,experiment,NULL,PennController,3,_Header_,Start,1687281513361,5db9877aee6f57000b1487c5,5db9877aee6f57000b1487c5,1,vase,critical,B,50,vase40.jpg,vase60.jpg,nogoal,NULL
1687281582,39890b285e4f27b0c5c106daea1ec920,PennController,4,0,experiment,NULL,PennController,3,_Header_,End,1687281513361,5db9877aee6f57000b1487c5,5db9877aee6f57000b1487c5,1,vase,critical,B,50,vase40.jpg,vase60.jpg,nogoal,NULL
1687281582,39890b285e4f27b0c5c106daea1ec920,PennController,4,0,experiment,NULL,Canvas,canvas6,Print,NA,1687281518051,5db9877aee6f57000b1487c5,5db9877aee6f57000b1487c5,1,vase,critical,B,50,vase40.jpg,vase60.jpg,nogoal,NULL
1687281582,39890b285e4f27b0c5c106daea1ec920,PennController,4,0,experiment,NULL,Video,progression,buffer,0.008437,1687281514890,5db9877aee6f57000b1487c5,5db9877aee6f57000b1487c5,1,vase,critical,B,50,vase40.jpg,vase60.jpg,nogoal,NULL
1687281582,39890b285e4f27b0c5c106daea1ec920,PennController,4,0,experiment,NULL,Selector,choice,Selection,option2,1687281520681,5db9877aee6f57000b1487c5,5db9877aee6f57000b1487c5,1,vase,critical,B,50,vase40.jpg,vase60.jpg,nogoal,option1;option2
1687281582,39890b285e4f27b0c5c106daea1ec920,PennController,4,0,experiment,NULL,PennController,3,_Trial_,End,1687281520695,5db9877aee6f57000b1487c5,5db9877aee6f57000b1487c5,1,vase,critical,B,50,vase40.jpg,vase60.jpg,nogoal,NULL
1687281582,39890b285e4f27b0c5c106daea1ec920,PennController,25,0,experiment,NULL,PennController,24,_Trial_,Start,1687281520699,5db9877aee6f57000b1487c5,5db9877aee6f57000b1487c5,22,wall,filler,B,50,wall40.jpg,wall60.jpg,nogoal,NULL
1687281582,39890b285e4f27b0c5c106daea1ec920,PennController,25,0,experiment,NULL,PennController,24,_Header_,Start,1687281520699,5db9877aee6f57000b1487c5,5db9877aee6f57000b1487c5,22,wall,filler,B,50,wall40.jpg,wall60.jpg,nogoal,NULL
1687281582,39890b285e4f27b0c5c106daea1ec920,PennController,25,0,experiment,NULL,PennController,24,_Header_,End,1687281520699,5db9877aee6f57000b1487c5,5db9877aee6f57000b1487c5,22,wall,filler,B,50,wall40.jpg,wall60.jpg,nogoal,NULL
1687281582,39890b285e4f27b0c5c106daea1ec920,PennController,25,0,experiment,NULL,Canvas,canvas6,Print,NA,1687281525400,5db9877aee6f57000b1487c5,5db9877aee6f57000b1487c5,22,wall,filler,B,50,wall40.jpg,wall60.jpg,nogoal,NULL
1687281582,39890b285e4f27b0c5c106daea1ec920,PennController,25,0,experiment,NULL,Video,progression,buffer,0.009922,1687281522237,5db9877aee6f57000b1487c5,5db9877aee6f57000b1487c5,22,wall,filler,B,50,wall40.jpg,wall60.jpg,nogoal,NULL
1687281582,39890b285e4f27b0c5c106daea1ec920,PennController,25,0,experiment,NULL,Selector,choice,Selection,option2,1687281529433,5db9877aee6f57000b1487c5,5db9877aee6f57000b1487c5,22,wall,filler,B,50,wall40.jpg,wall60.jpg,nogoal,option2;option1
1687281582,39890b285e4f27b0c5c106daea1ec920,PennController,25,0,experiment,NULL,PennController,24,_Trial_,End,1687281529469,5db9877aee6f57000b1487c5,5db9877aee6f57000b1487c5,22,wall,filler,B,50,wall40.jpg,wall60.jpg,nogoal,NULL
1687281582,39890b285e4f27b0c5c106daea1ec920,PennController,18,0,experiment,NULL,PennController,17,_Trial_,Start,1687281529473,5db9877aee6f57000b1487c5,5db9877aee6f57000b1487c5,15,zip,critical,B,25,zip15.jpg,zip35.jpg,nogoal,NULL
1687281582,39890b285e4f27b0c5c106daea1ec920,PennController,18,0,experiment,NULL,PennController,17,_Header_,Start,1687281529473,5db9877aee6f57000b1487c5,5db9877aee6f57000b1487c5,15,zip,critical,B,25,zip15.jpg,zip35.jpg,nogoal,NULL
1687281582,39890b285e4f27b0c5c106daea1ec920,PennController,18,0,experiment,NULL,PennController,17,_Header_,End,1687281529473,5db9877aee6f57000b1487c5,5db9877aee6f57000b1487c5,15,zip,critical,B,25,zip15.jpg,zip35.jpg,nogoal,NULL
1687281582,39890b285e4f27b0c5c106daea1ec920,PennController,18,0,experiment,NULL,Canvas,canvas6,Print,NA,1687281533187,5db9877aee6f57000b1487c5,5db9877aee6f57000b1487c5,15,zip,critical,B,25,zip15.jpg,zip35.jpg,nogoal,NULL
1687281582,39890b285e4f27b0c5c106daea1ec920,PennController,18,0,experiment,NULL,Video,progression,buffer,0.013326,1687281531013,5db9877aee6f57000b1487c5,5db9877aee6f57000b1487c5,15,zip,critical,B,25,zip15.jpg,zip35.jpg,nogoal,NULL
1687281582,39890b285e4f27b0c5c106daea1ec920,PennController,18,0,experiment,NULL,Selector,choice,Selection,option1,1687281536355,5db9877aee6f57000b1487c5,5db9877aee6f57000b1487c5,15,zip,critical,B,25,zip15.jpg,zip35.jpg,nogoal,option2;option1
1687281582,39890b285e4f27b0c5c106daea1ec920,PennController,18,0,experiment,NULL,PennController,17,_Trial_,End,1687281536368,5db9877aee6f57000b1487c5,5db9877aee6f57000b1487c5,15,zip,critical,B,25,zip15.jpg,zip35.jpg,nogoal,NULL
1687281582,39890b285e4f27b0c5c106daea1ec920,PennController,24,0,experiment,NULL,PennController,23,_Trial_,Start,1687281536371,5db9877aee6f57000b1487c5,5db9877aee6f57000b1487c5,21,visit,filler,B,25,visit15.jpg,visit35.jpg,nogoal,NULL
1687281582,39890b285e4f27b0c5c106daea1ec920,PennController,24,0,experiment,NULL,PennController,23,_Header_,Start,1687281536371,5db9877aee6f57000b1487c5,5db9877aee6f57000b1487c5,21,visit,filler,B,25,visit15.jpg,visit35.jpg,nogoal,NULL
1687281582,39890b285e4f27b0c5c106daea1ec920,PennController,24,0,experiment,NULL,PennController,23,_Header_,End,1687281536371,5db9877aee6f57000b1487c5,5db9877aee6f57000b1487c5,21,visit,filler,B,25,visit15.jpg,visit35.jpg,nogoal,NULL
1687281582,39890b285e4f27b0c5c106daea1ec920,PennController,24,0,experiment,NULL,Canvas,canvas6,Print,NA,1687281540073,5db9877aee6f57000b1487c5,5db9877aee6f57000b1487c5,21,visit,filler,B,25,visit15.jpg,visit35.jpg,nogoal,NULL
1687281582,39890b285e4f27b0c5c106daea1ec920,PennController,24,0,experiment,NULL,Video,progression,buffer,0.009729,1687281537911,5db9877aee6f57000b1487c5,5db9877aee6f57000b1487c5,21,visit,filler,B,25,visit15.jpg,visit35.jpg,nogoal,NULL
1687281582,39890b285e4f27b0c5c106daea1ec920,PennController,24,0,experiment,NULL,Selector,choice,Selection,option2,1687281542302,5db9877aee6f57000b1487c5,5db9877aee6f57000b1487c5,21,visit,filler,B,25,visit15.jpg,visit35.jpg,nogoal,option1;option2
1687281582,39890b285e4f27b0c5c106daea1ec920,PennController,24,0,experiment,NULL,PennController,23,_Trial_,End,1687281542319,5db9877aee6f57000b1487c5,5db9877aee6f57000b1487c5,21,visit,filler,B,25,visit15.jpg,visit35.jpg,nogoal,NULL
1687281582,39890b285e4f27b0c5c106daea1ec920,PennController,7,0,experiment,NULL,PennController,6,_Trial_,Start,1687281542324,5db9877aee6f57000b1487c5,5db9877aee6f57000b1487c5,4,candy,critical,B,50,candy40.jpg,candy60.jpg,nogoal,NULL
1687281582,39890b285e4f27b0c5c106daea1ec920,PennController,7,0,experiment,NULL,PennController,6,_Header_,Start,1687281542324,5db9877aee6f57000b1487c5,5db9877aee6f57000b1487c5,4,candy,critical,B,50,candy40.jpg,candy60.jpg,nogoal,NULL
1687281582,39890b285e4f27b0c5c106daea1ec920,PennController,7,0,experiment,NULL,PennController,6,_Header_,End,1687281542324,5db9877aee6f57000b1487c5,5db9877aee6f57000b1487c5,4,candy,critical,B,50,candy40.jpg,candy60.jpg,nogoal,NULL
1687281582,39890b285e4f27b0c5c106daea1ec920,PennController,7,0,experiment,NULL,Canvas,canvas6,Print,NA,1687281547024,5db9877aee6f57000b1487c5,5db9877aee6f57000b1487c5,4,candy,critical,B,50,candy40.jpg,candy60.jpg,nogoal,NULL
1687281582,39890b285e4f27b0c5c106daea1ec920,PennController,7,0,experiment,NULL,Video,progression,buffer,0.012846,1687281543867,5db9877aee6f57000b1487c5,5db9877aee6f57000b1487c5,4,candy,critical,B,50,candy40.jpg,candy60.jpg,nogoal,NULL
1687281582,39890b285e4f27b0c5c106daea1ec920,PennController,7,0,experiment,NULL,Selector,choice,Selection,option1,1687281555732,5db9877aee6f57000b1487c5,5db9877aee6f57000b1487c5,4,candy,critical,B,50,candy40.jpg,candy60.jpg,nogoal,option1;option2
1687281582,39890b285e4f27b0c5c106daea1ec920,PennController,7,0,experiment,NULL,PennController,6,_Trial_,End,1687281555748,5db9877aee6f57000b1487c5,5db9877aee6f57000b1487c5,4,candy,critical,B,50,candy40.jpg,candy60.jpg,nogoal,NULL
1687281582,39890b285e4f27b0c5c106daea1ec920,PennController,15,0,experiment,NULL,PennController,14,_Trial_,Start,1687281555755,5db9877aee6f57000b1487c5,5db9877aee6f57000b1487c5,12,erase,critical,B,25,erase15.jpg,erase33.jpg,nogoal,NULL
1687281582,39890b285e4f27b0c5c106daea1ec920,PennController,15,0,experiment,NULL,PennController,14,_Header_,Start,1687281555755,5db9877aee6f57000b1487c5,5db9877aee6f57000b1487c5,12,erase,critical,B,25,erase15.jpg,erase33.jpg,nogoal,NULL
1687281582,39890b285e4f27b0c5c106daea1ec920,PennController,15,0,experiment,NULL,PennController,14,_Header_,End,1687281555755,5db9877aee6f57000b1487c5,5db9877aee6f57000b1487c5,12,erase,critical,B,25,erase15.jpg,erase33.jpg,nogoal,NULL
1687281582,39890b285e4f27b0c5c106daea1ec920,PennController,15,0,experiment,NULL,Canvas,canvas6,Print,NA,1687281560053,5db9877aee6f57000b1487c5,5db9877aee6f57000b1487c5,12,erase,critical,B,25,erase15.jpg,erase33.jpg,nogoal,NULL
1687281582,39890b285e4f27b0c5c106daea1ec920,PennController,15,0,experiment,NULL,Video,progression,buffer,0.014747,1687281557305,5db9877aee6f57000b1487c5,5db9877aee6f57000b1487c5,12,erase,critical,B,25,erase15.jpg,erase33.jpg,nogoal,NULL
1687281582,39890b285e4f27b0c5c106daea1ec920,PennController,15,0,experiment,NULL,Selector,choice,Selection,option2,1687281561953,5db9877aee6f57000b1487c5,5db9877aee6f57000b1487c5,12,erase,critical,B,25,erase15.jpg,erase33.jpg,nogoal,option2;option1
1687281582,39890b285e4f27b0c5c106daea1ec920,PennController,15,0,experiment,NULL,PennController,14,_Trial_,End,1687281561969,5db9877aee6f57000b1487c5,5db9877aee6f57000b1487c5,12,erase,critical,B,25,erase15.jpg,erase33.jpg,nogoal,NULL
1687281582,39890b285e4f27b0c5c106daea1ec920,PennController,23,0,experiment,NULL,PennController,22,_Trial_,Start,1687281561973,5db9877aee6f57000b1487c5,5db9877aee6f57000b1487c5,20,cat,filler,B,75,cat65.jpg,cat85.jpg,nogoal,NULL
1687281582,39890b285e4f27b0c5c106daea1ec920,PennController,23,0,experiment,NULL,PennController,22,_Header_,Start,1687281561973,5db9877aee6f57000b1487c5,5db9877aee6f57000b1487c5,20,cat,filler,B,75,cat65.jpg,cat85.jpg,nogoal,NULL
1687281582,39890b285e4f27b0c5c106daea1ec920,PennController,23,0,experiment,NULL,PennController,22,_Header_,End,1687281561973,5db9877aee6f57000b1487c5,5db9877aee6f57000b1487c5,20,cat,filler,B,75,cat65.jpg,cat85.jpg,nogoal,NULL
1687281582,39890b285e4f27b0c5c106daea1ec920,PennController,23,0,experiment,NULL,Canvas,canvas6,Print,NA,1687281567695,5db9877aee6f57000b1487c5,5db9877aee6f57000b1487c5,20,cat,filler,B,75,cat65.jpg,cat85.jpg,nogoal,NULL
1687281582,39890b285e4f27b0c5c106daea1ec920,PennController,23,0,experiment,NULL,Video,progression,buffer,0.011146,1687281563513,5db9877aee6f57000b1487c5,5db9877aee6f57000b1487c5,20,cat,filler,B,75,cat65.jpg,cat85.jpg,nogoal,NULL
1687281582,39890b285e4f27b0c5c106daea1ec920,PennController,23,0,experiment,NULL,Selector,choice,Selection,option2,1687281569941,5db9877aee6f57000b1487c5,5db9877aee6f57000b1487c5,20,cat,filler,B,75,cat65.jpg,cat85.jpg,nogoal,option2;option1
1687281582,39890b285e4f27b0c5c106daea1ec920,PennController,23,0,experiment,NULL,PennController,22,_Trial_,End,1687281569958,5db9877aee6f57000b1487c5,5db9877aee6f57000b1487c5,20,cat,filler,B,75,cat65.jpg,cat85.jpg,nogoal,NULL
1687281582,39890b285e4f27b0c5c106daea1ec920,PennController,29,0,experiment,NULL,PennController,28,_Trial_,Start,1687281569965,5db9877aee6f57000b1487c5,5db9877aee6f57000b1487c5,26,sandwich,filler,B,75,sandwich65.jpg,sandwich85.jpg,nogoal,NULL
1687281582,39890b285e4f27b0c5c106daea1ec920,PennController,29,0,experiment,NULL,PennController,28,_Header_,Start,1687281569965,5db9877aee6f57000b1487c5,5db9877aee6f57000b1487c5,26,sandwich,filler,B,75,sandwich65.jpg,sandwich85.jpg,nogoal,NULL
1687281582,39890b285e4f27b0c5c106daea1ec920,PennController,29,0,experiment,NULL,PennController,28,_Header_,End,1687281569965,5db9877aee6f57000b1487c5,5db9877aee6f57000b1487c5,26,sandwich,filler,B,75,sandwich65.jpg,sandwich85.jpg,nogoal,NULL
1687281582,39890b285e4f27b0c5c106daea1ec920,PennController,29,0,experiment,NULL,Canvas,canvas6,Print,NA,1687281575674,5db9877aee6f57000b1487c5,5db9877aee6f57000b1487c5,26,sandwich,filler,B,75,sandwich65.jpg,sandwich85.jpg,nogoal,NULL
1687281582,39890b285e4f27b0c5c106daea1ec920,PennController,29,0,experiment,NULL,Video,progression,buffer,0.014415,1687281571510,5db9877aee6f57000b1487c5,5db9877aee6f57000b1487c5,26,sandwich,filler,B,75,sandwich65.jpg,sandwich85.jpg,nogoal,NULL
1687281582,39890b285e4f27b0c5c106daea1ec920,PennController,29,0,experiment,NULL,Selector,choice,Selection,option1,1687281577575,5db9877aee6f57000b1487c5,5db9877aee6f57000b1487c5,26,sandwich,filler,B,75,sandwich65.jpg,sandwich85.jpg,nogoal,option2;option1
1687281582,39890b285e4f27b0c5c106daea1ec920,PennController,29,0,experiment,NULL,PennController,28,_Trial_,End,1687281577592,5db9877aee6f57000b1487c5,5db9877aee6f57000b1487c5,26,sandwich,filler,B,75,sandwich65.jpg,sandwich85.jpg,nogoal,NULL
1687281582,39890b285e4f27b0c5c106daea1ec920,PennController,10,0,experiment,NULL,PennController,9,_Trial_,Start,1687281577599,5db9877aee6f57000b1487c5,5db9877aee6f57000b1487c5,7,stack,critical,B,50,stack40.jpg,stack60.jpg,nogoal,NULL
1687281582,39890b285e4f27b0c5c106daea1ec920,PennController,10,0,experiment,NULL,PennController,9,_Header_,Start,1687281577599,5db9877aee6f57000b1487c5,5db9877aee6f57000b1487c5,7,stack,critical,B,50,stack40.jpg,stack60.jpg,nogoal,NULL
1687281582,39890b285e4f27b0c5c106daea1ec920,PennController,10,0,experiment,NULL,PennController,9,_Header_,End,1687281577599,5db9877aee6f57000b1487c5,5db9877aee6f57000b1487c5,7,stack,critical,B,50,stack40.jpg,stack60.jpg,nogoal,NULL
1687281582,39890b285e4f27b0c5c106daea1ec920,PennController,10,0,experiment,NULL,Canvas,canvas6,Print,NA,1687281582297,5db9877aee6f57000b1487c5,5db9877aee6f57000b1487c5,7,stack,critical,B,50,stack40.jpg,stack60.jpg,nogoal,NULL
1687281582,39890b285e4f27b0c5c106daea1ec920,PennController,10,0,experiment,NULL,Video,progression,buffer,0.013202,1687281579140,5db9877aee6f57000b1487c5,5db9877aee6f57000b1487c5,7,stack,critical,B,50,stack40.jpg,stack60.jpg,nogoal,NULL
1687281582,39890b285e4f27b0c5c106daea1ec920,PennController,10,0,experiment,NULL,Selector,choice,Selection,option1,1687281584092,5db9877aee6f57000b1487c5,5db9877aee6f57000b1487c5,7,stack,critical,B,50,stack40.jpg,stack60.jpg,nogoal,option2;option1
1687281582,39890b285e4f27b0c5c106daea1ec920,PennController,10,0,experiment,NULL,PennController,9,_Trial_,End,1687281584109,5db9877aee6f57000b1487c5,5db9877aee6f57000b1487c5,7,stack,critical,B,50,stack40.jpg,stack60.jpg,nogoal,NULL
