#
# Results on Tuesday June 20 2023 17:18:54 UTC
# USER AGENT: Mozilla/5.0 (Linux; Android 8.0.0; SM-A520F) AppleWebKit/537.36 (KHTML, like Gecko) Chrome/104.0.0.0 Mobile Safari/537.36
# Design number was non-random = 4
#
# Columns below this comment are as follows:
# 1. Results reception time.
# 2. MD5 hash of participant's IP address.
# 3. Controller name.
# 4. Order number of item.
# 5. Inner element number.
# 6. Label.
# 7. Latin Square Group.
# 8. PennElementType.
# 9. PennElementName.
# 10. Parameter.
# 11. Value.
# 12. EventTime.
# 13. PROLIFIC_ID.
# 14. Comments.
1687281534,2d00f47e140196a22c06e0a1e5c107c0,PennController,2,0,consent,NULL,PennController,0,_Trial_,Start,1687281279674,5f5b4d30a889ea0476b9ef33,NULL
1687281534,2d00f47e140196a22c06e0a1e5c107c0,PennController,2,0,consent,NULL,PennController,0,_Header_,Start,1687281279674,5f5b4d30a889ea0476b9ef33,NULL
1687281534,2d00f47e140196a22c06e0a1e5c107c0,PennController,2,0,consent,NULL,PennController,0,_Header_,End,1687281279675,5f5b4d30a889ea0476b9ef33,NULL
1687281534,2d00f47e140196a22c06e0a1e5c107c0,PennController,2,0,consent,NULL,PennController,0,_Trial_,End,1687281283758,5f5b4d30a889ea0476b9ef33,NULL
# Columns below this comment are as follows:
# 14. ID.
# 15. Comments.
1687281534,2d00f47e140196a22c06e0a1e5c107c0,PennController,3,0,intro,NULL,PennController,1,_Trial_,Start,1687281283781,5f5b4d30a889ea0476b9ef33,5f5b4d30a889ea0476b9ef33,NULL
1687281534,2d00f47e140196a22c06e0a1e5c107c0,PennController,3,0,intro,NULL,PennController,1,_Header_,Start,1687281283781,5f5b4d30a889ea0476b9ef33,5f5b4d30a889ea0476b9ef33,NULL
1687281534,2d00f47e140196a22c06e0a1e5c107c0,PennController,3,0,intro,NULL,PennController,1,_Header_,End,1687281283782,5f5b4d30a889ea0476b9ef33,5f5b4d30a889ea0476b9ef33,NULL
1687281534,2d00f47e140196a22c06e0a1e5c107c0,PennController,3,0,intro,NULL,PennController,1,_Trial_,End,1687281291995,5f5b4d30a889ea0476b9ef33,5f5b4d30a889ea0476b9ef33,NULL
# Columns below this comment are as follows:
# 15. item_number.
# 16. item.
# 17. type.
# 18. Group.
# 19. prog.
# 20. prev_image.
# 21. next_image.
# 22. height.
# 23. Comments.
1687281534,2d00f47e140196a22c06e0a1e5c107c0,PennController,7,0,experiment,NULL,PennController,6,_Trial_,Start,1687281292022,5f5b4d30a889ea0476b9ef33,5f5b4d30a889ea0476b9ef33,4,candy,critical,B,50,candy40.jpg,candy60.jpg,nogoal,NULL
1687281534,2d00f47e140196a22c06e0a1e5c107c0,PennController,7,0,experiment,NULL,PennController,6,_Header_,Start,1687281292022,5f5b4d30a889ea0476b9ef33,5f5b4d30a889ea0476b9ef33,4,candy,critical,B,50,candy40.jpg,candy60.jpg,nogoal,NULL
1687281534,2d00f47e140196a22c06e0a1e5c107c0,PennController,7,0,experiment,NULL,PennController,6,_Header_,End,1687281292023,5f5b4d30a889ea0476b9ef33,5f5b4d30a889ea0476b9ef33,4,candy,critical,B,50,candy40.jpg,candy60.jpg,nogoal,NULL
1687281534,2d00f47e140196a22c06e0a1e5c107c0,PennController,7,0,experiment,NULL,Canvas,canvas6,Print,NA,1687281297478,5f5b4d30a889ea0476b9ef33,5f5b4d30a889ea0476b9ef33,4,candy,critical,B,50,candy40.jpg,candy60.jpg,nogoal,NULL
1687281534,2d00f47e140196a22c06e0a1e5c107c0,PennController,7,0,experiment,NULL,Video,progression,buffer,0.08341,1687281294291,5f5b4d30a889ea0476b9ef33,5f5b4d30a889ea0476b9ef33,4,candy,critical,B,50,candy40.jpg,candy60.jpg,nogoal,NULL
1687281534,2d00f47e140196a22c06e0a1e5c107c0,PennController,7,0,experiment,NULL,Selector,choice,Selection,option1,1687281312126,5f5b4d30a889ea0476b9ef33,5f5b4d30a889ea0476b9ef33,4,candy,critical,B,50,candy40.jpg,candy60.jpg,nogoal,option2;option1
1687281534,2d00f47e140196a22c06e0a1e5c107c0,PennController,7,0,experiment,NULL,PennController,6,_Trial_,End,1687281312150,5f5b4d30a889ea0476b9ef33,5f5b4d30a889ea0476b9ef33,4,candy,critical,B,50,candy40.jpg,candy60.jpg,nogoal,NULL
1687281534,2d00f47e140196a22c06e0a1e5c107c0,PennController,25,0,experiment,NULL,PennController,24,_Trial_,Start,1687281312173,5f5b4d30a889ea0476b9ef33,5f5b4d30a889ea0476b9ef33,22,wall,filler,B,50,wall40.jpg,wall60.jpg,nogoal,NULL
1687281534,2d00f47e140196a22c06e0a1e5c107c0,PennController,25,0,experiment,NULL,PennController,24,_Header_,Start,1687281312173,5f5b4d30a889ea0476b9ef33,5f5b4d30a889ea0476b9ef33,22,wall,filler,B,50,wall40.jpg,wall60.jpg,nogoal,NULL
1687281534,2d00f47e140196a22c06e0a1e5c107c0,PennController,25,0,experiment,NULL,PennController,24,_Header_,End,1687281312173,5f5b4d30a889ea0476b9ef33,5f5b4d30a889ea0476b9ef33,22,wall,filler,B,50,wall40.jpg,wall60.jpg,nogoal,NULL
1687281534,2d00f47e140196a22c06e0a1e5c107c0,PennController,25,0,experiment,NULL,Canvas,canvas6,Print,NA,1687281317084,5f5b4d30a889ea0476b9ef33,5f5b4d30a889ea0476b9ef33,22,wall,filler,B,50,wall40.jpg,wall60.jpg,nogoal,NULL
1687281534,2d00f47e140196a22c06e0a1e5c107c0,PennController,25,0,experiment,NULL,Video,progression,buffer,0.024072,1687281313817,5f5b4d30a889ea0476b9ef33,5f5b4d30a889ea0476b9ef33,22,wall,filler,B,50,wall40.jpg,wall60.jpg,nogoal,NULL
1687281534,2d00f47e140196a22c06e0a1e5c107c0,PennController,25,0,experiment,NULL,Selector,choice,Selection,option2,1687281319898,5f5b4d30a889ea0476b9ef33,5f5b4d30a889ea0476b9ef33,22,wall,filler,B,50,wall40.jpg,wall60.jpg,nogoal,option1;option2
1687281534,2d00f47e140196a22c06e0a1e5c107c0,PennController,25,0,experiment,NULL,PennController,24,_Trial_,End,1687281319918,5f5b4d30a889ea0476b9ef33,5f5b4d30a889ea0476b9ef33,22,wall,filler,B,50,wall40.jpg,wall60.jpg,nogoal,NULL
1687281534,2d00f47e140196a22c06e0a1e5c107c0,PennController,21,0,experiment,NULL,PennController,20,_Trial_,Start,1687281319936,5f5b4d30a889ea0476b9ef33,5f5b4d30a889ea0476b9ef33,18,ball,critical,B,25,ball15.jpg,ball35.jpg,nogoal,NULL
1687281534,2d00f47e140196a22c06e0a1e5c107c0,PennController,21,0,experiment,NULL,PennController,20,_Header_,Start,1687281319936,5f5b4d30a889ea0476b9ef33,5f5b4d30a889ea0476b9ef33,18,ball,critical,B,25,ball15.jpg,ball35.jpg,nogoal,NULL
1687281534,2d00f47e140196a22c06e0a1e5c107c0,PennController,21,0,experiment,NULL,PennController,20,_Header_,End,1687281319937,5f5b4d30a889ea0476b9ef33,5f5b4d30a889ea0476b9ef33,18,ball,critical,B,25,ball15.jpg,ball35.jpg,nogoal,NULL
1687281534,2d00f47e140196a22c06e0a1e5c107c0,PennController,21,0,experiment,NULL,Canvas,canvas6,Print,NA,1687281323797,5f5b4d30a889ea0476b9ef33,5f5b4d30a889ea0476b9ef33,18,ball,critical,B,25,ball15.jpg,ball35.jpg,nogoal,NULL
1687281534,2d00f47e140196a22c06e0a1e5c107c0,PennController,21,0,experiment,NULL,Video,progression,buffer,0.036394,1687281321608,5f5b4d30a889ea0476b9ef33,5f5b4d30a889ea0476b9ef33,18,ball,critical,B,25,ball15.jpg,ball35.jpg,nogoal,NULL
1687281534,2d00f47e140196a22c06e0a1e5c107c0,PennController,21,0,experiment,NULL,Selector,choice,Selection,option1,1687281327603,5f5b4d30a889ea0476b9ef33,5f5b4d30a889ea0476b9ef33,18,ball,critical,B,25,ball15.jpg,ball35.jpg,nogoal,option1;option2
1687281534,2d00f47e140196a22c06e0a1e5c107c0,PennController,21,0,experiment,NULL,PennController,20,_Trial_,End,1687281327623,5f5b4d30a889ea0476b9ef33,5f5b4d30a889ea0476b9ef33,18,ball,critical,B,25,ball15.jpg,ball35.jpg,nogoal,NULL
1687281534,2d00f47e140196a22c06e0a1e5c107c0,PennController,29,0,experiment,NULL,PennController,28,_Trial_,Start,1687281327641,5f5b4d30a889ea0476b9ef33,5f5b4d30a889ea0476b9ef33,26,sandwich,filler,B,75,sandwich65.jpg,sandwich85.jpg,nogoal,NULL
1687281534,2d00f47e140196a22c06e0a1e5c107c0,PennController,29,0,experiment,NULL,PennController,28,_Header_,Start,1687281327642,5f5b4d30a889ea0476b9ef33,5f5b4d30a889ea0476b9ef33,26,sandwich,filler,B,75,sandwich65.jpg,sandwich85.jpg,nogoal,NULL
1687281534,2d00f47e140196a22c06e0a1e5c107c0,PennController,29,0,experiment,NULL,PennController,28,_Header_,End,1687281327642,5f5b4d30a889ea0476b9ef33,5f5b4d30a889ea0476b9ef33,26,sandwich,filler,B,75,sandwich65.jpg,sandwich85.jpg,nogoal,NULL
1687281534,2d00f47e140196a22c06e0a1e5c107c0,PennController,29,0,experiment,NULL,Canvas,canvas6,Print,NA,1687281333489,5f5b4d30a889ea0476b9ef33,5f5b4d30a889ea0476b9ef33,26,sandwich,filler,B,75,sandwich65.jpg,sandwich85.jpg,nogoal,NULL
1687281534,2d00f47e140196a22c06e0a1e5c107c0,PennController,29,0,experiment,NULL,Video,progression,buffer,0.039941,1687281329299,5f5b4d30a889ea0476b9ef33,5f5b4d30a889ea0476b9ef33,26,sandwich,filler,B,75,sandwich65.jpg,sandwich85.jpg,nogoal,NULL
1687281534,2d00f47e140196a22c06e0a1e5c107c0,PennController,29,0,experiment,NULL,Selector,choice,Selection,option2,1687281335068,5f5b4d30a889ea0476b9ef33,5f5b4d30a889ea0476b9ef33,26,sandwich,filler,B,75,sandwich65.jpg,sandwich85.jpg,nogoal,option1;option2
1687281534,2d00f47e140196a22c06e0a1e5c107c0,PennController,29,0,experiment,NULL,PennController,28,_Trial_,End,1687281335082,5f5b4d30a889ea0476b9ef33,5f5b4d30a889ea0476b9ef33,26,sandwich,filler,B,75,sandwich65.jpg,sandwich85.jpg,nogoal,NULL
1687281534,2d00f47e140196a22c06e0a1e5c107c0,PennController,10,0,experiment,NULL,PennController,9,_Trial_,Start,1687281335103,5f5b4d30a889ea0476b9ef33,5f5b4d30a889ea0476b9ef33,7,stack,critical,B,50,stack40.jpg,stack60.jpg,nogoal,NULL
1687281534,2d00f47e140196a22c06e0a1e5c107c0,PennController,10,0,experiment,NULL,PennController,9,_Header_,Start,1687281335103,5f5b4d30a889ea0476b9ef33,5f5b4d30a889ea0476b9ef33,7,stack,critical,B,50,stack40.jpg,stack60.jpg,nogoal,NULL
1687281534,2d00f47e140196a22c06e0a1e5c107c0,PennController,10,0,experiment,NULL,PennController,9,_Header_,End,1687281335103,5f5b4d30a889ea0476b9ef33,5f5b4d30a889ea0476b9ef33,7,stack,critical,B,50,stack40.jpg,stack60.jpg,nogoal,NULL
1687281534,2d00f47e140196a22c06e0a1e5c107c0,PennController,10,0,experiment,NULL,Canvas,canvas6,Print,NA,1687281340015,5f5b4d30a889ea0476b9ef33,5f5b4d30a889ea0476b9ef33,7,stack,critical,B,50,stack40.jpg,stack60.jpg,nogoal,NULL
1687281534,2d00f47e140196a22c06e0a1e5c107c0,PennController,10,0,experiment,NULL,Video,progression,buffer,0.043801,1687281336773,5f5b4d30a889ea0476b9ef33,5f5b4d30a889ea0476b9ef33,7,stack,critical,B,50,stack40.jpg,stack60.jpg,nogoal,NULL
1687281534,2d00f47e140196a22c06e0a1e5c107c0,PennController,10,0,experiment,NULL,Selector,choice,Selection,option1,1687281344139,5f5b4d30a889ea0476b9ef33,5f5b4d30a889ea0476b9ef33,7,stack,critical,B,50,stack40.jpg,stack60.jpg,nogoal,option2;option1
1687281534,2d00f47e140196a22c06e0a1e5c107c0,PennController,10,0,experiment,NULL,PennController,9,_Trial_,End,1687281344152,5f5b4d30a889ea0476b9ef33,5f5b4d30a889ea0476b9ef33,7,stack,critical,B,50,stack40.jpg,stack60.jpg,nogoal,NULL
1687281534,2d00f47e140196a22c06e0a1e5c107c0,PennController,8,0,experiment,NULL,PennController,7,_Trial_,Start,1687281344171,5f5b4d30a889ea0476b9ef33,5f5b4d30a889ea0476b9ef33,5,book,critical,B,75,book65.jpg,book85.jpg,nogoal,NULL
1687281534,2d00f47e140196a22c06e0a1e5c107c0,PennController,8,0,experiment,NULL,PennController,7,_Header_,Start,1687281344171,5f5b4d30a889ea0476b9ef33,5f5b4d30a889ea0476b9ef33,5,book,critical,B,75,book65.jpg,book85.jpg,nogoal,NULL
1687281534,2d00f47e140196a22c06e0a1e5c107c0,PennController,8,0,experiment,NULL,PennController,7,_Header_,End,1687281344171,5f5b4d30a889ea0476b9ef33,5f5b4d30a889ea0476b9ef33,5,book,critical,B,75,book65.jpg,book85.jpg,nogoal,NULL
1687281534,2d00f47e140196a22c06e0a1e5c107c0,PennController,8,0,experiment,NULL,Canvas,canvas6,Print,NA,1687281350057,5f5b4d30a889ea0476b9ef33,5f5b4d30a889ea0476b9ef33,5,book,critical,B,75,book65.jpg,book85.jpg,nogoal,NULL
1687281534,2d00f47e140196a22c06e0a1e5c107c0,PennController,8,0,experiment,NULL,Video,progression,buffer,0.044706,1687281345862,5f5b4d30a889ea0476b9ef33,5f5b4d30a889ea0476b9ef33,5,book,critical,B,75,book65.jpg,book85.jpg,nogoal,NULL
1687281534,2d00f47e140196a22c06e0a1e5c107c0,PennController,8,0,experiment,NULL,Selector,choice,Selection,option1,1687281351909,5f5b4d30a889ea0476b9ef33,5f5b4d30a889ea0476b9ef33,5,book,critical,B,75,book65.jpg,book85.jpg,nogoal,option2;option1
1687281534,2d00f47e140196a22c06e0a1e5c107c0,PennController,8,0,experiment,NULL,PennController,7,_Trial_,End,1687281351922,5f5b4d30a889ea0476b9ef33,5f5b4d30a889ea0476b9ef33,5,book,critical,B,75,book65.jpg,book85.jpg,nogoal,NULL
1687281534,2d00f47e140196a22c06e0a1e5c107c0,PennController,31,0,experiment,NULL,PennController,30,_Trial_,Start,1687281351933,5f5b4d30a889ea0476b9ef33,5f5b4d30a889ea0476b9ef33,28,sort,filler,B,50,sort40.jpg,sort60.jpg,nogoal,NULL
1687281534,2d00f47e140196a22c06e0a1e5c107c0,PennController,31,0,experiment,NULL,PennController,30,_Header_,Start,1687281351933,5f5b4d30a889ea0476b9ef33,5f5b4d30a889ea0476b9ef33,28,sort,filler,B,50,sort40.jpg,sort60.jpg,nogoal,NULL
1687281534,2d00f47e140196a22c06e0a1e5c107c0,PennController,31,0,experiment,NULL,PennController,30,_Header_,End,1687281351933,5f5b4d30a889ea0476b9ef33,5f5b4d30a889ea0476b9ef33,28,sort,filler,B,50,sort40.jpg,sort60.jpg,nogoal,NULL
1687281534,2d00f47e140196a22c06e0a1e5c107c0,PennController,31,0,experiment,NULL,Canvas,canvas6,Print,NA,1687281356780,5f5b4d30a889ea0476b9ef33,5f5b4d30a889ea0476b9ef33,28,sort,filler,B,50,sort40.jpg,sort60.jpg,nogoal,NULL
1687281534,2d00f47e140196a22c06e0a1e5c107c0,PennController,31,0,experiment,NULL,Video,progression,buffer,0.041138,1687281353589,5f5b4d30a889ea0476b9ef33,5f5b4d30a889ea0476b9ef33,28,sort,filler,B,50,sort40.jpg,sort60.jpg,nogoal,NULL
1687281534,2d00f47e140196a22c06e0a1e5c107c0,PennController,31,0,experiment,NULL,Selector,choice,Selection,option2,1687281359516,5f5b4d30a889ea0476b9ef33,5f5b4d30a889ea0476b9ef33,28,sort,filler,B,50,sort40.jpg,sort60.jpg,nogoal,option1;option2
1687281534,2d00f47e140196a22c06e0a1e5c107c0,PennController,31,0,experiment,NULL,PennController,30,_Trial_,End,1687281359532,5f5b4d30a889ea0476b9ef33,5f5b4d30a889ea0476b9ef33,28,sort,filler,B,50,sort40.jpg,sort60.jpg,nogoal,NULL
1687281534,2d00f47e140196a22c06e0a1e5c107c0,PennController,16,0,experiment,NULL,PennController,15,_Trial_,Start,1687281359545,5f5b4d30a889ea0476b9ef33,5f5b4d30a889ea0476b9ef33,13,mix,critical,B,50,mix40.jpg,mix60.jpg,nogoal,NULL
1687281534,2d00f47e140196a22c06e0a1e5c107c0,PennController,16,0,experiment,NULL,PennController,15,_Header_,Start,1687281359545,5f5b4d30a889ea0476b9ef33,5f5b4d30a889ea0476b9ef33,13,mix,critical,B,50,mix40.jpg,mix60.jpg,nogoal,NULL
1687281534,2d00f47e140196a22c06e0a1e5c107c0,PennController,16,0,experiment,NULL,PennController,15,_Header_,End,1687281359546,5f5b4d30a889ea0476b9ef33,5f5b4d30a889ea0476b9ef33,13,mix,critical,B,50,mix40.jpg,mix60.jpg,nogoal,NULL
1687281534,2d00f47e140196a22c06e0a1e5c107c0,PennController,16,0,experiment,NULL,Canvas,canvas6,Print,NA,1687281364408,5f5b4d30a889ea0476b9ef33,5f5b4d30a889ea0476b9ef33,13,mix,critical,B,50,mix40.jpg,mix60.jpg,nogoal,NULL
1687281534,2d00f47e140196a22c06e0a1e5c107c0,PennController,16,0,experiment,NULL,Video,progression,buffer,0.022638,1687281361136,5f5b4d30a889ea0476b9ef33,5f5b4d30a889ea0476b9ef33,13,mix,critical,B,50,mix40.jpg,mix60.jpg,nogoal,NULL
1687281534,2d00f47e140196a22c06e0a1e5c107c0,PennController,16,0,experiment,NULL,Selector,choice,Selection,option1,1687281367738,5f5b4d30a889ea0476b9ef33,5f5b4d30a889ea0476b9ef33,13,mix,critical,B,50,mix40.jpg,mix60.jpg,nogoal,option1;option2
1687281534,2d00f47e140196a22c06e0a1e5c107c0,PennController,16,0,experiment,NULL,PennController,15,_Trial_,End,1687281367751,5f5b4d30a889ea0476b9ef33,5f5b4d30a889ea0476b9ef33,13,mix,critical,B,50,mix40.jpg,mix60.jpg,nogoal,NULL
1687281534,2d00f47e140196a22c06e0a1e5c107c0,PennController,27,0,experiment,NULL,PennController,26,_Trial_,Start,1687281367762,5f5b4d30a889ea0476b9ef33,5f5b4d30a889ea0476b9ef33,24,match,filler,B,25,match15.jpg,match35.jpg,nogoal,NULL
1687281534,2d00f47e140196a22c06e0a1e5c107c0,PennController,27,0,experiment,NULL,PennController,26,_Header_,Start,1687281367762,5f5b4d30a889ea0476b9ef33,5f5b4d30a889ea0476b9ef33,24,match,filler,B,25,match15.jpg,match35.jpg,nogoal,NULL
1687281534,2d00f47e140196a22c06e0a1e5c107c0,PennController,27,0,experiment,NULL,PennController,26,_Header_,End,1687281367762,5f5b4d30a889ea0476b9ef33,5f5b4d30a889ea0476b9ef33,24,match,filler,B,25,match15.jpg,match35.jpg,nogoal,NULL
1687281534,2d00f47e140196a22c06e0a1e5c107c0,PennController,27,0,experiment,NULL,Canvas,canvas6,Print,NA,1687281371624,5f5b4d30a889ea0476b9ef33,5f5b4d30a889ea0476b9ef33,24,match,filler,B,25,match15.jpg,match35.jpg,nogoal,NULL
1687281534,2d00f47e140196a22c06e0a1e5c107c0,PennController,27,0,experiment,NULL,Video,progression,buffer,0.031198,1687281369418,5f5b4d30a889ea0476b9ef33,5f5b4d30a889ea0476b9ef33,24,match,filler,B,25,match15.jpg,match35.jpg,nogoal,NULL
1687281534,2d00f47e140196a22c06e0a1e5c107c0,PennController,27,0,experiment,NULL,Selector,choice,Selection,option1,1687281384644,5f5b4d30a889ea0476b9ef33,5f5b4d30a889ea0476b9ef33,24,match,filler,B,25,match15.jpg,match35.jpg,nogoal,option2;option1
1687281534,2d00f47e140196a22c06e0a1e5c107c0,PennController,27,0,experiment,NULL,PennController,26,_Trial_,End,1687281384658,5f5b4d30a889ea0476b9ef33,5f5b4d30a889ea0476b9ef33,24,match,filler,B,25,match15.jpg,match35.jpg,nogoal,NULL
1687281534,2d00f47e140196a22c06e0a1e5c107c0,PennController,9,0,experiment,NULL,PennController,8,_Trial_,Start,1687281384672,5f5b4d30a889ea0476b9ef33,5f5b4d30a889ea0476b9ef33,6,flower,critical,B,25,flower15.jpg,flower35.jpg,nogoal,NULL
1687281534,2d00f47e140196a22c06e0a1e5c107c0,PennController,9,0,experiment,NULL,PennController,8,_Header_,Start,1687281384672,5f5b4d30a889ea0476b9ef33,5f5b4d30a889ea0476b9ef33,6,flower,critical,B,25,flower15.jpg,flower35.jpg,nogoal,NULL
1687281534,2d00f47e140196a22c06e0a1e5c107c0,PennController,9,0,experiment,NULL,PennController,8,_Header_,End,1687281384673,5f5b4d30a889ea0476b9ef33,5f5b4d30a889ea0476b9ef33,6,flower,critical,B,25,flower15.jpg,flower35.jpg,nogoal,NULL
1687281534,2d00f47e140196a22c06e0a1e5c107c0,PennController,9,0,experiment,NULL,Canvas,canvas6,Print,NA,1687281388574,5f5b4d30a889ea0476b9ef33,5f5b4d30a889ea0476b9ef33,6,flower,critical,B,25,flower15.jpg,flower35.jpg,nogoal,NULL
1687281534,2d00f47e140196a22c06e0a1e5c107c0,PennController,9,0,experiment,NULL,Video,progression,buffer,0.030811,1687281386322,5f5b4d30a889ea0476b9ef33,5f5b4d30a889ea0476b9ef33,6,flower,critical,B,25,flower15.jpg,flower35.jpg,nogoal,NULL
1687281534,2d00f47e140196a22c06e0a1e5c107c0,PennController,9,0,experiment,NULL,Selector,choice,Selection,option2,1687281391437,5f5b4d30a889ea0476b9ef33,5f5b4d30a889ea0476b9ef33,6,flower,critical,B,25,flower15.jpg,flower35.jpg,nogoal,option1;option2
1687281534,2d00f47e140196a22c06e0a1e5c107c0,PennController,9,0,experiment,NULL,PennController,8,_Trial_,End,1687281391458,5f5b4d30a889ea0476b9ef33,5f5b4d30a889ea0476b9ef33,6,flower,critical,B,25,flower15.jpg,flower35.jpg,nogoal,NULL
1687281534,2d00f47e140196a22c06e0a1e5c107c0,PennController,24,0,experiment,NULL,PennController,23,_Trial_,Start,1687281391468,5f5b4d30a889ea0476b9ef33,5f5b4d30a889ea0476b9ef33,21,visit,filler,B,25,visit15.jpg,visit35.jpg,nogoal,NULL
1687281534,2d00f47e140196a22c06e0a1e5c107c0,PennController,24,0,experiment,NULL,PennController,23,_Header_,Start,1687281391468,5f5b4d30a889ea0476b9ef33,5f5b4d30a889ea0476b9ef33,21,visit,filler,B,25,visit15.jpg,visit35.jpg,nogoal,NULL
1687281534,2d00f47e140196a22c06e0a1e5c107c0,PennController,24,0,experiment,NULL,PennController,23,_Header_,End,1687281391469,5f5b4d30a889ea0476b9ef33,5f5b4d30a889ea0476b9ef33,21,visit,filler,B,25,visit15.jpg,visit35.jpg,nogoal,NULL
1687281534,2d00f47e140196a22c06e0a1e5c107c0,PennController,24,0,experiment,NULL,Canvas,canvas6,Print,NA,1687281395367,5f5b4d30a889ea0476b9ef33,5f5b4d30a889ea0476b9ef33,21,visit,filler,B,25,visit15.jpg,visit35.jpg,nogoal,NULL
1687281534,2d00f47e140196a22c06e0a1e5c107c0,PennController,24,0,experiment,NULL,Video,progression,buffer,0.0397,1687281393132,5f5b4d30a889ea0476b9ef33,5f5b4d30a889ea0476b9ef33,21,visit,filler,B,25,visit15.jpg,visit35.jpg,nogoal,NULL
1687281534,2d00f47e140196a22c06e0a1e5c107c0,PennController,24,0,experiment,NULL,Selector,choice,Selection,option2,1687281396851,5f5b4d30a889ea0476b9ef33,5f5b4d30a889ea0476b9ef33,21,visit,filler,B,25,visit15.jpg,visit35.jpg,nogoal,option2;option1
1687281534,2d00f47e140196a22c06e0a1e5c107c0,PennController,24,0,experiment,NULL,PennController,23,_Trial_,End,1687281396872,5f5b4d30a889ea0476b9ef33,5f5b4d30a889ea0476b9ef33,21,visit,filler,B,25,visit15.jpg,visit35.jpg,nogoal,NULL
1687281534,2d00f47e140196a22c06e0a1e5c107c0,PennController,11,0,experiment,NULL,PennController,10,_Trial_,Start,1687281396883,5f5b4d30a889ea0476b9ef33,5f5b4d30a889ea0476b9ef33,8,cucumber,critical,B,75,cucumber66.jpg,cucumber84.jpg,nogoal,NULL
1687281534,2d00f47e140196a22c06e0a1e5c107c0,PennController,11,0,experiment,NULL,PennController,10,_Header_,Start,1687281396884,5f5b4d30a889ea0476b9ef33,5f5b4d30a889ea0476b9ef33,8,cucumber,critical,B,75,cucumber66.jpg,cucumber84.jpg,nogoal,NULL
1687281534,2d00f47e140196a22c06e0a1e5c107c0,PennController,11,0,experiment,NULL,PennController,10,_Header_,End,1687281396884,5f5b4d30a889ea0476b9ef33,5f5b4d30a889ea0476b9ef33,8,cucumber,critical,B,75,cucumber66.jpg,cucumber84.jpg,nogoal,NULL
1687281534,2d00f47e140196a22c06e0a1e5c107c0,PennController,11,0,experiment,NULL,Canvas,canvas6,Print,NA,1687281404712,5f5b4d30a889ea0476b9ef33,5f5b4d30a889ea0476b9ef33,8,cucumber,critical,B,75,cucumber66.jpg,cucumber84.jpg,nogoal,NULL
1687281534,2d00f47e140196a22c06e0a1e5c107c0,PennController,11,0,experiment,NULL,Video,progression,buffer,0.027839,1687281398532,5f5b4d30a889ea0476b9ef33,5f5b4d30a889ea0476b9ef33,8,cucumber,critical,B,75,cucumber66.jpg,cucumber84.jpg,nogoal,NULL
1687281534,2d00f47e140196a22c06e0a1e5c107c0,PennController,11,0,experiment,NULL,Selector,choice,Selection,option2,1687281406659,5f5b4d30a889ea0476b9ef33,5f5b4d30a889ea0476b9ef33,8,cucumber,critical,B,75,cucumber66.jpg,cucumber84.jpg,nogoal,option2;option1
1687281534,2d00f47e140196a22c06e0a1e5c107c0,PennController,11,0,experiment,NULL,PennController,10,_Trial_,End,1687281406671,5f5b4d30a889ea0476b9ef33,5f5b4d30a889ea0476b9ef33,8,cucumber,critical,B,75,cucumber66.jpg,cucumber84.jpg,nogoal,NULL
1687281534,2d00f47e140196a22c06e0a1e5c107c0,PennController,13,0,experiment,NULL,PennController,12,_Trial_,Start,1687281406685,5f5b4d30a889ea0476b9ef33,5f5b4d30a889ea0476b9ef33,10,train,critical,B,50,train40.jpg,train60.jpg,nogoal,NULL
1687281534,2d00f47e140196a22c06e0a1e5c107c0,PennController,13,0,experiment,NULL,PennController,12,_Header_,Start,1687281406685,5f5b4d30a889ea0476b9ef33,5f5b4d30a889ea0476b9ef33,10,train,critical,B,50,train40.jpg,train60.jpg,nogoal,NULL
1687281534,2d00f47e140196a22c06e0a1e5c107c0,PennController,13,0,experiment,NULL,PennController,12,_Header_,End,1687281406685,5f5b4d30a889ea0476b9ef33,5f5b4d30a889ea0476b9ef33,10,train,critical,B,50,train40.jpg,train60.jpg,nogoal,NULL
1687281534,2d00f47e140196a22c06e0a1e5c107c0,PennController,13,0,experiment,NULL,Canvas,canvas6,Print,NA,1687281411547,5f5b4d30a889ea0476b9ef33,5f5b4d30a889ea0476b9ef33,10,train,critical,B,50,train40.jpg,train60.jpg,nogoal,NULL
1687281534,2d00f47e140196a22c06e0a1e5c107c0,PennController,13,0,experiment,NULL,Video,progression,buffer,0.029414,1687281408317,5f5b4d30a889ea0476b9ef33,5f5b4d30a889ea0476b9ef33,10,train,critical,B,50,train40.jpg,train60.jpg,nogoal,NULL
1687281534,2d00f47e140196a22c06e0a1e5c107c0,PennController,13,0,experiment,NULL,Selector,choice,Selection,option2,1687281413268,5f5b4d30a889ea0476b9ef33,5f5b4d30a889ea0476b9ef33,10,train,critical,B,50,train40.jpg,train60.jpg,nogoal,option1;option2
1687281534,2d00f47e140196a22c06e0a1e5c107c0,PennController,13,0,experiment,NULL,PennController,12,_Trial_,End,1687281413282,5f5b4d30a889ea0476b9ef33,5f5b4d30a889ea0476b9ef33,10,train,critical,B,50,train40.jpg,train60.jpg,nogoal,NULL
1687281534,2d00f47e140196a22c06e0a1e5c107c0,PennController,32,0,experiment,NULL,PennController,31,_Trial_,Start,1687281413293,5f5b4d30a889ea0476b9ef33,5f5b4d30a889ea0476b9ef33,29,frog,filler,B,75,frog65.jpg,frog85.jpg,nogoal,NULL
1687281534,2d00f47e140196a22c06e0a1e5c107c0,PennController,32,0,experiment,NULL,PennController,31,_Header_,Start,1687281413293,5f5b4d30a889ea0476b9ef33,5f5b4d30a889ea0476b9ef33,29,frog,filler,B,75,frog65.jpg,frog85.jpg,nogoal,NULL
1687281534,2d00f47e140196a22c06e0a1e5c107c0,PennController,32,0,experiment,NULL,PennController,31,_Header_,End,1687281413293,5f5b4d30a889ea0476b9ef33,5f5b4d30a889ea0476b9ef33,29,frog,filler,B,75,frog65.jpg,frog85.jpg,nogoal,NULL
1687281534,2d00f47e140196a22c06e0a1e5c107c0,PennController,32,0,experiment,NULL,Canvas,canvas6,Print,NA,1687281419139,5f5b4d30a889ea0476b9ef33,5f5b4d30a889ea0476b9ef33,29,frog,filler,B,75,frog65.jpg,frog85.jpg,nogoal,NULL
1687281534,2d00f47e140196a22c06e0a1e5c107c0,PennController,32,0,experiment,NULL,Video,progression,buffer,0.030746,1687281414939,5f5b4d30a889ea0476b9ef33,5f5b4d30a889ea0476b9ef33,29,frog,filler,B,75,frog65.jpg,frog85.jpg,nogoal,NULL
1687281534,2d00f47e140196a22c06e0a1e5c107c0,PennController,32,0,experiment,NULL,Selector,choice,Selection,option1,1687281421633,5f5b4d30a889ea0476b9ef33,5f5b4d30a889ea0476b9ef33,29,frog,filler,B,75,frog65.jpg,frog85.jpg,nogoal,option2;option1
1687281534,2d00f47e140196a22c06e0a1e5c107c0,PennController,32,0,experiment,NULL,PennController,31,_Trial_,End,1687281421655,5f5b4d30a889ea0476b9ef33,5f5b4d30a889ea0476b9ef33,29,frog,filler,B,75,frog65.jpg,frog85.jpg,nogoal,NULL
1687281534,2d00f47e140196a22c06e0a1e5c107c0,PennController,22,0,experiment,NULL,PennController,21,_Trial_,Start,1687281421666,5f5b4d30a889ea0476b9ef33,5f5b4d30a889ea0476b9ef33,19,cup,filler,B,50,cup40.jpg,cup60.jpg,nogoal,NULL
1687281534,2d00f47e140196a22c06e0a1e5c107c0,PennController,22,0,experiment,NULL,PennController,21,_Header_,Start,1687281421666,5f5b4d30a889ea0476b9ef33,5f5b4d30a889ea0476b9ef33,19,cup,filler,B,50,cup40.jpg,cup60.jpg,nogoal,NULL
1687281534,2d00f47e140196a22c06e0a1e5c107c0,PennController,22,0,experiment,NULL,PennController,21,_Header_,End,1687281421666,5f5b4d30a889ea0476b9ef33,5f5b4d30a889ea0476b9ef33,19,cup,filler,B,50,cup40.jpg,cup60.jpg,nogoal,NULL
1687281534,2d00f47e140196a22c06e0a1e5c107c0,PennController,22,0,experiment,NULL,Canvas,canvas6,Print,NA,1687281426497,5f5b4d30a889ea0476b9ef33,5f5b4d30a889ea0476b9ef33,19,cup,filler,B,50,cup40.jpg,cup60.jpg,nogoal,NULL
1687281534,2d00f47e140196a22c06e0a1e5c107c0,PennController,22,0,experiment,NULL,Video,progression,buffer,0.027937,1687281423277,5f5b4d30a889ea0476b9ef33,5f5b4d30a889ea0476b9ef33,19,cup,filler,B,50,cup40.jpg,cup60.jpg,nogoal,NULL
1687281534,2d00f47e140196a22c06e0a1e5c107c0,PennController,22,0,experiment,NULL,Selector,choice,Selection,option2,1687281428023,5f5b4d30a889ea0476b9ef33,5f5b4d30a889ea0476b9ef33,19,cup,filler,B,50,cup40.jpg,cup60.jpg,nogoal,option1;option2
1687281534,2d00f47e140196a22c06e0a1e5c107c0,PennController,22,0,experiment,NULL,PennController,21,_Trial_,End,1687281428034,5f5b4d30a889ea0476b9ef33,5f5b4d30a889ea0476b9ef33,19,cup,filler,B,50,cup40.jpg,cup60.jpg,nogoal,NULL
1687281534,2d00f47e140196a22c06e0a1e5c107c0,PennController,6,0,experiment,NULL,PennController,5,_Trial_,Start,1687281428044,5f5b4d30a889ea0476b9ef33,5f5b4d30a889ea0476b9ef33,3,clean,critical,B,25,clean15.jpg,clean35.jpg,nogoal,NULL
1687281534,2d00f47e140196a22c06e0a1e5c107c0,PennController,6,0,experiment,NULL,PennController,5,_Header_,Start,1687281428044,5f5b4d30a889ea0476b9ef33,5f5b4d30a889ea0476b9ef33,3,clean,critical,B,25,clean15.jpg,clean35.jpg,nogoal,NULL
1687281534,2d00f47e140196a22c06e0a1e5c107c0,PennController,6,0,experiment,NULL,PennController,5,_Header_,End,1687281428045,5f5b4d30a889ea0476b9ef33,5f5b4d30a889ea0476b9ef33,3,clean,critical,B,25,clean15.jpg,clean35.jpg,nogoal,NULL
1687281534,2d00f47e140196a22c06e0a1e5c107c0,PennController,6,0,experiment,NULL,Canvas,canvas6,Print,NA,1687281431932,5f5b4d30a889ea0476b9ef33,5f5b4d30a889ea0476b9ef33,3,clean,critical,B,25,clean15.jpg,clean35.jpg,nogoal,NULL
1687281534,2d00f47e140196a22c06e0a1e5c107c0,PennController,6,0,experiment,NULL,Video,progression,buffer,0.038862,1687281429674,5f5b4d30a889ea0476b9ef33,5f5b4d30a889ea0476b9ef33,3,clean,critical,B,25,clean15.jpg,clean35.jpg,nogoal,NULL
1687281534,2d00f47e140196a22c06e0a1e5c107c0,PennController,6,0,experiment,NULL,Selector,choice,Selection,option1,1687281433444,5f5b4d30a889ea0476b9ef33,5f5b4d30a889ea0476b9ef33,3,clean,critical,B,25,clean15.jpg,clean35.jpg,nogoal,option2;option1
1687281534,2d00f47e140196a22c06e0a1e5c107c0,PennController,6,0,experiment,NULL,PennController,5,_Trial_,End,1687281433467,5f5b4d30a889ea0476b9ef33,5f5b4d30a889ea0476b9ef33,3,clean,critical,B,25,clean15.jpg,clean35.jpg,nogoal,NULL
1687281534,2d00f47e140196a22c06e0a1e5c107c0,PennController,14,0,experiment,NULL,PennController,13,_Trial_,Start,1687281433481,5f5b4d30a889ea0476b9ef33,5f5b4d30a889ea0476b9ef33,11,beads,critical,B,75,beads65.jpg,beads85.jpg,nogoal,NULL
1687281534,2d00f47e140196a22c06e0a1e5c107c0,PennController,14,0,experiment,NULL,PennController,13,_Header_,Start,1687281433481,5f5b4d30a889ea0476b9ef33,5f5b4d30a889ea0476b9ef33,11,beads,critical,B,75,beads65.jpg,beads85.jpg,nogoal,NULL
1687281534,2d00f47e140196a22c06e0a1e5c107c0,PennController,14,0,experiment,NULL,PennController,13,_Header_,End,1687281433481,5f5b4d30a889ea0476b9ef33,5f5b4d30a889ea0476b9ef33,11,beads,critical,B,75,beads65.jpg,beads85.jpg,nogoal,NULL
1687281534,2d00f47e140196a22c06e0a1e5c107c0,PennController,14,0,experiment,NULL,Canvas,canvas6,Print,NA,1687281439305,5f5b4d30a889ea0476b9ef33,5f5b4d30a889ea0476b9ef33,11,beads,critical,B,75,beads65.jpg,beads85.jpg,nogoal,NULL
1687281534,2d00f47e140196a22c06e0a1e5c107c0,PennController,14,0,experiment,NULL,Video,progression,buffer,0.026264,1687281435114,5f5b4d30a889ea0476b9ef33,5f5b4d30a889ea0476b9ef33,11,beads,critical,B,75,beads65.jpg,beads85.jpg,nogoal,NULL
1687281534,2d00f47e140196a22c06e0a1e5c107c0,PennController,14,0,experiment,NULL,Selector,choice,Selection,option1,1687281441412,5f5b4d30a889ea0476b9ef33,5f5b4d30a889ea0476b9ef33,11,beads,critical,B,75,beads65.jpg,beads85.jpg,nogoal,option1;option2
1687281534,2d00f47e140196a22c06e0a1e5c107c0,PennController,14,0,experiment,NULL,PennController,13,_Trial_,End,1687281441424,5f5b4d30a889ea0476b9ef33,5f5b4d30a889ea0476b9ef33,11,beads,critical,B,75,beads65.jpg,beads85.jpg,nogoal,NULL
1687281534,2d00f47e140196a22c06e0a1e5c107c0,PennController,12,0,experiment,NULL,PennController,11,_Trial_,Start,1687281441436,5f5b4d30a889ea0476b9ef33,5f5b4d30a889ea0476b9ef33,9,cake,critical,B,25,cake15.jpg,cake33.jpg,nogoal,NULL
1687281534,2d00f47e140196a22c06e0a1e5c107c0,PennController,12,0,experiment,NULL,PennController,11,_Header_,Start,1687281441436,5f5b4d30a889ea0476b9ef33,5f5b4d30a889ea0476b9ef33,9,cake,critical,B,25,cake15.jpg,cake33.jpg,nogoal,NULL
1687281534,2d00f47e140196a22c06e0a1e5c107c0,PennController,12,0,experiment,NULL,PennController,11,_Header_,End,1687281441436,5f5b4d30a889ea0476b9ef33,5f5b4d30a889ea0476b9ef33,9,cake,critical,B,25,cake15.jpg,cake33.jpg,nogoal,NULL
1687281534,2d00f47e140196a22c06e0a1e5c107c0,PennController,12,0,experiment,NULL,Canvas,canvas6,Print,NA,1687281445889,5f5b4d30a889ea0476b9ef33,5f5b4d30a889ea0476b9ef33,9,cake,critical,B,25,cake15.jpg,cake33.jpg,nogoal,NULL
1687281534,2d00f47e140196a22c06e0a1e5c107c0,PennController,12,0,experiment,NULL,Video,progression,buffer,0.034512,1687281443072,5f5b4d30a889ea0476b9ef33,5f5b4d30a889ea0476b9ef33,9,cake,critical,B,25,cake15.jpg,cake33.jpg,nogoal,NULL
1687281534,2d00f47e140196a22c06e0a1e5c107c0,PennController,12,0,experiment,NULL,Selector,choice,Selection,option1,1687281447896,5f5b4d30a889ea0476b9ef33,5f5b4d30a889ea0476b9ef33,9,cake,critical,B,25,cake15.jpg,cake33.jpg,nogoal,option1;option2
1687281534,2d00f47e140196a22c06e0a1e5c107c0,PennController,12,0,experiment,NULL,PennController,11,_Trial_,End,1687281447912,5f5b4d30a889ea0476b9ef33,5f5b4d30a889ea0476b9ef33,9,cake,critical,B,25,cake15.jpg,cake33.jpg,nogoal,NULL
1687281534,2d00f47e140196a22c06e0a1e5c107c0,PennController,19,0,experiment,NULL,PennController,18,_Trial_,Start,1687281447923,5f5b4d30a889ea0476b9ef33,5f5b4d30a889ea0476b9ef33,16,blinds,critical,B,50,blinds42.jpg,blinds60.jpg,nogoal,NULL
1687281534,2d00f47e140196a22c06e0a1e5c107c0,PennController,19,0,experiment,NULL,PennController,18,_Header_,Start,1687281447923,5f5b4d30a889ea0476b9ef33,5f5b4d30a889ea0476b9ef33,16,blinds,critical,B,50,blinds42.jpg,blinds60.jpg,nogoal,NULL
1687281534,2d00f47e140196a22c06e0a1e5c107c0,PennController,19,0,experiment,NULL,PennController,18,_Header_,End,1687281447923,5f5b4d30a889ea0476b9ef33,5f5b4d30a889ea0476b9ef33,16,blinds,critical,B,50,blinds42.jpg,blinds60.jpg,nogoal,NULL
1687281534,2d00f47e140196a22c06e0a1e5c107c0,PennController,19,0,experiment,NULL,Canvas,canvas6,Print,NA,1687281454135,5f5b4d30a889ea0476b9ef33,5f5b4d30a889ea0476b9ef33,16,blinds,critical,B,50,blinds42.jpg,blinds60.jpg,nogoal,NULL
1687281534,2d00f47e140196a22c06e0a1e5c107c0,PennController,19,0,experiment,NULL,Video,progression,buffer,0.027853,1687281449540,5f5b4d30a889ea0476b9ef33,5f5b4d30a889ea0476b9ef33,16,blinds,critical,B,50,blinds42.jpg,blinds60.jpg,nogoal,NULL
1687281534,2d00f47e140196a22c06e0a1e5c107c0,PennController,19,0,experiment,NULL,Selector,choice,Selection,option1,1687281459448,5f5b4d30a889ea0476b9ef33,5f5b4d30a889ea0476b9ef33,16,blinds,critical,B,50,blinds42.jpg,blinds60.jpg,nogoal,option2;option1
1687281534,2d00f47e140196a22c06e0a1e5c107c0,PennController,19,0,experiment,NULL,PennController,18,_Trial_,End,1687281459460,5f5b4d30a889ea0476b9ef33,5f5b4d30a889ea0476b9ef33,16,blinds,critical,B,50,blinds42.jpg,blinds60.jpg,nogoal,NULL
1687281534,2d00f47e140196a22c06e0a1e5c107c0,PennController,20,0,experiment,NULL,PennController,19,_Trial_,Start,1687281459476,5f5b4d30a889ea0476b9ef33,5f5b4d30a889ea0476b9ef33,17,roll,critical,B,75,roll65.jpg,roll85.jpg,nogoal,NULL
1687281534,2d00f47e140196a22c06e0a1e5c107c0,PennController,20,0,experiment,NULL,PennController,19,_Header_,Start,1687281459476,5f5b4d30a889ea0476b9ef33,5f5b4d30a889ea0476b9ef33,17,roll,critical,B,75,roll65.jpg,roll85.jpg,nogoal,NULL
1687281534,2d00f47e140196a22c06e0a1e5c107c0,PennController,20,0,experiment,NULL,PennController,19,_Header_,End,1687281459477,5f5b4d30a889ea0476b9ef33,5f5b4d30a889ea0476b9ef33,17,roll,critical,B,75,roll65.jpg,roll85.jpg,nogoal,NULL
1687281534,2d00f47e140196a22c06e0a1e5c107c0,PennController,20,0,experiment,NULL,Canvas,canvas6,Print,NA,1687281465962,5f5b4d30a889ea0476b9ef33,5f5b4d30a889ea0476b9ef33,17,roll,critical,B,75,roll65.jpg,roll85.jpg,nogoal,NULL
1687281534,2d00f47e140196a22c06e0a1e5c107c0,PennController,20,0,experiment,NULL,Video,progression,buffer,0,1687281461104,5f5b4d30a889ea0476b9ef33,5f5b4d30a889ea0476b9ef33,17,roll,critical,B,75,roll65.jpg,roll85.jpg,nogoal,NULL
1687281534,2d00f47e140196a22c06e0a1e5c107c0,PennController,20,0,experiment,NULL,Selector,choice,Selection,option2,1687281467554,5f5b4d30a889ea0476b9ef33,5f5b4d30a889ea0476b9ef33,17,roll,critical,B,75,roll65.jpg,roll85.jpg,nogoal,option2;option1
1687281534,2d00f47e140196a22c06e0a1e5c107c0,PennController,20,0,experiment,NULL,PennController,19,_Trial_,End,1687281467568,5f5b4d30a889ea0476b9ef33,5f5b4d30a889ea0476b9ef33,17,roll,critical,B,75,roll65.jpg,roll85.jpg,nogoal,NULL
1687281534,2d00f47e140196a22c06e0a1e5c107c0,PennController,28,0,experiment,NULL,PennController,27,_Trial_,Start,1687281467583,5f5b4d30a889ea0476b9ef33,5f5b4d30a889ea0476b9ef33,25,house,filler,B,50,house40.jpg,house60.jpg,nogoal,NULL
1687281534,2d00f47e140196a22c06e0a1e5c107c0,PennController,28,0,experiment,NULL,PennController,27,_Header_,Start,1687281467584,5f5b4d30a889ea0476b9ef33,5f5b4d30a889ea0476b9ef33,25,house,filler,B,50,house40.jpg,house60.jpg,nogoal,NULL
1687281534,2d00f47e140196a22c06e0a1e5c107c0,PennController,28,0,experiment,NULL,PennController,27,_Header_,End,1687281467584,5f5b4d30a889ea0476b9ef33,5f5b4d30a889ea0476b9ef33,25,house,filler,B,50,house40.jpg,house60.jpg,nogoal,NULL
1687281534,2d00f47e140196a22c06e0a1e5c107c0,PennController,28,0,experiment,NULL,Canvas,canvas6,Print,NA,1687281472481,5f5b4d30a889ea0476b9ef33,5f5b4d30a889ea0476b9ef33,25,house,filler,B,50,house40.jpg,house60.jpg,nogoal,NULL
1687281534,2d00f47e140196a22c06e0a1e5c107c0,PennController,28,0,experiment,NULL,Video,progression,buffer,0.037369,1687281469253,5f5b4d30a889ea0476b9ef33,5f5b4d30a889ea0476b9ef33,25,house,filler,B,50,house40.jpg,house60.jpg,nogoal,NULL
1687281534,2d00f47e140196a22c06e0a1e5c107c0,PennController,28,0,experiment,NULL,Selector,choice,Selection,option2,1687281474107,5f5b4d30a889ea0476b9ef33,5f5b4d30a889ea0476b9ef33,25,house,filler,B,50,house40.jpg,house60.jpg,nogoal,option2;option1
1687281534,2d00f47e140196a22c06e0a1e5c107c0,PennController,28,0,experiment,NULL,PennController,27,_Trial_,End,1687281474124,5f5b4d30a889ea0476b9ef33,5f5b4d30a889ea0476b9ef33,25,house,filler,B,50,house40.jpg,house60.jpg,nogoal,NULL
1687281534,2d00f47e140196a22c06e0a1e5c107c0,PennController,15,0,experiment,NULL,PennController,14,_Trial_,Start,1687281474136,5f5b4d30a889ea0476b9ef33,5f5b4d30a889ea0476b9ef33,12,erase,critical,B,25,erase15.jpg,erase33.jpg,nogoal,NULL
1687281534,2d00f47e140196a22c06e0a1e5c107c0,PennController,15,0,experiment,NULL,PennController,14,_Header_,Start,1687281474136,5f5b4d30a889ea0476b9ef33,5f5b4d30a889ea0476b9ef33,12,erase,critical,B,25,erase15.jpg,erase33.jpg,nogoal,NULL
1687281534,2d00f47e140196a22c06e0a1e5c107c0,PennController,15,0,experiment,NULL,PennController,14,_Header_,End,1687281474136,5f5b4d30a889ea0476b9ef33,5f5b4d30a889ea0476b9ef33,12,erase,critical,B,25,erase15.jpg,erase33.jpg,nogoal,NULL
1687281534,2d00f47e140196a22c06e0a1e5c107c0,PennController,15,0,experiment,NULL,Canvas,canvas6,Print,NA,1687281478589,5f5b4d30a889ea0476b9ef33,5f5b4d30a889ea0476b9ef33,12,erase,critical,B,25,erase15.jpg,erase33.jpg,nogoal,NULL
1687281534,2d00f47e140196a22c06e0a1e5c107c0,PennController,15,0,experiment,NULL,Video,progression,buffer,0.03815,1687281475788,5f5b4d30a889ea0476b9ef33,5f5b4d30a889ea0476b9ef33,12,erase,critical,B,25,erase15.jpg,erase33.jpg,nogoal,NULL
1687281534,2d00f47e140196a22c06e0a1e5c107c0,PennController,15,0,experiment,NULL,Selector,choice,Selection,option2,1687281481852,5f5b4d30a889ea0476b9ef33,5f5b4d30a889ea0476b9ef33,12,erase,critical,B,25,erase15.jpg,erase33.jpg,nogoal,option2;option1
1687281534,2d00f47e140196a22c06e0a1e5c107c0,PennController,15,0,experiment,NULL,PennController,14,_Trial_,End,1687281481865,5f5b4d30a889ea0476b9ef33,5f5b4d30a889ea0476b9ef33,12,erase,critical,B,25,erase15.jpg,erase33.jpg,nogoal,NULL
1687281534,2d00f47e140196a22c06e0a1e5c107c0,PennController,26,0,experiment,NULL,PennController,25,_Trial_,Start,1687281481879,5f5b4d30a889ea0476b9ef33,5f5b4d30a889ea0476b9ef33,23,color,filler,B,75,color65.jpg,color85.jpg,nogoal,NULL
1687281534,2d00f47e140196a22c06e0a1e5c107c0,PennController,26,0,experiment,NULL,PennController,25,_Header_,Start,1687281481879,5f5b4d30a889ea0476b9ef33,5f5b4d30a889ea0476b9ef33,23,color,filler,B,75,color65.jpg,color85.jpg,nogoal,NULL
1687281534,2d00f47e140196a22c06e0a1e5c107c0,PennController,26,0,experiment,NULL,PennController,25,_Header_,End,1687281481879,5f5b4d30a889ea0476b9ef33,5f5b4d30a889ea0476b9ef33,23,color,filler,B,75,color65.jpg,color85.jpg,nogoal,NULL
1687281534,2d00f47e140196a22c06e0a1e5c107c0,PennController,26,0,experiment,NULL,Canvas,canvas6,Print,NA,1687281487789,5f5b4d30a889ea0476b9ef33,5f5b4d30a889ea0476b9ef33,23,color,filler,B,75,color65.jpg,color85.jpg,nogoal,NULL
1687281534,2d00f47e140196a22c06e0a1e5c107c0,PennController,26,0,experiment,NULL,Video,progression,buffer,0.030841,1687281483511,5f5b4d30a889ea0476b9ef33,5f5b4d30a889ea0476b9ef33,23,color,filler,B,75,color65.jpg,color85.jpg,nogoal,NULL
1687281534,2d00f47e140196a22c06e0a1e5c107c0,PennController,26,0,experiment,NULL,Selector,choice,Selection,option2,1687281490396,5f5b4d30a889ea0476b9ef33,5f5b4d30a889ea0476b9ef33,23,color,filler,B,75,color65.jpg,color85.jpg,nogoal,option2;option1
1687281534,2d00f47e140196a22c06e0a1e5c107c0,PennController,26,0,experiment,NULL,PennController,25,_Trial_,End,1687281490428,5f5b4d30a889ea0476b9ef33,5f5b4d30a889ea0476b9ef33,23,color,filler,B,75,color65.jpg,color85.jpg,nogoal,NULL
1687281534,2d00f47e140196a22c06e0a1e5c107c0,PennController,17,0,experiment,NULL,PennController,16,_Trial_,Start,1687281490444,5f5b4d30a889ea0476b9ef33,5f5b4d30a889ea0476b9ef33,14,cover,critical,B,75,cover66.jpg,cover84.jpg,nogoal,NULL
1687281534,2d00f47e140196a22c06e0a1e5c107c0,PennController,17,0,experiment,NULL,PennController,16,_Header_,Start,1687281490444,5f5b4d30a889ea0476b9ef33,5f5b4d30a889ea0476b9ef33,14,cover,critical,B,75,cover66.jpg,cover84.jpg,nogoal,NULL
1687281534,2d00f47e140196a22c06e0a1e5c107c0,PennController,17,0,experiment,NULL,PennController,16,_Header_,End,1687281490444,5f5b4d30a889ea0476b9ef33,5f5b4d30a889ea0476b9ef33,14,cover,critical,B,75,cover66.jpg,cover84.jpg,nogoal,NULL
1687281534,2d00f47e140196a22c06e0a1e5c107c0,PennController,17,0,experiment,NULL,Canvas,canvas6,Print,NA,1687281498248,5f5b4d30a889ea0476b9ef33,5f5b4d30a889ea0476b9ef33,14,cover,critical,B,75,cover66.jpg,cover84.jpg,nogoal,NULL
1687281534,2d00f47e140196a22c06e0a1e5c107c0,PennController,17,0,experiment,NULL,Video,progression,buffer,0.030195,1687281492082,5f5b4d30a889ea0476b9ef33,5f5b4d30a889ea0476b9ef33,14,cover,critical,B,75,cover66.jpg,cover84.jpg,nogoal,NULL
1687281534,2d00f47e140196a22c06e0a1e5c107c0,PennController,17,0,experiment,NULL,Selector,choice,Selection,option1,1687281500112,5f5b4d30a889ea0476b9ef33,5f5b4d30a889ea0476b9ef33,14,cover,critical,B,75,cover66.jpg,cover84.jpg,nogoal,option1;option2
1687281534,2d00f47e140196a22c06e0a1e5c107c0,PennController,17,0,experiment,NULL,PennController,16,_Trial_,End,1687281500127,5f5b4d30a889ea0476b9ef33,5f5b4d30a889ea0476b9ef33,14,cover,critical,B,75,cover66.jpg,cover84.jpg,nogoal,NULL
1687281534,2d00f47e140196a22c06e0a1e5c107c0,PennController,23,0,experiment,NULL,PennController,22,_Trial_,Start,1687281500139,5f5b4d30a889ea0476b9ef33,5f5b4d30a889ea0476b9ef33,20,cat,filler,B,75,cat65.jpg,cat85.jpg,nogoal,NULL
1687281534,2d00f47e140196a22c06e0a1e5c107c0,PennController,23,0,experiment,NULL,PennController,22,_Header_,Start,1687281500139,5f5b4d30a889ea0476b9ef33,5f5b4d30a889ea0476b9ef33,20,cat,filler,B,75,cat65.jpg,cat85.jpg,nogoal,NULL
1687281534,2d00f47e140196a22c06e0a1e5c107c0,PennController,23,0,experiment,NULL,PennController,22,_Header_,End,1687281500140,5f5b4d30a889ea0476b9ef33,5f5b4d30a889ea0476b9ef33,20,cat,filler,B,75,cat65.jpg,cat85.jpg,nogoal,NULL
1687281534,2d00f47e140196a22c06e0a1e5c107c0,PennController,23,0,experiment,NULL,Canvas,canvas6,Print,NA,1687281505987,5f5b4d30a889ea0476b9ef33,5f5b4d30a889ea0476b9ef33,20,cat,filler,B,75,cat65.jpg,cat85.jpg,nogoal,NULL
1687281534,2d00f47e140196a22c06e0a1e5c107c0,PennController,23,0,experiment,NULL,Video,progression,buffer,0.048397,1687281501797,5f5b4d30a889ea0476b9ef33,5f5b4d30a889ea0476b9ef33,20,cat,filler,B,75,cat65.jpg,cat85.jpg,nogoal,NULL
1687281534,2d00f47e140196a22c06e0a1e5c107c0,PennController,23,0,experiment,NULL,Selector,choice,Selection,option2,1687281507888,5f5b4d30a889ea0476b9ef33,5f5b4d30a889ea0476b9ef33,20,cat,filler,B,75,cat65.jpg,cat85.jpg,nogoal,option1;option2
1687281534,2d00f47e140196a22c06e0a1e5c107c0,PennController,23,0,experiment,NULL,PennController,22,_Trial_,End,1687281507904,5f5b4d30a889ea0476b9ef33,5f5b4d30a889ea0476b9ef33,20,cat,filler,B,75,cat65.jpg,cat85.jpg,nogoal,NULL
1687281534,2d00f47e140196a22c06e0a1e5c107c0,PennController,30,0,experiment,NULL,PennController,29,_Trial_,Start,1687281507916,5f5b4d30a889ea0476b9ef33,5f5b4d30a889ea0476b9ef33,27,square,filler,B,25,square15.jpg,square35.jpg,nogoal,NULL
1687281534,2d00f47e140196a22c06e0a1e5c107c0,PennController,30,0,experiment,NULL,PennController,29,_Header_,Start,1687281507917,5f5b4d30a889ea0476b9ef33,5f5b4d30a889ea0476b9ef33,27,square,filler,B,25,square15.jpg,square35.jpg,nogoal,NULL
1687281534,2d00f47e140196a22c06e0a1e5c107c0,PennController,30,0,experiment,NULL,PennController,29,_Header_,End,1687281507917,5f5b4d30a889ea0476b9ef33,5f5b4d30a889ea0476b9ef33,27,square,filler,B,25,square15.jpg,square35.jpg,nogoal,NULL
1687281534,2d00f47e140196a22c06e0a1e5c107c0,PennController,30,0,experiment,NULL,Canvas,canvas6,Print,NA,1687281511791,5f5b4d30a889ea0476b9ef33,5f5b4d30a889ea0476b9ef33,27,square,filler,B,25,square15.jpg,square35.jpg,nogoal,NULL
1687281534,2d00f47e140196a22c06e0a1e5c107c0,PennController,30,0,experiment,NULL,Video,progression,buffer,0.043664,1687281509573,5f5b4d30a889ea0476b9ef33,5f5b4d30a889ea0476b9ef33,27,square,filler,B,25,square15.jpg,square35.jpg,nogoal,NULL
1687281534,2d00f47e140196a22c06e0a1e5c107c0,PennController,30,0,experiment,NULL,Selector,choice,Selection,option2,1687281513690,5f5b4d30a889ea0476b9ef33,5f5b4d30a889ea0476b9ef33,27,square,filler,B,25,square15.jpg,square35.jpg,nogoal,option1;option2
1687281534,2d00f47e140196a22c06e0a1e5c107c0,PennController,30,0,experiment,NULL,PennController,29,_Trial_,End,1687281513707,5f5b4d30a889ea0476b9ef33,5f5b4d30a889ea0476b9ef33,27,square,filler,B,25,square15.jpg,square35.jpg,nogoal,NULL
1687281534,2d00f47e140196a22c06e0a1e5c107c0,PennController,18,0,experiment,NULL,PennController,17,_Trial_,Start,1687281513723,5f5b4d30a889ea0476b9ef33,5f5b4d30a889ea0476b9ef33,15,zip,critical,B,25,zip15.jpg,zip35.jpg,nogoal,NULL
1687281534,2d00f47e140196a22c06e0a1e5c107c0,PennController,18,0,experiment,NULL,PennController,17,_Header_,Start,1687281513723,5f5b4d30a889ea0476b9ef33,5f5b4d30a889ea0476b9ef33,15,zip,critical,B,25,zip15.jpg,zip35.jpg,nogoal,NULL
1687281534,2d00f47e140196a22c06e0a1e5c107c0,PennController,18,0,experiment,NULL,PennController,17,_Header_,End,1687281513723,5f5b4d30a889ea0476b9ef33,5f5b4d30a889ea0476b9ef33,15,zip,critical,B,25,zip15.jpg,zip35.jpg,nogoal,NULL
1687281534,2d00f47e140196a22c06e0a1e5c107c0,PennController,18,0,experiment,NULL,Canvas,canvas6,Print,NA,1687281517575,5f5b4d30a889ea0476b9ef33,5f5b4d30a889ea0476b9ef33,15,zip,critical,B,25,zip15.jpg,zip35.jpg,nogoal,NULL
1687281534,2d00f47e140196a22c06e0a1e5c107c0,PennController,18,0,experiment,NULL,Video,progression,buffer,0.032078,1687281515357,5f5b4d30a889ea0476b9ef33,5f5b4d30a889ea0476b9ef33,15,zip,critical,B,25,zip15.jpg,zip35.jpg,nogoal,NULL
1687281534,2d00f47e140196a22c06e0a1e5c107c0,PennController,18,0,experiment,NULL,Selector,choice,Selection,option2,1687281519388,5f5b4d30a889ea0476b9ef33,5f5b4d30a889ea0476b9ef33,15,zip,critical,B,25,zip15.jpg,zip35.jpg,nogoal,option2;option1
1687281534,2d00f47e140196a22c06e0a1e5c107c0,PennController,18,0,experiment,NULL,PennController,17,_Trial_,End,1687281519402,5f5b4d30a889ea0476b9ef33,5f5b4d30a889ea0476b9ef33,15,zip,critical,B,25,zip15.jpg,zip35.jpg,nogoal,NULL
1687281534,2d00f47e140196a22c06e0a1e5c107c0,PennController,4,0,experiment,NULL,PennController,3,_Trial_,Start,1687281519416,5f5b4d30a889ea0476b9ef33,5f5b4d30a889ea0476b9ef33,1,vase,critical,B,50,vase40.jpg,vase60.jpg,nogoal,NULL
1687281534,2d00f47e140196a22c06e0a1e5c107c0,PennController,4,0,experiment,NULL,PennController,3,_Header_,Start,1687281519416,5f5b4d30a889ea0476b9ef33,5f5b4d30a889ea0476b9ef33,1,vase,critical,B,50,vase40.jpg,vase60.jpg,nogoal,NULL
1687281534,2d00f47e140196a22c06e0a1e5c107c0,PennController,4,0,experiment,NULL,PennController,3,_Header_,End,1687281519417,5f5b4d30a889ea0476b9ef33,5f5b4d30a889ea0476b9ef33,1,vase,critical,B,50,vase40.jpg,vase60.jpg,nogoal,NULL
1687281534,2d00f47e140196a22c06e0a1e5c107c0,PennController,4,0,experiment,NULL,Canvas,canvas6,Print,NA,1687281524313,5f5b4d30a889ea0476b9ef33,5f5b4d30a889ea0476b9ef33,1,vase,critical,B,50,vase40.jpg,vase60.jpg,nogoal,NULL
1687281534,2d00f47e140196a22c06e0a1e5c107c0,PennController,4,0,experiment,NULL,Video,progression,buffer,0.040642,1687281521076,5f5b4d30a889ea0476b9ef33,5f5b4d30a889ea0476b9ef33,1,vase,critical,B,50,vase40.jpg,vase60.jpg,nogoal,NULL
1687281534,2d00f47e140196a22c06e0a1e5c107c0,PennController,4,0,experiment,NULL,Selector,choice,Selection,option2,1687281526562,5f5b4d30a889ea0476b9ef33,5f5b4d30a889ea0476b9ef33,1,vase,critical,B,50,vase40.jpg,vase60.jpg,nogoal,option1;option2
1687281534,2d00f47e140196a22c06e0a1e5c107c0,PennController,4,0,experiment,NULL,PennController,3,_Trial_,End,1687281526573,5f5b4d30a889ea0476b9ef33,5f5b4d30a889ea0476b9ef33,1,vase,critical,B,50,vase40.jpg,vase60.jpg,nogoal,NULL
1687281534,2d00f47e140196a22c06e0a1e5c107c0,PennController,5,0,experiment,NULL,PennController,4,_Trial_,Start,1687281526587,5f5b4d30a889ea0476b9ef33,5f5b4d30a889ea0476b9ef33,2,door,critical,B,75,door65.jpg,door85.jpg,nogoal,NULL
1687281534,2d00f47e140196a22c06e0a1e5c107c0,PennController,5,0,experiment,NULL,PennController,4,_Header_,Start,1687281526587,5f5b4d30a889ea0476b9ef33,5f5b4d30a889ea0476b9ef33,2,door,critical,B,75,door65.jpg,door85.jpg,nogoal,NULL
1687281534,2d00f47e140196a22c06e0a1e5c107c0,PennController,5,0,experiment,NULL,PennController,4,_Header_,End,1687281526587,5f5b4d30a889ea0476b9ef33,5f5b4d30a889ea0476b9ef33,2,door,critical,B,75,door65.jpg,door85.jpg,nogoal,NULL
1687281534,2d00f47e140196a22c06e0a1e5c107c0,PennController,5,0,experiment,NULL,Canvas,canvas6,Print,NA,1687281532596,5f5b4d30a889ea0476b9ef33,5f5b4d30a889ea0476b9ef33,2,door,critical,B,75,door65.jpg,door85.jpg,nogoal,NULL
1687281534,2d00f47e140196a22c06e0a1e5c107c0,PennController,5,0,experiment,NULL,Video,progression,buffer,0,1687281528220,5f5b4d30a889ea0476b9ef33,5f5b4d30a889ea0476b9ef33,2,door,critical,B,75,door65.jpg,door85.jpg,nogoal,NULL
1687281534,2d00f47e140196a22c06e0a1e5c107c0,PennController,5,0,experiment,NULL,Selector,choice,Selection,option2,1687281534184,5f5b4d30a889ea0476b9ef33,5f5b4d30a889ea0476b9ef33,2,door,critical,B,75,door65.jpg,door85.jpg,nogoal,option2;option1
1687281534,2d00f47e140196a22c06e0a1e5c107c0,PennController,5,0,experiment,NULL,PennController,4,_Trial_,End,1687281534196,5f5b4d30a889ea0476b9ef33,5f5b4d30a889ea0476b9ef33,2,door,critical,B,75,door65.jpg,door85.jpg,nogoal,NULL
