#
# Results on Tuesday June 20 2023 17:21:36 UTC
# USER AGENT: Mozilla/5.0 (Windows NT 10.0; Win64; x64) AppleWebKit/537.36 (KHTML, like Gecko) Chrome/113.0.0.0 Safari/537.36 OPR/99.0.0.0
# Design number was non-random = 5
#
# Columns below this comment are as follows:
# 1. Results reception time.
# 2. MD5 hash of participant's IP address.
# 3. Controller name.
# 4. Order number of item.
# 5. Inner element number.
# 6. Label.
# 7. Latin Square Group.
# 8. PennElementType.
# 9. PennElementName.
# 10. Parameter.
# 11. Value.
# 12. EventTime.
# 13. PROLIFIC_ID.
# 14. Comments.
1687281696,ef443c112801c053601356f9d460fa9a,PennController,2,0,consent,NULL,PennController,0,_Trial_,Start,1687281464372,5f973544373a810cfca320f7,NULL
1687281696,ef443c112801c053601356f9d460fa9a,PennController,2,0,consent,NULL,PennController,0,_Header_,Start,1687281464372,5f973544373a810cfca320f7,NULL
1687281696,ef443c112801c053601356f9d460fa9a,PennController,2,0,consent,NULL,PennController,0,_Header_,End,1687281464372,5f973544373a810cfca320f7,NULL
1687281696,ef443c112801c053601356f9d460fa9a,PennController,2,0,consent,NULL,PennController,0,_Trial_,End,1687281471050,5f973544373a810cfca320f7,NULL
# Columns below this comment are as follows:
# 14. ID.
# 15. Comments.
1687281696,ef443c112801c053601356f9d460fa9a,PennController,3,0,intro,NULL,PennController,1,_Trial_,Start,1687281471052,5f973544373a810cfca320f7,5f973544373a810cfca320f7,NULL
1687281696,ef443c112801c053601356f9d460fa9a,PennController,3,0,intro,NULL,PennController,1,_Header_,Start,1687281471052,5f973544373a810cfca320f7,5f973544373a810cfca320f7,NULL
1687281696,ef443c112801c053601356f9d460fa9a,PennController,3,0,intro,NULL,PennController,1,_Header_,End,1687281471052,5f973544373a810cfca320f7,5f973544373a810cfca320f7,NULL
1687281696,ef443c112801c053601356f9d460fa9a,PennController,3,0,intro,NULL,PennController,1,_Trial_,End,1687281494928,5f973544373a810cfca320f7,5f973544373a810cfca320f7,NULL
# Columns below this comment are as follows:
# 15. item_number.
# 16. item.
# 17. type.
# 18. Group.
# 19. prog.
# 20. prev_image.
# 21. next_image.
# 22. height.
# 23. Comments.
1687281696,ef443c112801c053601356f9d460fa9a,PennController,29,0,experiment,NULL,PennController,28,_Trial_,Start,1687281494930,5f973544373a810cfca320f7,5f973544373a810cfca320f7,26,sandwich,filler,C,25,sandwich15.jpg,sandwich35.jpg,nogoal,NULL
1687281696,ef443c112801c053601356f9d460fa9a,PennController,29,0,experiment,NULL,PennController,28,_Header_,Start,1687281494930,5f973544373a810cfca320f7,5f973544373a810cfca320f7,26,sandwich,filler,C,25,sandwich15.jpg,sandwich35.jpg,nogoal,NULL
1687281696,ef443c112801c053601356f9d460fa9a,PennController,29,0,experiment,NULL,PennController,28,_Header_,End,1687281494930,5f973544373a810cfca320f7,5f973544373a810cfca320f7,26,sandwich,filler,C,25,sandwich15.jpg,sandwich35.jpg,nogoal,NULL
1687281696,ef443c112801c053601356f9d460fa9a,PennController,29,0,experiment,NULL,Canvas,canvas6,Print,NA,1687281498644,5f973544373a810cfca320f7,5f973544373a810cfca320f7,26,sandwich,filler,C,25,sandwich15.jpg,sandwich35.jpg,nogoal,NULL
1687281696,ef443c112801c053601356f9d460fa9a,PennController,29,0,experiment,NULL,Video,progression,buffer,0.003097,1687281496448,5f973544373a810cfca320f7,5f973544373a810cfca320f7,26,sandwich,filler,C,25,sandwich15.jpg,sandwich35.jpg,nogoal,NULL
1687281696,ef443c112801c053601356f9d460fa9a,PennController,29,0,experiment,NULL,Selector,choice,Selection,option1,1687281500095,5f973544373a810cfca320f7,5f973544373a810cfca320f7,26,sandwich,filler,C,25,sandwich15.jpg,sandwich35.jpg,nogoal,option1;option2
1687281696,ef443c112801c053601356f9d460fa9a,PennController,29,0,experiment,NULL,PennController,28,_Trial_,End,1687281500096,5f973544373a810cfca320f7,5f973544373a810cfca320f7,26,sandwich,filler,C,25,sandwich15.jpg,sandwich35.jpg,nogoal,NULL
1687281696,ef443c112801c053601356f9d460fa9a,PennController,4,0,experiment,NULL,PennController,3,_Trial_,Start,1687281500097,5f973544373a810cfca320f7,5f973544373a810cfca320f7,1,vase,critical,C,75,vase65.jpg,vase85.jpg,nogoal,NULL
1687281696,ef443c112801c053601356f9d460fa9a,PennController,4,0,experiment,NULL,PennController,3,_Header_,Start,1687281500097,5f973544373a810cfca320f7,5f973544373a810cfca320f7,1,vase,critical,C,75,vase65.jpg,vase85.jpg,nogoal,NULL
1687281696,ef443c112801c053601356f9d460fa9a,PennController,4,0,experiment,NULL,PennController,3,_Header_,End,1687281500097,5f973544373a810cfca320f7,5f973544373a810cfca320f7,1,vase,critical,C,75,vase65.jpg,vase85.jpg,nogoal,NULL
1687281696,ef443c112801c053601356f9d460fa9a,PennController,4,0,experiment,NULL,Canvas,canvas6,Print,NA,1687281505822,5f973544373a810cfca320f7,5f973544373a810cfca320f7,1,vase,critical,C,75,vase65.jpg,vase85.jpg,nogoal,NULL
1687281696,ef443c112801c053601356f9d460fa9a,PennController,4,0,experiment,NULL,Video,progression,buffer,0.008504,1687281501628,5f973544373a810cfca320f7,5f973544373a810cfca320f7,1,vase,critical,C,75,vase65.jpg,vase85.jpg,nogoal,NULL
1687281696,ef443c112801c053601356f9d460fa9a,PennController,4,0,experiment,NULL,Selector,choice,Selection,option2,1687281507842,5f973544373a810cfca320f7,5f973544373a810cfca320f7,1,vase,critical,C,75,vase65.jpg,vase85.jpg,nogoal,option1;option2
1687281696,ef443c112801c053601356f9d460fa9a,PennController,4,0,experiment,NULL,PennController,3,_Trial_,End,1687281507843,5f973544373a810cfca320f7,5f973544373a810cfca320f7,1,vase,critical,C,75,vase65.jpg,vase85.jpg,nogoal,NULL
1687281696,ef443c112801c053601356f9d460fa9a,PennController,11,0,experiment,NULL,PennController,10,_Trial_,Start,1687281507844,5f973544373a810cfca320f7,5f973544373a810cfca320f7,8,cucumber,critical,C,25,cucumber15.jpg,cucumber33.jpg,nogoal,NULL
1687281696,ef443c112801c053601356f9d460fa9a,PennController,11,0,experiment,NULL,PennController,10,_Header_,Start,1687281507844,5f973544373a810cfca320f7,5f973544373a810cfca320f7,8,cucumber,critical,C,25,cucumber15.jpg,cucumber33.jpg,nogoal,NULL
1687281696,ef443c112801c053601356f9d460fa9a,PennController,11,0,experiment,NULL,PennController,10,_Header_,End,1687281507844,5f973544373a810cfca320f7,5f973544373a810cfca320f7,8,cucumber,critical,C,25,cucumber15.jpg,cucumber33.jpg,nogoal,NULL
1687281696,ef443c112801c053601356f9d460fa9a,PennController,11,0,experiment,NULL,Canvas,canvas6,Print,NA,1687281512151,5f973544373a810cfca320f7,5f973544373a810cfca320f7,8,cucumber,critical,C,25,cucumber15.jpg,cucumber33.jpg,nogoal,NULL
1687281696,ef443c112801c053601356f9d460fa9a,PennController,11,0,experiment,NULL,Video,progression,buffer,0.006319,1687281509364,5f973544373a810cfca320f7,5f973544373a810cfca320f7,8,cucumber,critical,C,25,cucumber15.jpg,cucumber33.jpg,nogoal,NULL
1687281696,ef443c112801c053601356f9d460fa9a,PennController,11,0,experiment,NULL,Selector,choice,Selection,option1,1687281516252,5f973544373a810cfca320f7,5f973544373a810cfca320f7,8,cucumber,critical,C,25,cucumber15.jpg,cucumber33.jpg,nogoal,option1;option2
1687281696,ef443c112801c053601356f9d460fa9a,PennController,11,0,experiment,NULL,PennController,10,_Trial_,End,1687281516253,5f973544373a810cfca320f7,5f973544373a810cfca320f7,8,cucumber,critical,C,25,cucumber15.jpg,cucumber33.jpg,nogoal,NULL
1687281696,ef443c112801c053601356f9d460fa9a,PennController,16,0,experiment,NULL,PennController,15,_Trial_,Start,1687281516254,5f973544373a810cfca320f7,5f973544373a810cfca320f7,13,mix,critical,C,75,mix65.jpg,mix85.jpg,nogoal,NULL
1687281696,ef443c112801c053601356f9d460fa9a,PennController,16,0,experiment,NULL,PennController,15,_Header_,Start,1687281516254,5f973544373a810cfca320f7,5f973544373a810cfca320f7,13,mix,critical,C,75,mix65.jpg,mix85.jpg,nogoal,NULL
1687281696,ef443c112801c053601356f9d460fa9a,PennController,16,0,experiment,NULL,PennController,15,_Header_,End,1687281516254,5f973544373a810cfca320f7,5f973544373a810cfca320f7,13,mix,critical,C,75,mix65.jpg,mix85.jpg,nogoal,NULL
1687281696,ef443c112801c053601356f9d460fa9a,PennController,16,0,experiment,NULL,Canvas,canvas6,Print,NA,1687281521965,5f973544373a810cfca320f7,5f973544373a810cfca320f7,13,mix,critical,C,75,mix65.jpg,mix85.jpg,nogoal,NULL
1687281696,ef443c112801c053601356f9d460fa9a,PennController,16,0,experiment,NULL,Video,progression,buffer,0.00246,1687281517767,5f973544373a810cfca320f7,5f973544373a810cfca320f7,13,mix,critical,C,75,mix65.jpg,mix85.jpg,nogoal,NULL
1687281696,ef443c112801c053601356f9d460fa9a,PennController,16,0,experiment,NULL,Selector,choice,Selection,option1,1687281523674,5f973544373a810cfca320f7,5f973544373a810cfca320f7,13,mix,critical,C,75,mix65.jpg,mix85.jpg,nogoal,option2;option1
1687281696,ef443c112801c053601356f9d460fa9a,PennController,16,0,experiment,NULL,PennController,15,_Trial_,End,1687281523674,5f973544373a810cfca320f7,5f973544373a810cfca320f7,13,mix,critical,C,75,mix65.jpg,mix85.jpg,nogoal,NULL
1687281696,ef443c112801c053601356f9d460fa9a,PennController,8,0,experiment,NULL,PennController,7,_Trial_,Start,1687281523676,5f973544373a810cfca320f7,5f973544373a810cfca320f7,5,book,critical,C,25,book15.jpg,book35.jpg,nogoal,NULL
1687281696,ef443c112801c053601356f9d460fa9a,PennController,8,0,experiment,NULL,PennController,7,_Header_,Start,1687281523676,5f973544373a810cfca320f7,5f973544373a810cfca320f7,5,book,critical,C,25,book15.jpg,book35.jpg,nogoal,NULL
1687281696,ef443c112801c053601356f9d460fa9a,PennController,8,0,experiment,NULL,PennController,7,_Header_,End,1687281523676,5f973544373a810cfca320f7,5f973544373a810cfca320f7,5,book,critical,C,25,book15.jpg,book35.jpg,nogoal,NULL
1687281696,ef443c112801c053601356f9d460fa9a,PennController,8,0,experiment,NULL,Canvas,canvas6,Print,NA,1687281527397,5f973544373a810cfca320f7,5f973544373a810cfca320f7,5,book,critical,C,25,book15.jpg,book35.jpg,nogoal,NULL
1687281696,ef443c112801c053601356f9d460fa9a,PennController,8,0,experiment,NULL,Video,progression,buffer,0.010537,1687281525207,5f973544373a810cfca320f7,5f973544373a810cfca320f7,5,book,critical,C,25,book15.jpg,book35.jpg,nogoal,NULL
1687281696,ef443c112801c053601356f9d460fa9a,PennController,8,0,experiment,NULL,Selector,choice,Selection,option2,1687281529442,5f973544373a810cfca320f7,5f973544373a810cfca320f7,5,book,critical,C,25,book15.jpg,book35.jpg,nogoal,option1;option2
1687281696,ef443c112801c053601356f9d460fa9a,PennController,8,0,experiment,NULL,PennController,7,_Trial_,End,1687281529442,5f973544373a810cfca320f7,5f973544373a810cfca320f7,5,book,critical,C,25,book15.jpg,book35.jpg,nogoal,NULL
1687281696,ef443c112801c053601356f9d460fa9a,PennController,21,0,experiment,NULL,PennController,20,_Trial_,Start,1687281529443,5f973544373a810cfca320f7,5f973544373a810cfca320f7,18,ball,critical,C,50,ball40.jpg,ball60.jpg,nogoal,NULL
1687281696,ef443c112801c053601356f9d460fa9a,PennController,21,0,experiment,NULL,PennController,20,_Header_,Start,1687281529443,5f973544373a810cfca320f7,5f973544373a810cfca320f7,18,ball,critical,C,50,ball40.jpg,ball60.jpg,nogoal,NULL
1687281696,ef443c112801c053601356f9d460fa9a,PennController,21,0,experiment,NULL,PennController,20,_Header_,End,1687281529443,5f973544373a810cfca320f7,5f973544373a810cfca320f7,18,ball,critical,C,50,ball40.jpg,ball60.jpg,nogoal,NULL
1687281696,ef443c112801c053601356f9d460fa9a,PennController,21,0,experiment,NULL,Canvas,canvas6,Print,NA,1687281534161,5f973544373a810cfca320f7,5f973544373a810cfca320f7,18,ball,critical,C,50,ball40.jpg,ball60.jpg,nogoal,NULL
1687281696,ef443c112801c053601356f9d460fa9a,PennController,21,0,experiment,NULL,Video,progression,buffer,0.00974,1687281530973,5f973544373a810cfca320f7,5f973544373a810cfca320f7,18,ball,critical,C,50,ball40.jpg,ball60.jpg,nogoal,NULL
1687281696,ef443c112801c053601356f9d460fa9a,PennController,21,0,experiment,NULL,Selector,choice,Selection,option2,1687281535942,5f973544373a810cfca320f7,5f973544373a810cfca320f7,18,ball,critical,C,50,ball40.jpg,ball60.jpg,nogoal,option2;option1
1687281696,ef443c112801c053601356f9d460fa9a,PennController,21,0,experiment,NULL,PennController,20,_Trial_,End,1687281535943,5f973544373a810cfca320f7,5f973544373a810cfca320f7,18,ball,critical,C,50,ball40.jpg,ball60.jpg,nogoal,NULL
1687281696,ef443c112801c053601356f9d460fa9a,PennController,13,0,experiment,NULL,PennController,12,_Trial_,Start,1687281535944,5f973544373a810cfca320f7,5f973544373a810cfca320f7,10,train,critical,C,75,train65.jpg,train85.jpg,nogoal,NULL
1687281696,ef443c112801c053601356f9d460fa9a,PennController,13,0,experiment,NULL,PennController,12,_Header_,Start,1687281535944,5f973544373a810cfca320f7,5f973544373a810cfca320f7,10,train,critical,C,75,train65.jpg,train85.jpg,nogoal,NULL
1687281696,ef443c112801c053601356f9d460fa9a,PennController,13,0,experiment,NULL,PennController,12,_Header_,End,1687281535944,5f973544373a810cfca320f7,5f973544373a810cfca320f7,10,train,critical,C,75,train65.jpg,train85.jpg,nogoal,NULL
1687281696,ef443c112801c053601356f9d460fa9a,PennController,13,0,experiment,NULL,Canvas,canvas6,Print,NA,1687281541657,5f973544373a810cfca320f7,5f973544373a810cfca320f7,10,train,critical,C,75,train65.jpg,train85.jpg,nogoal,NULL
1687281696,ef443c112801c053601356f9d460fa9a,PennController,13,0,experiment,NULL,Video,progression,buffer,0.010876,1687281537468,5f973544373a810cfca320f7,5f973544373a810cfca320f7,10,train,critical,C,75,train65.jpg,train85.jpg,nogoal,NULL
1687281696,ef443c112801c053601356f9d460fa9a,PennController,13,0,experiment,NULL,Selector,choice,Selection,option2,1687281542963,5f973544373a810cfca320f7,5f973544373a810cfca320f7,10,train,critical,C,75,train65.jpg,train85.jpg,nogoal,option2;option1
1687281696,ef443c112801c053601356f9d460fa9a,PennController,13,0,experiment,NULL,PennController,12,_Trial_,End,1687281542964,5f973544373a810cfca320f7,5f973544373a810cfca320f7,10,train,critical,C,75,train65.jpg,train85.jpg,nogoal,NULL
1687281696,ef443c112801c053601356f9d460fa9a,PennController,25,0,experiment,NULL,PennController,24,_Trial_,Start,1687281542964,5f973544373a810cfca320f7,5f973544373a810cfca320f7,22,wall,filler,C,75,wall65.jpg,wall85.jpg,nogoal,NULL
1687281696,ef443c112801c053601356f9d460fa9a,PennController,25,0,experiment,NULL,PennController,24,_Header_,Start,1687281542964,5f973544373a810cfca320f7,5f973544373a810cfca320f7,22,wall,filler,C,75,wall65.jpg,wall85.jpg,nogoal,NULL
1687281696,ef443c112801c053601356f9d460fa9a,PennController,25,0,experiment,NULL,PennController,24,_Header_,End,1687281542964,5f973544373a810cfca320f7,5f973544373a810cfca320f7,22,wall,filler,C,75,wall65.jpg,wall85.jpg,nogoal,NULL
1687281696,ef443c112801c053601356f9d460fa9a,PennController,25,0,experiment,NULL,Canvas,canvas6,Print,NA,1687281548688,5f973544373a810cfca320f7,5f973544373a810cfca320f7,22,wall,filler,C,75,wall65.jpg,wall85.jpg,nogoal,NULL
1687281696,ef443c112801c053601356f9d460fa9a,PennController,25,0,experiment,NULL,Video,progression,buffer,0.009476,1687281544495,5f973544373a810cfca320f7,5f973544373a810cfca320f7,22,wall,filler,C,75,wall65.jpg,wall85.jpg,nogoal,NULL
1687281696,ef443c112801c053601356f9d460fa9a,PennController,25,0,experiment,NULL,Selector,choice,Selection,option2,1687281550335,5f973544373a810cfca320f7,5f973544373a810cfca320f7,22,wall,filler,C,75,wall65.jpg,wall85.jpg,nogoal,option2;option1
1687281696,ef443c112801c053601356f9d460fa9a,PennController,25,0,experiment,NULL,PennController,24,_Trial_,End,1687281550335,5f973544373a810cfca320f7,5f973544373a810cfca320f7,22,wall,filler,C,75,wall65.jpg,wall85.jpg,nogoal,NULL
1687281696,ef443c112801c053601356f9d460fa9a,PennController,14,0,experiment,NULL,PennController,13,_Trial_,Start,1687281550336,5f973544373a810cfca320f7,5f973544373a810cfca320f7,11,beads,critical,C,25,beads15.jpg,beads35.jpg,nogoal,NULL
1687281696,ef443c112801c053601356f9d460fa9a,PennController,14,0,experiment,NULL,PennController,13,_Header_,Start,1687281550336,5f973544373a810cfca320f7,5f973544373a810cfca320f7,11,beads,critical,C,25,beads15.jpg,beads35.jpg,nogoal,NULL
1687281696,ef443c112801c053601356f9d460fa9a,PennController,14,0,experiment,NULL,PennController,13,_Header_,End,1687281550336,5f973544373a810cfca320f7,5f973544373a810cfca320f7,11,beads,critical,C,25,beads15.jpg,beads35.jpg,nogoal,NULL
1687281696,ef443c112801c053601356f9d460fa9a,PennController,14,0,experiment,NULL,Canvas,canvas6,Print,NA,1687281554032,5f973544373a810cfca320f7,5f973544373a810cfca320f7,11,beads,critical,C,25,beads15.jpg,beads35.jpg,nogoal,NULL
1687281696,ef443c112801c053601356f9d460fa9a,PennController,14,0,experiment,NULL,Video,progression,buffer,0.003633,1687281551848,5f973544373a810cfca320f7,5f973544373a810cfca320f7,11,beads,critical,C,25,beads15.jpg,beads35.jpg,nogoal,NULL
1687281696,ef443c112801c053601356f9d460fa9a,PennController,14,0,experiment,NULL,Selector,choice,Selection,option1,1687281556586,5f973544373a810cfca320f7,5f973544373a810cfca320f7,11,beads,critical,C,25,beads15.jpg,beads35.jpg,nogoal,option2;option1
1687281696,ef443c112801c053601356f9d460fa9a,PennController,14,0,experiment,NULL,PennController,13,_Trial_,End,1687281556586,5f973544373a810cfca320f7,5f973544373a810cfca320f7,11,beads,critical,C,25,beads15.jpg,beads35.jpg,nogoal,NULL
1687281696,ef443c112801c053601356f9d460fa9a,PennController,23,0,experiment,NULL,PennController,22,_Trial_,Start,1687281556587,5f973544373a810cfca320f7,5f973544373a810cfca320f7,20,cat,filler,C,25,cat15.jpg,cat35.jpg,nogoal,NULL
1687281696,ef443c112801c053601356f9d460fa9a,PennController,23,0,experiment,NULL,PennController,22,_Header_,Start,1687281556587,5f973544373a810cfca320f7,5f973544373a810cfca320f7,20,cat,filler,C,25,cat15.jpg,cat35.jpg,nogoal,NULL
1687281696,ef443c112801c053601356f9d460fa9a,PennController,23,0,experiment,NULL,PennController,22,_Header_,End,1687281556587,5f973544373a810cfca320f7,5f973544373a810cfca320f7,20,cat,filler,C,25,cat15.jpg,cat35.jpg,nogoal,NULL
1687281696,ef443c112801c053601356f9d460fa9a,PennController,23,0,experiment,NULL,Canvas,canvas6,Print,NA,1687281560298,5f973544373a810cfca320f7,5f973544373a810cfca320f7,20,cat,filler,C,25,cat15.jpg,cat35.jpg,nogoal,NULL
1687281696,ef443c112801c053601356f9d460fa9a,PennController,23,0,experiment,NULL,Video,progression,buffer,0.004442,1687281558103,5f973544373a810cfca320f7,5f973544373a810cfca320f7,20,cat,filler,C,25,cat15.jpg,cat35.jpg,nogoal,NULL
1687281696,ef443c112801c053601356f9d460fa9a,PennController,23,0,experiment,NULL,Selector,choice,Selection,option2,1687281561960,5f973544373a810cfca320f7,5f973544373a810cfca320f7,20,cat,filler,C,25,cat15.jpg,cat35.jpg,nogoal,option1;option2
1687281696,ef443c112801c053601356f9d460fa9a,PennController,23,0,experiment,NULL,PennController,22,_Trial_,End,1687281561961,5f973544373a810cfca320f7,5f973544373a810cfca320f7,20,cat,filler,C,25,cat15.jpg,cat35.jpg,nogoal,NULL
1687281696,ef443c112801c053601356f9d460fa9a,PennController,15,0,experiment,NULL,PennController,14,_Trial_,Start,1687281561962,5f973544373a810cfca320f7,5f973544373a810cfca320f7,12,erase,critical,C,50,erase42.jpg,erase60.jpg,nogoal,NULL
1687281696,ef443c112801c053601356f9d460fa9a,PennController,15,0,experiment,NULL,PennController,14,_Header_,Start,1687281561962,5f973544373a810cfca320f7,5f973544373a810cfca320f7,12,erase,critical,C,50,erase42.jpg,erase60.jpg,nogoal,NULL
1687281696,ef443c112801c053601356f9d460fa9a,PennController,15,0,experiment,NULL,PennController,14,_Header_,End,1687281561962,5f973544373a810cfca320f7,5f973544373a810cfca320f7,12,erase,critical,C,50,erase42.jpg,erase60.jpg,nogoal,NULL
1687281696,ef443c112801c053601356f9d460fa9a,PennController,15,0,experiment,NULL,Canvas,canvas6,Print,NA,1687281568084,5f973544373a810cfca320f7,5f973544373a810cfca320f7,12,erase,critical,C,50,erase42.jpg,erase60.jpg,nogoal,NULL
1687281696,ef443c112801c053601356f9d460fa9a,PennController,15,0,experiment,NULL,Video,progression,buffer,0.007781,1687281563490,5f973544373a810cfca320f7,5f973544373a810cfca320f7,12,erase,critical,C,50,erase42.jpg,erase60.jpg,nogoal,NULL
1687281696,ef443c112801c053601356f9d460fa9a,PennController,15,0,experiment,NULL,Selector,choice,Selection,option2,1687281570069,5f973544373a810cfca320f7,5f973544373a810cfca320f7,12,erase,critical,C,50,erase42.jpg,erase60.jpg,nogoal,option1;option2
1687281696,ef443c112801c053601356f9d460fa9a,PennController,15,0,experiment,NULL,PennController,14,_Trial_,End,1687281570070,5f973544373a810cfca320f7,5f973544373a810cfca320f7,12,erase,critical,C,50,erase42.jpg,erase60.jpg,nogoal,NULL
1687281696,ef443c112801c053601356f9d460fa9a,PennController,17,0,experiment,NULL,PennController,16,_Trial_,Start,1687281570070,5f973544373a810cfca320f7,5f973544373a810cfca320f7,14,cover,critical,C,25,cover15.jpg,cover33.jpg,nogoal,NULL
1687281696,ef443c112801c053601356f9d460fa9a,PennController,17,0,experiment,NULL,PennController,16,_Header_,Start,1687281570070,5f973544373a810cfca320f7,5f973544373a810cfca320f7,14,cover,critical,C,25,cover15.jpg,cover33.jpg,nogoal,NULL
1687281696,ef443c112801c053601356f9d460fa9a,PennController,17,0,experiment,NULL,PennController,16,_Header_,End,1687281570070,5f973544373a810cfca320f7,5f973544373a810cfca320f7,14,cover,critical,C,25,cover15.jpg,cover33.jpg,nogoal,NULL
1687281696,ef443c112801c053601356f9d460fa9a,PennController,17,0,experiment,NULL,Canvas,canvas6,Print,NA,1687281574395,5f973544373a810cfca320f7,5f973544373a810cfca320f7,14,cover,critical,C,25,cover15.jpg,cover33.jpg,nogoal,NULL
1687281696,ef443c112801c053601356f9d460fa9a,PennController,17,0,experiment,NULL,Video,progression,buffer,0.00873,1687281571598,5f973544373a810cfca320f7,5f973544373a810cfca320f7,14,cover,critical,C,25,cover15.jpg,cover33.jpg,nogoal,NULL
1687281696,ef443c112801c053601356f9d460fa9a,PennController,17,0,experiment,NULL,Selector,choice,Selection,option2,1687281575615,5f973544373a810cfca320f7,5f973544373a810cfca320f7,14,cover,critical,C,25,cover15.jpg,cover33.jpg,nogoal,option1;option2
1687281696,ef443c112801c053601356f9d460fa9a,PennController,17,0,experiment,NULL,PennController,16,_Trial_,End,1687281575616,5f973544373a810cfca320f7,5f973544373a810cfca320f7,14,cover,critical,C,25,cover15.jpg,cover33.jpg,nogoal,NULL
1687281696,ef443c112801c053601356f9d460fa9a,PennController,32,0,experiment,NULL,PennController,31,_Trial_,Start,1687281575616,5f973544373a810cfca320f7,5f973544373a810cfca320f7,29,frog,filler,C,25,frog15.jpg,frog35.jpg,nogoal,NULL
1687281696,ef443c112801c053601356f9d460fa9a,PennController,32,0,experiment,NULL,PennController,31,_Header_,Start,1687281575616,5f973544373a810cfca320f7,5f973544373a810cfca320f7,29,frog,filler,C,25,frog15.jpg,frog35.jpg,nogoal,NULL
1687281696,ef443c112801c053601356f9d460fa9a,PennController,32,0,experiment,NULL,PennController,31,_Header_,End,1687281575617,5f973544373a810cfca320f7,5f973544373a810cfca320f7,29,frog,filler,C,25,frog15.jpg,frog35.jpg,nogoal,NULL
1687281696,ef443c112801c053601356f9d460fa9a,PennController,32,0,experiment,NULL,Canvas,canvas6,Print,NA,1687281579327,5f973544373a810cfca320f7,5f973544373a810cfca320f7,29,frog,filler,C,25,frog15.jpg,frog35.jpg,nogoal,NULL
1687281696,ef443c112801c053601356f9d460fa9a,PennController,32,0,experiment,NULL,Video,progression,buffer,0.005488,1687281577139,5f973544373a810cfca320f7,5f973544373a810cfca320f7,29,frog,filler,C,25,frog15.jpg,frog35.jpg,nogoal,NULL
1687281696,ef443c112801c053601356f9d460fa9a,PennController,32,0,experiment,NULL,Selector,choice,Selection,option2,1687281580148,5f973544373a810cfca320f7,5f973544373a810cfca320f7,29,frog,filler,C,25,frog15.jpg,frog35.jpg,nogoal,option1;option2
1687281696,ef443c112801c053601356f9d460fa9a,PennController,32,0,experiment,NULL,PennController,31,_Trial_,End,1687281580148,5f973544373a810cfca320f7,5f973544373a810cfca320f7,29,frog,filler,C,25,frog15.jpg,frog35.jpg,nogoal,NULL
1687281696,ef443c112801c053601356f9d460fa9a,PennController,19,0,experiment,NULL,PennController,18,_Trial_,Start,1687281580149,5f973544373a810cfca320f7,5f973544373a810cfca320f7,16,blinds,critical,C,75,blinds66.jpg,blinds84.jpg,nogoal,NULL
1687281696,ef443c112801c053601356f9d460fa9a,PennController,19,0,experiment,NULL,PennController,18,_Header_,Start,1687281580149,5f973544373a810cfca320f7,5f973544373a810cfca320f7,16,blinds,critical,C,75,blinds66.jpg,blinds84.jpg,nogoal,NULL
1687281696,ef443c112801c053601356f9d460fa9a,PennController,19,0,experiment,NULL,PennController,18,_Header_,End,1687281580149,5f973544373a810cfca320f7,5f973544373a810cfca320f7,16,blinds,critical,C,75,blinds66.jpg,blinds84.jpg,nogoal,NULL
1687281696,ef443c112801c053601356f9d460fa9a,PennController,19,0,experiment,NULL,Canvas,canvas6,Print,NA,1687281587869,5f973544373a810cfca320f7,5f973544373a810cfca320f7,16,blinds,critical,C,75,blinds66.jpg,blinds84.jpg,nogoal,NULL
1687281696,ef443c112801c053601356f9d460fa9a,PennController,19,0,experiment,NULL,Video,progression,buffer,0.009006,1687281581676,5f973544373a810cfca320f7,5f973544373a810cfca320f7,16,blinds,critical,C,75,blinds66.jpg,blinds84.jpg,nogoal,NULL
1687281696,ef443c112801c053601356f9d460fa9a,PennController,19,0,experiment,NULL,Selector,choice,Selection,option2,1687281591453,5f973544373a810cfca320f7,5f973544373a810cfca320f7,16,blinds,critical,C,75,blinds66.jpg,blinds84.jpg,nogoal,option1;option2
1687281696,ef443c112801c053601356f9d460fa9a,PennController,19,0,experiment,NULL,PennController,18,_Trial_,End,1687281591454,5f973544373a810cfca320f7,5f973544373a810cfca320f7,16,blinds,critical,C,75,blinds66.jpg,blinds84.jpg,nogoal,NULL
1687281696,ef443c112801c053601356f9d460fa9a,PennController,27,0,experiment,NULL,PennController,26,_Trial_,Start,1687281591454,5f973544373a810cfca320f7,5f973544373a810cfca320f7,24,match,filler,C,50,match40.jpg,match60.jpg,nogoal,NULL
1687281696,ef443c112801c053601356f9d460fa9a,PennController,27,0,experiment,NULL,PennController,26,_Header_,Start,1687281591454,5f973544373a810cfca320f7,5f973544373a810cfca320f7,24,match,filler,C,50,match40.jpg,match60.jpg,nogoal,NULL
1687281696,ef443c112801c053601356f9d460fa9a,PennController,27,0,experiment,NULL,PennController,26,_Header_,End,1687281591454,5f973544373a810cfca320f7,5f973544373a810cfca320f7,24,match,filler,C,50,match40.jpg,match60.jpg,nogoal,NULL
1687281696,ef443c112801c053601356f9d460fa9a,PennController,27,0,experiment,NULL,Canvas,canvas6,Print,NA,1687281596178,5f973544373a810cfca320f7,5f973544373a810cfca320f7,24,match,filler,C,50,match40.jpg,match60.jpg,nogoal,NULL
1687281696,ef443c112801c053601356f9d460fa9a,PennController,27,0,experiment,NULL,Video,progression,buffer,0.013237,1687281592990,5f973544373a810cfca320f7,5f973544373a810cfca320f7,24,match,filler,C,50,match40.jpg,match60.jpg,nogoal,NULL
1687281696,ef443c112801c053601356f9d460fa9a,PennController,27,0,experiment,NULL,Selector,choice,Selection,option2,1687281600159,5f973544373a810cfca320f7,5f973544373a810cfca320f7,24,match,filler,C,50,match40.jpg,match60.jpg,nogoal,option2;option1
1687281696,ef443c112801c053601356f9d460fa9a,PennController,27,0,experiment,NULL,PennController,26,_Trial_,End,1687281600159,5f973544373a810cfca320f7,5f973544373a810cfca320f7,24,match,filler,C,50,match40.jpg,match60.jpg,nogoal,NULL
1687281696,ef443c112801c053601356f9d460fa9a,PennController,22,0,experiment,NULL,PennController,21,_Trial_,Start,1687281600160,5f973544373a810cfca320f7,5f973544373a810cfca320f7,19,cup,filler,C,75,cup65.jpg,cup85.jpg,nogoal,NULL
1687281696,ef443c112801c053601356f9d460fa9a,PennController,22,0,experiment,NULL,PennController,21,_Header_,Start,1687281600160,5f973544373a810cfca320f7,5f973544373a810cfca320f7,19,cup,filler,C,75,cup65.jpg,cup85.jpg,nogoal,NULL
1687281696,ef443c112801c053601356f9d460fa9a,PennController,22,0,experiment,NULL,PennController,21,_Header_,End,1687281600160,5f973544373a810cfca320f7,5f973544373a810cfca320f7,19,cup,filler,C,75,cup65.jpg,cup85.jpg,nogoal,NULL
1687281696,ef443c112801c053601356f9d460fa9a,PennController,22,0,experiment,NULL,Canvas,canvas6,Print,NA,1687281605880,5f973544373a810cfca320f7,5f973544373a810cfca320f7,19,cup,filler,C,75,cup65.jpg,cup85.jpg,nogoal,NULL
1687281696,ef443c112801c053601356f9d460fa9a,PennController,22,0,experiment,NULL,Video,progression,buffer,0.008125,1687281601691,5f973544373a810cfca320f7,5f973544373a810cfca320f7,19,cup,filler,C,75,cup65.jpg,cup85.jpg,nogoal,NULL
1687281696,ef443c112801c053601356f9d460fa9a,PennController,22,0,experiment,NULL,Selector,choice,Selection,option1,1687281607249,5f973544373a810cfca320f7,5f973544373a810cfca320f7,19,cup,filler,C,75,cup65.jpg,cup85.jpg,nogoal,option1;option2
1687281696,ef443c112801c053601356f9d460fa9a,PennController,22,0,experiment,NULL,PennController,21,_Trial_,End,1687281607249,5f973544373a810cfca320f7,5f973544373a810cfca320f7,19,cup,filler,C,75,cup65.jpg,cup85.jpg,nogoal,NULL
1687281696,ef443c112801c053601356f9d460fa9a,PennController,26,0,experiment,NULL,PennController,25,_Trial_,Start,1687281607250,5f973544373a810cfca320f7,5f973544373a810cfca320f7,23,color,filler,C,25,color15.jpg,color35.jpg,nogoal,NULL
1687281696,ef443c112801c053601356f9d460fa9a,PennController,26,0,experiment,NULL,PennController,25,_Header_,Start,1687281607250,5f973544373a810cfca320f7,5f973544373a810cfca320f7,23,color,filler,C,25,color15.jpg,color35.jpg,nogoal,NULL
1687281696,ef443c112801c053601356f9d460fa9a,PennController,26,0,experiment,NULL,PennController,25,_Header_,End,1687281607250,5f973544373a810cfca320f7,5f973544373a810cfca320f7,23,color,filler,C,25,color15.jpg,color35.jpg,nogoal,NULL
1687281696,ef443c112801c053601356f9d460fa9a,PennController,26,0,experiment,NULL,Canvas,canvas6,Print,NA,1687281610960,5f973544373a810cfca320f7,5f973544373a810cfca320f7,23,color,filler,C,25,color15.jpg,color35.jpg,nogoal,NULL
1687281696,ef443c112801c053601356f9d460fa9a,PennController,26,0,experiment,NULL,Video,progression,buffer,0.001763,1687281608762,5f973544373a810cfca320f7,5f973544373a810cfca320f7,23,color,filler,C,25,color15.jpg,color35.jpg,nogoal,NULL
1687281696,ef443c112801c053601356f9d460fa9a,PennController,26,0,experiment,NULL,Selector,choice,Selection,option2,1687281617096,5f973544373a810cfca320f7,5f973544373a810cfca320f7,23,color,filler,C,25,color15.jpg,color35.jpg,nogoal,option2;option1
1687281696,ef443c112801c053601356f9d460fa9a,PennController,26,0,experiment,NULL,PennController,25,_Trial_,End,1687281617097,5f973544373a810cfca320f7,5f973544373a810cfca320f7,23,color,filler,C,25,color15.jpg,color35.jpg,nogoal,NULL
1687281696,ef443c112801c053601356f9d460fa9a,PennController,18,0,experiment,NULL,PennController,17,_Trial_,Start,1687281617098,5f973544373a810cfca320f7,5f973544373a810cfca320f7,15,zip,critical,C,50,zip40.jpg,zip60.jpg,nogoal,NULL
1687281696,ef443c112801c053601356f9d460fa9a,PennController,18,0,experiment,NULL,PennController,17,_Header_,Start,1687281617098,5f973544373a810cfca320f7,5f973544373a810cfca320f7,15,zip,critical,C,50,zip40.jpg,zip60.jpg,nogoal,NULL
1687281696,ef443c112801c053601356f9d460fa9a,PennController,18,0,experiment,NULL,PennController,17,_Header_,End,1687281617098,5f973544373a810cfca320f7,5f973544373a810cfca320f7,15,zip,critical,C,50,zip40.jpg,zip60.jpg,nogoal,NULL
1687281696,ef443c112801c053601356f9d460fa9a,PennController,18,0,experiment,NULL,Canvas,canvas6,Print,NA,1687281621804,5f973544373a810cfca320f7,5f973544373a810cfca320f7,15,zip,critical,C,50,zip40.jpg,zip60.jpg,nogoal,NULL
1687281696,ef443c112801c053601356f9d460fa9a,PennController,18,0,experiment,NULL,Video,progression,buffer,0.0022,1687281618609,5f973544373a810cfca320f7,5f973544373a810cfca320f7,15,zip,critical,C,50,zip40.jpg,zip60.jpg,nogoal,NULL
1687281696,ef443c112801c053601356f9d460fa9a,PennController,18,0,experiment,NULL,Selector,choice,Selection,option2,1687281623183,5f973544373a810cfca320f7,5f973544373a810cfca320f7,15,zip,critical,C,50,zip40.jpg,zip60.jpg,nogoal,option2;option1
1687281696,ef443c112801c053601356f9d460fa9a,PennController,18,0,experiment,NULL,PennController,17,_Trial_,End,1687281623184,5f973544373a810cfca320f7,5f973544373a810cfca320f7,15,zip,critical,C,50,zip40.jpg,zip60.jpg,nogoal,NULL
1687281696,ef443c112801c053601356f9d460fa9a,PennController,5,0,experiment,NULL,PennController,4,_Trial_,Start,1687281623184,5f973544373a810cfca320f7,5f973544373a810cfca320f7,2,door,critical,C,25,door15.jpg,door35.jpg,nogoal,NULL
1687281696,ef443c112801c053601356f9d460fa9a,PennController,5,0,experiment,NULL,PennController,4,_Header_,Start,1687281623184,5f973544373a810cfca320f7,5f973544373a810cfca320f7,2,door,critical,C,25,door15.jpg,door35.jpg,nogoal,NULL
1687281696,ef443c112801c053601356f9d460fa9a,PennController,5,0,experiment,NULL,PennController,4,_Header_,End,1687281623184,5f973544373a810cfca320f7,5f973544373a810cfca320f7,2,door,critical,C,25,door15.jpg,door35.jpg,nogoal,NULL
1687281696,ef443c112801c053601356f9d460fa9a,PennController,5,0,experiment,NULL,Canvas,canvas6,Print,NA,1687281626887,5f973544373a810cfca320f7,5f973544373a810cfca320f7,2,door,critical,C,25,door15.jpg,door35.jpg,nogoal,NULL
1687281696,ef443c112801c053601356f9d460fa9a,PennController,5,0,experiment,NULL,Video,progression,buffer,0.00138,1687281624692,5f973544373a810cfca320f7,5f973544373a810cfca320f7,2,door,critical,C,25,door15.jpg,door35.jpg,nogoal,NULL
1687281696,ef443c112801c053601356f9d460fa9a,PennController,5,0,experiment,NULL,Selector,choice,Selection,option2,1687281629116,5f973544373a810cfca320f7,5f973544373a810cfca320f7,2,door,critical,C,25,door15.jpg,door35.jpg,nogoal,option2;option1
1687281696,ef443c112801c053601356f9d460fa9a,PennController,5,0,experiment,NULL,PennController,4,_Trial_,End,1687281629117,5f973544373a810cfca320f7,5f973544373a810cfca320f7,2,door,critical,C,25,door15.jpg,door35.jpg,nogoal,NULL
1687281696,ef443c112801c053601356f9d460fa9a,PennController,28,0,experiment,NULL,PennController,27,_Trial_,Start,1687281629117,5f973544373a810cfca320f7,5f973544373a810cfca320f7,25,house,filler,C,75,house65.jpg,house85.jpg,nogoal,NULL
1687281696,ef443c112801c053601356f9d460fa9a,PennController,28,0,experiment,NULL,PennController,27,_Header_,Start,1687281629117,5f973544373a810cfca320f7,5f973544373a810cfca320f7,25,house,filler,C,75,house65.jpg,house85.jpg,nogoal,NULL
1687281696,ef443c112801c053601356f9d460fa9a,PennController,28,0,experiment,NULL,PennController,27,_Header_,End,1687281629117,5f973544373a810cfca320f7,5f973544373a810cfca320f7,25,house,filler,C,75,house65.jpg,house85.jpg,nogoal,NULL
1687281696,ef443c112801c053601356f9d460fa9a,PennController,28,0,experiment,NULL,Canvas,canvas6,Print,NA,1687281634826,5f973544373a810cfca320f7,5f973544373a810cfca320f7,25,house,filler,C,75,house65.jpg,house85.jpg,nogoal,NULL
1687281696,ef443c112801c053601356f9d460fa9a,PennController,28,0,experiment,NULL,Video,progression,buffer,0.01145,1687281630648,5f973544373a810cfca320f7,5f973544373a810cfca320f7,25,house,filler,C,75,house65.jpg,house85.jpg,nogoal,NULL
1687281696,ef443c112801c053601356f9d460fa9a,PennController,28,0,experiment,NULL,Selector,choice,Selection,option2,1687281637049,5f973544373a810cfca320f7,5f973544373a810cfca320f7,25,house,filler,C,75,house65.jpg,house85.jpg,nogoal,option1;option2
1687281696,ef443c112801c053601356f9d460fa9a,PennController,28,0,experiment,NULL,PennController,27,_Trial_,End,1687281637049,5f973544373a810cfca320f7,5f973544373a810cfca320f7,25,house,filler,C,75,house65.jpg,house85.jpg,nogoal,NULL
1687281696,ef443c112801c053601356f9d460fa9a,PennController,30,0,experiment,NULL,PennController,29,_Trial_,Start,1687281637050,5f973544373a810cfca320f7,5f973544373a810cfca320f7,27,square,filler,C,50,square40.jpg,square60.jpg,nogoal,NULL
1687281696,ef443c112801c053601356f9d460fa9a,PennController,30,0,experiment,NULL,PennController,29,_Header_,Start,1687281637050,5f973544373a810cfca320f7,5f973544373a810cfca320f7,27,square,filler,C,50,square40.jpg,square60.jpg,nogoal,NULL
1687281696,ef443c112801c053601356f9d460fa9a,PennController,30,0,experiment,NULL,PennController,29,_Header_,End,1687281637050,5f973544373a810cfca320f7,5f973544373a810cfca320f7,27,square,filler,C,50,square40.jpg,square60.jpg,nogoal,NULL
1687281696,ef443c112801c053601356f9d460fa9a,PennController,30,0,experiment,NULL,Canvas,canvas6,Print,NA,1687281641777,5f973544373a810cfca320f7,5f973544373a810cfca320f7,27,square,filler,C,50,square40.jpg,square60.jpg,nogoal,NULL
1687281696,ef443c112801c053601356f9d460fa9a,PennController,30,0,experiment,NULL,Video,progression,buffer,0.00533,1687281638575,5f973544373a810cfca320f7,5f973544373a810cfca320f7,27,square,filler,C,50,square40.jpg,square60.jpg,nogoal,NULL
1687281696,ef443c112801c053601356f9d460fa9a,PennController,30,0,experiment,NULL,Selector,choice,Selection,option2,1687281642943,5f973544373a810cfca320f7,5f973544373a810cfca320f7,27,square,filler,C,50,square40.jpg,square60.jpg,nogoal,option2;option1
1687281696,ef443c112801c053601356f9d460fa9a,PennController,30,0,experiment,NULL,PennController,29,_Trial_,End,1687281642943,5f973544373a810cfca320f7,5f973544373a810cfca320f7,27,square,filler,C,50,square40.jpg,square60.jpg,nogoal,NULL
1687281696,ef443c112801c053601356f9d460fa9a,PennController,6,0,experiment,NULL,PennController,5,_Trial_,Start,1687281642944,5f973544373a810cfca320f7,5f973544373a810cfca320f7,3,clean,critical,C,50,clean40.jpg,clean60.jpg,nogoal,NULL
1687281696,ef443c112801c053601356f9d460fa9a,PennController,6,0,experiment,NULL,PennController,5,_Header_,Start,1687281642944,5f973544373a810cfca320f7,5f973544373a810cfca320f7,3,clean,critical,C,50,clean40.jpg,clean60.jpg,nogoal,NULL
1687281696,ef443c112801c053601356f9d460fa9a,PennController,6,0,experiment,NULL,PennController,5,_Header_,End,1687281642944,5f973544373a810cfca320f7,5f973544373a810cfca320f7,3,clean,critical,C,50,clean40.jpg,clean60.jpg,nogoal,NULL
1687281696,ef443c112801c053601356f9d460fa9a,PennController,6,0,experiment,NULL,Canvas,canvas6,Print,NA,1687281647666,5f973544373a810cfca320f7,5f973544373a810cfca320f7,3,clean,critical,C,50,clean40.jpg,clean60.jpg,nogoal,NULL
1687281696,ef443c112801c053601356f9d460fa9a,PennController,6,0,experiment,NULL,Video,progression,buffer,0.009574,1687281644474,5f973544373a810cfca320f7,5f973544373a810cfca320f7,3,clean,critical,C,50,clean40.jpg,clean60.jpg,nogoal,NULL
1687281696,ef443c112801c053601356f9d460fa9a,PennController,6,0,experiment,NULL,Selector,choice,Selection,option2,1687281650490,5f973544373a810cfca320f7,5f973544373a810cfca320f7,3,clean,critical,C,50,clean40.jpg,clean60.jpg,nogoal,option2;option1
1687281696,ef443c112801c053601356f9d460fa9a,PennController,6,0,experiment,NULL,PennController,5,_Trial_,End,1687281650491,5f973544373a810cfca320f7,5f973544373a810cfca320f7,3,clean,critical,C,50,clean40.jpg,clean60.jpg,nogoal,NULL
1687281696,ef443c112801c053601356f9d460fa9a,PennController,10,0,experiment,NULL,PennController,9,_Trial_,Start,1687281650492,5f973544373a810cfca320f7,5f973544373a810cfca320f7,7,stack,critical,C,75,stack65.jpg,stack85.jpg,nogoal,NULL
1687281696,ef443c112801c053601356f9d460fa9a,PennController,10,0,experiment,NULL,PennController,9,_Header_,Start,1687281650492,5f973544373a810cfca320f7,5f973544373a810cfca320f7,7,stack,critical,C,75,stack65.jpg,stack85.jpg,nogoal,NULL
1687281696,ef443c112801c053601356f9d460fa9a,PennController,10,0,experiment,NULL,PennController,9,_Header_,End,1687281650492,5f973544373a810cfca320f7,5f973544373a810cfca320f7,7,stack,critical,C,75,stack65.jpg,stack85.jpg,nogoal,NULL
1687281696,ef443c112801c053601356f9d460fa9a,PennController,10,0,experiment,NULL,Canvas,canvas6,Print,NA,1687281656196,5f973544373a810cfca320f7,5f973544373a810cfca320f7,7,stack,critical,C,75,stack65.jpg,stack85.jpg,nogoal,NULL
1687281696,ef443c112801c053601356f9d460fa9a,PennController,10,0,experiment,NULL,Video,progression,buffer,0.001491,1687281652000,5f973544373a810cfca320f7,5f973544373a810cfca320f7,7,stack,critical,C,75,stack65.jpg,stack85.jpg,nogoal,NULL
1687281696,ef443c112801c053601356f9d460fa9a,PennController,10,0,experiment,NULL,Selector,choice,Selection,option1,1687281657666,5f973544373a810cfca320f7,5f973544373a810cfca320f7,7,stack,critical,C,75,stack65.jpg,stack85.jpg,nogoal,option2;option1
1687281696,ef443c112801c053601356f9d460fa9a,PennController,10,0,experiment,NULL,PennController,9,_Trial_,End,1687281657666,5f973544373a810cfca320f7,5f973544373a810cfca320f7,7,stack,critical,C,75,stack65.jpg,stack85.jpg,nogoal,NULL
1687281696,ef443c112801c053601356f9d460fa9a,PennController,12,0,experiment,NULL,PennController,11,_Trial_,Start,1687281657667,5f973544373a810cfca320f7,5f973544373a810cfca320f7,9,cake,critical,C,50,cake42.jpg,cake60.jpg,nogoal,NULL
1687281696,ef443c112801c053601356f9d460fa9a,PennController,12,0,experiment,NULL,PennController,11,_Header_,Start,1687281657667,5f973544373a810cfca320f7,5f973544373a810cfca320f7,9,cake,critical,C,50,cake42.jpg,cake60.jpg,nogoal,NULL
1687281696,ef443c112801c053601356f9d460fa9a,PennController,12,0,experiment,NULL,PennController,11,_Header_,End,1687281657667,5f973544373a810cfca320f7,5f973544373a810cfca320f7,9,cake,critical,C,50,cake42.jpg,cake60.jpg,nogoal,NULL
1687281696,ef443c112801c053601356f9d460fa9a,PennController,12,0,experiment,NULL,Canvas,canvas6,Print,NA,1687281663782,5f973544373a810cfca320f7,5f973544373a810cfca320f7,9,cake,critical,C,50,cake42.jpg,cake60.jpg,nogoal,NULL
1687281696,ef443c112801c053601356f9d460fa9a,PennController,12,0,experiment,NULL,Video,progression,buffer,0.009627,1687281659190,5f973544373a810cfca320f7,5f973544373a810cfca320f7,9,cake,critical,C,50,cake42.jpg,cake60.jpg,nogoal,NULL
1687281696,ef443c112801c053601356f9d460fa9a,PennController,12,0,experiment,NULL,Selector,choice,Selection,option2,1687281664867,5f973544373a810cfca320f7,5f973544373a810cfca320f7,9,cake,critical,C,50,cake42.jpg,cake60.jpg,nogoal,option1;option2
1687281696,ef443c112801c053601356f9d460fa9a,PennController,12,0,experiment,NULL,PennController,11,_Trial_,End,1687281664867,5f973544373a810cfca320f7,5f973544373a810cfca320f7,9,cake,critical,C,50,cake42.jpg,cake60.jpg,nogoal,NULL
1687281696,ef443c112801c053601356f9d460fa9a,PennController,9,0,experiment,NULL,PennController,8,_Trial_,Start,1687281664868,5f973544373a810cfca320f7,5f973544373a810cfca320f7,6,flower,critical,C,50,flower40.jpg,flower60.jpg,nogoal,NULL
1687281696,ef443c112801c053601356f9d460fa9a,PennController,9,0,experiment,NULL,PennController,8,_Header_,Start,1687281664868,5f973544373a810cfca320f7,5f973544373a810cfca320f7,6,flower,critical,C,50,flower40.jpg,flower60.jpg,nogoal,NULL
1687281696,ef443c112801c053601356f9d460fa9a,PennController,9,0,experiment,NULL,PennController,8,_Header_,End,1687281664868,5f973544373a810cfca320f7,5f973544373a810cfca320f7,6,flower,critical,C,50,flower40.jpg,flower60.jpg,nogoal,NULL
1687281696,ef443c112801c053601356f9d460fa9a,PennController,9,0,experiment,NULL,Canvas,canvas6,Print,NA,1687281669567,5f973544373a810cfca320f7,5f973544373a810cfca320f7,6,flower,critical,C,50,flower40.jpg,flower60.jpg,nogoal,NULL
1687281696,ef443c112801c053601356f9d460fa9a,PennController,9,0,experiment,NULL,Video,progression,buffer,0.002748,1687281666379,5f973544373a810cfca320f7,5f973544373a810cfca320f7,6,flower,critical,C,50,flower40.jpg,flower60.jpg,nogoal,NULL
1687281696,ef443c112801c053601356f9d460fa9a,PennController,9,0,experiment,NULL,Selector,choice,Selection,option1,1687281671311,5f973544373a810cfca320f7,5f973544373a810cfca320f7,6,flower,critical,C,50,flower40.jpg,flower60.jpg,nogoal,option1;option2
1687281696,ef443c112801c053601356f9d460fa9a,PennController,9,0,experiment,NULL,PennController,8,_Trial_,End,1687281671311,5f973544373a810cfca320f7,5f973544373a810cfca320f7,6,flower,critical,C,50,flower40.jpg,flower60.jpg,nogoal,NULL
1687281696,ef443c112801c053601356f9d460fa9a,PennController,31,0,experiment,NULL,PennController,30,_Trial_,Start,1687281671312,5f973544373a810cfca320f7,5f973544373a810cfca320f7,28,sort,filler,C,75,sort65.jpg,sort85.jpg,nogoal,NULL
1687281696,ef443c112801c053601356f9d460fa9a,PennController,31,0,experiment,NULL,PennController,30,_Header_,Start,1687281671312,5f973544373a810cfca320f7,5f973544373a810cfca320f7,28,sort,filler,C,75,sort65.jpg,sort85.jpg,nogoal,NULL
1687281696,ef443c112801c053601356f9d460fa9a,PennController,31,0,experiment,NULL,PennController,30,_Header_,End,1687281671312,5f973544373a810cfca320f7,5f973544373a810cfca320f7,28,sort,filler,C,75,sort65.jpg,sort85.jpg,nogoal,NULL
1687281696,ef443c112801c053601356f9d460fa9a,PennController,31,0,experiment,NULL,Canvas,canvas6,Print,NA,1687281677031,5f973544373a810cfca320f7,5f973544373a810cfca320f7,28,sort,filler,C,75,sort65.jpg,sort85.jpg,nogoal,NULL
1687281696,ef443c112801c053601356f9d460fa9a,PennController,31,0,experiment,NULL,Video,progression,buffer,0.007013,1687281672836,5f973544373a810cfca320f7,5f973544373a810cfca320f7,28,sort,filler,C,75,sort65.jpg,sort85.jpg,nogoal,NULL
1687281696,ef443c112801c053601356f9d460fa9a,PennController,31,0,experiment,NULL,Selector,choice,Selection,option1,1687281678420,5f973544373a810cfca320f7,5f973544373a810cfca320f7,28,sort,filler,C,75,sort65.jpg,sort85.jpg,nogoal,option2;option1
1687281696,ef443c112801c053601356f9d460fa9a,PennController,31,0,experiment,NULL,PennController,30,_Trial_,End,1687281678420,5f973544373a810cfca320f7,5f973544373a810cfca320f7,28,sort,filler,C,75,sort65.jpg,sort85.jpg,nogoal,NULL
1687281696,ef443c112801c053601356f9d460fa9a,PennController,24,0,experiment,NULL,PennController,23,_Trial_,Start,1687281678421,5f973544373a810cfca320f7,5f973544373a810cfca320f7,21,visit,filler,C,50,visit40.jpg,visit60.jpg,nogoal,NULL
1687281696,ef443c112801c053601356f9d460fa9a,PennController,24,0,experiment,NULL,PennController,23,_Header_,Start,1687281678421,5f973544373a810cfca320f7,5f973544373a810cfca320f7,21,visit,filler,C,50,visit40.jpg,visit60.jpg,nogoal,NULL
1687281696,ef443c112801c053601356f9d460fa9a,PennController,24,0,experiment,NULL,PennController,23,_Header_,End,1687281678421,5f973544373a810cfca320f7,5f973544373a810cfca320f7,21,visit,filler,C,50,visit40.jpg,visit60.jpg,nogoal,NULL
1687281696,ef443c112801c053601356f9d460fa9a,PennController,24,0,experiment,NULL,Canvas,canvas6,Print,NA,1687281683129,5f973544373a810cfca320f7,5f973544373a810cfca320f7,21,visit,filler,C,50,visit40.jpg,visit60.jpg,nogoal,NULL
1687281696,ef443c112801c053601356f9d460fa9a,PennController,24,0,experiment,NULL,Video,progression,buffer,0.00738,1687281679946,5f973544373a810cfca320f7,5f973544373a810cfca320f7,21,visit,filler,C,50,visit40.jpg,visit60.jpg,nogoal,NULL
1687281696,ef443c112801c053601356f9d460fa9a,PennController,24,0,experiment,NULL,Selector,choice,Selection,option2,1687281684157,5f973544373a810cfca320f7,5f973544373a810cfca320f7,21,visit,filler,C,50,visit40.jpg,visit60.jpg,nogoal,option2;option1
1687281696,ef443c112801c053601356f9d460fa9a,PennController,24,0,experiment,NULL,PennController,23,_Trial_,End,1687281684158,5f973544373a810cfca320f7,5f973544373a810cfca320f7,21,visit,filler,C,50,visit40.jpg,visit60.jpg,nogoal,NULL
1687281696,ef443c112801c053601356f9d460fa9a,PennController,7,0,experiment,NULL,PennController,6,_Trial_,Start,1687281684159,5f973544373a810cfca320f7,5f973544373a810cfca320f7,4,candy,critical,C,75,candy65.jpg,candy85.jpg,nogoal,NULL
1687281696,ef443c112801c053601356f9d460fa9a,PennController,7,0,experiment,NULL,PennController,6,_Header_,Start,1687281684159,5f973544373a810cfca320f7,5f973544373a810cfca320f7,4,candy,critical,C,75,candy65.jpg,candy85.jpg,nogoal,NULL
1687281696,ef443c112801c053601356f9d460fa9a,PennController,7,0,experiment,NULL,PennController,6,_Header_,End,1687281684159,5f973544373a810cfca320f7,5f973544373a810cfca320f7,4,candy,critical,C,75,candy65.jpg,candy85.jpg,nogoal,NULL
1687281696,ef443c112801c053601356f9d460fa9a,PennController,7,0,experiment,NULL,Canvas,canvas6,Print,NA,1687281689880,5f973544373a810cfca320f7,5f973544373a810cfca320f7,4,candy,critical,C,75,candy65.jpg,candy85.jpg,nogoal,NULL
1687281696,ef443c112801c053601356f9d460fa9a,PennController,7,0,experiment,NULL,Video,progression,buffer,0.008175,1687281685685,5f973544373a810cfca320f7,5f973544373a810cfca320f7,4,candy,critical,C,75,candy65.jpg,candy85.jpg,nogoal,NULL
1687281696,ef443c112801c053601356f9d460fa9a,PennController,7,0,experiment,NULL,Selector,choice,Selection,option1,1687281691731,5f973544373a810cfca320f7,5f973544373a810cfca320f7,4,candy,critical,C,75,candy65.jpg,candy85.jpg,nogoal,option2;option1
1687281696,ef443c112801c053601356f9d460fa9a,PennController,7,0,experiment,NULL,PennController,6,_Trial_,End,1687281691731,5f973544373a810cfca320f7,5f973544373a810cfca320f7,4,candy,critical,C,75,candy65.jpg,candy85.jpg,nogoal,NULL
1687281696,ef443c112801c053601356f9d460fa9a,PennController,20,0,experiment,NULL,PennController,19,_Trial_,Start,1687281691732,5f973544373a810cfca320f7,5f973544373a810cfca320f7,17,roll,critical,C,25,roll15.jpg,roll35.jpg,nogoal,NULL
1687281696,ef443c112801c053601356f9d460fa9a,PennController,20,0,experiment,NULL,PennController,19,_Header_,Start,1687281691732,5f973544373a810cfca320f7,5f973544373a810cfca320f7,17,roll,critical,C,25,roll15.jpg,roll35.jpg,nogoal,NULL
1687281696,ef443c112801c053601356f9d460fa9a,PennController,20,0,experiment,NULL,PennController,19,_Header_,End,1687281691732,5f973544373a810cfca320f7,5f973544373a810cfca320f7,17,roll,critical,C,25,roll15.jpg,roll35.jpg,nogoal,NULL
1687281696,ef443c112801c053601356f9d460fa9a,PennController,20,0,experiment,NULL,Canvas,canvas6,Print,NA,1687281695446,5f973544373a810cfca320f7,5f973544373a810cfca320f7,17,roll,critical,C,25,roll15.jpg,roll35.jpg,nogoal,NULL
1687281696,ef443c112801c053601356f9d460fa9a,PennController,20,0,experiment,NULL,Video,progression,buffer,0.008164,1687281693257,5f973544373a810cfca320f7,5f973544373a810cfca320f7,17,roll,critical,C,25,roll15.jpg,roll35.jpg,nogoal,NULL
1687281696,ef443c112801c053601356f9d460fa9a,PennController,20,0,experiment,NULL,Selector,choice,Selection,option1,1687281696494,5f973544373a810cfca320f7,5f973544373a810cfca320f7,17,roll,critical,C,25,roll15.jpg,roll35.jpg,nogoal,option2;option1
1687281696,ef443c112801c053601356f9d460fa9a,PennController,20,0,experiment,NULL,PennController,19,_Trial_,End,1687281696495,5f973544373a810cfca320f7,5f973544373a810cfca320f7,17,roll,critical,C,25,roll15.jpg,roll35.jpg,nogoal,NULL
