#
# Results on Tuesday June 20 2023 17:37:28 UTC
# USER AGENT: Mozilla/5.0 (Windows NT 10.0; Win64; x64) AppleWebKit/537.36 (KHTML, like Gecko) Chrome/114.0.0.0 Safari/537.36
# Design number was non-random = 24
#
# Columns below this comment are as follows:
# 1. Results reception time.
# 2. MD5 hash of participant's IP address.
# 3. Controller name.
# 4. Order number of item.
# 5. Inner element number.
# 6. Label.
# 7. Latin Square Group.
# 8. PennElementType.
# 9. PennElementName.
# 10. Parameter.
# 11. Value.
# 12. EventTime.
# 13. PROLIFIC_ID.
# 14. Comments.
1687282648,293b7abe27bb5a2735f0c74bdf0338d3,PennController,2,0,consent,NULL,PennController,0,_Trial_,Start,1687281881932,613890a9bda2b664ca9dcf15,NULL
1687282648,293b7abe27bb5a2735f0c74bdf0338d3,PennController,2,0,consent,NULL,PennController,0,_Header_,Start,1687281881932,613890a9bda2b664ca9dcf15,NULL
1687282648,293b7abe27bb5a2735f0c74bdf0338d3,PennController,2,0,consent,NULL,PennController,0,_Header_,End,1687281881933,613890a9bda2b664ca9dcf15,NULL
1687282648,293b7abe27bb5a2735f0c74bdf0338d3,PennController,2,0,consent,NULL,PennController,0,_Trial_,End,1687281888863,613890a9bda2b664ca9dcf15,NULL
# Columns below this comment are as follows:
# 14. ID.
# 15. Comments.
1687282648,293b7abe27bb5a2735f0c74bdf0338d3,PennController,3,0,intro,NULL,PennController,1,_Trial_,Start,1687281888866,613890a9bda2b664ca9dcf15,613890a9bda2b664ca9dcf15,NULL
1687282648,293b7abe27bb5a2735f0c74bdf0338d3,PennController,3,0,intro,NULL,PennController,1,_Header_,Start,1687281888866,613890a9bda2b664ca9dcf15,613890a9bda2b664ca9dcf15,NULL
1687282648,293b7abe27bb5a2735f0c74bdf0338d3,PennController,3,0,intro,NULL,PennController,1,_Header_,End,1687281888866,613890a9bda2b664ca9dcf15,613890a9bda2b664ca9dcf15,NULL
1687282648,293b7abe27bb5a2735f0c74bdf0338d3,PennController,3,0,intro,NULL,PennController,1,_Trial_,End,1687281896010,613890a9bda2b664ca9dcf15,613890a9bda2b664ca9dcf15,NULL
# Columns below this comment are as follows:
# 15. item_number.
# 16. item.
# 17. type.
# 18. Group.
# 19. prog.
# 20. prev_image.
# 21. next_image.
# 22. height.
# 23. Comments.
1687282648,293b7abe27bb5a2735f0c74bdf0338d3,PennController,28,0,experiment,NULL,PennController,27,_Trial_,Start,1687281896011,613890a9bda2b664ca9dcf15,613890a9bda2b664ca9dcf15,25,house,filler,A,25,house15.jpg,house35.jpg,nogoal,NULL
1687282648,293b7abe27bb5a2735f0c74bdf0338d3,PennController,28,0,experiment,NULL,PennController,27,_Header_,Start,1687281896011,613890a9bda2b664ca9dcf15,613890a9bda2b664ca9dcf15,25,house,filler,A,25,house15.jpg,house35.jpg,nogoal,NULL
1687282648,293b7abe27bb5a2735f0c74bdf0338d3,PennController,28,0,experiment,NULL,PennController,27,_Header_,End,1687281896011,613890a9bda2b664ca9dcf15,613890a9bda2b664ca9dcf15,25,house,filler,A,25,house15.jpg,house35.jpg,nogoal,NULL
1687282648,293b7abe27bb5a2735f0c74bdf0338d3,PennController,28,0,experiment,NULL,Canvas,canvas6,Print,NA,1687281899715,613890a9bda2b664ca9dcf15,613890a9bda2b664ca9dcf15,25,house,filler,A,25,house15.jpg,house35.jpg,nogoal,NULL
1687282648,293b7abe27bb5a2735f0c74bdf0338d3,PennController,28,0,experiment,NULL,Video,progression,buffer,0.008508,1687281897542,613890a9bda2b664ca9dcf15,613890a9bda2b664ca9dcf15,25,house,filler,A,25,house15.jpg,house35.jpg,nogoal,NULL
1687282648,293b7abe27bb5a2735f0c74bdf0338d3,PennController,28,0,experiment,NULL,Selector,choice,Selection,option2,1687281901072,613890a9bda2b664ca9dcf15,613890a9bda2b664ca9dcf15,25,house,filler,A,25,house15.jpg,house35.jpg,nogoal,option2;option1
1687282648,293b7abe27bb5a2735f0c74bdf0338d3,PennController,28,0,experiment,NULL,PennController,27,_Trial_,End,1687281901074,613890a9bda2b664ca9dcf15,613890a9bda2b664ca9dcf15,25,house,filler,A,25,house15.jpg,house35.jpg,nogoal,NULL
1687282648,293b7abe27bb5a2735f0c74bdf0338d3,PennController,11,0,experiment,NULL,PennController,10,_Trial_,Start,1687281901076,613890a9bda2b664ca9dcf15,613890a9bda2b664ca9dcf15,8,cucumber,critical,A,50,cucumber42.jpg,cucumber60.jpg,nogoal,NULL
1687282648,293b7abe27bb5a2735f0c74bdf0338d3,PennController,11,0,experiment,NULL,PennController,10,_Header_,Start,1687281901076,613890a9bda2b664ca9dcf15,613890a9bda2b664ca9dcf15,8,cucumber,critical,A,50,cucumber42.jpg,cucumber60.jpg,nogoal,NULL
1687282648,293b7abe27bb5a2735f0c74bdf0338d3,PennController,11,0,experiment,NULL,PennController,10,_Header_,End,1687281901076,613890a9bda2b664ca9dcf15,613890a9bda2b664ca9dcf15,8,cucumber,critical,A,50,cucumber42.jpg,cucumber60.jpg,nogoal,NULL
1687282648,293b7abe27bb5a2735f0c74bdf0338d3,PennController,11,0,experiment,NULL,Canvas,canvas6,Print,NA,1687281907175,613890a9bda2b664ca9dcf15,613890a9bda2b664ca9dcf15,8,cucumber,critical,A,50,cucumber42.jpg,cucumber60.jpg,nogoal,NULL
1687282648,293b7abe27bb5a2735f0c74bdf0338d3,PennController,11,0,experiment,NULL,Video,progression,buffer,0.008153,1687281902610,613890a9bda2b664ca9dcf15,613890a9bda2b664ca9dcf15,8,cucumber,critical,A,50,cucumber42.jpg,cucumber60.jpg,nogoal,NULL
1687282648,293b7abe27bb5a2735f0c74bdf0338d3,PennController,11,0,experiment,NULL,Selector,choice,Selection,option1,1687281909308,613890a9bda2b664ca9dcf15,613890a9bda2b664ca9dcf15,8,cucumber,critical,A,50,cucumber42.jpg,cucumber60.jpg,nogoal,option2;option1
1687282648,293b7abe27bb5a2735f0c74bdf0338d3,PennController,11,0,experiment,NULL,PennController,10,_Trial_,End,1687281909310,613890a9bda2b664ca9dcf15,613890a9bda2b664ca9dcf15,8,cucumber,critical,A,50,cucumber42.jpg,cucumber60.jpg,nogoal,NULL
1687282648,293b7abe27bb5a2735f0c74bdf0338d3,PennController,20,0,experiment,NULL,PennController,19,_Trial_,Start,1687281909312,613890a9bda2b664ca9dcf15,613890a9bda2b664ca9dcf15,17,roll,critical,A,50,roll40.jpg,roll60.jpg,nogoal,NULL
1687282648,293b7abe27bb5a2735f0c74bdf0338d3,PennController,20,0,experiment,NULL,PennController,19,_Header_,Start,1687281909312,613890a9bda2b664ca9dcf15,613890a9bda2b664ca9dcf15,17,roll,critical,A,50,roll40.jpg,roll60.jpg,nogoal,NULL
1687282648,293b7abe27bb5a2735f0c74bdf0338d3,PennController,20,0,experiment,NULL,PennController,19,_Header_,End,1687281909312,613890a9bda2b664ca9dcf15,613890a9bda2b664ca9dcf15,17,roll,critical,A,50,roll40.jpg,roll60.jpg,nogoal,NULL
1687282648,293b7abe27bb5a2735f0c74bdf0338d3,PennController,20,0,experiment,NULL,Canvas,canvas6,Print,NA,1687281914012,613890a9bda2b664ca9dcf15,613890a9bda2b664ca9dcf15,17,roll,critical,A,50,roll40.jpg,roll60.jpg,nogoal,NULL
1687282648,293b7abe27bb5a2735f0c74bdf0338d3,PennController,20,0,experiment,NULL,Video,progression,buffer,0.007038,1687281910844,613890a9bda2b664ca9dcf15,613890a9bda2b664ca9dcf15,17,roll,critical,A,50,roll40.jpg,roll60.jpg,nogoal,NULL
1687282648,293b7abe27bb5a2735f0c74bdf0338d3,PennController,20,0,experiment,NULL,Selector,choice,Selection,option2,1687281916520,613890a9bda2b664ca9dcf15,613890a9bda2b664ca9dcf15,17,roll,critical,A,50,roll40.jpg,roll60.jpg,nogoal,option1;option2
1687282648,293b7abe27bb5a2735f0c74bdf0338d3,PennController,20,0,experiment,NULL,PennController,19,_Trial_,End,1687281916521,613890a9bda2b664ca9dcf15,613890a9bda2b664ca9dcf15,17,roll,critical,A,50,roll40.jpg,roll60.jpg,nogoal,NULL
1687282648,293b7abe27bb5a2735f0c74bdf0338d3,PennController,15,0,experiment,NULL,PennController,14,_Trial_,Start,1687281916522,613890a9bda2b664ca9dcf15,613890a9bda2b664ca9dcf15,12,erase,critical,A,75,erase66.jpg,erase84.jpg,nogoal,NULL
1687282648,293b7abe27bb5a2735f0c74bdf0338d3,PennController,15,0,experiment,NULL,PennController,14,_Header_,Start,1687281916522,613890a9bda2b664ca9dcf15,613890a9bda2b664ca9dcf15,12,erase,critical,A,75,erase66.jpg,erase84.jpg,nogoal,NULL
1687282648,293b7abe27bb5a2735f0c74bdf0338d3,PennController,15,0,experiment,NULL,PennController,14,_Header_,End,1687281916522,613890a9bda2b664ca9dcf15,613890a9bda2b664ca9dcf15,12,erase,critical,A,75,erase66.jpg,erase84.jpg,nogoal,NULL
1687282648,293b7abe27bb5a2735f0c74bdf0338d3,PennController,15,0,experiment,NULL,Canvas,canvas6,Print,NA,1687281924207,613890a9bda2b664ca9dcf15,613890a9bda2b664ca9dcf15,12,erase,critical,A,75,erase66.jpg,erase84.jpg,nogoal,NULL
1687282648,293b7abe27bb5a2735f0c74bdf0338d3,PennController,15,0,experiment,NULL,Video,progression,buffer,0.006011,1687281918049,613890a9bda2b664ca9dcf15,613890a9bda2b664ca9dcf15,12,erase,critical,A,75,erase66.jpg,erase84.jpg,nogoal,NULL
1687282648,293b7abe27bb5a2735f0c74bdf0338d3,PennController,15,0,experiment,NULL,Selector,choice,Selection,option2,1687281925104,613890a9bda2b664ca9dcf15,613890a9bda2b664ca9dcf15,12,erase,critical,A,75,erase66.jpg,erase84.jpg,nogoal,option2;option1
1687282648,293b7abe27bb5a2735f0c74bdf0338d3,PennController,15,0,experiment,NULL,PennController,14,_Trial_,End,1687281925107,613890a9bda2b664ca9dcf15,613890a9bda2b664ca9dcf15,12,erase,critical,A,75,erase66.jpg,erase84.jpg,nogoal,NULL
1687282648,293b7abe27bb5a2735f0c74bdf0338d3,PennController,17,0,experiment,NULL,PennController,16,_Trial_,Start,1687281925108,613890a9bda2b664ca9dcf15,613890a9bda2b664ca9dcf15,14,cover,critical,A,50,cover42.jpg,cover60.jpg,nogoal,NULL
1687282648,293b7abe27bb5a2735f0c74bdf0338d3,PennController,17,0,experiment,NULL,PennController,16,_Header_,Start,1687281925108,613890a9bda2b664ca9dcf15,613890a9bda2b664ca9dcf15,14,cover,critical,A,50,cover42.jpg,cover60.jpg,nogoal,NULL
1687282648,293b7abe27bb5a2735f0c74bdf0338d3,PennController,17,0,experiment,NULL,PennController,16,_Header_,End,1687281925108,613890a9bda2b664ca9dcf15,613890a9bda2b664ca9dcf15,14,cover,critical,A,50,cover42.jpg,cover60.jpg,nogoal,NULL
1687282648,293b7abe27bb5a2735f0c74bdf0338d3,PennController,17,0,experiment,NULL,Canvas,canvas6,Print,NA,1687281931213,613890a9bda2b664ca9dcf15,613890a9bda2b664ca9dcf15,14,cover,critical,A,50,cover42.jpg,cover60.jpg,nogoal,NULL
1687282648,293b7abe27bb5a2735f0c74bdf0338d3,PennController,17,0,experiment,NULL,Video,progression,buffer,0.007258,1687281926640,613890a9bda2b664ca9dcf15,613890a9bda2b664ca9dcf15,14,cover,critical,A,50,cover42.jpg,cover60.jpg,nogoal,NULL
1687282648,293b7abe27bb5a2735f0c74bdf0338d3,PennController,17,0,experiment,NULL,Selector,choice,Selection,option1,1687281932840,613890a9bda2b664ca9dcf15,613890a9bda2b664ca9dcf15,14,cover,critical,A,50,cover42.jpg,cover60.jpg,nogoal,option2;option1
1687282648,293b7abe27bb5a2735f0c74bdf0338d3,PennController,17,0,experiment,NULL,PennController,16,_Trial_,End,1687281932841,613890a9bda2b664ca9dcf15,613890a9bda2b664ca9dcf15,14,cover,critical,A,50,cover42.jpg,cover60.jpg,nogoal,NULL
1687282648,293b7abe27bb5a2735f0c74bdf0338d3,PennController,10,0,experiment,NULL,PennController,9,_Trial_,Start,1687281932843,613890a9bda2b664ca9dcf15,613890a9bda2b664ca9dcf15,7,stack,critical,A,25,stack15.jpg,stack35.jpg,nogoal,NULL
1687282648,293b7abe27bb5a2735f0c74bdf0338d3,PennController,10,0,experiment,NULL,PennController,9,_Header_,Start,1687281932843,613890a9bda2b664ca9dcf15,613890a9bda2b664ca9dcf15,7,stack,critical,A,25,stack15.jpg,stack35.jpg,nogoal,NULL
1687282648,293b7abe27bb5a2735f0c74bdf0338d3,PennController,10,0,experiment,NULL,PennController,9,_Header_,End,1687281932843,613890a9bda2b664ca9dcf15,613890a9bda2b664ca9dcf15,7,stack,critical,A,25,stack15.jpg,stack35.jpg,nogoal,NULL
1687282648,293b7abe27bb5a2735f0c74bdf0338d3,PennController,10,0,experiment,NULL,Canvas,canvas6,Print,NA,1687281936547,613890a9bda2b664ca9dcf15,613890a9bda2b664ca9dcf15,7,stack,critical,A,25,stack15.jpg,stack35.jpg,nogoal,NULL
1687282648,293b7abe27bb5a2735f0c74bdf0338d3,PennController,10,0,experiment,NULL,Video,progression,buffer,0.002986,1687281934368,613890a9bda2b664ca9dcf15,613890a9bda2b664ca9dcf15,7,stack,critical,A,25,stack15.jpg,stack35.jpg,nogoal,NULL
1687282648,293b7abe27bb5a2735f0c74bdf0338d3,PennController,10,0,experiment,NULL,Selector,choice,Selection,option2,1687281940460,613890a9bda2b664ca9dcf15,613890a9bda2b664ca9dcf15,7,stack,critical,A,25,stack15.jpg,stack35.jpg,nogoal,option2;option1
1687282648,293b7abe27bb5a2735f0c74bdf0338d3,PennController,10,0,experiment,NULL,PennController,9,_Trial_,End,1687281940461,613890a9bda2b664ca9dcf15,613890a9bda2b664ca9dcf15,7,stack,critical,A,25,stack15.jpg,stack35.jpg,nogoal,NULL
1687282648,293b7abe27bb5a2735f0c74bdf0338d3,PennController,22,0,experiment,NULL,PennController,21,_Trial_,Start,1687281940463,613890a9bda2b664ca9dcf15,613890a9bda2b664ca9dcf15,19,cup,filler,A,25,cup15.jpg,cup35.jpg,nogoal,NULL
1687282648,293b7abe27bb5a2735f0c74bdf0338d3,PennController,22,0,experiment,NULL,PennController,21,_Header_,Start,1687281940463,613890a9bda2b664ca9dcf15,613890a9bda2b664ca9dcf15,19,cup,filler,A,25,cup15.jpg,cup35.jpg,nogoal,NULL
1687282648,293b7abe27bb5a2735f0c74bdf0338d3,PennController,22,0,experiment,NULL,PennController,21,_Header_,End,1687281940463,613890a9bda2b664ca9dcf15,613890a9bda2b664ca9dcf15,19,cup,filler,A,25,cup15.jpg,cup35.jpg,nogoal,NULL
1687282648,293b7abe27bb5a2735f0c74bdf0338d3,PennController,22,0,experiment,NULL,Canvas,canvas6,Print,NA,1687281944148,613890a9bda2b664ca9dcf15,613890a9bda2b664ca9dcf15,19,cup,filler,A,25,cup15.jpg,cup35.jpg,nogoal,NULL
1687282648,293b7abe27bb5a2735f0c74bdf0338d3,PennController,22,0,experiment,NULL,Video,progression,buffer,0.002909,1687281941981,613890a9bda2b664ca9dcf15,613890a9bda2b664ca9dcf15,19,cup,filler,A,25,cup15.jpg,cup35.jpg,nogoal,NULL
1687282648,293b7abe27bb5a2735f0c74bdf0338d3,PennController,22,0,experiment,NULL,Selector,choice,Selection,option2,1687281945356,613890a9bda2b664ca9dcf15,613890a9bda2b664ca9dcf15,19,cup,filler,A,25,cup15.jpg,cup35.jpg,nogoal,option1;option2
1687282648,293b7abe27bb5a2735f0c74bdf0338d3,PennController,22,0,experiment,NULL,PennController,21,_Trial_,End,1687281945357,613890a9bda2b664ca9dcf15,613890a9bda2b664ca9dcf15,19,cup,filler,A,25,cup15.jpg,cup35.jpg,nogoal,NULL
1687282648,293b7abe27bb5a2735f0c74bdf0338d3,PennController,6,0,experiment,NULL,PennController,5,_Trial_,Start,1687281945359,613890a9bda2b664ca9dcf15,613890a9bda2b664ca9dcf15,3,clean,critical,A,75,clean65.jpg,clean85.jpg,nogoal,NULL
1687282648,293b7abe27bb5a2735f0c74bdf0338d3,PennController,6,0,experiment,NULL,PennController,5,_Header_,Start,1687281945359,613890a9bda2b664ca9dcf15,613890a9bda2b664ca9dcf15,3,clean,critical,A,75,clean65.jpg,clean85.jpg,nogoal,NULL
1687282648,293b7abe27bb5a2735f0c74bdf0338d3,PennController,6,0,experiment,NULL,PennController,5,_Header_,End,1687281945359,613890a9bda2b664ca9dcf15,613890a9bda2b664ca9dcf15,3,clean,critical,A,75,clean65.jpg,clean85.jpg,nogoal,NULL
1687282648,293b7abe27bb5a2735f0c74bdf0338d3,PennController,6,0,experiment,NULL,Canvas,canvas6,Print,NA,1687281951059,613890a9bda2b664ca9dcf15,613890a9bda2b664ca9dcf15,3,clean,critical,A,75,clean65.jpg,clean85.jpg,nogoal,NULL
1687282648,293b7abe27bb5a2735f0c74bdf0338d3,PennController,6,0,experiment,NULL,Video,progression,buffer,0.001983,1687281946882,613890a9bda2b664ca9dcf15,613890a9bda2b664ca9dcf15,3,clean,critical,A,75,clean65.jpg,clean85.jpg,nogoal,NULL
1687282648,293b7abe27bb5a2735f0c74bdf0338d3,PennController,6,0,experiment,NULL,Selector,choice,Selection,option1,1687281953252,613890a9bda2b664ca9dcf15,613890a9bda2b664ca9dcf15,3,clean,critical,A,75,clean65.jpg,clean85.jpg,nogoal,option2;option1
1687282648,293b7abe27bb5a2735f0c74bdf0338d3,PennController,6,0,experiment,NULL,PennController,5,_Trial_,End,1687281953254,613890a9bda2b664ca9dcf15,613890a9bda2b664ca9dcf15,3,clean,critical,A,75,clean65.jpg,clean85.jpg,nogoal,NULL
1687282648,293b7abe27bb5a2735f0c74bdf0338d3,PennController,18,0,experiment,NULL,PennController,17,_Trial_,Start,1687281953255,613890a9bda2b664ca9dcf15,613890a9bda2b664ca9dcf15,15,zip,critical,A,75,zip65.jpg,zip85.jpg,nogoal,NULL
1687282648,293b7abe27bb5a2735f0c74bdf0338d3,PennController,18,0,experiment,NULL,PennController,17,_Header_,Start,1687281953255,613890a9bda2b664ca9dcf15,613890a9bda2b664ca9dcf15,15,zip,critical,A,75,zip65.jpg,zip85.jpg,nogoal,NULL
1687282648,293b7abe27bb5a2735f0c74bdf0338d3,PennController,18,0,experiment,NULL,PennController,17,_Header_,End,1687281953255,613890a9bda2b664ca9dcf15,613890a9bda2b664ca9dcf15,15,zip,critical,A,75,zip65.jpg,zip85.jpg,nogoal,NULL
1687282648,293b7abe27bb5a2735f0c74bdf0338d3,PennController,18,0,experiment,NULL,Canvas,canvas6,Print,NA,1687281958144,613890a9bda2b664ca9dcf15,613890a9bda2b664ca9dcf15,15,zip,critical,A,75,zip65.jpg,zip85.jpg,nogoal,NULL
1687282648,293b7abe27bb5a2735f0c74bdf0338d3,PennController,18,0,experiment,NULL,Video,progression,buffer,0.006457,1687281954783,613890a9bda2b664ca9dcf15,613890a9bda2b664ca9dcf15,15,zip,critical,A,75,zip65.jpg,zip85.jpg,nogoal,NULL
1687282648,293b7abe27bb5a2735f0c74bdf0338d3,PennController,18,0,experiment,NULL,Selector,choice,Selection,option2,1687281961499,613890a9bda2b664ca9dcf15,613890a9bda2b664ca9dcf15,15,zip,critical,A,75,zip65.jpg,zip85.jpg,nogoal,option1;option2
1687282648,293b7abe27bb5a2735f0c74bdf0338d3,PennController,18,0,experiment,NULL,PennController,17,_Trial_,End,1687281961500,613890a9bda2b664ca9dcf15,613890a9bda2b664ca9dcf15,15,zip,critical,A,75,zip65.jpg,zip85.jpg,nogoal,NULL
1687282648,293b7abe27bb5a2735f0c74bdf0338d3,PennController,30,0,experiment,NULL,PennController,29,_Trial_,Start,1687281961501,613890a9bda2b664ca9dcf15,613890a9bda2b664ca9dcf15,27,square,filler,A,75,square65.jpg,square85.jpg,nogoal,NULL
1687282648,293b7abe27bb5a2735f0c74bdf0338d3,PennController,30,0,experiment,NULL,PennController,29,_Header_,Start,1687281961501,613890a9bda2b664ca9dcf15,613890a9bda2b664ca9dcf15,27,square,filler,A,75,square65.jpg,square85.jpg,nogoal,NULL
1687282648,293b7abe27bb5a2735f0c74bdf0338d3,PennController,30,0,experiment,NULL,PennController,29,_Header_,End,1687281961501,613890a9bda2b664ca9dcf15,613890a9bda2b664ca9dcf15,27,square,filler,A,75,square65.jpg,square85.jpg,nogoal,NULL
1687282648,293b7abe27bb5a2735f0c74bdf0338d3,PennController,30,0,experiment,NULL,Canvas,canvas6,Print,NA,1687281967201,613890a9bda2b664ca9dcf15,613890a9bda2b664ca9dcf15,27,square,filler,A,75,square65.jpg,square85.jpg,nogoal,NULL
1687282648,293b7abe27bb5a2735f0c74bdf0338d3,PennController,30,0,experiment,NULL,Video,progression,buffer,0.003456,1687281963026,613890a9bda2b664ca9dcf15,613890a9bda2b664ca9dcf15,27,square,filler,A,75,square65.jpg,square85.jpg,nogoal,NULL
1687282648,293b7abe27bb5a2735f0c74bdf0338d3,PennController,30,0,experiment,NULL,Selector,choice,Selection,option1,1687281969532,613890a9bda2b664ca9dcf15,613890a9bda2b664ca9dcf15,27,square,filler,A,75,square65.jpg,square85.jpg,nogoal,option1;option2
1687282648,293b7abe27bb5a2735f0c74bdf0338d3,PennController,30,0,experiment,NULL,PennController,29,_Trial_,End,1687281969533,613890a9bda2b664ca9dcf15,613890a9bda2b664ca9dcf15,27,square,filler,A,75,square65.jpg,square85.jpg,nogoal,NULL
1687282648,293b7abe27bb5a2735f0c74bdf0338d3,PennController,25,0,experiment,NULL,PennController,24,_Trial_,Start,1687281969535,613890a9bda2b664ca9dcf15,613890a9bda2b664ca9dcf15,22,wall,filler,A,25,wall15.jpg,wall35.jpg,nogoal,NULL
1687282648,293b7abe27bb5a2735f0c74bdf0338d3,PennController,25,0,experiment,NULL,PennController,24,_Header_,Start,1687281969535,613890a9bda2b664ca9dcf15,613890a9bda2b664ca9dcf15,22,wall,filler,A,25,wall15.jpg,wall35.jpg,nogoal,NULL
1687282648,293b7abe27bb5a2735f0c74bdf0338d3,PennController,25,0,experiment,NULL,PennController,24,_Header_,End,1687281969535,613890a9bda2b664ca9dcf15,613890a9bda2b664ca9dcf15,22,wall,filler,A,25,wall15.jpg,wall35.jpg,nogoal,NULL
1687282648,293b7abe27bb5a2735f0c74bdf0338d3,PennController,25,0,experiment,NULL,Canvas,canvas6,Print,NA,1687281973230,613890a9bda2b664ca9dcf15,613890a9bda2b664ca9dcf15,22,wall,filler,A,25,wall15.jpg,wall35.jpg,nogoal,NULL
1687282648,293b7abe27bb5a2735f0c74bdf0338d3,PennController,25,0,experiment,NULL,Video,progression,buffer,0.007504,1687281971060,613890a9bda2b664ca9dcf15,613890a9bda2b664ca9dcf15,22,wall,filler,A,25,wall15.jpg,wall35.jpg,nogoal,NULL
1687282648,293b7abe27bb5a2735f0c74bdf0338d3,PennController,25,0,experiment,NULL,Selector,choice,Selection,option1,1687281980032,613890a9bda2b664ca9dcf15,613890a9bda2b664ca9dcf15,22,wall,filler,A,25,wall15.jpg,wall35.jpg,nogoal,option2;option1
1687282648,293b7abe27bb5a2735f0c74bdf0338d3,PennController,25,0,experiment,NULL,PennController,24,_Trial_,End,1687281980033,613890a9bda2b664ca9dcf15,613890a9bda2b664ca9dcf15,22,wall,filler,A,25,wall15.jpg,wall35.jpg,nogoal,NULL
1687282648,293b7abe27bb5a2735f0c74bdf0338d3,PennController,12,0,experiment,NULL,PennController,11,_Trial_,Start,1687281980035,613890a9bda2b664ca9dcf15,613890a9bda2b664ca9dcf15,9,cake,critical,A,75,cake66.jpg,cake84.jpg,nogoal,NULL
1687282648,293b7abe27bb5a2735f0c74bdf0338d3,PennController,12,0,experiment,NULL,PennController,11,_Header_,Start,1687281980035,613890a9bda2b664ca9dcf15,613890a9bda2b664ca9dcf15,9,cake,critical,A,75,cake66.jpg,cake84.jpg,nogoal,NULL
1687282648,293b7abe27bb5a2735f0c74bdf0338d3,PennController,12,0,experiment,NULL,PennController,11,_Header_,End,1687281980035,613890a9bda2b664ca9dcf15,613890a9bda2b664ca9dcf15,9,cake,critical,A,75,cake66.jpg,cake84.jpg,nogoal,NULL
1687282648,293b7abe27bb5a2735f0c74bdf0338d3,PennController,12,0,experiment,NULL,Canvas,canvas6,Print,NA,1687281987731,613890a9bda2b664ca9dcf15,613890a9bda2b664ca9dcf15,9,cake,critical,A,75,cake66.jpg,cake84.jpg,nogoal,NULL
1687282648,293b7abe27bb5a2735f0c74bdf0338d3,PennController,12,0,experiment,NULL,Video,progression,buffer,0.007293,1687281981564,613890a9bda2b664ca9dcf15,613890a9bda2b664ca9dcf15,9,cake,critical,A,75,cake66.jpg,cake84.jpg,nogoal,NULL
1687282648,293b7abe27bb5a2735f0c74bdf0338d3,PennController,12,0,experiment,NULL,Selector,choice,Selection,option1,1687281989728,613890a9bda2b664ca9dcf15,613890a9bda2b664ca9dcf15,9,cake,critical,A,75,cake66.jpg,cake84.jpg,nogoal,option2;option1
1687282648,293b7abe27bb5a2735f0c74bdf0338d3,PennController,12,0,experiment,NULL,PennController,11,_Trial_,End,1687281989729,613890a9bda2b664ca9dcf15,613890a9bda2b664ca9dcf15,9,cake,critical,A,75,cake66.jpg,cake84.jpg,nogoal,NULL
1687282648,293b7abe27bb5a2735f0c74bdf0338d3,PennController,32,0,experiment,NULL,PennController,31,_Trial_,Start,1687281989731,613890a9bda2b664ca9dcf15,613890a9bda2b664ca9dcf15,29,frog,filler,A,50,frog40.jpg,frog60.jpg,nogoal,NULL
1687282648,293b7abe27bb5a2735f0c74bdf0338d3,PennController,32,0,experiment,NULL,PennController,31,_Header_,Start,1687281989731,613890a9bda2b664ca9dcf15,613890a9bda2b664ca9dcf15,29,frog,filler,A,50,frog40.jpg,frog60.jpg,nogoal,NULL
1687282648,293b7abe27bb5a2735f0c74bdf0338d3,PennController,32,0,experiment,NULL,PennController,31,_Header_,End,1687281989731,613890a9bda2b664ca9dcf15,613890a9bda2b664ca9dcf15,29,frog,filler,A,50,frog40.jpg,frog60.jpg,nogoal,NULL
1687282648,293b7abe27bb5a2735f0c74bdf0338d3,PennController,32,0,experiment,NULL,Canvas,canvas6,Print,NA,1687281994423,613890a9bda2b664ca9dcf15,613890a9bda2b664ca9dcf15,29,frog,filler,A,50,frog40.jpg,frog60.jpg,nogoal,NULL
1687282648,293b7abe27bb5a2735f0c74bdf0338d3,PennController,32,0,experiment,NULL,Video,progression,buffer,0.007797,1687281991263,613890a9bda2b664ca9dcf15,613890a9bda2b664ca9dcf15,29,frog,filler,A,50,frog40.jpg,frog60.jpg,nogoal,NULL
1687282648,293b7abe27bb5a2735f0c74bdf0338d3,PennController,32,0,experiment,NULL,Selector,choice,Selection,option2,1687281995640,613890a9bda2b664ca9dcf15,613890a9bda2b664ca9dcf15,29,frog,filler,A,50,frog40.jpg,frog60.jpg,nogoal,option1;option2
1687282648,293b7abe27bb5a2735f0c74bdf0338d3,PennController,32,0,experiment,NULL,PennController,31,_Trial_,End,1687281995642,613890a9bda2b664ca9dcf15,613890a9bda2b664ca9dcf15,29,frog,filler,A,50,frog40.jpg,frog60.jpg,nogoal,NULL
1687282648,293b7abe27bb5a2735f0c74bdf0338d3,PennController,27,0,experiment,NULL,PennController,26,_Trial_,Start,1687281995643,613890a9bda2b664ca9dcf15,613890a9bda2b664ca9dcf15,24,match,filler,A,75,match65.jpg,match85.jpg,nogoal,NULL
1687282648,293b7abe27bb5a2735f0c74bdf0338d3,PennController,27,0,experiment,NULL,PennController,26,_Header_,Start,1687281995643,613890a9bda2b664ca9dcf15,613890a9bda2b664ca9dcf15,24,match,filler,A,75,match65.jpg,match85.jpg,nogoal,NULL
1687282648,293b7abe27bb5a2735f0c74bdf0338d3,PennController,27,0,experiment,NULL,PennController,26,_Header_,End,1687281995643,613890a9bda2b664ca9dcf15,613890a9bda2b664ca9dcf15,24,match,filler,A,75,match65.jpg,match85.jpg,nogoal,NULL
1687282648,293b7abe27bb5a2735f0c74bdf0338d3,PennController,27,0,experiment,NULL,Canvas,canvas6,Print,NA,1687282001333,613890a9bda2b664ca9dcf15,613890a9bda2b664ca9dcf15,24,match,filler,A,75,match65.jpg,match85.jpg,nogoal,NULL
1687282648,293b7abe27bb5a2735f0c74bdf0338d3,PennController,27,0,experiment,NULL,Video,progression,buffer,0.005377,1687281997168,613890a9bda2b664ca9dcf15,613890a9bda2b664ca9dcf15,24,match,filler,A,75,match65.jpg,match85.jpg,nogoal,NULL
1687282648,293b7abe27bb5a2735f0c74bdf0338d3,PennController,27,0,experiment,NULL,Selector,choice,Selection,option1,1687282008012,613890a9bda2b664ca9dcf15,613890a9bda2b664ca9dcf15,24,match,filler,A,75,match65.jpg,match85.jpg,nogoal,option1;option2
1687282648,293b7abe27bb5a2735f0c74bdf0338d3,PennController,27,0,experiment,NULL,PennController,26,_Trial_,End,1687282008013,613890a9bda2b664ca9dcf15,613890a9bda2b664ca9dcf15,24,match,filler,A,75,match65.jpg,match85.jpg,nogoal,NULL
1687282648,293b7abe27bb5a2735f0c74bdf0338d3,PennController,9,0,experiment,NULL,PennController,8,_Trial_,Start,1687282008015,613890a9bda2b664ca9dcf15,613890a9bda2b664ca9dcf15,6,flower,critical,A,75,flower65.jpg,flower85.jpg,nogoal,NULL
1687282648,293b7abe27bb5a2735f0c74bdf0338d3,PennController,9,0,experiment,NULL,PennController,8,_Header_,Start,1687282008015,613890a9bda2b664ca9dcf15,613890a9bda2b664ca9dcf15,6,flower,critical,A,75,flower65.jpg,flower85.jpg,nogoal,NULL
1687282648,293b7abe27bb5a2735f0c74bdf0338d3,PennController,9,0,experiment,NULL,PennController,8,_Header_,End,1687282008015,613890a9bda2b664ca9dcf15,613890a9bda2b664ca9dcf15,6,flower,critical,A,75,flower65.jpg,flower85.jpg,nogoal,NULL
1687282648,293b7abe27bb5a2735f0c74bdf0338d3,PennController,9,0,experiment,NULL,Canvas,canvas6,Print,NA,1687282013711,613890a9bda2b664ca9dcf15,613890a9bda2b664ca9dcf15,6,flower,critical,A,75,flower65.jpg,flower85.jpg,nogoal,NULL
1687282648,293b7abe27bb5a2735f0c74bdf0338d3,PennController,9,0,experiment,NULL,Video,progression,buffer,0.006955,1687282009544,613890a9bda2b664ca9dcf15,613890a9bda2b664ca9dcf15,6,flower,critical,A,75,flower65.jpg,flower85.jpg,nogoal,NULL
1687282648,293b7abe27bb5a2735f0c74bdf0338d3,PennController,9,0,experiment,NULL,Selector,choice,Selection,option1,1687282067132,613890a9bda2b664ca9dcf15,613890a9bda2b664ca9dcf15,6,flower,critical,A,75,flower65.jpg,flower85.jpg,nogoal,option2;option1
1687282648,293b7abe27bb5a2735f0c74bdf0338d3,PennController,9,0,experiment,NULL,PennController,8,_Trial_,End,1687282067133,613890a9bda2b664ca9dcf15,613890a9bda2b664ca9dcf15,6,flower,critical,A,75,flower65.jpg,flower85.jpg,nogoal,NULL
1687282648,293b7abe27bb5a2735f0c74bdf0338d3,PennController,24,0,experiment,NULL,PennController,23,_Trial_,Start,1687282067135,613890a9bda2b664ca9dcf15,613890a9bda2b664ca9dcf15,21,visit,filler,A,75,visit65.jpg,visit85.jpg,nogoal,NULL
1687282648,293b7abe27bb5a2735f0c74bdf0338d3,PennController,24,0,experiment,NULL,PennController,23,_Header_,Start,1687282067135,613890a9bda2b664ca9dcf15,613890a9bda2b664ca9dcf15,21,visit,filler,A,75,visit65.jpg,visit85.jpg,nogoal,NULL
1687282648,293b7abe27bb5a2735f0c74bdf0338d3,PennController,24,0,experiment,NULL,PennController,23,_Header_,End,1687282067135,613890a9bda2b664ca9dcf15,613890a9bda2b664ca9dcf15,21,visit,filler,A,75,visit65.jpg,visit85.jpg,nogoal,NULL
1687282648,293b7abe27bb5a2735f0c74bdf0338d3,PennController,24,0,experiment,NULL,Canvas,canvas6,Print,NA,1687282072828,613890a9bda2b664ca9dcf15,613890a9bda2b664ca9dcf15,21,visit,filler,A,75,visit65.jpg,visit85.jpg,nogoal,NULL
1687282648,293b7abe27bb5a2735f0c74bdf0338d3,PennController,24,0,experiment,NULL,Video,progression,buffer,0.002687,1687282068656,613890a9bda2b664ca9dcf15,613890a9bda2b664ca9dcf15,21,visit,filler,A,75,visit65.jpg,visit85.jpg,nogoal,NULL
1687282648,293b7abe27bb5a2735f0c74bdf0338d3,PennController,24,0,experiment,NULL,Selector,choice,Selection,option2,1687282074711,613890a9bda2b664ca9dcf15,613890a9bda2b664ca9dcf15,21,visit,filler,A,75,visit65.jpg,visit85.jpg,nogoal,option2;option1
1687282648,293b7abe27bb5a2735f0c74bdf0338d3,PennController,24,0,experiment,NULL,PennController,23,_Trial_,End,1687282074713,613890a9bda2b664ca9dcf15,613890a9bda2b664ca9dcf15,21,visit,filler,A,75,visit65.jpg,visit85.jpg,nogoal,NULL
1687282648,293b7abe27bb5a2735f0c74bdf0338d3,PennController,7,0,experiment,NULL,PennController,6,_Trial_,Start,1687282074714,613890a9bda2b664ca9dcf15,613890a9bda2b664ca9dcf15,4,candy,critical,A,25,candy15.jpg,candy35.jpg,nogoal,NULL
1687282648,293b7abe27bb5a2735f0c74bdf0338d3,PennController,7,0,experiment,NULL,PennController,6,_Header_,Start,1687282074714,613890a9bda2b664ca9dcf15,613890a9bda2b664ca9dcf15,4,candy,critical,A,25,candy15.jpg,candy35.jpg,nogoal,NULL
1687282648,293b7abe27bb5a2735f0c74bdf0338d3,PennController,7,0,experiment,NULL,PennController,6,_Header_,End,1687282074714,613890a9bda2b664ca9dcf15,613890a9bda2b664ca9dcf15,4,candy,critical,A,25,candy15.jpg,candy35.jpg,nogoal,NULL
1687282648,293b7abe27bb5a2735f0c74bdf0338d3,PennController,7,0,experiment,NULL,Canvas,canvas6,Print,NA,1687282078412,613890a9bda2b664ca9dcf15,613890a9bda2b664ca9dcf15,4,candy,critical,A,25,candy15.jpg,candy35.jpg,nogoal,NULL
1687282648,293b7abe27bb5a2735f0c74bdf0338d3,PennController,7,0,experiment,NULL,Video,progression,buffer,0.009022,1687282076246,613890a9bda2b664ca9dcf15,613890a9bda2b664ca9dcf15,4,candy,critical,A,25,candy15.jpg,candy35.jpg,nogoal,NULL
1687282648,293b7abe27bb5a2735f0c74bdf0338d3,PennController,7,0,experiment,NULL,Selector,choice,Selection,option1,1687282081115,613890a9bda2b664ca9dcf15,613890a9bda2b664ca9dcf15,4,candy,critical,A,25,candy15.jpg,candy35.jpg,nogoal,option2;option1
1687282648,293b7abe27bb5a2735f0c74bdf0338d3,PennController,7,0,experiment,NULL,PennController,6,_Trial_,End,1687282081117,613890a9bda2b664ca9dcf15,613890a9bda2b664ca9dcf15,4,candy,critical,A,25,candy15.jpg,candy35.jpg,nogoal,NULL
1687282648,293b7abe27bb5a2735f0c74bdf0338d3,PennController,31,0,experiment,NULL,PennController,30,_Trial_,Start,1687282081118,613890a9bda2b664ca9dcf15,613890a9bda2b664ca9dcf15,28,sort,filler,A,25,sort15.jpg,sort35.jpg,nogoal,NULL
1687282648,293b7abe27bb5a2735f0c74bdf0338d3,PennController,31,0,experiment,NULL,PennController,30,_Header_,Start,1687282081118,613890a9bda2b664ca9dcf15,613890a9bda2b664ca9dcf15,28,sort,filler,A,25,sort15.jpg,sort35.jpg,nogoal,NULL
1687282648,293b7abe27bb5a2735f0c74bdf0338d3,PennController,31,0,experiment,NULL,PennController,30,_Header_,End,1687282081119,613890a9bda2b664ca9dcf15,613890a9bda2b664ca9dcf15,28,sort,filler,A,25,sort15.jpg,sort35.jpg,nogoal,NULL
1687282648,293b7abe27bb5a2735f0c74bdf0338d3,PennController,31,0,experiment,NULL,Canvas,canvas6,Print,NA,1687282084810,613890a9bda2b664ca9dcf15,613890a9bda2b664ca9dcf15,28,sort,filler,A,25,sort15.jpg,sort35.jpg,nogoal,NULL
1687282648,293b7abe27bb5a2735f0c74bdf0338d3,PennController,31,0,experiment,NULL,Video,progression,buffer,0.005005,1687282082647,613890a9bda2b664ca9dcf15,613890a9bda2b664ca9dcf15,28,sort,filler,A,25,sort15.jpg,sort35.jpg,nogoal,NULL
1687282648,293b7abe27bb5a2735f0c74bdf0338d3,PennController,31,0,experiment,NULL,Selector,choice,Selection,option2,1687282089691,613890a9bda2b664ca9dcf15,613890a9bda2b664ca9dcf15,28,sort,filler,A,25,sort15.jpg,sort35.jpg,nogoal,option2;option1
1687282648,293b7abe27bb5a2735f0c74bdf0338d3,PennController,31,0,experiment,NULL,PennController,30,_Trial_,End,1687282089693,613890a9bda2b664ca9dcf15,613890a9bda2b664ca9dcf15,28,sort,filler,A,25,sort15.jpg,sort35.jpg,nogoal,NULL
1687282648,293b7abe27bb5a2735f0c74bdf0338d3,PennController,19,0,experiment,NULL,PennController,18,_Trial_,Start,1687282089694,613890a9bda2b664ca9dcf15,613890a9bda2b664ca9dcf15,16,blinds,critical,A,25,blinds15.jpg,blinds33.jpg,nogoal,NULL
1687282648,293b7abe27bb5a2735f0c74bdf0338d3,PennController,19,0,experiment,NULL,PennController,18,_Header_,Start,1687282089694,613890a9bda2b664ca9dcf15,613890a9bda2b664ca9dcf15,16,blinds,critical,A,25,blinds15.jpg,blinds33.jpg,nogoal,NULL
1687282648,293b7abe27bb5a2735f0c74bdf0338d3,PennController,19,0,experiment,NULL,PennController,18,_Header_,End,1687282089694,613890a9bda2b664ca9dcf15,613890a9bda2b664ca9dcf15,16,blinds,critical,A,25,blinds15.jpg,blinds33.jpg,nogoal,NULL
1687282648,293b7abe27bb5a2735f0c74bdf0338d3,PennController,19,0,experiment,NULL,Canvas,canvas6,Print,NA,1687282093994,613890a9bda2b664ca9dcf15,613890a9bda2b664ca9dcf15,16,blinds,critical,A,25,blinds15.jpg,blinds33.jpg,nogoal,NULL
1687282648,293b7abe27bb5a2735f0c74bdf0338d3,PennController,19,0,experiment,NULL,Video,progression,buffer,0.002933,1687282091222,613890a9bda2b664ca9dcf15,613890a9bda2b664ca9dcf15,16,blinds,critical,A,25,blinds15.jpg,blinds33.jpg,nogoal,NULL
1687282648,293b7abe27bb5a2735f0c74bdf0338d3,PennController,19,0,experiment,NULL,Selector,choice,Selection,option1,1687282095863,613890a9bda2b664ca9dcf15,613890a9bda2b664ca9dcf15,16,blinds,critical,A,25,blinds15.jpg,blinds33.jpg,nogoal,option1;option2
1687282648,293b7abe27bb5a2735f0c74bdf0338d3,PennController,19,0,experiment,NULL,PennController,18,_Trial_,End,1687282095865,613890a9bda2b664ca9dcf15,613890a9bda2b664ca9dcf15,16,blinds,critical,A,25,blinds15.jpg,blinds33.jpg,nogoal,NULL
1687282648,293b7abe27bb5a2735f0c74bdf0338d3,PennController,16,0,experiment,NULL,PennController,15,_Trial_,Start,1687282095866,613890a9bda2b664ca9dcf15,613890a9bda2b664ca9dcf15,13,mix,critical,A,25,mix15.jpg,mix35.jpg,nogoal,NULL
1687282648,293b7abe27bb5a2735f0c74bdf0338d3,PennController,16,0,experiment,NULL,PennController,15,_Header_,Start,1687282095866,613890a9bda2b664ca9dcf15,613890a9bda2b664ca9dcf15,13,mix,critical,A,25,mix15.jpg,mix35.jpg,nogoal,NULL
1687282648,293b7abe27bb5a2735f0c74bdf0338d3,PennController,16,0,experiment,NULL,PennController,15,_Header_,End,1687282095866,613890a9bda2b664ca9dcf15,613890a9bda2b664ca9dcf15,13,mix,critical,A,25,mix15.jpg,mix35.jpg,nogoal,NULL
1687282648,293b7abe27bb5a2735f0c74bdf0338d3,PennController,16,0,experiment,NULL,Canvas,canvas6,Print,NA,1687282099558,613890a9bda2b664ca9dcf15,613890a9bda2b664ca9dcf15,13,mix,critical,A,25,mix15.jpg,mix35.jpg,nogoal,NULL
1687282648,293b7abe27bb5a2735f0c74bdf0338d3,PennController,16,0,experiment,NULL,Video,progression,buffer,0.003042,1687282097393,613890a9bda2b664ca9dcf15,613890a9bda2b664ca9dcf15,13,mix,critical,A,25,mix15.jpg,mix35.jpg,nogoal,NULL
1687282648,293b7abe27bb5a2735f0c74bdf0338d3,PennController,16,0,experiment,NULL,Selector,choice,Selection,option1,1687282101019,613890a9bda2b664ca9dcf15,613890a9bda2b664ca9dcf15,13,mix,critical,A,25,mix15.jpg,mix35.jpg,nogoal,option2;option1
1687282648,293b7abe27bb5a2735f0c74bdf0338d3,PennController,16,0,experiment,NULL,PennController,15,_Trial_,End,1687282101020,613890a9bda2b664ca9dcf15,613890a9bda2b664ca9dcf15,13,mix,critical,A,25,mix15.jpg,mix35.jpg,nogoal,NULL
1687282648,293b7abe27bb5a2735f0c74bdf0338d3,PennController,13,0,experiment,NULL,PennController,12,_Trial_,Start,1687282101022,613890a9bda2b664ca9dcf15,613890a9bda2b664ca9dcf15,10,train,critical,A,25,train15.jpg,train35.jpg,nogoal,NULL
1687282648,293b7abe27bb5a2735f0c74bdf0338d3,PennController,13,0,experiment,NULL,PennController,12,_Header_,Start,1687282101022,613890a9bda2b664ca9dcf15,613890a9bda2b664ca9dcf15,10,train,critical,A,25,train15.jpg,train35.jpg,nogoal,NULL
1687282648,293b7abe27bb5a2735f0c74bdf0338d3,PennController,13,0,experiment,NULL,PennController,12,_Header_,End,1687282101022,613890a9bda2b664ca9dcf15,613890a9bda2b664ca9dcf15,10,train,critical,A,25,train15.jpg,train35.jpg,nogoal,NULL
1687282648,293b7abe27bb5a2735f0c74bdf0338d3,PennController,13,0,experiment,NULL,Canvas,canvas6,Print,NA,1687282104714,613890a9bda2b664ca9dcf15,613890a9bda2b664ca9dcf15,10,train,critical,A,25,train15.jpg,train35.jpg,nogoal,NULL
1687282648,293b7abe27bb5a2735f0c74bdf0338d3,PennController,13,0,experiment,NULL,Video,progression,buffer,0.006028,1687282102552,613890a9bda2b664ca9dcf15,613890a9bda2b664ca9dcf15,10,train,critical,A,25,train15.jpg,train35.jpg,nogoal,NULL
1687282648,293b7abe27bb5a2735f0c74bdf0338d3,PennController,13,0,experiment,NULL,Selector,choice,Selection,option1,1687282108375,613890a9bda2b664ca9dcf15,613890a9bda2b664ca9dcf15,10,train,critical,A,25,train15.jpg,train35.jpg,nogoal,option1;option2
1687282648,293b7abe27bb5a2735f0c74bdf0338d3,PennController,13,0,experiment,NULL,PennController,12,_Trial_,End,1687282108377,613890a9bda2b664ca9dcf15,613890a9bda2b664ca9dcf15,10,train,critical,A,25,train15.jpg,train35.jpg,nogoal,NULL
1687282648,293b7abe27bb5a2735f0c74bdf0338d3,PennController,21,0,experiment,NULL,PennController,20,_Trial_,Start,1687282108378,613890a9bda2b664ca9dcf15,613890a9bda2b664ca9dcf15,18,ball,critical,A,75,ball65.jpg,ball85.jpg,nogoal,NULL
1687282648,293b7abe27bb5a2735f0c74bdf0338d3,PennController,21,0,experiment,NULL,PennController,20,_Header_,Start,1687282108378,613890a9bda2b664ca9dcf15,613890a9bda2b664ca9dcf15,18,ball,critical,A,75,ball65.jpg,ball85.jpg,nogoal,NULL
1687282648,293b7abe27bb5a2735f0c74bdf0338d3,PennController,21,0,experiment,NULL,PennController,20,_Header_,End,1687282108378,613890a9bda2b664ca9dcf15,613890a9bda2b664ca9dcf15,18,ball,critical,A,75,ball65.jpg,ball85.jpg,nogoal,NULL
1687282648,293b7abe27bb5a2735f0c74bdf0338d3,PennController,21,0,experiment,NULL,Canvas,canvas6,Print,NA,1687282114067,613890a9bda2b664ca9dcf15,613890a9bda2b664ca9dcf15,18,ball,critical,A,75,ball65.jpg,ball85.jpg,nogoal,NULL
1687282648,293b7abe27bb5a2735f0c74bdf0338d3,PennController,21,0,experiment,NULL,Video,progression,buffer,0.005994,1687282109903,613890a9bda2b664ca9dcf15,613890a9bda2b664ca9dcf15,18,ball,critical,A,75,ball65.jpg,ball85.jpg,nogoal,NULL
1687282648,293b7abe27bb5a2735f0c74bdf0338d3,PennController,21,0,experiment,NULL,Selector,choice,Selection,option1,1687282115835,613890a9bda2b664ca9dcf15,613890a9bda2b664ca9dcf15,18,ball,critical,A,75,ball65.jpg,ball85.jpg,nogoal,option1;option2
1687282648,293b7abe27bb5a2735f0c74bdf0338d3,PennController,21,0,experiment,NULL,PennController,20,_Trial_,End,1687282115837,613890a9bda2b664ca9dcf15,613890a9bda2b664ca9dcf15,18,ball,critical,A,75,ball65.jpg,ball85.jpg,nogoal,NULL
1687282648,293b7abe27bb5a2735f0c74bdf0338d3,PennController,26,0,experiment,NULL,PennController,25,_Trial_,Start,1687282115838,613890a9bda2b664ca9dcf15,613890a9bda2b664ca9dcf15,23,color,filler,A,50,color40.jpg,color60.jpg,nogoal,NULL
1687282648,293b7abe27bb5a2735f0c74bdf0338d3,PennController,26,0,experiment,NULL,PennController,25,_Header_,Start,1687282115838,613890a9bda2b664ca9dcf15,613890a9bda2b664ca9dcf15,23,color,filler,A,50,color40.jpg,color60.jpg,nogoal,NULL
1687282648,293b7abe27bb5a2735f0c74bdf0338d3,PennController,26,0,experiment,NULL,PennController,25,_Header_,End,1687282115838,613890a9bda2b664ca9dcf15,613890a9bda2b664ca9dcf15,23,color,filler,A,50,color40.jpg,color60.jpg,nogoal,NULL
1687282648,293b7abe27bb5a2735f0c74bdf0338d3,PennController,26,0,experiment,NULL,Canvas,canvas6,Print,NA,1687282120526,613890a9bda2b664ca9dcf15,613890a9bda2b664ca9dcf15,23,color,filler,A,50,color40.jpg,color60.jpg,nogoal,NULL
1687282648,293b7abe27bb5a2735f0c74bdf0338d3,PennController,26,0,experiment,NULL,Video,progression,buffer,0.006004,1687282117367,613890a9bda2b664ca9dcf15,613890a9bda2b664ca9dcf15,23,color,filler,A,50,color40.jpg,color60.jpg,nogoal,NULL
1687282648,293b7abe27bb5a2735f0c74bdf0338d3,PennController,26,0,experiment,NULL,Selector,choice,Selection,option2,1687282122283,613890a9bda2b664ca9dcf15,613890a9bda2b664ca9dcf15,23,color,filler,A,50,color40.jpg,color60.jpg,nogoal,option2;option1
1687282648,293b7abe27bb5a2735f0c74bdf0338d3,PennController,26,0,experiment,NULL,PennController,25,_Trial_,End,1687282122284,613890a9bda2b664ca9dcf15,613890a9bda2b664ca9dcf15,23,color,filler,A,50,color40.jpg,color60.jpg,nogoal,NULL
1687282648,293b7abe27bb5a2735f0c74bdf0338d3,PennController,29,0,experiment,NULL,PennController,28,_Trial_,Start,1687282122286,613890a9bda2b664ca9dcf15,613890a9bda2b664ca9dcf15,26,sandwich,filler,A,50,sandwich40.jpg,sandwich60.jpg,nogoal,NULL
1687282648,293b7abe27bb5a2735f0c74bdf0338d3,PennController,29,0,experiment,NULL,PennController,28,_Header_,Start,1687282122286,613890a9bda2b664ca9dcf15,613890a9bda2b664ca9dcf15,26,sandwich,filler,A,50,sandwich40.jpg,sandwich60.jpg,nogoal,NULL
1687282648,293b7abe27bb5a2735f0c74bdf0338d3,PennController,29,0,experiment,NULL,PennController,28,_Header_,End,1687282122286,613890a9bda2b664ca9dcf15,613890a9bda2b664ca9dcf15,26,sandwich,filler,A,50,sandwich40.jpg,sandwich60.jpg,nogoal,NULL
1687282648,293b7abe27bb5a2735f0c74bdf0338d3,PennController,29,0,experiment,NULL,Canvas,canvas6,Print,NA,1687282126977,613890a9bda2b664ca9dcf15,613890a9bda2b664ca9dcf15,26,sandwich,filler,A,50,sandwich40.jpg,sandwich60.jpg,nogoal,NULL
1687282648,293b7abe27bb5a2735f0c74bdf0338d3,PennController,29,0,experiment,NULL,Video,progression,buffer,0.00548,1687282123813,613890a9bda2b664ca9dcf15,613890a9bda2b664ca9dcf15,26,sandwich,filler,A,50,sandwich40.jpg,sandwich60.jpg,nogoal,NULL
1687282648,293b7abe27bb5a2735f0c74bdf0338d3,PennController,29,0,experiment,NULL,Selector,choice,Selection,option1,1687282128171,613890a9bda2b664ca9dcf15,613890a9bda2b664ca9dcf15,26,sandwich,filler,A,50,sandwich40.jpg,sandwich60.jpg,nogoal,option2;option1
1687282648,293b7abe27bb5a2735f0c74bdf0338d3,PennController,29,0,experiment,NULL,PennController,28,_Trial_,End,1687282128173,613890a9bda2b664ca9dcf15,613890a9bda2b664ca9dcf15,26,sandwich,filler,A,50,sandwich40.jpg,sandwich60.jpg,nogoal,NULL
1687282648,293b7abe27bb5a2735f0c74bdf0338d3,PennController,14,0,experiment,NULL,PennController,13,_Trial_,Start,1687282128174,613890a9bda2b664ca9dcf15,613890a9bda2b664ca9dcf15,11,beads,critical,A,50,beads40.jpg,beads60.jpg,nogoal,NULL
1687282648,293b7abe27bb5a2735f0c74bdf0338d3,PennController,14,0,experiment,NULL,PennController,13,_Header_,Start,1687282128174,613890a9bda2b664ca9dcf15,613890a9bda2b664ca9dcf15,11,beads,critical,A,50,beads40.jpg,beads60.jpg,nogoal,NULL
1687282648,293b7abe27bb5a2735f0c74bdf0338d3,PennController,14,0,experiment,NULL,PennController,13,_Header_,End,1687282128174,613890a9bda2b664ca9dcf15,613890a9bda2b664ca9dcf15,11,beads,critical,A,50,beads40.jpg,beads60.jpg,nogoal,NULL
1687282648,293b7abe27bb5a2735f0c74bdf0338d3,PennController,14,0,experiment,NULL,Canvas,canvas6,Print,NA,1687282132862,613890a9bda2b664ca9dcf15,613890a9bda2b664ca9dcf15,11,beads,critical,A,50,beads40.jpg,beads60.jpg,nogoal,NULL
1687282648,293b7abe27bb5a2735f0c74bdf0338d3,PennController,14,0,experiment,NULL,Video,progression,buffer,0.001779,1687282129691,613890a9bda2b664ca9dcf15,613890a9bda2b664ca9dcf15,11,beads,critical,A,50,beads40.jpg,beads60.jpg,nogoal,NULL
1687282648,293b7abe27bb5a2735f0c74bdf0338d3,PennController,14,0,experiment,NULL,Selector,choice,Selection,option1,1687282134747,613890a9bda2b664ca9dcf15,613890a9bda2b664ca9dcf15,11,beads,critical,A,50,beads40.jpg,beads60.jpg,nogoal,option1;option2
1687282648,293b7abe27bb5a2735f0c74bdf0338d3,PennController,14,0,experiment,NULL,PennController,13,_Trial_,End,1687282134749,613890a9bda2b664ca9dcf15,613890a9bda2b664ca9dcf15,11,beads,critical,A,50,beads40.jpg,beads60.jpg,nogoal,NULL
1687282648,293b7abe27bb5a2735f0c74bdf0338d3,PennController,4,0,experiment,NULL,PennController,3,_Trial_,Start,1687282134750,613890a9bda2b664ca9dcf15,613890a9bda2b664ca9dcf15,1,vase,critical,A,25,vase15.jpg,vase35.jpg,nogoal,NULL
1687282648,293b7abe27bb5a2735f0c74bdf0338d3,PennController,4,0,experiment,NULL,PennController,3,_Header_,Start,1687282134750,613890a9bda2b664ca9dcf15,613890a9bda2b664ca9dcf15,1,vase,critical,A,25,vase15.jpg,vase35.jpg,nogoal,NULL
1687282648,293b7abe27bb5a2735f0c74bdf0338d3,PennController,4,0,experiment,NULL,PennController,3,_Header_,End,1687282134750,613890a9bda2b664ca9dcf15,613890a9bda2b664ca9dcf15,1,vase,critical,A,25,vase15.jpg,vase35.jpg,nogoal,NULL
1687282648,293b7abe27bb5a2735f0c74bdf0338d3,PennController,4,0,experiment,NULL,Canvas,canvas6,Print,NA,1687282138442,613890a9bda2b664ca9dcf15,613890a9bda2b664ca9dcf15,1,vase,critical,A,25,vase15.jpg,vase35.jpg,nogoal,NULL
1687282648,293b7abe27bb5a2735f0c74bdf0338d3,PennController,4,0,experiment,NULL,Video,progression,buffer,0.008137,1687282136280,613890a9bda2b664ca9dcf15,613890a9bda2b664ca9dcf15,1,vase,critical,A,25,vase15.jpg,vase35.jpg,nogoal,NULL
1687282648,293b7abe27bb5a2735f0c74bdf0338d3,PennController,4,0,experiment,NULL,Selector,choice,Selection,option2,1687282140559,613890a9bda2b664ca9dcf15,613890a9bda2b664ca9dcf15,1,vase,critical,A,25,vase15.jpg,vase35.jpg,nogoal,option1;option2
1687282648,293b7abe27bb5a2735f0c74bdf0338d3,PennController,4,0,experiment,NULL,PennController,3,_Trial_,End,1687282140560,613890a9bda2b664ca9dcf15,613890a9bda2b664ca9dcf15,1,vase,critical,A,25,vase15.jpg,vase35.jpg,nogoal,NULL
1687282648,293b7abe27bb5a2735f0c74bdf0338d3,PennController,8,0,experiment,NULL,PennController,7,_Trial_,Start,1687282140560,613890a9bda2b664ca9dcf15,613890a9bda2b664ca9dcf15,5,book,critical,A,50,book40.jpg,book60.jpg,nogoal,NULL
1687282648,293b7abe27bb5a2735f0c74bdf0338d3,PennController,8,0,experiment,NULL,PennController,7,_Header_,Start,1687282140560,613890a9bda2b664ca9dcf15,613890a9bda2b664ca9dcf15,5,book,critical,A,50,book40.jpg,book60.jpg,nogoal,NULL
1687282648,293b7abe27bb5a2735f0c74bdf0338d3,PennController,8,0,experiment,NULL,PennController,7,_Header_,End,1687282140560,613890a9bda2b664ca9dcf15,613890a9bda2b664ca9dcf15,5,book,critical,A,50,book40.jpg,book60.jpg,nogoal,NULL
1687282648,293b7abe27bb5a2735f0c74bdf0338d3,PennController,8,0,experiment,NULL,Canvas,canvas6,Print,NA,1687282145242,613890a9bda2b664ca9dcf15,613890a9bda2b664ca9dcf15,5,book,critical,A,50,book40.jpg,book60.jpg,nogoal,NULL
1687282648,293b7abe27bb5a2735f0c74bdf0338d3,PennController,8,0,experiment,NULL,Video,progression,buffer,0.003099,1687282142078,613890a9bda2b664ca9dcf15,613890a9bda2b664ca9dcf15,5,book,critical,A,50,book40.jpg,book60.jpg,nogoal,NULL
1687282648,293b7abe27bb5a2735f0c74bdf0338d3,PennController,8,0,experiment,NULL,Selector,choice,Selection,option1,1687282146732,613890a9bda2b664ca9dcf15,613890a9bda2b664ca9dcf15,5,book,critical,A,50,book40.jpg,book60.jpg,nogoal,option2;option1
1687282648,293b7abe27bb5a2735f0c74bdf0338d3,PennController,8,0,experiment,NULL,PennController,7,_Trial_,End,1687282146733,613890a9bda2b664ca9dcf15,613890a9bda2b664ca9dcf15,5,book,critical,A,50,book40.jpg,book60.jpg,nogoal,NULL
1687282648,293b7abe27bb5a2735f0c74bdf0338d3,PennController,5,0,experiment,NULL,PennController,4,_Trial_,Start,1687282146734,613890a9bda2b664ca9dcf15,613890a9bda2b664ca9dcf15,2,door,critical,A,50,door40.jpg,door60.jpg,nogoal,NULL
1687282648,293b7abe27bb5a2735f0c74bdf0338d3,PennController,5,0,experiment,NULL,PennController,4,_Header_,Start,1687282146734,613890a9bda2b664ca9dcf15,613890a9bda2b664ca9dcf15,2,door,critical,A,50,door40.jpg,door60.jpg,nogoal,NULL
1687282648,293b7abe27bb5a2735f0c74bdf0338d3,PennController,5,0,experiment,NULL,PennController,4,_Header_,End,1687282146734,613890a9bda2b664ca9dcf15,613890a9bda2b664ca9dcf15,2,door,critical,A,50,door40.jpg,door60.jpg,nogoal,NULL
1687282648,293b7abe27bb5a2735f0c74bdf0338d3,PennController,5,0,experiment,NULL,Canvas,canvas6,Print,NA,1687282151429,613890a9bda2b664ca9dcf15,613890a9bda2b664ca9dcf15,2,door,critical,A,50,door40.jpg,door60.jpg,nogoal,NULL
1687282648,293b7abe27bb5a2735f0c74bdf0338d3,PennController,5,0,experiment,NULL,Video,progression,buffer,0.002758,1687282148256,613890a9bda2b664ca9dcf15,613890a9bda2b664ca9dcf15,2,door,critical,A,50,door40.jpg,door60.jpg,nogoal,NULL
1687282648,293b7abe27bb5a2735f0c74bdf0338d3,PennController,5,0,experiment,NULL,Selector,choice,Selection,option2,1687282154371,613890a9bda2b664ca9dcf15,613890a9bda2b664ca9dcf15,2,door,critical,A,50,door40.jpg,door60.jpg,nogoal,option1;option2
1687282648,293b7abe27bb5a2735f0c74bdf0338d3,PennController,5,0,experiment,NULL,PennController,4,_Trial_,End,1687282154373,613890a9bda2b664ca9dcf15,613890a9bda2b664ca9dcf15,2,door,critical,A,50,door40.jpg,door60.jpg,nogoal,NULL
1687282648,293b7abe27bb5a2735f0c74bdf0338d3,PennController,23,0,experiment,NULL,PennController,22,_Trial_,Start,1687282154374,613890a9bda2b664ca9dcf15,613890a9bda2b664ca9dcf15,20,cat,filler,A,50,cat40.jpg,cat60.jpg,nogoal,NULL
1687282648,293b7abe27bb5a2735f0c74bdf0338d3,PennController,23,0,experiment,NULL,PennController,22,_Header_,Start,1687282154374,613890a9bda2b664ca9dcf15,613890a9bda2b664ca9dcf15,20,cat,filler,A,50,cat40.jpg,cat60.jpg,nogoal,NULL
1687282648,293b7abe27bb5a2735f0c74bdf0338d3,PennController,23,0,experiment,NULL,PennController,22,_Header_,End,1687282154374,613890a9bda2b664ca9dcf15,613890a9bda2b664ca9dcf15,20,cat,filler,A,50,cat40.jpg,cat60.jpg,nogoal,NULL
1687282648,293b7abe27bb5a2735f0c74bdf0338d3,PennController,23,0,experiment,NULL,Canvas,canvas6,Print,NA,1687282159061,613890a9bda2b664ca9dcf15,613890a9bda2b664ca9dcf15,20,cat,filler,A,50,cat40.jpg,cat60.jpg,nogoal,NULL
1687282648,293b7abe27bb5a2735f0c74bdf0338d3,PennController,23,0,experiment,NULL,Video,progression,buffer,0.005685,1687282155899,613890a9bda2b664ca9dcf15,613890a9bda2b664ca9dcf15,20,cat,filler,A,50,cat40.jpg,cat60.jpg,nogoal,NULL
1687282648,293b7abe27bb5a2735f0c74bdf0338d3,PennController,23,0,experiment,NULL,Selector,choice,Selection,option2,1687282648528,613890a9bda2b664ca9dcf15,613890a9bda2b664ca9dcf15,20,cat,filler,A,50,cat40.jpg,cat60.jpg,nogoal,option2;option1
1687282648,293b7abe27bb5a2735f0c74bdf0338d3,PennController,23,0,experiment,NULL,PennController,22,_Trial_,End,1687282648530,613890a9bda2b664ca9dcf15,613890a9bda2b664ca9dcf15,20,cat,filler,A,50,cat40.jpg,cat60.jpg,nogoal,NULL
