#
# Results on Tuesday June 20 2023 17:20:51 UTC
# USER AGENT: Mozilla/5.0 (Windows NT 10.0; Win64; x64) AppleWebKit/537.36 (KHTML, like Gecko) Chrome/114.0.0.0 Safari/537.36
# Design number was non-random = 4
#
# Columns below this comment are as follows:
# 1. Results reception time.
# 2. MD5 hash of participant's IP address.
# 3. Controller name.
# 4. Order number of item.
# 5. Inner element number.
# 6. Label.
# 7. Latin Square Group.
# 8. PennElementType.
# 9. PennElementName.
# 10. Parameter.
# 11. Value.
# 12. EventTime.
# 13. PROLIFIC_ID.
# 14. Comments.
1687281651,0aeb571df955b27182f61adf94dbf8ba,PennController,2,0,consent,NULL,PennController,0,_Trial_,Start,1687281336163,60fb21661e691c5ff8ce5967,NULL
1687281651,0aeb571df955b27182f61adf94dbf8ba,PennController,2,0,consent,NULL,PennController,0,_Header_,Start,1687281336163,60fb21661e691c5ff8ce5967,NULL
1687281651,0aeb571df955b27182f61adf94dbf8ba,PennController,2,0,consent,NULL,PennController,0,_Header_,End,1687281336163,60fb21661e691c5ff8ce5967,NULL
1687281651,0aeb571df955b27182f61adf94dbf8ba,PennController,2,0,consent,NULL,PennController,0,_Trial_,End,1687281364029,60fb21661e691c5ff8ce5967,NULL
# Columns below this comment are as follows:
# 14. ID.
# 15. Comments.
1687281651,0aeb571df955b27182f61adf94dbf8ba,PennController,3,0,intro,NULL,PennController,1,_Trial_,Start,1687281364043,60fb21661e691c5ff8ce5967,60fb21661e691c5ff8ce5967,NULL
1687281651,0aeb571df955b27182f61adf94dbf8ba,PennController,3,0,intro,NULL,PennController,1,_Header_,Start,1687281364043,60fb21661e691c5ff8ce5967,60fb21661e691c5ff8ce5967,NULL
1687281651,0aeb571df955b27182f61adf94dbf8ba,PennController,3,0,intro,NULL,PennController,1,_Header_,End,1687281364043,60fb21661e691c5ff8ce5967,60fb21661e691c5ff8ce5967,NULL
1687281651,0aeb571df955b27182f61adf94dbf8ba,PennController,3,0,intro,NULL,PennController,1,_Trial_,End,1687281435166,60fb21661e691c5ff8ce5967,60fb21661e691c5ff8ce5967,NULL
# Columns below this comment are as follows:
# 15. item_number.
# 16. item.
# 17. type.
# 18. Group.
# 19. prog.
# 20. prev_image.
# 21. next_image.
# 22. height.
# 23. Comments.
1687281651,0aeb571df955b27182f61adf94dbf8ba,PennController,17,0,experiment,NULL,PennController,16,_Trial_,Start,1687281435168,60fb21661e691c5ff8ce5967,60fb21661e691c5ff8ce5967,14,cover,critical,B,75,cover66.jpg,cover84.jpg,nogoal,NULL
1687281651,0aeb571df955b27182f61adf94dbf8ba,PennController,17,0,experiment,NULL,PennController,16,_Header_,Start,1687281435169,60fb21661e691c5ff8ce5967,60fb21661e691c5ff8ce5967,14,cover,critical,B,75,cover66.jpg,cover84.jpg,nogoal,NULL
1687281651,0aeb571df955b27182f61adf94dbf8ba,PennController,17,0,experiment,NULL,PennController,16,_Header_,End,1687281435169,60fb21661e691c5ff8ce5967,60fb21661e691c5ff8ce5967,14,cover,critical,B,75,cover66.jpg,cover84.jpg,nogoal,NULL
1687281651,0aeb571df955b27182f61adf94dbf8ba,PennController,17,0,experiment,NULL,Canvas,canvas6,Print,NA,1687281443246,60fb21661e691c5ff8ce5967,60fb21661e691c5ff8ce5967,14,cover,critical,B,75,cover66.jpg,cover84.jpg,nogoal,NULL
1687281651,0aeb571df955b27182f61adf94dbf8ba,PennController,17,0,experiment,NULL,Video,progression,buffer,0.105109,1687281437109,60fb21661e691c5ff8ce5967,60fb21661e691c5ff8ce5967,14,cover,critical,B,75,cover66.jpg,cover84.jpg,nogoal,NULL
1687281651,0aeb571df955b27182f61adf94dbf8ba,PennController,17,0,experiment,NULL,Selector,choice,Selection,option1,1687281451832,60fb21661e691c5ff8ce5967,60fb21661e691c5ff8ce5967,14,cover,critical,B,75,cover66.jpg,cover84.jpg,nogoal,option1;option2
1687281651,0aeb571df955b27182f61adf94dbf8ba,PennController,17,0,experiment,NULL,PennController,16,_Trial_,End,1687281451842,60fb21661e691c5ff8ce5967,60fb21661e691c5ff8ce5967,14,cover,critical,B,75,cover66.jpg,cover84.jpg,nogoal,NULL
1687281651,0aeb571df955b27182f61adf94dbf8ba,PennController,25,0,experiment,NULL,PennController,24,_Trial_,Start,1687281451849,60fb21661e691c5ff8ce5967,60fb21661e691c5ff8ce5967,22,wall,filler,B,50,wall40.jpg,wall60.jpg,nogoal,NULL
1687281651,0aeb571df955b27182f61adf94dbf8ba,PennController,25,0,experiment,NULL,PennController,24,_Header_,Start,1687281451849,60fb21661e691c5ff8ce5967,60fb21661e691c5ff8ce5967,22,wall,filler,B,50,wall40.jpg,wall60.jpg,nogoal,NULL
1687281651,0aeb571df955b27182f61adf94dbf8ba,PennController,25,0,experiment,NULL,PennController,24,_Header_,End,1687281451849,60fb21661e691c5ff8ce5967,60fb21661e691c5ff8ce5967,22,wall,filler,B,50,wall40.jpg,wall60.jpg,nogoal,NULL
1687281651,0aeb571df955b27182f61adf94dbf8ba,PennController,25,0,experiment,NULL,Canvas,canvas6,Print,NA,1687281456574,60fb21661e691c5ff8ce5967,60fb21661e691c5ff8ce5967,22,wall,filler,B,50,wall40.jpg,wall60.jpg,nogoal,NULL
1687281651,0aeb571df955b27182f61adf94dbf8ba,PennController,25,0,experiment,NULL,Video,progression,buffer,0.023134,1687281453417,60fb21661e691c5ff8ce5967,60fb21661e691c5ff8ce5967,22,wall,filler,B,50,wall40.jpg,wall60.jpg,nogoal,NULL
1687281651,0aeb571df955b27182f61adf94dbf8ba,PennController,25,0,experiment,NULL,Selector,choice,Selection,option2,1687281458852,60fb21661e691c5ff8ce5967,60fb21661e691c5ff8ce5967,22,wall,filler,B,50,wall40.jpg,wall60.jpg,nogoal,option2;option1
1687281651,0aeb571df955b27182f61adf94dbf8ba,PennController,25,0,experiment,NULL,PennController,24,_Trial_,End,1687281458858,60fb21661e691c5ff8ce5967,60fb21661e691c5ff8ce5967,22,wall,filler,B,50,wall40.jpg,wall60.jpg,nogoal,NULL
1687281651,0aeb571df955b27182f61adf94dbf8ba,PennController,8,0,experiment,NULL,PennController,7,_Trial_,Start,1687281458867,60fb21661e691c5ff8ce5967,60fb21661e691c5ff8ce5967,5,book,critical,B,75,book65.jpg,book85.jpg,nogoal,NULL
1687281651,0aeb571df955b27182f61adf94dbf8ba,PennController,8,0,experiment,NULL,PennController,7,_Header_,Start,1687281458867,60fb21661e691c5ff8ce5967,60fb21661e691c5ff8ce5967,5,book,critical,B,75,book65.jpg,book85.jpg,nogoal,NULL
1687281651,0aeb571df955b27182f61adf94dbf8ba,PennController,8,0,experiment,NULL,PennController,7,_Header_,End,1687281458867,60fb21661e691c5ff8ce5967,60fb21661e691c5ff8ce5967,5,book,critical,B,75,book65.jpg,book85.jpg,nogoal,NULL
1687281651,0aeb571df955b27182f61adf94dbf8ba,PennController,8,0,experiment,NULL,Canvas,canvas6,Print,NA,1687281464574,60fb21661e691c5ff8ce5967,60fb21661e691c5ff8ce5967,5,book,critical,B,75,book65.jpg,book85.jpg,nogoal,NULL
1687281651,0aeb571df955b27182f61adf94dbf8ba,PennController,8,0,experiment,NULL,Video,progression,buffer,0.022973,1687281460435,60fb21661e691c5ff8ce5967,60fb21661e691c5ff8ce5967,5,book,critical,B,75,book65.jpg,book85.jpg,nogoal,NULL
1687281651,0aeb571df955b27182f61adf94dbf8ba,PennController,8,0,experiment,NULL,Selector,choice,Selection,option1,1687281467965,60fb21661e691c5ff8ce5967,60fb21661e691c5ff8ce5967,5,book,critical,B,75,book65.jpg,book85.jpg,nogoal,option2;option1
1687281651,0aeb571df955b27182f61adf94dbf8ba,PennController,8,0,experiment,NULL,PennController,7,_Trial_,End,1687281467971,60fb21661e691c5ff8ce5967,60fb21661e691c5ff8ce5967,5,book,critical,B,75,book65.jpg,book85.jpg,nogoal,NULL
1687281651,0aeb571df955b27182f61adf94dbf8ba,PennController,26,0,experiment,NULL,PennController,25,_Trial_,Start,1687281467976,60fb21661e691c5ff8ce5967,60fb21661e691c5ff8ce5967,23,color,filler,B,75,color65.jpg,color85.jpg,nogoal,NULL
1687281651,0aeb571df955b27182f61adf94dbf8ba,PennController,26,0,experiment,NULL,PennController,25,_Header_,Start,1687281467976,60fb21661e691c5ff8ce5967,60fb21661e691c5ff8ce5967,23,color,filler,B,75,color65.jpg,color85.jpg,nogoal,NULL
1687281651,0aeb571df955b27182f61adf94dbf8ba,PennController,26,0,experiment,NULL,PennController,25,_Header_,End,1687281467976,60fb21661e691c5ff8ce5967,60fb21661e691c5ff8ce5967,23,color,filler,B,75,color65.jpg,color85.jpg,nogoal,NULL
1687281651,0aeb571df955b27182f61adf94dbf8ba,PennController,26,0,experiment,NULL,Canvas,canvas6,Print,NA,1687281473681,60fb21661e691c5ff8ce5967,60fb21661e691c5ff8ce5967,23,color,filler,B,75,color65.jpg,color85.jpg,nogoal,NULL
1687281651,0aeb571df955b27182f61adf94dbf8ba,PennController,26,0,experiment,NULL,Video,progression,buffer,0.021596,1687281469540,60fb21661e691c5ff8ce5967,60fb21661e691c5ff8ce5967,23,color,filler,B,75,color65.jpg,color85.jpg,nogoal,NULL
1687281651,0aeb571df955b27182f61adf94dbf8ba,PennController,26,0,experiment,NULL,Selector,choice,Selection,option1,1687281476232,60fb21661e691c5ff8ce5967,60fb21661e691c5ff8ce5967,23,color,filler,B,75,color65.jpg,color85.jpg,nogoal,option1;option2
1687281651,0aeb571df955b27182f61adf94dbf8ba,PennController,26,0,experiment,NULL,PennController,25,_Trial_,End,1687281476234,60fb21661e691c5ff8ce5967,60fb21661e691c5ff8ce5967,23,color,filler,B,75,color65.jpg,color85.jpg,nogoal,NULL
1687281651,0aeb571df955b27182f61adf94dbf8ba,PennController,14,0,experiment,NULL,PennController,13,_Trial_,Start,1687281476236,60fb21661e691c5ff8ce5967,60fb21661e691c5ff8ce5967,11,beads,critical,B,75,beads65.jpg,beads85.jpg,nogoal,NULL
1687281651,0aeb571df955b27182f61adf94dbf8ba,PennController,14,0,experiment,NULL,PennController,13,_Header_,Start,1687281476236,60fb21661e691c5ff8ce5967,60fb21661e691c5ff8ce5967,11,beads,critical,B,75,beads65.jpg,beads85.jpg,nogoal,NULL
1687281651,0aeb571df955b27182f61adf94dbf8ba,PennController,14,0,experiment,NULL,PennController,13,_Header_,End,1687281476236,60fb21661e691c5ff8ce5967,60fb21661e691c5ff8ce5967,11,beads,critical,B,75,beads65.jpg,beads85.jpg,nogoal,NULL
1687281651,0aeb571df955b27182f61adf94dbf8ba,PennController,14,0,experiment,NULL,Canvas,canvas6,Print,NA,1687281481917,60fb21661e691c5ff8ce5967,60fb21661e691c5ff8ce5967,11,beads,critical,B,75,beads65.jpg,beads85.jpg,nogoal,NULL
1687281651,0aeb571df955b27182f61adf94dbf8ba,PennController,14,0,experiment,NULL,Video,progression,buffer,0.00624,1687281477765,60fb21661e691c5ff8ce5967,60fb21661e691c5ff8ce5967,11,beads,critical,B,75,beads65.jpg,beads85.jpg,nogoal,NULL
1687281651,0aeb571df955b27182f61adf94dbf8ba,PennController,14,0,experiment,NULL,Selector,choice,Selection,option1,1687281485485,60fb21661e691c5ff8ce5967,60fb21661e691c5ff8ce5967,11,beads,critical,B,75,beads65.jpg,beads85.jpg,nogoal,option2;option1
1687281651,0aeb571df955b27182f61adf94dbf8ba,PennController,14,0,experiment,NULL,PennController,13,_Trial_,End,1687281485492,60fb21661e691c5ff8ce5967,60fb21661e691c5ff8ce5967,11,beads,critical,B,75,beads65.jpg,beads85.jpg,nogoal,NULL
1687281651,0aeb571df955b27182f61adf94dbf8ba,PennController,22,0,experiment,NULL,PennController,21,_Trial_,Start,1687281485499,60fb21661e691c5ff8ce5967,60fb21661e691c5ff8ce5967,19,cup,filler,B,50,cup40.jpg,cup60.jpg,nogoal,NULL
1687281651,0aeb571df955b27182f61adf94dbf8ba,PennController,22,0,experiment,NULL,PennController,21,_Header_,Start,1687281485499,60fb21661e691c5ff8ce5967,60fb21661e691c5ff8ce5967,19,cup,filler,B,50,cup40.jpg,cup60.jpg,nogoal,NULL
1687281651,0aeb571df955b27182f61adf94dbf8ba,PennController,22,0,experiment,NULL,PennController,21,_Header_,End,1687281485500,60fb21661e691c5ff8ce5967,60fb21661e691c5ff8ce5967,19,cup,filler,B,50,cup40.jpg,cup60.jpg,nogoal,NULL
1687281651,0aeb571df955b27182f61adf94dbf8ba,PennController,22,0,experiment,NULL,Canvas,canvas6,Print,NA,1687281490196,60fb21661e691c5ff8ce5967,60fb21661e691c5ff8ce5967,19,cup,filler,B,50,cup40.jpg,cup60.jpg,nogoal,NULL
1687281651,0aeb571df955b27182f61adf94dbf8ba,PennController,22,0,experiment,NULL,Video,progression,buffer,0.020174,1687281487059,60fb21661e691c5ff8ce5967,60fb21661e691c5ff8ce5967,19,cup,filler,B,50,cup40.jpg,cup60.jpg,nogoal,NULL
1687281651,0aeb571df955b27182f61adf94dbf8ba,PennController,22,0,experiment,NULL,Selector,choice,Selection,option2,1687281493559,60fb21661e691c5ff8ce5967,60fb21661e691c5ff8ce5967,19,cup,filler,B,50,cup40.jpg,cup60.jpg,nogoal,option1;option2
1687281651,0aeb571df955b27182f61adf94dbf8ba,PennController,22,0,experiment,NULL,PennController,21,_Trial_,End,1687281493567,60fb21661e691c5ff8ce5967,60fb21661e691c5ff8ce5967,19,cup,filler,B,50,cup40.jpg,cup60.jpg,nogoal,NULL
1687281651,0aeb571df955b27182f61adf94dbf8ba,PennController,6,0,experiment,NULL,PennController,5,_Trial_,Start,1687281493571,60fb21661e691c5ff8ce5967,60fb21661e691c5ff8ce5967,3,clean,critical,B,25,clean15.jpg,clean35.jpg,nogoal,NULL
1687281651,0aeb571df955b27182f61adf94dbf8ba,PennController,6,0,experiment,NULL,PennController,5,_Header_,Start,1687281493571,60fb21661e691c5ff8ce5967,60fb21661e691c5ff8ce5967,3,clean,critical,B,25,clean15.jpg,clean35.jpg,nogoal,NULL
1687281651,0aeb571df955b27182f61adf94dbf8ba,PennController,6,0,experiment,NULL,PennController,5,_Header_,End,1687281493572,60fb21661e691c5ff8ce5967,60fb21661e691c5ff8ce5967,3,clean,critical,B,25,clean15.jpg,clean35.jpg,nogoal,NULL
1687281651,0aeb571df955b27182f61adf94dbf8ba,PennController,6,0,experiment,NULL,Canvas,canvas6,Print,NA,1687281497289,60fb21661e691c5ff8ce5967,60fb21661e691c5ff8ce5967,3,clean,critical,B,25,clean15.jpg,clean35.jpg,nogoal,NULL
1687281651,0aeb571df955b27182f61adf94dbf8ba,PennController,6,0,experiment,NULL,Video,progression,buffer,0.005536,1687281495115,60fb21661e691c5ff8ce5967,60fb21661e691c5ff8ce5967,3,clean,critical,B,25,clean15.jpg,clean35.jpg,nogoal,NULL
1687281651,0aeb571df955b27182f61adf94dbf8ba,PennController,6,0,experiment,NULL,Selector,choice,Selection,option2,1687281503326,60fb21661e691c5ff8ce5967,60fb21661e691c5ff8ce5967,3,clean,critical,B,25,clean15.jpg,clean35.jpg,nogoal,option1;option2
1687281651,0aeb571df955b27182f61adf94dbf8ba,PennController,6,0,experiment,NULL,PennController,5,_Trial_,End,1687281503336,60fb21661e691c5ff8ce5967,60fb21661e691c5ff8ce5967,3,clean,critical,B,25,clean15.jpg,clean35.jpg,nogoal,NULL
1687281651,0aeb571df955b27182f61adf94dbf8ba,PennController,27,0,experiment,NULL,PennController,26,_Trial_,Start,1687281503342,60fb21661e691c5ff8ce5967,60fb21661e691c5ff8ce5967,24,match,filler,B,25,match15.jpg,match35.jpg,nogoal,NULL
1687281651,0aeb571df955b27182f61adf94dbf8ba,PennController,27,0,experiment,NULL,PennController,26,_Header_,Start,1687281503342,60fb21661e691c5ff8ce5967,60fb21661e691c5ff8ce5967,24,match,filler,B,25,match15.jpg,match35.jpg,nogoal,NULL
1687281651,0aeb571df955b27182f61adf94dbf8ba,PennController,27,0,experiment,NULL,PennController,26,_Header_,End,1687281503342,60fb21661e691c5ff8ce5967,60fb21661e691c5ff8ce5967,24,match,filler,B,25,match15.jpg,match35.jpg,nogoal,NULL
1687281651,0aeb571df955b27182f61adf94dbf8ba,PennController,27,0,experiment,NULL,Canvas,canvas6,Print,NA,1687281507072,60fb21661e691c5ff8ce5967,60fb21661e691c5ff8ce5967,24,match,filler,B,25,match15.jpg,match35.jpg,nogoal,NULL
1687281651,0aeb571df955b27182f61adf94dbf8ba,PennController,27,0,experiment,NULL,Video,progression,buffer,0,1687281504895,60fb21661e691c5ff8ce5967,60fb21661e691c5ff8ce5967,24,match,filler,B,25,match15.jpg,match35.jpg,nogoal,NULL
1687281651,0aeb571df955b27182f61adf94dbf8ba,PennController,27,0,experiment,NULL,Selector,choice,Selection,option1,1687281510331,60fb21661e691c5ff8ce5967,60fb21661e691c5ff8ce5967,24,match,filler,B,25,match15.jpg,match35.jpg,nogoal,option1;option2
1687281651,0aeb571df955b27182f61adf94dbf8ba,PennController,27,0,experiment,NULL,PennController,26,_Trial_,End,1687281510338,60fb21661e691c5ff8ce5967,60fb21661e691c5ff8ce5967,24,match,filler,B,25,match15.jpg,match35.jpg,nogoal,NULL
1687281651,0aeb571df955b27182f61adf94dbf8ba,PennController,20,0,experiment,NULL,PennController,19,_Trial_,Start,1687281510342,60fb21661e691c5ff8ce5967,60fb21661e691c5ff8ce5967,17,roll,critical,B,75,roll65.jpg,roll85.jpg,nogoal,NULL
1687281651,0aeb571df955b27182f61adf94dbf8ba,PennController,20,0,experiment,NULL,PennController,19,_Header_,Start,1687281510342,60fb21661e691c5ff8ce5967,60fb21661e691c5ff8ce5967,17,roll,critical,B,75,roll65.jpg,roll85.jpg,nogoal,NULL
1687281651,0aeb571df955b27182f61adf94dbf8ba,PennController,20,0,experiment,NULL,PennController,19,_Header_,End,1687281510342,60fb21661e691c5ff8ce5967,60fb21661e691c5ff8ce5967,17,roll,critical,B,75,roll65.jpg,roll85.jpg,nogoal,NULL
1687281651,0aeb571df955b27182f61adf94dbf8ba,PennController,20,0,experiment,NULL,Canvas,canvas6,Print,NA,1687281516064,60fb21661e691c5ff8ce5967,60fb21661e691c5ff8ce5967,17,roll,critical,B,75,roll65.jpg,roll85.jpg,nogoal,NULL
1687281651,0aeb571df955b27182f61adf94dbf8ba,PennController,20,0,experiment,NULL,Video,progression,buffer,0.024823,1687281511903,60fb21661e691c5ff8ce5967,60fb21661e691c5ff8ce5967,17,roll,critical,B,75,roll65.jpg,roll85.jpg,nogoal,NULL
1687281651,0aeb571df955b27182f61adf94dbf8ba,PennController,20,0,experiment,NULL,Selector,choice,Selection,option2,1687281518536,60fb21661e691c5ff8ce5967,60fb21661e691c5ff8ce5967,17,roll,critical,B,75,roll65.jpg,roll85.jpg,nogoal,option2;option1
1687281651,0aeb571df955b27182f61adf94dbf8ba,PennController,20,0,experiment,NULL,PennController,19,_Trial_,End,1687281518542,60fb21661e691c5ff8ce5967,60fb21661e691c5ff8ce5967,17,roll,critical,B,75,roll65.jpg,roll85.jpg,nogoal,NULL
1687281651,0aeb571df955b27182f61adf94dbf8ba,PennController,28,0,experiment,NULL,PennController,27,_Trial_,Start,1687281518547,60fb21661e691c5ff8ce5967,60fb21661e691c5ff8ce5967,25,house,filler,B,50,house40.jpg,house60.jpg,nogoal,NULL
1687281651,0aeb571df955b27182f61adf94dbf8ba,PennController,28,0,experiment,NULL,PennController,27,_Header_,Start,1687281518547,60fb21661e691c5ff8ce5967,60fb21661e691c5ff8ce5967,25,house,filler,B,50,house40.jpg,house60.jpg,nogoal,NULL
1687281651,0aeb571df955b27182f61adf94dbf8ba,PennController,28,0,experiment,NULL,PennController,27,_Header_,End,1687281518547,60fb21661e691c5ff8ce5967,60fb21661e691c5ff8ce5967,25,house,filler,B,50,house40.jpg,house60.jpg,nogoal,NULL
1687281651,0aeb571df955b27182f61adf94dbf8ba,PennController,28,0,experiment,NULL,Canvas,canvas6,Print,NA,1687281523283,60fb21661e691c5ff8ce5967,60fb21661e691c5ff8ce5967,25,house,filler,B,50,house40.jpg,house60.jpg,nogoal,NULL
1687281651,0aeb571df955b27182f61adf94dbf8ba,PennController,28,0,experiment,NULL,Video,progression,buffer,0.016138,1687281520115,60fb21661e691c5ff8ce5967,60fb21661e691c5ff8ce5967,25,house,filler,B,50,house40.jpg,house60.jpg,nogoal,NULL
1687281651,0aeb571df955b27182f61adf94dbf8ba,PennController,28,0,experiment,NULL,Selector,choice,Selection,option1,1687281526218,60fb21661e691c5ff8ce5967,60fb21661e691c5ff8ce5967,25,house,filler,B,50,house40.jpg,house60.jpg,nogoal,option2;option1
1687281651,0aeb571df955b27182f61adf94dbf8ba,PennController,28,0,experiment,NULL,PennController,27,_Trial_,End,1687281526224,60fb21661e691c5ff8ce5967,60fb21661e691c5ff8ce5967,25,house,filler,B,50,house40.jpg,house60.jpg,nogoal,NULL
1687281651,0aeb571df955b27182f61adf94dbf8ba,PennController,29,0,experiment,NULL,PennController,28,_Trial_,Start,1687281526229,60fb21661e691c5ff8ce5967,60fb21661e691c5ff8ce5967,26,sandwich,filler,B,75,sandwich65.jpg,sandwich85.jpg,nogoal,NULL
1687281651,0aeb571df955b27182f61adf94dbf8ba,PennController,29,0,experiment,NULL,PennController,28,_Header_,Start,1687281526229,60fb21661e691c5ff8ce5967,60fb21661e691c5ff8ce5967,26,sandwich,filler,B,75,sandwich65.jpg,sandwich85.jpg,nogoal,NULL
1687281651,0aeb571df955b27182f61adf94dbf8ba,PennController,29,0,experiment,NULL,PennController,28,_Header_,End,1687281526229,60fb21661e691c5ff8ce5967,60fb21661e691c5ff8ce5967,26,sandwich,filler,B,75,sandwich65.jpg,sandwich85.jpg,nogoal,NULL
1687281651,0aeb571df955b27182f61adf94dbf8ba,PennController,29,0,experiment,NULL,Canvas,canvas6,Print,NA,1687281531961,60fb21661e691c5ff8ce5967,60fb21661e691c5ff8ce5967,26,sandwich,filler,B,75,sandwich65.jpg,sandwich85.jpg,nogoal,NULL
1687281651,0aeb571df955b27182f61adf94dbf8ba,PennController,29,0,experiment,NULL,Video,progression,buffer,0.018678,1687281527784,60fb21661e691c5ff8ce5967,60fb21661e691c5ff8ce5967,26,sandwich,filler,B,75,sandwich65.jpg,sandwich85.jpg,nogoal,NULL
1687281651,0aeb571df955b27182f61adf94dbf8ba,PennController,29,0,experiment,NULL,Selector,choice,Selection,option2,1687281533759,60fb21661e691c5ff8ce5967,60fb21661e691c5ff8ce5967,26,sandwich,filler,B,75,sandwich65.jpg,sandwich85.jpg,nogoal,option1;option2
1687281651,0aeb571df955b27182f61adf94dbf8ba,PennController,29,0,experiment,NULL,PennController,28,_Trial_,End,1687281533766,60fb21661e691c5ff8ce5967,60fb21661e691c5ff8ce5967,26,sandwich,filler,B,75,sandwich65.jpg,sandwich85.jpg,nogoal,NULL
1687281651,0aeb571df955b27182f61adf94dbf8ba,PennController,7,0,experiment,NULL,PennController,6,_Trial_,Start,1687281533770,60fb21661e691c5ff8ce5967,60fb21661e691c5ff8ce5967,4,candy,critical,B,50,candy40.jpg,candy60.jpg,nogoal,NULL
1687281651,0aeb571df955b27182f61adf94dbf8ba,PennController,7,0,experiment,NULL,PennController,6,_Header_,Start,1687281533770,60fb21661e691c5ff8ce5967,60fb21661e691c5ff8ce5967,4,candy,critical,B,50,candy40.jpg,candy60.jpg,nogoal,NULL
1687281651,0aeb571df955b27182f61adf94dbf8ba,PennController,7,0,experiment,NULL,PennController,6,_Header_,End,1687281533770,60fb21661e691c5ff8ce5967,60fb21661e691c5ff8ce5967,4,candy,critical,B,50,candy40.jpg,candy60.jpg,nogoal,NULL
1687281651,0aeb571df955b27182f61adf94dbf8ba,PennController,7,0,experiment,NULL,Canvas,canvas6,Print,NA,1687281538507,60fb21661e691c5ff8ce5967,60fb21661e691c5ff8ce5967,4,candy,critical,B,50,candy40.jpg,candy60.jpg,nogoal,NULL
1687281651,0aeb571df955b27182f61adf94dbf8ba,PennController,7,0,experiment,NULL,Video,progression,buffer,0.012768,1687281535333,60fb21661e691c5ff8ce5967,60fb21661e691c5ff8ce5967,4,candy,critical,B,50,candy40.jpg,candy60.jpg,nogoal,NULL
1687281651,0aeb571df955b27182f61adf94dbf8ba,PennController,7,0,experiment,NULL,Selector,choice,Selection,option1,1687281540188,60fb21661e691c5ff8ce5967,60fb21661e691c5ff8ce5967,4,candy,critical,B,50,candy40.jpg,candy60.jpg,nogoal,option2;option1
1687281651,0aeb571df955b27182f61adf94dbf8ba,PennController,7,0,experiment,NULL,PennController,6,_Trial_,End,1687281540193,60fb21661e691c5ff8ce5967,60fb21661e691c5ff8ce5967,4,candy,critical,B,50,candy40.jpg,candy60.jpg,nogoal,NULL
1687281651,0aeb571df955b27182f61adf94dbf8ba,PennController,15,0,experiment,NULL,PennController,14,_Trial_,Start,1687281540197,60fb21661e691c5ff8ce5967,60fb21661e691c5ff8ce5967,12,erase,critical,B,25,erase15.jpg,erase33.jpg,nogoal,NULL
1687281651,0aeb571df955b27182f61adf94dbf8ba,PennController,15,0,experiment,NULL,PennController,14,_Header_,Start,1687281540197,60fb21661e691c5ff8ce5967,60fb21661e691c5ff8ce5967,12,erase,critical,B,25,erase15.jpg,erase33.jpg,nogoal,NULL
1687281651,0aeb571df955b27182f61adf94dbf8ba,PennController,15,0,experiment,NULL,PennController,14,_Header_,End,1687281540197,60fb21661e691c5ff8ce5967,60fb21661e691c5ff8ce5967,12,erase,critical,B,25,erase15.jpg,erase33.jpg,nogoal,NULL
1687281651,0aeb571df955b27182f61adf94dbf8ba,PennController,15,0,experiment,NULL,Canvas,canvas6,Print,NA,1687281544530,60fb21661e691c5ff8ce5967,60fb21661e691c5ff8ce5967,12,erase,critical,B,25,erase15.jpg,erase33.jpg,nogoal,NULL
1687281651,0aeb571df955b27182f61adf94dbf8ba,PennController,15,0,experiment,NULL,Video,progression,buffer,0.023029,1687281541767,60fb21661e691c5ff8ce5967,60fb21661e691c5ff8ce5967,12,erase,critical,B,25,erase15.jpg,erase33.jpg,nogoal,NULL
1687281651,0aeb571df955b27182f61adf94dbf8ba,PennController,15,0,experiment,NULL,Selector,choice,Selection,option2,1687281549544,60fb21661e691c5ff8ce5967,60fb21661e691c5ff8ce5967,12,erase,critical,B,25,erase15.jpg,erase33.jpg,nogoal,option2;option1
1687281651,0aeb571df955b27182f61adf94dbf8ba,PennController,15,0,experiment,NULL,PennController,14,_Trial_,End,1687281549551,60fb21661e691c5ff8ce5967,60fb21661e691c5ff8ce5967,12,erase,critical,B,25,erase15.jpg,erase33.jpg,nogoal,NULL
1687281651,0aeb571df955b27182f61adf94dbf8ba,PennController,10,0,experiment,NULL,PennController,9,_Trial_,Start,1687281549557,60fb21661e691c5ff8ce5967,60fb21661e691c5ff8ce5967,7,stack,critical,B,50,stack40.jpg,stack60.jpg,nogoal,NULL
1687281651,0aeb571df955b27182f61adf94dbf8ba,PennController,10,0,experiment,NULL,PennController,9,_Header_,Start,1687281549557,60fb21661e691c5ff8ce5967,60fb21661e691c5ff8ce5967,7,stack,critical,B,50,stack40.jpg,stack60.jpg,nogoal,NULL
1687281651,0aeb571df955b27182f61adf94dbf8ba,PennController,10,0,experiment,NULL,PennController,9,_Header_,End,1687281549557,60fb21661e691c5ff8ce5967,60fb21661e691c5ff8ce5967,7,stack,critical,B,50,stack40.jpg,stack60.jpg,nogoal,NULL
1687281651,0aeb571df955b27182f61adf94dbf8ba,PennController,10,0,experiment,NULL,Canvas,canvas6,Print,NA,1687281554273,60fb21661e691c5ff8ce5967,60fb21661e691c5ff8ce5967,7,stack,critical,B,50,stack40.jpg,stack60.jpg,nogoal,NULL
1687281651,0aeb571df955b27182f61adf94dbf8ba,PennController,10,0,experiment,NULL,Video,progression,buffer,0.019331,1687281551117,60fb21661e691c5ff8ce5967,60fb21661e691c5ff8ce5967,7,stack,critical,B,50,stack40.jpg,stack60.jpg,nogoal,NULL
1687281651,0aeb571df955b27182f61adf94dbf8ba,PennController,10,0,experiment,NULL,Selector,choice,Selection,option2,1687281556240,60fb21661e691c5ff8ce5967,60fb21661e691c5ff8ce5967,7,stack,critical,B,50,stack40.jpg,stack60.jpg,nogoal,option2;option1
1687281651,0aeb571df955b27182f61adf94dbf8ba,PennController,10,0,experiment,NULL,PennController,9,_Trial_,End,1687281556245,60fb21661e691c5ff8ce5967,60fb21661e691c5ff8ce5967,7,stack,critical,B,50,stack40.jpg,stack60.jpg,nogoal,NULL
1687281651,0aeb571df955b27182f61adf94dbf8ba,PennController,12,0,experiment,NULL,PennController,11,_Trial_,Start,1687281556250,60fb21661e691c5ff8ce5967,60fb21661e691c5ff8ce5967,9,cake,critical,B,25,cake15.jpg,cake33.jpg,nogoal,NULL
1687281651,0aeb571df955b27182f61adf94dbf8ba,PennController,12,0,experiment,NULL,PennController,11,_Header_,Start,1687281556250,60fb21661e691c5ff8ce5967,60fb21661e691c5ff8ce5967,9,cake,critical,B,25,cake15.jpg,cake33.jpg,nogoal,NULL
1687281651,0aeb571df955b27182f61adf94dbf8ba,PennController,12,0,experiment,NULL,PennController,11,_Header_,End,1687281556250,60fb21661e691c5ff8ce5967,60fb21661e691c5ff8ce5967,9,cake,critical,B,25,cake15.jpg,cake33.jpg,nogoal,NULL
1687281651,0aeb571df955b27182f61adf94dbf8ba,PennController,12,0,experiment,NULL,Canvas,canvas6,Print,NA,1687281560560,60fb21661e691c5ff8ce5967,60fb21661e691c5ff8ce5967,9,cake,critical,B,25,cake15.jpg,cake33.jpg,nogoal,NULL
1687281651,0aeb571df955b27182f61adf94dbf8ba,PennController,12,0,experiment,NULL,Video,progression,buffer,0.023543,1687281557817,60fb21661e691c5ff8ce5967,60fb21661e691c5ff8ce5967,9,cake,critical,B,25,cake15.jpg,cake33.jpg,nogoal,NULL
1687281651,0aeb571df955b27182f61adf94dbf8ba,PennController,12,0,experiment,NULL,Selector,choice,Selection,option1,1687281562561,60fb21661e691c5ff8ce5967,60fb21661e691c5ff8ce5967,9,cake,critical,B,25,cake15.jpg,cake33.jpg,nogoal,option1;option2
1687281651,0aeb571df955b27182f61adf94dbf8ba,PennController,12,0,experiment,NULL,PennController,11,_Trial_,End,1687281562567,60fb21661e691c5ff8ce5967,60fb21661e691c5ff8ce5967,9,cake,critical,B,25,cake15.jpg,cake33.jpg,nogoal,NULL
1687281651,0aeb571df955b27182f61adf94dbf8ba,PennController,32,0,experiment,NULL,PennController,31,_Trial_,Start,1687281562571,60fb21661e691c5ff8ce5967,60fb21661e691c5ff8ce5967,29,frog,filler,B,75,frog65.jpg,frog85.jpg,nogoal,NULL
1687281651,0aeb571df955b27182f61adf94dbf8ba,PennController,32,0,experiment,NULL,PennController,31,_Header_,Start,1687281562571,60fb21661e691c5ff8ce5967,60fb21661e691c5ff8ce5967,29,frog,filler,B,75,frog65.jpg,frog85.jpg,nogoal,NULL
1687281651,0aeb571df955b27182f61adf94dbf8ba,PennController,32,0,experiment,NULL,PennController,31,_Header_,End,1687281562571,60fb21661e691c5ff8ce5967,60fb21661e691c5ff8ce5967,29,frog,filler,B,75,frog65.jpg,frog85.jpg,nogoal,NULL
1687281651,0aeb571df955b27182f61adf94dbf8ba,PennController,32,0,experiment,NULL,Canvas,canvas6,Print,NA,1687281568316,60fb21661e691c5ff8ce5967,60fb21661e691c5ff8ce5967,29,frog,filler,B,75,frog65.jpg,frog85.jpg,nogoal,NULL
1687281651,0aeb571df955b27182f61adf94dbf8ba,PennController,32,0,experiment,NULL,Video,progression,buffer,0.019401,1687281564133,60fb21661e691c5ff8ce5967,60fb21661e691c5ff8ce5967,29,frog,filler,B,75,frog65.jpg,frog85.jpg,nogoal,NULL
1687281651,0aeb571df955b27182f61adf94dbf8ba,PennController,32,0,experiment,NULL,Selector,choice,Selection,option1,1687281570656,60fb21661e691c5ff8ce5967,60fb21661e691c5ff8ce5967,29,frog,filler,B,75,frog65.jpg,frog85.jpg,nogoal,option1;option2
1687281651,0aeb571df955b27182f61adf94dbf8ba,PennController,32,0,experiment,NULL,PennController,31,_Trial_,End,1687281570660,60fb21661e691c5ff8ce5967,60fb21661e691c5ff8ce5967,29,frog,filler,B,75,frog65.jpg,frog85.jpg,nogoal,NULL
1687281651,0aeb571df955b27182f61adf94dbf8ba,PennController,18,0,experiment,NULL,PennController,17,_Trial_,Start,1687281570666,60fb21661e691c5ff8ce5967,60fb21661e691c5ff8ce5967,15,zip,critical,B,25,zip15.jpg,zip35.jpg,nogoal,NULL
1687281651,0aeb571df955b27182f61adf94dbf8ba,PennController,18,0,experiment,NULL,PennController,17,_Header_,Start,1687281570666,60fb21661e691c5ff8ce5967,60fb21661e691c5ff8ce5967,15,zip,critical,B,25,zip15.jpg,zip35.jpg,nogoal,NULL
1687281651,0aeb571df955b27182f61adf94dbf8ba,PennController,18,0,experiment,NULL,PennController,17,_Header_,End,1687281570666,60fb21661e691c5ff8ce5967,60fb21661e691c5ff8ce5967,15,zip,critical,B,25,zip15.jpg,zip35.jpg,nogoal,NULL
1687281651,0aeb571df955b27182f61adf94dbf8ba,PennController,18,0,experiment,NULL,Canvas,canvas6,Print,NA,1687281574393,60fb21661e691c5ff8ce5967,60fb21661e691c5ff8ce5967,15,zip,critical,B,25,zip15.jpg,zip35.jpg,nogoal,NULL
1687281651,0aeb571df955b27182f61adf94dbf8ba,PennController,18,0,experiment,NULL,Video,progression,buffer,0.019616,1687281572218,60fb21661e691c5ff8ce5967,60fb21661e691c5ff8ce5967,15,zip,critical,B,25,zip15.jpg,zip35.jpg,nogoal,NULL
1687281651,0aeb571df955b27182f61adf94dbf8ba,PennController,18,0,experiment,NULL,Selector,choice,Selection,option1,1687281575750,60fb21661e691c5ff8ce5967,60fb21661e691c5ff8ce5967,15,zip,critical,B,25,zip15.jpg,zip35.jpg,nogoal,option1;option2
1687281651,0aeb571df955b27182f61adf94dbf8ba,PennController,18,0,experiment,NULL,PennController,17,_Trial_,End,1687281575755,60fb21661e691c5ff8ce5967,60fb21661e691c5ff8ce5967,15,zip,critical,B,25,zip15.jpg,zip35.jpg,nogoal,NULL
1687281651,0aeb571df955b27182f61adf94dbf8ba,PennController,30,0,experiment,NULL,PennController,29,_Trial_,Start,1687281575760,60fb21661e691c5ff8ce5967,60fb21661e691c5ff8ce5967,27,square,filler,B,25,square15.jpg,square35.jpg,nogoal,NULL
1687281651,0aeb571df955b27182f61adf94dbf8ba,PennController,30,0,experiment,NULL,PennController,29,_Header_,Start,1687281575760,60fb21661e691c5ff8ce5967,60fb21661e691c5ff8ce5967,27,square,filler,B,25,square15.jpg,square35.jpg,nogoal,NULL
1687281651,0aeb571df955b27182f61adf94dbf8ba,PennController,30,0,experiment,NULL,PennController,29,_Header_,End,1687281575760,60fb21661e691c5ff8ce5967,60fb21661e691c5ff8ce5967,27,square,filler,B,25,square15.jpg,square35.jpg,nogoal,NULL
1687281651,0aeb571df955b27182f61adf94dbf8ba,PennController,30,0,experiment,NULL,Canvas,canvas6,Print,NA,1687281579464,60fb21661e691c5ff8ce5967,60fb21661e691c5ff8ce5967,27,square,filler,B,25,square15.jpg,square35.jpg,nogoal,NULL
1687281651,0aeb571df955b27182f61adf94dbf8ba,PennController,30,0,experiment,NULL,Video,progression,buffer,0.023344,1687281577318,60fb21661e691c5ff8ce5967,60fb21661e691c5ff8ce5967,27,square,filler,B,25,square15.jpg,square35.jpg,nogoal,NULL
1687281651,0aeb571df955b27182f61adf94dbf8ba,PennController,30,0,experiment,NULL,Selector,choice,Selection,option2,1687281581757,60fb21661e691c5ff8ce5967,60fb21661e691c5ff8ce5967,27,square,filler,B,25,square15.jpg,square35.jpg,nogoal,option2;option1
1687281651,0aeb571df955b27182f61adf94dbf8ba,PennController,30,0,experiment,NULL,PennController,29,_Trial_,End,1687281581762,60fb21661e691c5ff8ce5967,60fb21661e691c5ff8ce5967,27,square,filler,B,25,square15.jpg,square35.jpg,nogoal,NULL
1687281651,0aeb571df955b27182f61adf94dbf8ba,PennController,5,0,experiment,NULL,PennController,4,_Trial_,Start,1687281581767,60fb21661e691c5ff8ce5967,60fb21661e691c5ff8ce5967,2,door,critical,B,75,door65.jpg,door85.jpg,nogoal,NULL
1687281651,0aeb571df955b27182f61adf94dbf8ba,PennController,5,0,experiment,NULL,PennController,4,_Header_,Start,1687281581767,60fb21661e691c5ff8ce5967,60fb21661e691c5ff8ce5967,2,door,critical,B,75,door65.jpg,door85.jpg,nogoal,NULL
1687281651,0aeb571df955b27182f61adf94dbf8ba,PennController,5,0,experiment,NULL,PennController,4,_Header_,End,1687281581767,60fb21661e691c5ff8ce5967,60fb21661e691c5ff8ce5967,2,door,critical,B,75,door65.jpg,door85.jpg,nogoal,NULL
1687281651,0aeb571df955b27182f61adf94dbf8ba,PennController,5,0,experiment,NULL,Canvas,canvas6,Print,NA,1687281587461,60fb21661e691c5ff8ce5967,60fb21661e691c5ff8ce5967,2,door,critical,B,75,door65.jpg,door85.jpg,nogoal,NULL
1687281651,0aeb571df955b27182f61adf94dbf8ba,PennController,5,0,experiment,NULL,Video,progression,buffer,0.02407,1687281583334,60fb21661e691c5ff8ce5967,60fb21661e691c5ff8ce5967,2,door,critical,B,75,door65.jpg,door85.jpg,nogoal,NULL
1687281651,0aeb571df955b27182f61adf94dbf8ba,PennController,5,0,experiment,NULL,Selector,choice,Selection,option1,1687281589122,60fb21661e691c5ff8ce5967,60fb21661e691c5ff8ce5967,2,door,critical,B,75,door65.jpg,door85.jpg,nogoal,option1;option2
1687281651,0aeb571df955b27182f61adf94dbf8ba,PennController,5,0,experiment,NULL,PennController,4,_Trial_,End,1687281589127,60fb21661e691c5ff8ce5967,60fb21661e691c5ff8ce5967,2,door,critical,B,75,door65.jpg,door85.jpg,nogoal,NULL
1687281651,0aeb571df955b27182f61adf94dbf8ba,PennController,31,0,experiment,NULL,PennController,30,_Trial_,Start,1687281589134,60fb21661e691c5ff8ce5967,60fb21661e691c5ff8ce5967,28,sort,filler,B,50,sort40.jpg,sort60.jpg,nogoal,NULL
1687281651,0aeb571df955b27182f61adf94dbf8ba,PennController,31,0,experiment,NULL,PennController,30,_Header_,Start,1687281589134,60fb21661e691c5ff8ce5967,60fb21661e691c5ff8ce5967,28,sort,filler,B,50,sort40.jpg,sort60.jpg,nogoal,NULL
1687281651,0aeb571df955b27182f61adf94dbf8ba,PennController,31,0,experiment,NULL,PennController,30,_Header_,End,1687281589134,60fb21661e691c5ff8ce5967,60fb21661e691c5ff8ce5967,28,sort,filler,B,50,sort40.jpg,sort60.jpg,nogoal,NULL
1687281651,0aeb571df955b27182f61adf94dbf8ba,PennController,31,0,experiment,NULL,Canvas,canvas6,Print,NA,1687281593841,60fb21661e691c5ff8ce5967,60fb21661e691c5ff8ce5967,28,sort,filler,B,50,sort40.jpg,sort60.jpg,nogoal,NULL
1687281651,0aeb571df955b27182f61adf94dbf8ba,PennController,31,0,experiment,NULL,Video,progression,buffer,0.01958,1687281590688,60fb21661e691c5ff8ce5967,60fb21661e691c5ff8ce5967,28,sort,filler,B,50,sort40.jpg,sort60.jpg,nogoal,NULL
1687281651,0aeb571df955b27182f61adf94dbf8ba,PennController,31,0,experiment,NULL,Selector,choice,Selection,option2,1687281596057,60fb21661e691c5ff8ce5967,60fb21661e691c5ff8ce5967,28,sort,filler,B,50,sort40.jpg,sort60.jpg,nogoal,option1;option2
1687281651,0aeb571df955b27182f61adf94dbf8ba,PennController,31,0,experiment,NULL,PennController,30,_Trial_,End,1687281596062,60fb21661e691c5ff8ce5967,60fb21661e691c5ff8ce5967,28,sort,filler,B,50,sort40.jpg,sort60.jpg,nogoal,NULL
1687281651,0aeb571df955b27182f61adf94dbf8ba,PennController,11,0,experiment,NULL,PennController,10,_Trial_,Start,1687281596067,60fb21661e691c5ff8ce5967,60fb21661e691c5ff8ce5967,8,cucumber,critical,B,75,cucumber66.jpg,cucumber84.jpg,nogoal,NULL
1687281651,0aeb571df955b27182f61adf94dbf8ba,PennController,11,0,experiment,NULL,PennController,10,_Header_,Start,1687281596067,60fb21661e691c5ff8ce5967,60fb21661e691c5ff8ce5967,8,cucumber,critical,B,75,cucumber66.jpg,cucumber84.jpg,nogoal,NULL
1687281651,0aeb571df955b27182f61adf94dbf8ba,PennController,11,0,experiment,NULL,PennController,10,_Header_,End,1687281596067,60fb21661e691c5ff8ce5967,60fb21661e691c5ff8ce5967,8,cucumber,critical,B,75,cucumber66.jpg,cucumber84.jpg,nogoal,NULL
1687281651,0aeb571df955b27182f61adf94dbf8ba,PennController,11,0,experiment,NULL,Canvas,canvas6,Print,NA,1687281603773,60fb21661e691c5ff8ce5967,60fb21661e691c5ff8ce5967,8,cucumber,critical,B,75,cucumber66.jpg,cucumber84.jpg,nogoal,NULL
1687281651,0aeb571df955b27182f61adf94dbf8ba,PennController,11,0,experiment,NULL,Video,progression,buffer,0.024351,1687281597634,60fb21661e691c5ff8ce5967,60fb21661e691c5ff8ce5967,8,cucumber,critical,B,75,cucumber66.jpg,cucumber84.jpg,nogoal,NULL
1687281651,0aeb571df955b27182f61adf94dbf8ba,PennController,11,0,experiment,NULL,Selector,choice,Selection,option1,1687281606817,60fb21661e691c5ff8ce5967,60fb21661e691c5ff8ce5967,8,cucumber,critical,B,75,cucumber66.jpg,cucumber84.jpg,nogoal,option2;option1
1687281651,0aeb571df955b27182f61adf94dbf8ba,PennController,11,0,experiment,NULL,PennController,10,_Trial_,End,1687281606821,60fb21661e691c5ff8ce5967,60fb21661e691c5ff8ce5967,8,cucumber,critical,B,75,cucumber66.jpg,cucumber84.jpg,nogoal,NULL
1687281651,0aeb571df955b27182f61adf94dbf8ba,PennController,19,0,experiment,NULL,PennController,18,_Trial_,Start,1687281606826,60fb21661e691c5ff8ce5967,60fb21661e691c5ff8ce5967,16,blinds,critical,B,50,blinds42.jpg,blinds60.jpg,nogoal,NULL
1687281651,0aeb571df955b27182f61adf94dbf8ba,PennController,19,0,experiment,NULL,PennController,18,_Header_,Start,1687281606826,60fb21661e691c5ff8ce5967,60fb21661e691c5ff8ce5967,16,blinds,critical,B,50,blinds42.jpg,blinds60.jpg,nogoal,NULL
1687281651,0aeb571df955b27182f61adf94dbf8ba,PennController,19,0,experiment,NULL,PennController,18,_Header_,End,1687281606827,60fb21661e691c5ff8ce5967,60fb21661e691c5ff8ce5967,16,blinds,critical,B,50,blinds42.jpg,blinds60.jpg,nogoal,NULL
1687281651,0aeb571df955b27182f61adf94dbf8ba,PennController,19,0,experiment,NULL,Canvas,canvas6,Print,NA,1687281612945,60fb21661e691c5ff8ce5967,60fb21661e691c5ff8ce5967,16,blinds,critical,B,50,blinds42.jpg,blinds60.jpg,nogoal,NULL
1687281651,0aeb571df955b27182f61adf94dbf8ba,PennController,19,0,experiment,NULL,Video,progression,buffer,0.012003,1687281608375,60fb21661e691c5ff8ce5967,60fb21661e691c5ff8ce5967,16,blinds,critical,B,50,blinds42.jpg,blinds60.jpg,nogoal,NULL
1687281651,0aeb571df955b27182f61adf94dbf8ba,PennController,19,0,experiment,NULL,Selector,choice,Selection,option2,1687281614818,60fb21661e691c5ff8ce5967,60fb21661e691c5ff8ce5967,16,blinds,critical,B,50,blinds42.jpg,blinds60.jpg,nogoal,option2;option1
1687281651,0aeb571df955b27182f61adf94dbf8ba,PennController,19,0,experiment,NULL,PennController,18,_Trial_,End,1687281614823,60fb21661e691c5ff8ce5967,60fb21661e691c5ff8ce5967,16,blinds,critical,B,50,blinds42.jpg,blinds60.jpg,nogoal,NULL
1687281651,0aeb571df955b27182f61adf94dbf8ba,PennController,4,0,experiment,NULL,PennController,3,_Trial_,Start,1687281614827,60fb21661e691c5ff8ce5967,60fb21661e691c5ff8ce5967,1,vase,critical,B,50,vase40.jpg,vase60.jpg,nogoal,NULL
1687281651,0aeb571df955b27182f61adf94dbf8ba,PennController,4,0,experiment,NULL,PennController,3,_Header_,Start,1687281614827,60fb21661e691c5ff8ce5967,60fb21661e691c5ff8ce5967,1,vase,critical,B,50,vase40.jpg,vase60.jpg,nogoal,NULL
1687281651,0aeb571df955b27182f61adf94dbf8ba,PennController,4,0,experiment,NULL,PennController,3,_Header_,End,1687281614827,60fb21661e691c5ff8ce5967,60fb21661e691c5ff8ce5967,1,vase,critical,B,50,vase40.jpg,vase60.jpg,nogoal,NULL
1687281651,0aeb571df955b27182f61adf94dbf8ba,PennController,4,0,experiment,NULL,Canvas,canvas6,Print,NA,1687281619559,60fb21661e691c5ff8ce5967,60fb21661e691c5ff8ce5967,1,vase,critical,B,50,vase40.jpg,vase60.jpg,nogoal,NULL
1687281651,0aeb571df955b27182f61adf94dbf8ba,PennController,4,0,experiment,NULL,Video,progression,buffer,0.023154,1687281616388,60fb21661e691c5ff8ce5967,60fb21661e691c5ff8ce5967,1,vase,critical,B,50,vase40.jpg,vase60.jpg,nogoal,NULL
1687281651,0aeb571df955b27182f61adf94dbf8ba,PennController,4,0,experiment,NULL,Selector,choice,Selection,option2,1687281622785,60fb21661e691c5ff8ce5967,60fb21661e691c5ff8ce5967,1,vase,critical,B,50,vase40.jpg,vase60.jpg,nogoal,option1;option2
1687281651,0aeb571df955b27182f61adf94dbf8ba,PennController,4,0,experiment,NULL,PennController,3,_Trial_,End,1687281622790,60fb21661e691c5ff8ce5967,60fb21661e691c5ff8ce5967,1,vase,critical,B,50,vase40.jpg,vase60.jpg,nogoal,NULL
1687281651,0aeb571df955b27182f61adf94dbf8ba,PennController,23,0,experiment,NULL,PennController,22,_Trial_,Start,1687281622795,60fb21661e691c5ff8ce5967,60fb21661e691c5ff8ce5967,20,cat,filler,B,75,cat65.jpg,cat85.jpg,nogoal,NULL
1687281651,0aeb571df955b27182f61adf94dbf8ba,PennController,23,0,experiment,NULL,PennController,22,_Header_,Start,1687281622795,60fb21661e691c5ff8ce5967,60fb21661e691c5ff8ce5967,20,cat,filler,B,75,cat65.jpg,cat85.jpg,nogoal,NULL
1687281651,0aeb571df955b27182f61adf94dbf8ba,PennController,23,0,experiment,NULL,PennController,22,_Header_,End,1687281622796,60fb21661e691c5ff8ce5967,60fb21661e691c5ff8ce5967,20,cat,filler,B,75,cat65.jpg,cat85.jpg,nogoal,NULL
1687281651,0aeb571df955b27182f61adf94dbf8ba,PennController,23,0,experiment,NULL,Canvas,canvas6,Print,NA,1687281628521,60fb21661e691c5ff8ce5967,60fb21661e691c5ff8ce5967,20,cat,filler,B,75,cat65.jpg,cat85.jpg,nogoal,NULL
1687281651,0aeb571df955b27182f61adf94dbf8ba,PennController,23,0,experiment,NULL,Video,progression,buffer,0.018874,1687281624354,60fb21661e691c5ff8ce5967,60fb21661e691c5ff8ce5967,20,cat,filler,B,75,cat65.jpg,cat85.jpg,nogoal,NULL
1687281651,0aeb571df955b27182f61adf94dbf8ba,PennController,23,0,experiment,NULL,Selector,choice,Selection,option2,1687281630322,60fb21661e691c5ff8ce5967,60fb21661e691c5ff8ce5967,20,cat,filler,B,75,cat65.jpg,cat85.jpg,nogoal,option1;option2
1687281651,0aeb571df955b27182f61adf94dbf8ba,PennController,23,0,experiment,NULL,PennController,22,_Trial_,End,1687281630327,60fb21661e691c5ff8ce5967,60fb21661e691c5ff8ce5967,20,cat,filler,B,75,cat65.jpg,cat85.jpg,nogoal,NULL
1687281651,0aeb571df955b27182f61adf94dbf8ba,PennController,9,0,experiment,NULL,PennController,8,_Trial_,Start,1687281630332,60fb21661e691c5ff8ce5967,60fb21661e691c5ff8ce5967,6,flower,critical,B,25,flower15.jpg,flower35.jpg,nogoal,NULL
1687281651,0aeb571df955b27182f61adf94dbf8ba,PennController,9,0,experiment,NULL,PennController,8,_Header_,Start,1687281630332,60fb21661e691c5ff8ce5967,60fb21661e691c5ff8ce5967,6,flower,critical,B,25,flower15.jpg,flower35.jpg,nogoal,NULL
1687281651,0aeb571df955b27182f61adf94dbf8ba,PennController,9,0,experiment,NULL,PennController,8,_Header_,End,1687281630332,60fb21661e691c5ff8ce5967,60fb21661e691c5ff8ce5967,6,flower,critical,B,25,flower15.jpg,flower35.jpg,nogoal,NULL
1687281651,0aeb571df955b27182f61adf94dbf8ba,PennController,9,0,experiment,NULL,Canvas,canvas6,Print,NA,1687281634041,60fb21661e691c5ff8ce5967,60fb21661e691c5ff8ce5967,6,flower,critical,B,25,flower15.jpg,flower35.jpg,nogoal,NULL
1687281651,0aeb571df955b27182f61adf94dbf8ba,PennController,9,0,experiment,NULL,Video,progression,buffer,0.021367,1687281631892,60fb21661e691c5ff8ce5967,60fb21661e691c5ff8ce5967,6,flower,critical,B,25,flower15.jpg,flower35.jpg,nogoal,NULL
1687281651,0aeb571df955b27182f61adf94dbf8ba,PennController,9,0,experiment,NULL,Selector,choice,Selection,option2,1687281636622,60fb21661e691c5ff8ce5967,60fb21661e691c5ff8ce5967,6,flower,critical,B,25,flower15.jpg,flower35.jpg,nogoal,option2;option1
1687281651,0aeb571df955b27182f61adf94dbf8ba,PennController,9,0,experiment,NULL,PennController,8,_Trial_,End,1687281636627,60fb21661e691c5ff8ce5967,60fb21661e691c5ff8ce5967,6,flower,critical,B,25,flower15.jpg,flower35.jpg,nogoal,NULL
1687281651,0aeb571df955b27182f61adf94dbf8ba,PennController,13,0,experiment,NULL,PennController,12,_Trial_,Start,1687281636631,60fb21661e691c5ff8ce5967,60fb21661e691c5ff8ce5967,10,train,critical,B,50,train40.jpg,train60.jpg,nogoal,NULL
1687281651,0aeb571df955b27182f61adf94dbf8ba,PennController,13,0,experiment,NULL,PennController,12,_Header_,Start,1687281636631,60fb21661e691c5ff8ce5967,60fb21661e691c5ff8ce5967,10,train,critical,B,50,train40.jpg,train60.jpg,nogoal,NULL
1687281651,0aeb571df955b27182f61adf94dbf8ba,PennController,13,0,experiment,NULL,PennController,12,_Header_,End,1687281636632,60fb21661e691c5ff8ce5967,60fb21661e691c5ff8ce5967,10,train,critical,B,50,train40.jpg,train60.jpg,nogoal,NULL
1687281651,0aeb571df955b27182f61adf94dbf8ba,PennController,13,0,experiment,NULL,Canvas,canvas6,Print,NA,1687281641337,60fb21661e691c5ff8ce5967,60fb21661e691c5ff8ce5967,10,train,critical,B,50,train40.jpg,train60.jpg,nogoal,NULL
1687281651,0aeb571df955b27182f61adf94dbf8ba,PennController,13,0,experiment,NULL,Video,progression,buffer,0.016736,1687281638184,60fb21661e691c5ff8ce5967,60fb21661e691c5ff8ce5967,10,train,critical,B,50,train40.jpg,train60.jpg,nogoal,NULL
1687281651,0aeb571df955b27182f61adf94dbf8ba,PennController,13,0,experiment,NULL,Selector,choice,Selection,option2,1687281644167,60fb21661e691c5ff8ce5967,60fb21661e691c5ff8ce5967,10,train,critical,B,50,train40.jpg,train60.jpg,nogoal,option1;option2
1687281651,0aeb571df955b27182f61adf94dbf8ba,PennController,13,0,experiment,NULL,PennController,12,_Trial_,End,1687281644172,60fb21661e691c5ff8ce5967,60fb21661e691c5ff8ce5967,10,train,critical,B,50,train40.jpg,train60.jpg,nogoal,NULL
1687281651,0aeb571df955b27182f61adf94dbf8ba,PennController,24,0,experiment,NULL,PennController,23,_Trial_,Start,1687281644176,60fb21661e691c5ff8ce5967,60fb21661e691c5ff8ce5967,21,visit,filler,B,25,visit15.jpg,visit35.jpg,nogoal,NULL
1687281651,0aeb571df955b27182f61adf94dbf8ba,PennController,24,0,experiment,NULL,PennController,23,_Header_,Start,1687281644176,60fb21661e691c5ff8ce5967,60fb21661e691c5ff8ce5967,21,visit,filler,B,25,visit15.jpg,visit35.jpg,nogoal,NULL
1687281651,0aeb571df955b27182f61adf94dbf8ba,PennController,24,0,experiment,NULL,PennController,23,_Header_,End,1687281644176,60fb21661e691c5ff8ce5967,60fb21661e691c5ff8ce5967,21,visit,filler,B,25,visit15.jpg,visit35.jpg,nogoal,NULL
1687281651,0aeb571df955b27182f61adf94dbf8ba,PennController,24,0,experiment,NULL,Canvas,canvas6,Print,NA,1687281647909,60fb21661e691c5ff8ce5967,60fb21661e691c5ff8ce5967,21,visit,filler,B,25,visit15.jpg,visit35.jpg,nogoal,NULL
1687281651,0aeb571df955b27182f61adf94dbf8ba,PennController,24,0,experiment,NULL,Video,progression,buffer,0.020285,1687281645741,60fb21661e691c5ff8ce5967,60fb21661e691c5ff8ce5967,21,visit,filler,B,25,visit15.jpg,visit35.jpg,nogoal,NULL
1687281651,0aeb571df955b27182f61adf94dbf8ba,PennController,24,0,experiment,NULL,Selector,choice,Selection,option2,1687281651455,60fb21661e691c5ff8ce5967,60fb21661e691c5ff8ce5967,21,visit,filler,B,25,visit15.jpg,visit35.jpg,nogoal,option2;option1
1687281651,0aeb571df955b27182f61adf94dbf8ba,PennController,24,0,experiment,NULL,PennController,23,_Trial_,End,1687281651460,60fb21661e691c5ff8ce5967,60fb21661e691c5ff8ce5967,21,visit,filler,B,25,visit15.jpg,visit35.jpg,nogoal,NULL
1687281651,0aeb571df955b27182f61adf94dbf8ba,PennController,21,0,experiment,NULL,PennController,20,_Trial_,Start,1687281651466,60fb21661e691c5ff8ce5967,60fb21661e691c5ff8ce5967,18,ball,critical,B,25,ball15.jpg,ball35.jpg,nogoal,NULL
1687281651,0aeb571df955b27182f61adf94dbf8ba,PennController,21,0,experiment,NULL,PennController,20,_Header_,Start,1687281651466,60fb21661e691c5ff8ce5967,60fb21661e691c5ff8ce5967,18,ball,critical,B,25,ball15.jpg,ball35.jpg,nogoal,NULL
1687281651,0aeb571df955b27182f61adf94dbf8ba,PennController,21,0,experiment,NULL,PennController,20,_Header_,End,1687281651466,60fb21661e691c5ff8ce5967,60fb21661e691c5ff8ce5967,18,ball,critical,B,25,ball15.jpg,ball35.jpg,nogoal,NULL
1687281651,0aeb571df955b27182f61adf94dbf8ba,PennController,21,0,experiment,NULL,Canvas,canvas6,Print,NA,1687281655232,60fb21661e691c5ff8ce5967,60fb21661e691c5ff8ce5967,18,ball,critical,B,25,ball15.jpg,ball35.jpg,nogoal,NULL
1687281651,0aeb571df955b27182f61adf94dbf8ba,PennController,21,0,experiment,NULL,Video,progression,buffer,0.016423,1687281653036,60fb21661e691c5ff8ce5967,60fb21661e691c5ff8ce5967,18,ball,critical,B,25,ball15.jpg,ball35.jpg,nogoal,NULL
1687281651,0aeb571df955b27182f61adf94dbf8ba,PennController,21,0,experiment,NULL,Selector,choice,Selection,option2,1687281657535,60fb21661e691c5ff8ce5967,60fb21661e691c5ff8ce5967,18,ball,critical,B,25,ball15.jpg,ball35.jpg,nogoal,option2;option1
1687281651,0aeb571df955b27182f61adf94dbf8ba,PennController,21,0,experiment,NULL,PennController,20,_Trial_,End,1687281657540,60fb21661e691c5ff8ce5967,60fb21661e691c5ff8ce5967,18,ball,critical,B,25,ball15.jpg,ball35.jpg,nogoal,NULL
1687281651,0aeb571df955b27182f61adf94dbf8ba,PennController,16,0,experiment,NULL,PennController,15,_Trial_,Start,1687281657544,60fb21661e691c5ff8ce5967,60fb21661e691c5ff8ce5967,13,mix,critical,B,50,mix40.jpg,mix60.jpg,nogoal,NULL
1687281651,0aeb571df955b27182f61adf94dbf8ba,PennController,16,0,experiment,NULL,PennController,15,_Header_,Start,1687281657544,60fb21661e691c5ff8ce5967,60fb21661e691c5ff8ce5967,13,mix,critical,B,50,mix40.jpg,mix60.jpg,nogoal,NULL
1687281651,0aeb571df955b27182f61adf94dbf8ba,PennController,16,0,experiment,NULL,PennController,15,_Header_,End,1687281657544,60fb21661e691c5ff8ce5967,60fb21661e691c5ff8ce5967,13,mix,critical,B,50,mix40.jpg,mix60.jpg,nogoal,NULL
1687281651,0aeb571df955b27182f61adf94dbf8ba,PennController,16,0,experiment,NULL,Canvas,canvas6,Print,NA,1687281662236,60fb21661e691c5ff8ce5967,60fb21661e691c5ff8ce5967,13,mix,critical,B,50,mix40.jpg,mix60.jpg,nogoal,NULL
1687281651,0aeb571df955b27182f61adf94dbf8ba,PennController,16,0,experiment,NULL,Video,progression,buffer,0.018811,1687281659099,60fb21661e691c5ff8ce5967,60fb21661e691c5ff8ce5967,13,mix,critical,B,50,mix40.jpg,mix60.jpg,nogoal,NULL
1687281651,0aeb571df955b27182f61adf94dbf8ba,PennController,16,0,experiment,NULL,Selector,choice,Selection,option1,1687281664498,60fb21661e691c5ff8ce5967,60fb21661e691c5ff8ce5967,13,mix,critical,B,50,mix40.jpg,mix60.jpg,nogoal,option2;option1
1687281651,0aeb571df955b27182f61adf94dbf8ba,PennController,16,0,experiment,NULL,PennController,15,_Trial_,End,1687281664503,60fb21661e691c5ff8ce5967,60fb21661e691c5ff8ce5967,13,mix,critical,B,50,mix40.jpg,mix60.jpg,nogoal,NULL
