#
# Results on Tuesday June 20 2023 17:20:22 UTC
# USER AGENT: Mozilla/5.0 (Windows NT 10.0; Win64; x64; rv:109.0) Gecko/20100101 Firefox/114.0
# Design number was non-random = 4
#
# Columns below this comment are as follows:
# 1. Results reception time.
# 2. MD5 hash of participant's IP address.
# 3. Controller name.
# 4. Order number of item.
# 5. Inner element number.
# 6. Label.
# 7. Latin Square Group.
# 8. PennElementType.
# 9. PennElementName.
# 10. Parameter.
# 11. Value.
# 12. EventTime.
# 13. PROLIFIC_ID.
# 14. Comments.
1687281622,41228d27795d0fdd08af66d4351f02e7,PennController,2,0,consent,NULL,PennController,0,_Trial_,Start,1687281365252,5f19718f065858025026a27d,NULL
1687281622,41228d27795d0fdd08af66d4351f02e7,PennController,2,0,consent,NULL,PennController,0,_Header_,Start,1687281365252,5f19718f065858025026a27d,NULL
1687281622,41228d27795d0fdd08af66d4351f02e7,PennController,2,0,consent,NULL,PennController,0,_Header_,End,1687281365252,5f19718f065858025026a27d,NULL
1687281622,41228d27795d0fdd08af66d4351f02e7,PennController,2,0,consent,NULL,PennController,0,_Trial_,End,1687281395192,5f19718f065858025026a27d,NULL
# Columns below this comment are as follows:
# 14. ID.
# 15. Comments.
1687281622,41228d27795d0fdd08af66d4351f02e7,PennController,3,0,intro,NULL,PennController,1,_Trial_,Start,1687281395194,5f19718f065858025026a27d,5f19718f065858025026a27d,NULL
1687281622,41228d27795d0fdd08af66d4351f02e7,PennController,3,0,intro,NULL,PennController,1,_Header_,Start,1687281395195,5f19718f065858025026a27d,5f19718f065858025026a27d,NULL
1687281622,41228d27795d0fdd08af66d4351f02e7,PennController,3,0,intro,NULL,PennController,1,_Header_,End,1687281395195,5f19718f065858025026a27d,5f19718f065858025026a27d,NULL
1687281622,41228d27795d0fdd08af66d4351f02e7,PennController,3,0,intro,NULL,PennController,1,_Trial_,End,1687281402571,5f19718f065858025026a27d,5f19718f065858025026a27d,NULL
# Columns below this comment are as follows:
# 15. item_number.
# 16. item.
# 17. type.
# 18. Group.
# 19. prog.
# 20. prev_image.
# 21. next_image.
# 22. height.
# 23. Comments.
1687281622,41228d27795d0fdd08af66d4351f02e7,PennController,8,0,experiment,NULL,PennController,7,_Trial_,Start,1687281402573,5f19718f065858025026a27d,5f19718f065858025026a27d,5,book,critical,B,75,book65.jpg,book85.jpg,nogoal,NULL
1687281622,41228d27795d0fdd08af66d4351f02e7,PennController,8,0,experiment,NULL,PennController,7,_Header_,Start,1687281402573,5f19718f065858025026a27d,5f19718f065858025026a27d,5,book,critical,B,75,book65.jpg,book85.jpg,nogoal,NULL
1687281622,41228d27795d0fdd08af66d4351f02e7,PennController,8,0,experiment,NULL,PennController,7,_Header_,End,1687281402573,5f19718f065858025026a27d,5f19718f065858025026a27d,5,book,critical,B,75,book65.jpg,book85.jpg,nogoal,NULL
1687281622,41228d27795d0fdd08af66d4351f02e7,PennController,8,0,experiment,NULL,Video,progression,buffer,0,1687281404109,5f19718f065858025026a27d,5f19718f065858025026a27d,5,book,critical,B,75,book65.jpg,book85.jpg,nogoal,NULL
1687281622,41228d27795d0fdd08af66d4351f02e7,PennController,8,0,experiment,NULL,Canvas,canvas6,Print,NA,1687281408353,5f19718f065858025026a27d,5f19718f065858025026a27d,5,book,critical,B,75,book65.jpg,book85.jpg,nogoal,NULL
1687281622,41228d27795d0fdd08af66d4351f02e7,PennController,8,0,experiment,NULL,Selector,choice,Selection,option2,1687281411469,5f19718f065858025026a27d,5f19718f065858025026a27d,5,book,critical,B,75,book65.jpg,book85.jpg,nogoal,option1;option2
1687281622,41228d27795d0fdd08af66d4351f02e7,PennController,8,0,experiment,NULL,PennController,7,_Trial_,End,1687281411470,5f19718f065858025026a27d,5f19718f065858025026a27d,5,book,critical,B,75,book65.jpg,book85.jpg,nogoal,NULL
1687281622,41228d27795d0fdd08af66d4351f02e7,PennController,7,0,experiment,NULL,PennController,6,_Trial_,Start,1687281411471,5f19718f065858025026a27d,5f19718f065858025026a27d,4,candy,critical,B,50,candy40.jpg,candy60.jpg,nogoal,NULL
1687281622,41228d27795d0fdd08af66d4351f02e7,PennController,7,0,experiment,NULL,PennController,6,_Header_,Start,1687281411471,5f19718f065858025026a27d,5f19718f065858025026a27d,4,candy,critical,B,50,candy40.jpg,candy60.jpg,nogoal,NULL
1687281622,41228d27795d0fdd08af66d4351f02e7,PennController,7,0,experiment,NULL,PennController,6,_Header_,End,1687281411471,5f19718f065858025026a27d,5f19718f065858025026a27d,4,candy,critical,B,50,candy40.jpg,candy60.jpg,nogoal,NULL
1687281622,41228d27795d0fdd08af66d4351f02e7,PennController,7,0,experiment,NULL,Video,progression,buffer,0,1687281412995,5f19718f065858025026a27d,5f19718f065858025026a27d,4,candy,critical,B,50,candy40.jpg,candy60.jpg,nogoal,NULL
1687281622,41228d27795d0fdd08af66d4351f02e7,PennController,7,0,experiment,NULL,Canvas,canvas6,Print,NA,1687281416247,5f19718f065858025026a27d,5f19718f065858025026a27d,4,candy,critical,B,50,candy40.jpg,candy60.jpg,nogoal,NULL
1687281622,41228d27795d0fdd08af66d4351f02e7,PennController,7,0,experiment,NULL,Selector,choice,Selection,option1,1687281418180,5f19718f065858025026a27d,5f19718f065858025026a27d,4,candy,critical,B,50,candy40.jpg,candy60.jpg,nogoal,option1;option2
1687281622,41228d27795d0fdd08af66d4351f02e7,PennController,7,0,experiment,NULL,PennController,6,_Trial_,End,1687281418181,5f19718f065858025026a27d,5f19718f065858025026a27d,4,candy,critical,B,50,candy40.jpg,candy60.jpg,nogoal,NULL
1687281622,41228d27795d0fdd08af66d4351f02e7,PennController,4,0,experiment,NULL,PennController,3,_Trial_,Start,1687281418182,5f19718f065858025026a27d,5f19718f065858025026a27d,1,vase,critical,B,50,vase40.jpg,vase60.jpg,nogoal,NULL
1687281622,41228d27795d0fdd08af66d4351f02e7,PennController,4,0,experiment,NULL,PennController,3,_Header_,Start,1687281418182,5f19718f065858025026a27d,5f19718f065858025026a27d,1,vase,critical,B,50,vase40.jpg,vase60.jpg,nogoal,NULL
1687281622,41228d27795d0fdd08af66d4351f02e7,PennController,4,0,experiment,NULL,PennController,3,_Header_,End,1687281418183,5f19718f065858025026a27d,5f19718f065858025026a27d,1,vase,critical,B,50,vase40.jpg,vase60.jpg,nogoal,NULL
1687281622,41228d27795d0fdd08af66d4351f02e7,PennController,4,0,experiment,NULL,Video,progression,buffer,0,1687281419703,5f19718f065858025026a27d,5f19718f065858025026a27d,1,vase,critical,B,50,vase40.jpg,vase60.jpg,nogoal,NULL
1687281622,41228d27795d0fdd08af66d4351f02e7,PennController,4,0,experiment,NULL,Canvas,canvas6,Print,NA,1687281422947,5f19718f065858025026a27d,5f19718f065858025026a27d,1,vase,critical,B,50,vase40.jpg,vase60.jpg,nogoal,NULL
1687281622,41228d27795d0fdd08af66d4351f02e7,PennController,4,0,experiment,NULL,Selector,choice,Selection,option1,1687281424269,5f19718f065858025026a27d,5f19718f065858025026a27d,1,vase,critical,B,50,vase40.jpg,vase60.jpg,nogoal,option2;option1
1687281622,41228d27795d0fdd08af66d4351f02e7,PennController,4,0,experiment,NULL,PennController,3,_Trial_,End,1687281424270,5f19718f065858025026a27d,5f19718f065858025026a27d,1,vase,critical,B,50,vase40.jpg,vase60.jpg,nogoal,NULL
1687281622,41228d27795d0fdd08af66d4351f02e7,PennController,9,0,experiment,NULL,PennController,8,_Trial_,Start,1687281424271,5f19718f065858025026a27d,5f19718f065858025026a27d,6,flower,critical,B,25,flower15.jpg,flower35.jpg,nogoal,NULL
1687281622,41228d27795d0fdd08af66d4351f02e7,PennController,9,0,experiment,NULL,PennController,8,_Header_,Start,1687281424271,5f19718f065858025026a27d,5f19718f065858025026a27d,6,flower,critical,B,25,flower15.jpg,flower35.jpg,nogoal,NULL
1687281622,41228d27795d0fdd08af66d4351f02e7,PennController,9,0,experiment,NULL,PennController,8,_Header_,End,1687281424271,5f19718f065858025026a27d,5f19718f065858025026a27d,6,flower,critical,B,25,flower15.jpg,flower35.jpg,nogoal,NULL
1687281622,41228d27795d0fdd08af66d4351f02e7,PennController,9,0,experiment,NULL,Video,progression,buffer,0,1687281425791,5f19718f065858025026a27d,5f19718f065858025026a27d,6,flower,critical,B,25,flower15.jpg,flower35.jpg,nogoal,NULL
1687281622,41228d27795d0fdd08af66d4351f02e7,PennController,9,0,experiment,NULL,Canvas,canvas6,Print,NA,1687281428032,5f19718f065858025026a27d,5f19718f065858025026a27d,6,flower,critical,B,25,flower15.jpg,flower35.jpg,nogoal,NULL
1687281622,41228d27795d0fdd08af66d4351f02e7,PennController,9,0,experiment,NULL,Selector,choice,Selection,option1,1687281430905,5f19718f065858025026a27d,5f19718f065858025026a27d,6,flower,critical,B,25,flower15.jpg,flower35.jpg,nogoal,option1;option2
1687281622,41228d27795d0fdd08af66d4351f02e7,PennController,9,0,experiment,NULL,PennController,8,_Trial_,End,1687281430906,5f19718f065858025026a27d,5f19718f065858025026a27d,6,flower,critical,B,25,flower15.jpg,flower35.jpg,nogoal,NULL
1687281622,41228d27795d0fdd08af66d4351f02e7,PennController,10,0,experiment,NULL,PennController,9,_Trial_,Start,1687281430907,5f19718f065858025026a27d,5f19718f065858025026a27d,7,stack,critical,B,50,stack40.jpg,stack60.jpg,nogoal,NULL
1687281622,41228d27795d0fdd08af66d4351f02e7,PennController,10,0,experiment,NULL,PennController,9,_Header_,Start,1687281430907,5f19718f065858025026a27d,5f19718f065858025026a27d,7,stack,critical,B,50,stack40.jpg,stack60.jpg,nogoal,NULL
1687281622,41228d27795d0fdd08af66d4351f02e7,PennController,10,0,experiment,NULL,PennController,9,_Header_,End,1687281430907,5f19718f065858025026a27d,5f19718f065858025026a27d,7,stack,critical,B,50,stack40.jpg,stack60.jpg,nogoal,NULL
1687281622,41228d27795d0fdd08af66d4351f02e7,PennController,10,0,experiment,NULL,Video,progression,buffer,0,1687281432422,5f19718f065858025026a27d,5f19718f065858025026a27d,7,stack,critical,B,50,stack40.jpg,stack60.jpg,nogoal,NULL
1687281622,41228d27795d0fdd08af66d4351f02e7,PennController,10,0,experiment,NULL,Canvas,canvas6,Print,NA,1687281435663,5f19718f065858025026a27d,5f19718f065858025026a27d,7,stack,critical,B,50,stack40.jpg,stack60.jpg,nogoal,NULL
1687281622,41228d27795d0fdd08af66d4351f02e7,PennController,10,0,experiment,NULL,Selector,choice,Selection,option1,1687281444219,5f19718f065858025026a27d,5f19718f065858025026a27d,7,stack,critical,B,50,stack40.jpg,stack60.jpg,nogoal,option2;option1
1687281622,41228d27795d0fdd08af66d4351f02e7,PennController,10,0,experiment,NULL,PennController,9,_Trial_,End,1687281444221,5f19718f065858025026a27d,5f19718f065858025026a27d,7,stack,critical,B,50,stack40.jpg,stack60.jpg,nogoal,NULL
1687281622,41228d27795d0fdd08af66d4351f02e7,PennController,15,0,experiment,NULL,PennController,14,_Trial_,Start,1687281444223,5f19718f065858025026a27d,5f19718f065858025026a27d,12,erase,critical,B,25,erase15.jpg,erase33.jpg,nogoal,NULL
1687281622,41228d27795d0fdd08af66d4351f02e7,PennController,15,0,experiment,NULL,PennController,14,_Header_,Start,1687281444223,5f19718f065858025026a27d,5f19718f065858025026a27d,12,erase,critical,B,25,erase15.jpg,erase33.jpg,nogoal,NULL
1687281622,41228d27795d0fdd08af66d4351f02e7,PennController,15,0,experiment,NULL,PennController,14,_Header_,End,1687281444223,5f19718f065858025026a27d,5f19718f065858025026a27d,12,erase,critical,B,25,erase15.jpg,erase33.jpg,nogoal,NULL
1687281622,41228d27795d0fdd08af66d4351f02e7,PennController,15,0,experiment,NULL,Video,progression,buffer,0,1687281445745,5f19718f065858025026a27d,5f19718f065858025026a27d,12,erase,critical,B,25,erase15.jpg,erase33.jpg,nogoal,NULL
1687281622,41228d27795d0fdd08af66d4351f02e7,PennController,15,0,experiment,NULL,Canvas,canvas6,Print,NA,1687281448588,5f19718f065858025026a27d,5f19718f065858025026a27d,12,erase,critical,B,25,erase15.jpg,erase33.jpg,nogoal,NULL
1687281622,41228d27795d0fdd08af66d4351f02e7,PennController,15,0,experiment,NULL,Selector,choice,Selection,option2,1687281451914,5f19718f065858025026a27d,5f19718f065858025026a27d,12,erase,critical,B,25,erase15.jpg,erase33.jpg,nogoal,option2;option1
1687281622,41228d27795d0fdd08af66d4351f02e7,PennController,15,0,experiment,NULL,PennController,14,_Trial_,End,1687281451915,5f19718f065858025026a27d,5f19718f065858025026a27d,12,erase,critical,B,25,erase15.jpg,erase33.jpg,nogoal,NULL
1687281622,41228d27795d0fdd08af66d4351f02e7,PennController,13,0,experiment,NULL,PennController,12,_Trial_,Start,1687281451916,5f19718f065858025026a27d,5f19718f065858025026a27d,10,train,critical,B,50,train40.jpg,train60.jpg,nogoal,NULL
1687281622,41228d27795d0fdd08af66d4351f02e7,PennController,13,0,experiment,NULL,PennController,12,_Header_,Start,1687281451916,5f19718f065858025026a27d,5f19718f065858025026a27d,10,train,critical,B,50,train40.jpg,train60.jpg,nogoal,NULL
1687281622,41228d27795d0fdd08af66d4351f02e7,PennController,13,0,experiment,NULL,PennController,12,_Header_,End,1687281451916,5f19718f065858025026a27d,5f19718f065858025026a27d,10,train,critical,B,50,train40.jpg,train60.jpg,nogoal,NULL
1687281622,41228d27795d0fdd08af66d4351f02e7,PennController,13,0,experiment,NULL,Video,progression,buffer,0,1687281453443,5f19718f065858025026a27d,5f19718f065858025026a27d,10,train,critical,B,50,train40.jpg,train60.jpg,nogoal,NULL
1687281622,41228d27795d0fdd08af66d4351f02e7,PennController,13,0,experiment,NULL,Canvas,canvas6,Print,NA,1687281456680,5f19718f065858025026a27d,5f19718f065858025026a27d,10,train,critical,B,50,train40.jpg,train60.jpg,nogoal,NULL
1687281622,41228d27795d0fdd08af66d4351f02e7,PennController,13,0,experiment,NULL,Selector,choice,Selection,option2,1687281458979,5f19718f065858025026a27d,5f19718f065858025026a27d,10,train,critical,B,50,train40.jpg,train60.jpg,nogoal,option1;option2
1687281622,41228d27795d0fdd08af66d4351f02e7,PennController,13,0,experiment,NULL,PennController,12,_Trial_,End,1687281458980,5f19718f065858025026a27d,5f19718f065858025026a27d,10,train,critical,B,50,train40.jpg,train60.jpg,nogoal,NULL
1687281622,41228d27795d0fdd08af66d4351f02e7,PennController,11,0,experiment,NULL,PennController,10,_Trial_,Start,1687281458981,5f19718f065858025026a27d,5f19718f065858025026a27d,8,cucumber,critical,B,75,cucumber66.jpg,cucumber84.jpg,nogoal,NULL
1687281622,41228d27795d0fdd08af66d4351f02e7,PennController,11,0,experiment,NULL,PennController,10,_Header_,Start,1687281458981,5f19718f065858025026a27d,5f19718f065858025026a27d,8,cucumber,critical,B,75,cucumber66.jpg,cucumber84.jpg,nogoal,NULL
1687281622,41228d27795d0fdd08af66d4351f02e7,PennController,11,0,experiment,NULL,PennController,10,_Header_,End,1687281458981,5f19718f065858025026a27d,5f19718f065858025026a27d,8,cucumber,critical,B,75,cucumber66.jpg,cucumber84.jpg,nogoal,NULL
1687281622,41228d27795d0fdd08af66d4351f02e7,PennController,11,0,experiment,NULL,Video,progression,buffer,0,1687281460495,5f19718f065858025026a27d,5f19718f065858025026a27d,8,cucumber,critical,B,75,cucumber66.jpg,cucumber84.jpg,nogoal,NULL
1687281622,41228d27795d0fdd08af66d4351f02e7,PennController,11,0,experiment,NULL,Canvas,canvas6,Print,NA,1687281466748,5f19718f065858025026a27d,5f19718f065858025026a27d,8,cucumber,critical,B,75,cucumber66.jpg,cucumber84.jpg,nogoal,NULL
1687281622,41228d27795d0fdd08af66d4351f02e7,PennController,11,0,experiment,NULL,Selector,choice,Selection,option2,1687281468847,5f19718f065858025026a27d,5f19718f065858025026a27d,8,cucumber,critical,B,75,cucumber66.jpg,cucumber84.jpg,nogoal,option1;option2
1687281622,41228d27795d0fdd08af66d4351f02e7,PennController,11,0,experiment,NULL,PennController,10,_Trial_,End,1687281468847,5f19718f065858025026a27d,5f19718f065858025026a27d,8,cucumber,critical,B,75,cucumber66.jpg,cucumber84.jpg,nogoal,NULL
1687281622,41228d27795d0fdd08af66d4351f02e7,PennController,23,0,experiment,NULL,PennController,22,_Trial_,Start,1687281468848,5f19718f065858025026a27d,5f19718f065858025026a27d,20,cat,filler,B,75,cat65.jpg,cat85.jpg,nogoal,NULL
1687281622,41228d27795d0fdd08af66d4351f02e7,PennController,23,0,experiment,NULL,PennController,22,_Header_,Start,1687281468848,5f19718f065858025026a27d,5f19718f065858025026a27d,20,cat,filler,B,75,cat65.jpg,cat85.jpg,nogoal,NULL
1687281622,41228d27795d0fdd08af66d4351f02e7,PennController,23,0,experiment,NULL,PennController,22,_Header_,End,1687281468848,5f19718f065858025026a27d,5f19718f065858025026a27d,20,cat,filler,B,75,cat65.jpg,cat85.jpg,nogoal,NULL
1687281622,41228d27795d0fdd08af66d4351f02e7,PennController,23,0,experiment,NULL,Video,progression,buffer,0,1687281470369,5f19718f065858025026a27d,5f19718f065858025026a27d,20,cat,filler,B,75,cat65.jpg,cat85.jpg,nogoal,NULL
1687281622,41228d27795d0fdd08af66d4351f02e7,PennController,23,0,experiment,NULL,Canvas,canvas6,Print,NA,1687281474616,5f19718f065858025026a27d,5f19718f065858025026a27d,20,cat,filler,B,75,cat65.jpg,cat85.jpg,nogoal,NULL
1687281622,41228d27795d0fdd08af66d4351f02e7,PennController,23,0,experiment,NULL,Selector,choice,Selection,option2,1687281476474,5f19718f065858025026a27d,5f19718f065858025026a27d,20,cat,filler,B,75,cat65.jpg,cat85.jpg,nogoal,option2;option1
1687281622,41228d27795d0fdd08af66d4351f02e7,PennController,23,0,experiment,NULL,PennController,22,_Trial_,End,1687281476475,5f19718f065858025026a27d,5f19718f065858025026a27d,20,cat,filler,B,75,cat65.jpg,cat85.jpg,nogoal,NULL
1687281622,41228d27795d0fdd08af66d4351f02e7,PennController,6,0,experiment,NULL,PennController,5,_Trial_,Start,1687281476475,5f19718f065858025026a27d,5f19718f065858025026a27d,3,clean,critical,B,25,clean15.jpg,clean35.jpg,nogoal,NULL
1687281622,41228d27795d0fdd08af66d4351f02e7,PennController,6,0,experiment,NULL,PennController,5,_Header_,Start,1687281476475,5f19718f065858025026a27d,5f19718f065858025026a27d,3,clean,critical,B,25,clean15.jpg,clean35.jpg,nogoal,NULL
1687281622,41228d27795d0fdd08af66d4351f02e7,PennController,6,0,experiment,NULL,PennController,5,_Header_,End,1687281476475,5f19718f065858025026a27d,5f19718f065858025026a27d,3,clean,critical,B,25,clean15.jpg,clean35.jpg,nogoal,NULL
1687281622,41228d27795d0fdd08af66d4351f02e7,PennController,6,0,experiment,NULL,Video,progression,buffer,0,1687281477997,5f19718f065858025026a27d,5f19718f065858025026a27d,3,clean,critical,B,25,clean15.jpg,clean35.jpg,nogoal,NULL
1687281622,41228d27795d0fdd08af66d4351f02e7,PennController,6,0,experiment,NULL,Canvas,canvas6,Print,NA,1687281480235,5f19718f065858025026a27d,5f19718f065858025026a27d,3,clean,critical,B,25,clean15.jpg,clean35.jpg,nogoal,NULL
1687281622,41228d27795d0fdd08af66d4351f02e7,PennController,6,0,experiment,NULL,Selector,choice,Selection,option2,1687281483702,5f19718f065858025026a27d,5f19718f065858025026a27d,3,clean,critical,B,25,clean15.jpg,clean35.jpg,nogoal,option2;option1
1687281622,41228d27795d0fdd08af66d4351f02e7,PennController,6,0,experiment,NULL,PennController,5,_Trial_,End,1687281483703,5f19718f065858025026a27d,5f19718f065858025026a27d,3,clean,critical,B,25,clean15.jpg,clean35.jpg,nogoal,NULL
1687281622,41228d27795d0fdd08af66d4351f02e7,PennController,24,0,experiment,NULL,PennController,23,_Trial_,Start,1687281483703,5f19718f065858025026a27d,5f19718f065858025026a27d,21,visit,filler,B,25,visit15.jpg,visit35.jpg,nogoal,NULL
1687281622,41228d27795d0fdd08af66d4351f02e7,PennController,24,0,experiment,NULL,PennController,23,_Header_,Start,1687281483703,5f19718f065858025026a27d,5f19718f065858025026a27d,21,visit,filler,B,25,visit15.jpg,visit35.jpg,nogoal,NULL
1687281622,41228d27795d0fdd08af66d4351f02e7,PennController,24,0,experiment,NULL,PennController,23,_Header_,End,1687281483703,5f19718f065858025026a27d,5f19718f065858025026a27d,21,visit,filler,B,25,visit15.jpg,visit35.jpg,nogoal,NULL
1687281622,41228d27795d0fdd08af66d4351f02e7,PennController,24,0,experiment,NULL,Video,progression,buffer,0,1687281485225,5f19718f065858025026a27d,5f19718f065858025026a27d,21,visit,filler,B,25,visit15.jpg,visit35.jpg,nogoal,NULL
1687281622,41228d27795d0fdd08af66d4351f02e7,PennController,24,0,experiment,NULL,Canvas,canvas6,Print,NA,1687281487464,5f19718f065858025026a27d,5f19718f065858025026a27d,21,visit,filler,B,25,visit15.jpg,visit35.jpg,nogoal,NULL
1687281622,41228d27795d0fdd08af66d4351f02e7,PennController,24,0,experiment,NULL,Selector,choice,Selection,option2,1687281488606,5f19718f065858025026a27d,5f19718f065858025026a27d,21,visit,filler,B,25,visit15.jpg,visit35.jpg,nogoal,option1;option2
1687281622,41228d27795d0fdd08af66d4351f02e7,PennController,24,0,experiment,NULL,PennController,23,_Trial_,End,1687281488608,5f19718f065858025026a27d,5f19718f065858025026a27d,21,visit,filler,B,25,visit15.jpg,visit35.jpg,nogoal,NULL
1687281622,41228d27795d0fdd08af66d4351f02e7,PennController,17,0,experiment,NULL,PennController,16,_Trial_,Start,1687281488609,5f19718f065858025026a27d,5f19718f065858025026a27d,14,cover,critical,B,75,cover66.jpg,cover84.jpg,nogoal,NULL
1687281622,41228d27795d0fdd08af66d4351f02e7,PennController,17,0,experiment,NULL,PennController,16,_Header_,Start,1687281488609,5f19718f065858025026a27d,5f19718f065858025026a27d,14,cover,critical,B,75,cover66.jpg,cover84.jpg,nogoal,NULL
1687281622,41228d27795d0fdd08af66d4351f02e7,PennController,17,0,experiment,NULL,PennController,16,_Header_,End,1687281488609,5f19718f065858025026a27d,5f19718f065858025026a27d,14,cover,critical,B,75,cover66.jpg,cover84.jpg,nogoal,NULL
1687281622,41228d27795d0fdd08af66d4351f02e7,PennController,17,0,experiment,NULL,Video,progression,buffer,0,1687281490133,5f19718f065858025026a27d,5f19718f065858025026a27d,14,cover,critical,B,75,cover66.jpg,cover84.jpg,nogoal,NULL
1687281622,41228d27795d0fdd08af66d4351f02e7,PennController,17,0,experiment,NULL,Canvas,canvas6,Print,NA,1687281496374,5f19718f065858025026a27d,5f19718f065858025026a27d,14,cover,critical,B,75,cover66.jpg,cover84.jpg,nogoal,NULL
1687281622,41228d27795d0fdd08af66d4351f02e7,PennController,17,0,experiment,NULL,Selector,choice,Selection,option2,1687281497590,5f19718f065858025026a27d,5f19718f065858025026a27d,14,cover,critical,B,75,cover66.jpg,cover84.jpg,nogoal,option1;option2
1687281622,41228d27795d0fdd08af66d4351f02e7,PennController,17,0,experiment,NULL,PennController,16,_Trial_,End,1687281497591,5f19718f065858025026a27d,5f19718f065858025026a27d,14,cover,critical,B,75,cover66.jpg,cover84.jpg,nogoal,NULL
1687281622,41228d27795d0fdd08af66d4351f02e7,PennController,20,0,experiment,NULL,PennController,19,_Trial_,Start,1687281497592,5f19718f065858025026a27d,5f19718f065858025026a27d,17,roll,critical,B,75,roll65.jpg,roll85.jpg,nogoal,NULL
1687281622,41228d27795d0fdd08af66d4351f02e7,PennController,20,0,experiment,NULL,PennController,19,_Header_,Start,1687281497592,5f19718f065858025026a27d,5f19718f065858025026a27d,17,roll,critical,B,75,roll65.jpg,roll85.jpg,nogoal,NULL
1687281622,41228d27795d0fdd08af66d4351f02e7,PennController,20,0,experiment,NULL,PennController,19,_Header_,End,1687281497592,5f19718f065858025026a27d,5f19718f065858025026a27d,17,roll,critical,B,75,roll65.jpg,roll85.jpg,nogoal,NULL
1687281622,41228d27795d0fdd08af66d4351f02e7,PennController,20,0,experiment,NULL,Video,progression,buffer,0,1687281499117,5f19718f065858025026a27d,5f19718f065858025026a27d,17,roll,critical,B,75,roll65.jpg,roll85.jpg,nogoal,NULL
1687281622,41228d27795d0fdd08af66d4351f02e7,PennController,20,0,experiment,NULL,Canvas,canvas6,Print,NA,1687281503357,5f19718f065858025026a27d,5f19718f065858025026a27d,17,roll,critical,B,75,roll65.jpg,roll85.jpg,nogoal,NULL
1687281622,41228d27795d0fdd08af66d4351f02e7,PennController,20,0,experiment,NULL,Selector,choice,Selection,option2,1687281509136,5f19718f065858025026a27d,5f19718f065858025026a27d,17,roll,critical,B,75,roll65.jpg,roll85.jpg,nogoal,option2;option1
1687281622,41228d27795d0fdd08af66d4351f02e7,PennController,20,0,experiment,NULL,PennController,19,_Trial_,End,1687281509137,5f19718f065858025026a27d,5f19718f065858025026a27d,17,roll,critical,B,75,roll65.jpg,roll85.jpg,nogoal,NULL
1687281622,41228d27795d0fdd08af66d4351f02e7,PennController,16,0,experiment,NULL,PennController,15,_Trial_,Start,1687281509139,5f19718f065858025026a27d,5f19718f065858025026a27d,13,mix,critical,B,50,mix40.jpg,mix60.jpg,nogoal,NULL
1687281622,41228d27795d0fdd08af66d4351f02e7,PennController,16,0,experiment,NULL,PennController,15,_Header_,Start,1687281509139,5f19718f065858025026a27d,5f19718f065858025026a27d,13,mix,critical,B,50,mix40.jpg,mix60.jpg,nogoal,NULL
1687281622,41228d27795d0fdd08af66d4351f02e7,PennController,16,0,experiment,NULL,PennController,15,_Header_,End,1687281509139,5f19718f065858025026a27d,5f19718f065858025026a27d,13,mix,critical,B,50,mix40.jpg,mix60.jpg,nogoal,NULL
1687281622,41228d27795d0fdd08af66d4351f02e7,PennController,16,0,experiment,NULL,Video,progression,buffer,0,1687281510663,5f19718f065858025026a27d,5f19718f065858025026a27d,13,mix,critical,B,50,mix40.jpg,mix60.jpg,nogoal,NULL
1687281622,41228d27795d0fdd08af66d4351f02e7,PennController,16,0,experiment,NULL,Canvas,canvas6,Print,NA,1687281513903,5f19718f065858025026a27d,5f19718f065858025026a27d,13,mix,critical,B,50,mix40.jpg,mix60.jpg,nogoal,NULL
1687281622,41228d27795d0fdd08af66d4351f02e7,PennController,16,0,experiment,NULL,Selector,choice,Selection,option2,1687281516421,5f19718f065858025026a27d,5f19718f065858025026a27d,13,mix,critical,B,50,mix40.jpg,mix60.jpg,nogoal,option1;option2
1687281622,41228d27795d0fdd08af66d4351f02e7,PennController,16,0,experiment,NULL,PennController,15,_Trial_,End,1687281516422,5f19718f065858025026a27d,5f19718f065858025026a27d,13,mix,critical,B,50,mix40.jpg,mix60.jpg,nogoal,NULL
1687281622,41228d27795d0fdd08af66d4351f02e7,PennController,29,0,experiment,NULL,PennController,28,_Trial_,Start,1687281516423,5f19718f065858025026a27d,5f19718f065858025026a27d,26,sandwich,filler,B,75,sandwich65.jpg,sandwich85.jpg,nogoal,NULL
1687281622,41228d27795d0fdd08af66d4351f02e7,PennController,29,0,experiment,NULL,PennController,28,_Header_,Start,1687281516423,5f19718f065858025026a27d,5f19718f065858025026a27d,26,sandwich,filler,B,75,sandwich65.jpg,sandwich85.jpg,nogoal,NULL
1687281622,41228d27795d0fdd08af66d4351f02e7,PennController,29,0,experiment,NULL,PennController,28,_Header_,End,1687281516423,5f19718f065858025026a27d,5f19718f065858025026a27d,26,sandwich,filler,B,75,sandwich65.jpg,sandwich85.jpg,nogoal,NULL
1687281622,41228d27795d0fdd08af66d4351f02e7,PennController,29,0,experiment,NULL,Video,progression,buffer,0,1687281517947,5f19718f065858025026a27d,5f19718f065858025026a27d,26,sandwich,filler,B,75,sandwich65.jpg,sandwich85.jpg,nogoal,NULL
1687281622,41228d27795d0fdd08af66d4351f02e7,PennController,29,0,experiment,NULL,Canvas,canvas6,Print,NA,1687281522180,5f19718f065858025026a27d,5f19718f065858025026a27d,26,sandwich,filler,B,75,sandwich65.jpg,sandwich85.jpg,nogoal,NULL
1687281622,41228d27795d0fdd08af66d4351f02e7,PennController,29,0,experiment,NULL,Selector,choice,Selection,option2,1687281523441,5f19718f065858025026a27d,5f19718f065858025026a27d,26,sandwich,filler,B,75,sandwich65.jpg,sandwich85.jpg,nogoal,option2;option1
1687281622,41228d27795d0fdd08af66d4351f02e7,PennController,29,0,experiment,NULL,PennController,28,_Trial_,End,1687281523442,5f19718f065858025026a27d,5f19718f065858025026a27d,26,sandwich,filler,B,75,sandwich65.jpg,sandwich85.jpg,nogoal,NULL
1687281622,41228d27795d0fdd08af66d4351f02e7,PennController,26,0,experiment,NULL,PennController,25,_Trial_,Start,1687281523443,5f19718f065858025026a27d,5f19718f065858025026a27d,23,color,filler,B,75,color65.jpg,color85.jpg,nogoal,NULL
1687281622,41228d27795d0fdd08af66d4351f02e7,PennController,26,0,experiment,NULL,PennController,25,_Header_,Start,1687281523443,5f19718f065858025026a27d,5f19718f065858025026a27d,23,color,filler,B,75,color65.jpg,color85.jpg,nogoal,NULL
1687281622,41228d27795d0fdd08af66d4351f02e7,PennController,26,0,experiment,NULL,PennController,25,_Header_,End,1687281523443,5f19718f065858025026a27d,5f19718f065858025026a27d,23,color,filler,B,75,color65.jpg,color85.jpg,nogoal,NULL
1687281622,41228d27795d0fdd08af66d4351f02e7,PennController,26,0,experiment,NULL,Video,progression,buffer,0,1687281524976,5f19718f065858025026a27d,5f19718f065858025026a27d,23,color,filler,B,75,color65.jpg,color85.jpg,nogoal,NULL
1687281622,41228d27795d0fdd08af66d4351f02e7,PennController,26,0,experiment,NULL,Canvas,canvas6,Print,NA,1687281529224,5f19718f065858025026a27d,5f19718f065858025026a27d,23,color,filler,B,75,color65.jpg,color85.jpg,nogoal,NULL
1687281622,41228d27795d0fdd08af66d4351f02e7,PennController,26,0,experiment,NULL,Selector,choice,Selection,option1,1687281533557,5f19718f065858025026a27d,5f19718f065858025026a27d,23,color,filler,B,75,color65.jpg,color85.jpg,nogoal,option1;option2
1687281622,41228d27795d0fdd08af66d4351f02e7,PennController,26,0,experiment,NULL,PennController,25,_Trial_,End,1687281533558,5f19718f065858025026a27d,5f19718f065858025026a27d,23,color,filler,B,75,color65.jpg,color85.jpg,nogoal,NULL
1687281622,41228d27795d0fdd08af66d4351f02e7,PennController,30,0,experiment,NULL,PennController,29,_Trial_,Start,1687281533559,5f19718f065858025026a27d,5f19718f065858025026a27d,27,square,filler,B,25,square15.jpg,square35.jpg,nogoal,NULL
1687281622,41228d27795d0fdd08af66d4351f02e7,PennController,30,0,experiment,NULL,PennController,29,_Header_,Start,1687281533559,5f19718f065858025026a27d,5f19718f065858025026a27d,27,square,filler,B,25,square15.jpg,square35.jpg,nogoal,NULL
1687281622,41228d27795d0fdd08af66d4351f02e7,PennController,30,0,experiment,NULL,PennController,29,_Header_,End,1687281533559,5f19718f065858025026a27d,5f19718f065858025026a27d,27,square,filler,B,25,square15.jpg,square35.jpg,nogoal,NULL
1687281622,41228d27795d0fdd08af66d4351f02e7,PennController,30,0,experiment,NULL,Video,progression,buffer,0,1687281535089,5f19718f065858025026a27d,5f19718f065858025026a27d,27,square,filler,B,25,square15.jpg,square35.jpg,nogoal,NULL
1687281622,41228d27795d0fdd08af66d4351f02e7,PennController,30,0,experiment,NULL,Canvas,canvas6,Print,NA,1687281537328,5f19718f065858025026a27d,5f19718f065858025026a27d,27,square,filler,B,25,square15.jpg,square35.jpg,nogoal,NULL
1687281622,41228d27795d0fdd08af66d4351f02e7,PennController,30,0,experiment,NULL,Selector,choice,Selection,option2,1687281538638,5f19718f065858025026a27d,5f19718f065858025026a27d,27,square,filler,B,25,square15.jpg,square35.jpg,nogoal,option2;option1
1687281622,41228d27795d0fdd08af66d4351f02e7,PennController,30,0,experiment,NULL,PennController,29,_Trial_,End,1687281538639,5f19718f065858025026a27d,5f19718f065858025026a27d,27,square,filler,B,25,square15.jpg,square35.jpg,nogoal,NULL
1687281622,41228d27795d0fdd08af66d4351f02e7,PennController,27,0,experiment,NULL,PennController,26,_Trial_,Start,1687281538640,5f19718f065858025026a27d,5f19718f065858025026a27d,24,match,filler,B,25,match15.jpg,match35.jpg,nogoal,NULL
1687281622,41228d27795d0fdd08af66d4351f02e7,PennController,27,0,experiment,NULL,PennController,26,_Header_,Start,1687281538640,5f19718f065858025026a27d,5f19718f065858025026a27d,24,match,filler,B,25,match15.jpg,match35.jpg,nogoal,NULL
1687281622,41228d27795d0fdd08af66d4351f02e7,PennController,27,0,experiment,NULL,PennController,26,_Header_,End,1687281538640,5f19718f065858025026a27d,5f19718f065858025026a27d,24,match,filler,B,25,match15.jpg,match35.jpg,nogoal,NULL
1687281622,41228d27795d0fdd08af66d4351f02e7,PennController,27,0,experiment,NULL,Video,progression,buffer,0,1687281540167,5f19718f065858025026a27d,5f19718f065858025026a27d,24,match,filler,B,25,match15.jpg,match35.jpg,nogoal,NULL
1687281622,41228d27795d0fdd08af66d4351f02e7,PennController,27,0,experiment,NULL,Canvas,canvas6,Print,NA,1687281542407,5f19718f065858025026a27d,5f19718f065858025026a27d,24,match,filler,B,25,match15.jpg,match35.jpg,nogoal,NULL
1687281622,41228d27795d0fdd08af66d4351f02e7,PennController,27,0,experiment,NULL,Selector,choice,Selection,option2,1687281544990,5f19718f065858025026a27d,5f19718f065858025026a27d,24,match,filler,B,25,match15.jpg,match35.jpg,nogoal,option2;option1
1687281622,41228d27795d0fdd08af66d4351f02e7,PennController,27,0,experiment,NULL,PennController,26,_Trial_,End,1687281544991,5f19718f065858025026a27d,5f19718f065858025026a27d,24,match,filler,B,25,match15.jpg,match35.jpg,nogoal,NULL
1687281622,41228d27795d0fdd08af66d4351f02e7,PennController,14,0,experiment,NULL,PennController,13,_Trial_,Start,1687281544992,5f19718f065858025026a27d,5f19718f065858025026a27d,11,beads,critical,B,75,beads65.jpg,beads85.jpg,nogoal,NULL
1687281622,41228d27795d0fdd08af66d4351f02e7,PennController,14,0,experiment,NULL,PennController,13,_Header_,Start,1687281544992,5f19718f065858025026a27d,5f19718f065858025026a27d,11,beads,critical,B,75,beads65.jpg,beads85.jpg,nogoal,NULL
1687281622,41228d27795d0fdd08af66d4351f02e7,PennController,14,0,experiment,NULL,PennController,13,_Header_,End,1687281544992,5f19718f065858025026a27d,5f19718f065858025026a27d,11,beads,critical,B,75,beads65.jpg,beads85.jpg,nogoal,NULL
1687281622,41228d27795d0fdd08af66d4351f02e7,PennController,14,0,experiment,NULL,Video,progression,buffer,0,1687281546524,5f19718f065858025026a27d,5f19718f065858025026a27d,11,beads,critical,B,75,beads65.jpg,beads85.jpg,nogoal,NULL
1687281622,41228d27795d0fdd08af66d4351f02e7,PennController,14,0,experiment,NULL,Canvas,canvas6,Print,NA,1687281550775,5f19718f065858025026a27d,5f19718f065858025026a27d,11,beads,critical,B,75,beads65.jpg,beads85.jpg,nogoal,NULL
1687281622,41228d27795d0fdd08af66d4351f02e7,PennController,14,0,experiment,NULL,Selector,choice,Selection,option2,1687281552410,5f19718f065858025026a27d,5f19718f065858025026a27d,11,beads,critical,B,75,beads65.jpg,beads85.jpg,nogoal,option2;option1
1687281622,41228d27795d0fdd08af66d4351f02e7,PennController,14,0,experiment,NULL,PennController,13,_Trial_,End,1687281552410,5f19718f065858025026a27d,5f19718f065858025026a27d,11,beads,critical,B,75,beads65.jpg,beads85.jpg,nogoal,NULL
1687281622,41228d27795d0fdd08af66d4351f02e7,PennController,28,0,experiment,NULL,PennController,27,_Trial_,Start,1687281552411,5f19718f065858025026a27d,5f19718f065858025026a27d,25,house,filler,B,50,house40.jpg,house60.jpg,nogoal,NULL
1687281622,41228d27795d0fdd08af66d4351f02e7,PennController,28,0,experiment,NULL,PennController,27,_Header_,Start,1687281552411,5f19718f065858025026a27d,5f19718f065858025026a27d,25,house,filler,B,50,house40.jpg,house60.jpg,nogoal,NULL
1687281622,41228d27795d0fdd08af66d4351f02e7,PennController,28,0,experiment,NULL,PennController,27,_Header_,End,1687281552411,5f19718f065858025026a27d,5f19718f065858025026a27d,25,house,filler,B,50,house40.jpg,house60.jpg,nogoal,NULL
1687281622,41228d27795d0fdd08af66d4351f02e7,PennController,28,0,experiment,NULL,Video,progression,buffer,0,1687281553937,5f19718f065858025026a27d,5f19718f065858025026a27d,25,house,filler,B,50,house40.jpg,house60.jpg,nogoal,NULL
1687281622,41228d27795d0fdd08af66d4351f02e7,PennController,28,0,experiment,NULL,Canvas,canvas6,Print,NA,1687281557187,5f19718f065858025026a27d,5f19718f065858025026a27d,25,house,filler,B,50,house40.jpg,house60.jpg,nogoal,NULL
1687281622,41228d27795d0fdd08af66d4351f02e7,PennController,28,0,experiment,NULL,Selector,choice,Selection,option1,1687281558354,5f19718f065858025026a27d,5f19718f065858025026a27d,25,house,filler,B,50,house40.jpg,house60.jpg,nogoal,option2;option1
1687281622,41228d27795d0fdd08af66d4351f02e7,PennController,28,0,experiment,NULL,PennController,27,_Trial_,End,1687281558355,5f19718f065858025026a27d,5f19718f065858025026a27d,25,house,filler,B,50,house40.jpg,house60.jpg,nogoal,NULL
1687281622,41228d27795d0fdd08af66d4351f02e7,PennController,5,0,experiment,NULL,PennController,4,_Trial_,Start,1687281558356,5f19718f065858025026a27d,5f19718f065858025026a27d,2,door,critical,B,75,door65.jpg,door85.jpg,nogoal,NULL
1687281622,41228d27795d0fdd08af66d4351f02e7,PennController,5,0,experiment,NULL,PennController,4,_Header_,Start,1687281558356,5f19718f065858025026a27d,5f19718f065858025026a27d,2,door,critical,B,75,door65.jpg,door85.jpg,nogoal,NULL
1687281622,41228d27795d0fdd08af66d4351f02e7,PennController,5,0,experiment,NULL,PennController,4,_Header_,End,1687281558356,5f19718f065858025026a27d,5f19718f065858025026a27d,2,door,critical,B,75,door65.jpg,door85.jpg,nogoal,NULL
1687281622,41228d27795d0fdd08af66d4351f02e7,PennController,5,0,experiment,NULL,Video,progression,buffer,0,1687281559881,5f19718f065858025026a27d,5f19718f065858025026a27d,2,door,critical,B,75,door65.jpg,door85.jpg,nogoal,NULL
1687281622,41228d27795d0fdd08af66d4351f02e7,PennController,5,0,experiment,NULL,Canvas,canvas6,Print,NA,1687281564123,5f19718f065858025026a27d,5f19718f065858025026a27d,2,door,critical,B,75,door65.jpg,door85.jpg,nogoal,NULL
1687281622,41228d27795d0fdd08af66d4351f02e7,PennController,5,0,experiment,NULL,Selector,choice,Selection,option2,1687281565530,5f19718f065858025026a27d,5f19718f065858025026a27d,2,door,critical,B,75,door65.jpg,door85.jpg,nogoal,option1;option2
1687281622,41228d27795d0fdd08af66d4351f02e7,PennController,5,0,experiment,NULL,PennController,4,_Trial_,End,1687281565531,5f19718f065858025026a27d,5f19718f065858025026a27d,2,door,critical,B,75,door65.jpg,door85.jpg,nogoal,NULL
1687281622,41228d27795d0fdd08af66d4351f02e7,PennController,18,0,experiment,NULL,PennController,17,_Trial_,Start,1687281565531,5f19718f065858025026a27d,5f19718f065858025026a27d,15,zip,critical,B,25,zip15.jpg,zip35.jpg,nogoal,NULL
1687281622,41228d27795d0fdd08af66d4351f02e7,PennController,18,0,experiment,NULL,PennController,17,_Header_,Start,1687281565531,5f19718f065858025026a27d,5f19718f065858025026a27d,15,zip,critical,B,25,zip15.jpg,zip35.jpg,nogoal,NULL
1687281622,41228d27795d0fdd08af66d4351f02e7,PennController,18,0,experiment,NULL,PennController,17,_Header_,End,1687281565531,5f19718f065858025026a27d,5f19718f065858025026a27d,15,zip,critical,B,25,zip15.jpg,zip35.jpg,nogoal,NULL
1687281622,41228d27795d0fdd08af66d4351f02e7,PennController,18,0,experiment,NULL,Video,progression,buffer,0,1687281567060,5f19718f065858025026a27d,5f19718f065858025026a27d,15,zip,critical,B,25,zip15.jpg,zip35.jpg,nogoal,NULL
1687281622,41228d27795d0fdd08af66d4351f02e7,PennController,18,0,experiment,NULL,Canvas,canvas6,Print,NA,1687281569303,5f19718f065858025026a27d,5f19718f065858025026a27d,15,zip,critical,B,25,zip15.jpg,zip35.jpg,nogoal,NULL
1687281622,41228d27795d0fdd08af66d4351f02e7,PennController,18,0,experiment,NULL,Selector,choice,Selection,option1,1687281570657,5f19718f065858025026a27d,5f19718f065858025026a27d,15,zip,critical,B,25,zip15.jpg,zip35.jpg,nogoal,option2;option1
1687281622,41228d27795d0fdd08af66d4351f02e7,PennController,18,0,experiment,NULL,PennController,17,_Trial_,End,1687281570658,5f19718f065858025026a27d,5f19718f065858025026a27d,15,zip,critical,B,25,zip15.jpg,zip35.jpg,nogoal,NULL
1687281622,41228d27795d0fdd08af66d4351f02e7,PennController,22,0,experiment,NULL,PennController,21,_Trial_,Start,1687281570658,5f19718f065858025026a27d,5f19718f065858025026a27d,19,cup,filler,B,50,cup40.jpg,cup60.jpg,nogoal,NULL
1687281622,41228d27795d0fdd08af66d4351f02e7,PennController,22,0,experiment,NULL,PennController,21,_Header_,Start,1687281570658,5f19718f065858025026a27d,5f19718f065858025026a27d,19,cup,filler,B,50,cup40.jpg,cup60.jpg,nogoal,NULL
1687281622,41228d27795d0fdd08af66d4351f02e7,PennController,22,0,experiment,NULL,PennController,21,_Header_,End,1687281570658,5f19718f065858025026a27d,5f19718f065858025026a27d,19,cup,filler,B,50,cup40.jpg,cup60.jpg,nogoal,NULL
1687281622,41228d27795d0fdd08af66d4351f02e7,PennController,22,0,experiment,NULL,Video,progression,buffer,0,1687281572179,5f19718f065858025026a27d,5f19718f065858025026a27d,19,cup,filler,B,50,cup40.jpg,cup60.jpg,nogoal,NULL
1687281622,41228d27795d0fdd08af66d4351f02e7,PennController,22,0,experiment,NULL,Canvas,canvas6,Print,NA,1687281575408,5f19718f065858025026a27d,5f19718f065858025026a27d,19,cup,filler,B,50,cup40.jpg,cup60.jpg,nogoal,NULL
1687281622,41228d27795d0fdd08af66d4351f02e7,PennController,22,0,experiment,NULL,Selector,choice,Selection,option2,1687281580474,5f19718f065858025026a27d,5f19718f065858025026a27d,19,cup,filler,B,50,cup40.jpg,cup60.jpg,nogoal,option1;option2
1687281622,41228d27795d0fdd08af66d4351f02e7,PennController,22,0,experiment,NULL,PennController,21,_Trial_,End,1687281580475,5f19718f065858025026a27d,5f19718f065858025026a27d,19,cup,filler,B,50,cup40.jpg,cup60.jpg,nogoal,NULL
1687281622,41228d27795d0fdd08af66d4351f02e7,PennController,31,0,experiment,NULL,PennController,30,_Trial_,Start,1687281580476,5f19718f065858025026a27d,5f19718f065858025026a27d,28,sort,filler,B,50,sort40.jpg,sort60.jpg,nogoal,NULL
1687281622,41228d27795d0fdd08af66d4351f02e7,PennController,31,0,experiment,NULL,PennController,30,_Header_,Start,1687281580476,5f19718f065858025026a27d,5f19718f065858025026a27d,28,sort,filler,B,50,sort40.jpg,sort60.jpg,nogoal,NULL
1687281622,41228d27795d0fdd08af66d4351f02e7,PennController,31,0,experiment,NULL,PennController,30,_Header_,End,1687281580476,5f19718f065858025026a27d,5f19718f065858025026a27d,28,sort,filler,B,50,sort40.jpg,sort60.jpg,nogoal,NULL
1687281622,41228d27795d0fdd08af66d4351f02e7,PennController,31,0,experiment,NULL,Video,progression,buffer,0,1687281582001,5f19718f065858025026a27d,5f19718f065858025026a27d,28,sort,filler,B,50,sort40.jpg,sort60.jpg,nogoal,NULL
1687281622,41228d27795d0fdd08af66d4351f02e7,PennController,31,0,experiment,NULL,Canvas,canvas6,Print,NA,1687281585242,5f19718f065858025026a27d,5f19718f065858025026a27d,28,sort,filler,B,50,sort40.jpg,sort60.jpg,nogoal,NULL
1687281622,41228d27795d0fdd08af66d4351f02e7,PennController,31,0,experiment,NULL,Selector,choice,Selection,option1,1687281587789,5f19718f065858025026a27d,5f19718f065858025026a27d,28,sort,filler,B,50,sort40.jpg,sort60.jpg,nogoal,option1;option2
1687281622,41228d27795d0fdd08af66d4351f02e7,PennController,31,0,experiment,NULL,PennController,30,_Trial_,End,1687281587789,5f19718f065858025026a27d,5f19718f065858025026a27d,28,sort,filler,B,50,sort40.jpg,sort60.jpg,nogoal,NULL
1687281622,41228d27795d0fdd08af66d4351f02e7,PennController,19,0,experiment,NULL,PennController,18,_Trial_,Start,1687281587790,5f19718f065858025026a27d,5f19718f065858025026a27d,16,blinds,critical,B,50,blinds42.jpg,blinds60.jpg,nogoal,NULL
1687281622,41228d27795d0fdd08af66d4351f02e7,PennController,19,0,experiment,NULL,PennController,18,_Header_,Start,1687281587790,5f19718f065858025026a27d,5f19718f065858025026a27d,16,blinds,critical,B,50,blinds42.jpg,blinds60.jpg,nogoal,NULL
1687281622,41228d27795d0fdd08af66d4351f02e7,PennController,19,0,experiment,NULL,PennController,18,_Header_,End,1687281587790,5f19718f065858025026a27d,5f19718f065858025026a27d,16,blinds,critical,B,50,blinds42.jpg,blinds60.jpg,nogoal,NULL
1687281622,41228d27795d0fdd08af66d4351f02e7,PennController,19,0,experiment,NULL,Video,progression,buffer,0,1687281589340,5f19718f065858025026a27d,5f19718f065858025026a27d,16,blinds,critical,B,50,blinds42.jpg,blinds60.jpg,nogoal,NULL
1687281622,41228d27795d0fdd08af66d4351f02e7,PennController,19,0,experiment,NULL,Canvas,canvas6,Print,NA,1687281593989,5f19718f065858025026a27d,5f19718f065858025026a27d,16,blinds,critical,B,50,blinds42.jpg,blinds60.jpg,nogoal,NULL
1687281622,41228d27795d0fdd08af66d4351f02e7,PennController,19,0,experiment,NULL,Selector,choice,Selection,option2,1687281595222,5f19718f065858025026a27d,5f19718f065858025026a27d,16,blinds,critical,B,50,blinds42.jpg,blinds60.jpg,nogoal,option1;option2
1687281622,41228d27795d0fdd08af66d4351f02e7,PennController,19,0,experiment,NULL,PennController,18,_Trial_,End,1687281595223,5f19718f065858025026a27d,5f19718f065858025026a27d,16,blinds,critical,B,50,blinds42.jpg,blinds60.jpg,nogoal,NULL
1687281622,41228d27795d0fdd08af66d4351f02e7,PennController,12,0,experiment,NULL,PennController,11,_Trial_,Start,1687281595225,5f19718f065858025026a27d,5f19718f065858025026a27d,9,cake,critical,B,25,cake15.jpg,cake33.jpg,nogoal,NULL
1687281622,41228d27795d0fdd08af66d4351f02e7,PennController,12,0,experiment,NULL,PennController,11,_Header_,Start,1687281595225,5f19718f065858025026a27d,5f19718f065858025026a27d,9,cake,critical,B,25,cake15.jpg,cake33.jpg,nogoal,NULL
1687281622,41228d27795d0fdd08af66d4351f02e7,PennController,12,0,experiment,NULL,PennController,11,_Header_,End,1687281595225,5f19718f065858025026a27d,5f19718f065858025026a27d,9,cake,critical,B,25,cake15.jpg,cake33.jpg,nogoal,NULL
1687281622,41228d27795d0fdd08af66d4351f02e7,PennController,12,0,experiment,NULL,Video,progression,buffer,0,1687281596752,5f19718f065858025026a27d,5f19718f065858025026a27d,9,cake,critical,B,25,cake15.jpg,cake33.jpg,nogoal,NULL
1687281622,41228d27795d0fdd08af66d4351f02e7,PennController,12,0,experiment,NULL,Canvas,canvas6,Print,NA,1687281599578,5f19718f065858025026a27d,5f19718f065858025026a27d,9,cake,critical,B,25,cake15.jpg,cake33.jpg,nogoal,NULL
1687281622,41228d27795d0fdd08af66d4351f02e7,PennController,12,0,experiment,NULL,Selector,choice,Selection,option1,1687281601349,5f19718f065858025026a27d,5f19718f065858025026a27d,9,cake,critical,B,25,cake15.jpg,cake33.jpg,nogoal,option1;option2
1687281622,41228d27795d0fdd08af66d4351f02e7,PennController,12,0,experiment,NULL,PennController,11,_Trial_,End,1687281601349,5f19718f065858025026a27d,5f19718f065858025026a27d,9,cake,critical,B,25,cake15.jpg,cake33.jpg,nogoal,NULL
1687281622,41228d27795d0fdd08af66d4351f02e7,PennController,25,0,experiment,NULL,PennController,24,_Trial_,Start,1687281601350,5f19718f065858025026a27d,5f19718f065858025026a27d,22,wall,filler,B,50,wall40.jpg,wall60.jpg,nogoal,NULL
1687281622,41228d27795d0fdd08af66d4351f02e7,PennController,25,0,experiment,NULL,PennController,24,_Header_,Start,1687281601350,5f19718f065858025026a27d,5f19718f065858025026a27d,22,wall,filler,B,50,wall40.jpg,wall60.jpg,nogoal,NULL
1687281622,41228d27795d0fdd08af66d4351f02e7,PennController,25,0,experiment,NULL,PennController,24,_Header_,End,1687281601350,5f19718f065858025026a27d,5f19718f065858025026a27d,22,wall,filler,B,50,wall40.jpg,wall60.jpg,nogoal,NULL
1687281622,41228d27795d0fdd08af66d4351f02e7,PennController,25,0,experiment,NULL,Video,progression,buffer,0,1687281602881,5f19718f065858025026a27d,5f19718f065858025026a27d,22,wall,filler,B,50,wall40.jpg,wall60.jpg,nogoal,NULL
1687281622,41228d27795d0fdd08af66d4351f02e7,PennController,25,0,experiment,NULL,Canvas,canvas6,Print,NA,1687281606122,5f19718f065858025026a27d,5f19718f065858025026a27d,22,wall,filler,B,50,wall40.jpg,wall60.jpg,nogoal,NULL
1687281622,41228d27795d0fdd08af66d4351f02e7,PennController,25,0,experiment,NULL,Selector,choice,Selection,option2,1687281607646,5f19718f065858025026a27d,5f19718f065858025026a27d,22,wall,filler,B,50,wall40.jpg,wall60.jpg,nogoal,option1;option2
1687281622,41228d27795d0fdd08af66d4351f02e7,PennController,25,0,experiment,NULL,PennController,24,_Trial_,End,1687281607647,5f19718f065858025026a27d,5f19718f065858025026a27d,22,wall,filler,B,50,wall40.jpg,wall60.jpg,nogoal,NULL
1687281622,41228d27795d0fdd08af66d4351f02e7,PennController,21,0,experiment,NULL,PennController,20,_Trial_,Start,1687281607648,5f19718f065858025026a27d,5f19718f065858025026a27d,18,ball,critical,B,25,ball15.jpg,ball35.jpg,nogoal,NULL
1687281622,41228d27795d0fdd08af66d4351f02e7,PennController,21,0,experiment,NULL,PennController,20,_Header_,Start,1687281607648,5f19718f065858025026a27d,5f19718f065858025026a27d,18,ball,critical,B,25,ball15.jpg,ball35.jpg,nogoal,NULL
1687281622,41228d27795d0fdd08af66d4351f02e7,PennController,21,0,experiment,NULL,PennController,20,_Header_,End,1687281607648,5f19718f065858025026a27d,5f19718f065858025026a27d,18,ball,critical,B,25,ball15.jpg,ball35.jpg,nogoal,NULL
1687281622,41228d27795d0fdd08af66d4351f02e7,PennController,21,0,experiment,NULL,Video,progression,buffer,0,1687281609165,5f19718f065858025026a27d,5f19718f065858025026a27d,18,ball,critical,B,25,ball15.jpg,ball35.jpg,nogoal,NULL
1687281622,41228d27795d0fdd08af66d4351f02e7,PennController,21,0,experiment,NULL,Canvas,canvas6,Print,NA,1687281611403,5f19718f065858025026a27d,5f19718f065858025026a27d,18,ball,critical,B,25,ball15.jpg,ball35.jpg,nogoal,NULL
1687281622,41228d27795d0fdd08af66d4351f02e7,PennController,21,0,experiment,NULL,Selector,choice,Selection,option1,1687281613165,5f19718f065858025026a27d,5f19718f065858025026a27d,18,ball,critical,B,25,ball15.jpg,ball35.jpg,nogoal,option2;option1
1687281622,41228d27795d0fdd08af66d4351f02e7,PennController,21,0,experiment,NULL,PennController,20,_Trial_,End,1687281613165,5f19718f065858025026a27d,5f19718f065858025026a27d,18,ball,critical,B,25,ball15.jpg,ball35.jpg,nogoal,NULL
1687281622,41228d27795d0fdd08af66d4351f02e7,PennController,32,0,experiment,NULL,PennController,31,_Trial_,Start,1687281613166,5f19718f065858025026a27d,5f19718f065858025026a27d,29,frog,filler,B,75,frog65.jpg,frog85.jpg,nogoal,NULL
1687281622,41228d27795d0fdd08af66d4351f02e7,PennController,32,0,experiment,NULL,PennController,31,_Header_,Start,1687281613166,5f19718f065858025026a27d,5f19718f065858025026a27d,29,frog,filler,B,75,frog65.jpg,frog85.jpg,nogoal,NULL
1687281622,41228d27795d0fdd08af66d4351f02e7,PennController,32,0,experiment,NULL,PennController,31,_Header_,End,1687281613166,5f19718f065858025026a27d,5f19718f065858025026a27d,29,frog,filler,B,75,frog65.jpg,frog85.jpg,nogoal,NULL
1687281622,41228d27795d0fdd08af66d4351f02e7,PennController,32,0,experiment,NULL,Video,progression,buffer,0,1687281614681,5f19718f065858025026a27d,5f19718f065858025026a27d,29,frog,filler,B,75,frog65.jpg,frog85.jpg,nogoal,NULL
1687281622,41228d27795d0fdd08af66d4351f02e7,PennController,32,0,experiment,NULL,Canvas,canvas6,Print,NA,1687281618925,5f19718f065858025026a27d,5f19718f065858025026a27d,29,frog,filler,B,75,frog65.jpg,frog85.jpg,nogoal,NULL
1687281622,41228d27795d0fdd08af66d4351f02e7,PennController,32,0,experiment,NULL,Selector,choice,Selection,option2,1687281621854,5f19718f065858025026a27d,5f19718f065858025026a27d,29,frog,filler,B,75,frog65.jpg,frog85.jpg,nogoal,option2;option1
1687281622,41228d27795d0fdd08af66d4351f02e7,PennController,32,0,experiment,NULL,PennController,31,_Trial_,End,1687281621855,5f19718f065858025026a27d,5f19718f065858025026a27d,29,frog,filler,B,75,frog65.jpg,frog85.jpg,nogoal,NULL
