#
# Results on Tuesday June 20 2023 17:23:22 UTC
# USER AGENT: Mozilla/5.0 (Windows NT 10.0; Win64; x64) AppleWebKit/537.36 (KHTML, like Gecko) Chrome/109.0.0.0 Safari/537.36
# Design number was non-random = 4
#
# Columns below this comment are as follows:
# 1. Results reception time.
# 2. MD5 hash of participant's IP address.
# 3. Controller name.
# 4. Order number of item.
# 5. Inner element number.
# 6. Label.
# 7. Latin Square Group.
# 8. PennElementType.
# 9. PennElementName.
# 10. Parameter.
# 11. Value.
# 12. EventTime.
# 13. PROLIFIC_ID.
# 14. Comments.
1687281802,d58e4880e274174ff443724d4020461d,PennController,2,0,consent,NULL,PennController,0,_Trial_,Start,1687281304341,577cc873092b09000179c3e6,NULL
1687281802,d58e4880e274174ff443724d4020461d,PennController,2,0,consent,NULL,PennController,0,_Header_,Start,1687281304341,577cc873092b09000179c3e6,NULL
1687281802,d58e4880e274174ff443724d4020461d,PennController,2,0,consent,NULL,PennController,0,_Header_,End,1687281304341,577cc873092b09000179c3e6,NULL
1687281802,d58e4880e274174ff443724d4020461d,PennController,2,0,consent,NULL,PennController,0,_Trial_,End,1687281348416,577cc873092b09000179c3e6,NULL
# Columns below this comment are as follows:
# 14. ID.
# 15. Comments.
1687281802,d58e4880e274174ff443724d4020461d,PennController,3,0,intro,NULL,PennController,1,_Trial_,Start,1687281348423,577cc873092b09000179c3e6,577cc873092b09000179c3e6,NULL
1687281802,d58e4880e274174ff443724d4020461d,PennController,3,0,intro,NULL,PennController,1,_Header_,Start,1687281348423,577cc873092b09000179c3e6,577cc873092b09000179c3e6,NULL
1687281802,d58e4880e274174ff443724d4020461d,PennController,3,0,intro,NULL,PennController,1,_Header_,End,1687281348423,577cc873092b09000179c3e6,577cc873092b09000179c3e6,NULL
1687281802,d58e4880e274174ff443724d4020461d,PennController,3,0,intro,NULL,PennController,1,_Trial_,End,1687281374419,577cc873092b09000179c3e6,577cc873092b09000179c3e6,NULL
# Columns below this comment are as follows:
# 15. item_number.
# 16. item.
# 17. type.
# 18. Group.
# 19. prog.
# 20. prev_image.
# 21. next_image.
# 22. height.
# 23. Comments.
1687281802,d58e4880e274174ff443724d4020461d,PennController,19,0,experiment,NULL,PennController,18,_Trial_,Start,1687281374422,577cc873092b09000179c3e6,577cc873092b09000179c3e6,16,blinds,critical,B,50,blinds42.jpg,blinds60.jpg,nogoal,NULL
1687281802,d58e4880e274174ff443724d4020461d,PennController,19,0,experiment,NULL,PennController,18,_Header_,Start,1687281374422,577cc873092b09000179c3e6,577cc873092b09000179c3e6,16,blinds,critical,B,50,blinds42.jpg,blinds60.jpg,nogoal,NULL
1687281802,d58e4880e274174ff443724d4020461d,PennController,19,0,experiment,NULL,PennController,18,_Header_,End,1687281374422,577cc873092b09000179c3e6,577cc873092b09000179c3e6,16,blinds,critical,B,50,blinds42.jpg,blinds60.jpg,nogoal,NULL
1687281802,d58e4880e274174ff443724d4020461d,PennController,19,0,experiment,NULL,Canvas,canvas6,Print,NA,1687281380592,577cc873092b09000179c3e6,577cc873092b09000179c3e6,16,blinds,critical,B,50,blinds42.jpg,blinds60.jpg,nogoal,NULL
1687281802,d58e4880e274174ff443724d4020461d,PennController,19,0,experiment,NULL,Video,progression,buffer,0.010113,1687281375995,577cc873092b09000179c3e6,577cc873092b09000179c3e6,16,blinds,critical,B,50,blinds42.jpg,blinds60.jpg,nogoal,NULL
1687281802,d58e4880e274174ff443724d4020461d,PennController,19,0,experiment,NULL,Selector,choice,Selection,option2,1687281390112,577cc873092b09000179c3e6,577cc873092b09000179c3e6,16,blinds,critical,B,50,blinds42.jpg,blinds60.jpg,nogoal,option1;option2
1687281802,d58e4880e274174ff443724d4020461d,PennController,19,0,experiment,NULL,PennController,18,_Trial_,End,1687281390119,577cc873092b09000179c3e6,577cc873092b09000179c3e6,16,blinds,critical,B,50,blinds42.jpg,blinds60.jpg,nogoal,NULL
1687281802,d58e4880e274174ff443724d4020461d,PennController,31,0,experiment,NULL,PennController,30,_Trial_,Start,1687281390123,577cc873092b09000179c3e6,577cc873092b09000179c3e6,28,sort,filler,B,50,sort40.jpg,sort60.jpg,nogoal,NULL
1687281802,d58e4880e274174ff443724d4020461d,PennController,31,0,experiment,NULL,PennController,30,_Header_,Start,1687281390123,577cc873092b09000179c3e6,577cc873092b09000179c3e6,28,sort,filler,B,50,sort40.jpg,sort60.jpg,nogoal,NULL
1687281802,d58e4880e274174ff443724d4020461d,PennController,31,0,experiment,NULL,PennController,30,_Header_,End,1687281390123,577cc873092b09000179c3e6,577cc873092b09000179c3e6,28,sort,filler,B,50,sort40.jpg,sort60.jpg,nogoal,NULL
1687281802,d58e4880e274174ff443724d4020461d,PennController,31,0,experiment,NULL,Canvas,canvas6,Print,NA,1687281394863,577cc873092b09000179c3e6,577cc873092b09000179c3e6,28,sort,filler,B,50,sort40.jpg,sort60.jpg,nogoal,NULL
1687281802,d58e4880e274174ff443724d4020461d,PennController,31,0,experiment,NULL,Video,progression,buffer,0.011359,1687281391670,577cc873092b09000179c3e6,577cc873092b09000179c3e6,28,sort,filler,B,50,sort40.jpg,sort60.jpg,nogoal,NULL
1687281802,d58e4880e274174ff443724d4020461d,PennController,31,0,experiment,NULL,Selector,choice,Selection,option2,1687281406337,577cc873092b09000179c3e6,577cc873092b09000179c3e6,28,sort,filler,B,50,sort40.jpg,sort60.jpg,nogoal,option1;option2
1687281802,d58e4880e274174ff443724d4020461d,PennController,31,0,experiment,NULL,PennController,30,_Trial_,End,1687281406343,577cc873092b09000179c3e6,577cc873092b09000179c3e6,28,sort,filler,B,50,sort40.jpg,sort60.jpg,nogoal,NULL
1687281802,d58e4880e274174ff443724d4020461d,PennController,24,0,experiment,NULL,PennController,23,_Trial_,Start,1687281406350,577cc873092b09000179c3e6,577cc873092b09000179c3e6,21,visit,filler,B,25,visit15.jpg,visit35.jpg,nogoal,NULL
1687281802,d58e4880e274174ff443724d4020461d,PennController,24,0,experiment,NULL,PennController,23,_Header_,Start,1687281406350,577cc873092b09000179c3e6,577cc873092b09000179c3e6,21,visit,filler,B,25,visit15.jpg,visit35.jpg,nogoal,NULL
1687281802,d58e4880e274174ff443724d4020461d,PennController,24,0,experiment,NULL,PennController,23,_Header_,End,1687281406351,577cc873092b09000179c3e6,577cc873092b09000179c3e6,21,visit,filler,B,25,visit15.jpg,visit35.jpg,nogoal,NULL
1687281802,d58e4880e274174ff443724d4020461d,PennController,24,0,experiment,NULL,Canvas,canvas6,Print,NA,1687281410085,577cc873092b09000179c3e6,577cc873092b09000179c3e6,21,visit,filler,B,25,visit15.jpg,visit35.jpg,nogoal,NULL
1687281802,d58e4880e274174ff443724d4020461d,PennController,24,0,experiment,NULL,Video,progression,buffer,0.018975,1687281407914,577cc873092b09000179c3e6,577cc873092b09000179c3e6,21,visit,filler,B,25,visit15.jpg,visit35.jpg,nogoal,NULL
1687281802,d58e4880e274174ff443724d4020461d,PennController,24,0,experiment,NULL,Selector,choice,Selection,option2,1687281418138,577cc873092b09000179c3e6,577cc873092b09000179c3e6,21,visit,filler,B,25,visit15.jpg,visit35.jpg,nogoal,option1;option2
1687281802,d58e4880e274174ff443724d4020461d,PennController,24,0,experiment,NULL,PennController,23,_Trial_,End,1687281418145,577cc873092b09000179c3e6,577cc873092b09000179c3e6,21,visit,filler,B,25,visit15.jpg,visit35.jpg,nogoal,NULL
1687281802,d58e4880e274174ff443724d4020461d,PennController,29,0,experiment,NULL,PennController,28,_Trial_,Start,1687281418152,577cc873092b09000179c3e6,577cc873092b09000179c3e6,26,sandwich,filler,B,75,sandwich65.jpg,sandwich85.jpg,nogoal,NULL
1687281802,d58e4880e274174ff443724d4020461d,PennController,29,0,experiment,NULL,PennController,28,_Header_,Start,1687281418152,577cc873092b09000179c3e6,577cc873092b09000179c3e6,26,sandwich,filler,B,75,sandwich65.jpg,sandwich85.jpg,nogoal,NULL
1687281802,d58e4880e274174ff443724d4020461d,PennController,29,0,experiment,NULL,PennController,28,_Header_,End,1687281418152,577cc873092b09000179c3e6,577cc873092b09000179c3e6,26,sandwich,filler,B,75,sandwich65.jpg,sandwich85.jpg,nogoal,NULL
1687281802,d58e4880e274174ff443724d4020461d,PennController,29,0,experiment,NULL,Canvas,canvas6,Print,NA,1687281423878,577cc873092b09000179c3e6,577cc873092b09000179c3e6,26,sandwich,filler,B,75,sandwich65.jpg,sandwich85.jpg,nogoal,NULL
1687281802,d58e4880e274174ff443724d4020461d,PennController,29,0,experiment,NULL,Video,progression,buffer,0.099011,1687281419796,577cc873092b09000179c3e6,577cc873092b09000179c3e6,26,sandwich,filler,B,75,sandwich65.jpg,sandwich85.jpg,nogoal,NULL
1687281802,d58e4880e274174ff443724d4020461d,PennController,29,0,experiment,NULL,Selector,choice,Selection,option2,1687281425587,577cc873092b09000179c3e6,577cc873092b09000179c3e6,26,sandwich,filler,B,75,sandwich65.jpg,sandwich85.jpg,nogoal,option1;option2
1687281802,d58e4880e274174ff443724d4020461d,PennController,29,0,experiment,NULL,PennController,28,_Trial_,End,1687281425592,577cc873092b09000179c3e6,577cc873092b09000179c3e6,26,sandwich,filler,B,75,sandwich65.jpg,sandwich85.jpg,nogoal,NULL
1687281802,d58e4880e274174ff443724d4020461d,PennController,23,0,experiment,NULL,PennController,22,_Trial_,Start,1687281425600,577cc873092b09000179c3e6,577cc873092b09000179c3e6,20,cat,filler,B,75,cat65.jpg,cat85.jpg,nogoal,NULL
1687281802,d58e4880e274174ff443724d4020461d,PennController,23,0,experiment,NULL,PennController,22,_Header_,Start,1687281425600,577cc873092b09000179c3e6,577cc873092b09000179c3e6,20,cat,filler,B,75,cat65.jpg,cat85.jpg,nogoal,NULL
1687281802,d58e4880e274174ff443724d4020461d,PennController,23,0,experiment,NULL,PennController,22,_Header_,End,1687281425600,577cc873092b09000179c3e6,577cc873092b09000179c3e6,20,cat,filler,B,75,cat65.jpg,cat85.jpg,nogoal,NULL
1687281802,d58e4880e274174ff443724d4020461d,PennController,23,0,experiment,NULL,Canvas,canvas6,Print,NA,1687281431341,577cc873092b09000179c3e6,577cc873092b09000179c3e6,20,cat,filler,B,75,cat65.jpg,cat85.jpg,nogoal,NULL
1687281802,d58e4880e274174ff443724d4020461d,PennController,23,0,experiment,NULL,Video,progression,buffer,0.013869,1687281427157,577cc873092b09000179c3e6,577cc873092b09000179c3e6,20,cat,filler,B,75,cat65.jpg,cat85.jpg,nogoal,NULL
1687281802,d58e4880e274174ff443724d4020461d,PennController,23,0,experiment,NULL,Selector,choice,Selection,option1,1687281438002,577cc873092b09000179c3e6,577cc873092b09000179c3e6,20,cat,filler,B,75,cat65.jpg,cat85.jpg,nogoal,option2;option1
1687281802,d58e4880e274174ff443724d4020461d,PennController,23,0,experiment,NULL,PennController,22,_Trial_,End,1687281438008,577cc873092b09000179c3e6,577cc873092b09000179c3e6,20,cat,filler,B,75,cat65.jpg,cat85.jpg,nogoal,NULL
1687281802,d58e4880e274174ff443724d4020461d,PennController,17,0,experiment,NULL,PennController,16,_Trial_,Start,1687281438012,577cc873092b09000179c3e6,577cc873092b09000179c3e6,14,cover,critical,B,75,cover66.jpg,cover84.jpg,nogoal,NULL
1687281802,d58e4880e274174ff443724d4020461d,PennController,17,0,experiment,NULL,PennController,16,_Header_,Start,1687281438012,577cc873092b09000179c3e6,577cc873092b09000179c3e6,14,cover,critical,B,75,cover66.jpg,cover84.jpg,nogoal,NULL
1687281802,d58e4880e274174ff443724d4020461d,PennController,17,0,experiment,NULL,PennController,16,_Header_,End,1687281438013,577cc873092b09000179c3e6,577cc873092b09000179c3e6,14,cover,critical,B,75,cover66.jpg,cover84.jpg,nogoal,NULL
1687281802,d58e4880e274174ff443724d4020461d,PennController,17,0,experiment,NULL,Canvas,canvas6,Print,NA,1687281445768,577cc873092b09000179c3e6,577cc873092b09000179c3e6,14,cover,critical,B,75,cover66.jpg,cover84.jpg,nogoal,NULL
1687281802,d58e4880e274174ff443724d4020461d,PennController,17,0,experiment,NULL,Video,progression,buffer,0.011807,1687281439569,577cc873092b09000179c3e6,577cc873092b09000179c3e6,14,cover,critical,B,75,cover66.jpg,cover84.jpg,nogoal,NULL
1687281802,d58e4880e274174ff443724d4020461d,PennController,17,0,experiment,NULL,Selector,choice,Selection,option2,1687281457441,577cc873092b09000179c3e6,577cc873092b09000179c3e6,14,cover,critical,B,75,cover66.jpg,cover84.jpg,nogoal,option2;option1
1687281802,d58e4880e274174ff443724d4020461d,PennController,17,0,experiment,NULL,PennController,16,_Trial_,End,1687281457448,577cc873092b09000179c3e6,577cc873092b09000179c3e6,14,cover,critical,B,75,cover66.jpg,cover84.jpg,nogoal,NULL
1687281802,d58e4880e274174ff443724d4020461d,PennController,18,0,experiment,NULL,PennController,17,_Trial_,Start,1687281457455,577cc873092b09000179c3e6,577cc873092b09000179c3e6,15,zip,critical,B,25,zip15.jpg,zip35.jpg,nogoal,NULL
1687281802,d58e4880e274174ff443724d4020461d,PennController,18,0,experiment,NULL,PennController,17,_Header_,Start,1687281457455,577cc873092b09000179c3e6,577cc873092b09000179c3e6,15,zip,critical,B,25,zip15.jpg,zip35.jpg,nogoal,NULL
1687281802,d58e4880e274174ff443724d4020461d,PennController,18,0,experiment,NULL,PennController,17,_Header_,End,1687281457455,577cc873092b09000179c3e6,577cc873092b09000179c3e6,15,zip,critical,B,25,zip15.jpg,zip35.jpg,nogoal,NULL
1687281802,d58e4880e274174ff443724d4020461d,PennController,18,0,experiment,NULL,Canvas,canvas6,Print,NA,1687281461190,577cc873092b09000179c3e6,577cc873092b09000179c3e6,15,zip,critical,B,25,zip15.jpg,zip35.jpg,nogoal,NULL
1687281802,d58e4880e274174ff443724d4020461d,PennController,18,0,experiment,NULL,Video,progression,buffer,0.015983,1687281459014,577cc873092b09000179c3e6,577cc873092b09000179c3e6,15,zip,critical,B,25,zip15.jpg,zip35.jpg,nogoal,NULL
1687281802,d58e4880e274174ff443724d4020461d,PennController,18,0,experiment,NULL,Selector,choice,Selection,option2,1687281465433,577cc873092b09000179c3e6,577cc873092b09000179c3e6,15,zip,critical,B,25,zip15.jpg,zip35.jpg,nogoal,option2;option1
1687281802,d58e4880e274174ff443724d4020461d,PennController,18,0,experiment,NULL,PennController,17,_Trial_,End,1687281465438,577cc873092b09000179c3e6,577cc873092b09000179c3e6,15,zip,critical,B,25,zip15.jpg,zip35.jpg,nogoal,NULL
1687281802,d58e4880e274174ff443724d4020461d,PennController,16,0,experiment,NULL,PennController,15,_Trial_,Start,1687281465444,577cc873092b09000179c3e6,577cc873092b09000179c3e6,13,mix,critical,B,50,mix40.jpg,mix60.jpg,nogoal,NULL
1687281802,d58e4880e274174ff443724d4020461d,PennController,16,0,experiment,NULL,PennController,15,_Header_,Start,1687281465444,577cc873092b09000179c3e6,577cc873092b09000179c3e6,13,mix,critical,B,50,mix40.jpg,mix60.jpg,nogoal,NULL
1687281802,d58e4880e274174ff443724d4020461d,PennController,16,0,experiment,NULL,PennController,15,_Header_,End,1687281465444,577cc873092b09000179c3e6,577cc873092b09000179c3e6,13,mix,critical,B,50,mix40.jpg,mix60.jpg,nogoal,NULL
1687281802,d58e4880e274174ff443724d4020461d,PennController,16,0,experiment,NULL,Canvas,canvas6,Print,NA,1687281470200,577cc873092b09000179c3e6,577cc873092b09000179c3e6,13,mix,critical,B,50,mix40.jpg,mix60.jpg,nogoal,NULL
1687281802,d58e4880e274174ff443724d4020461d,PennController,16,0,experiment,NULL,Video,progression,buffer,0.018067,1687281467014,577cc873092b09000179c3e6,577cc873092b09000179c3e6,13,mix,critical,B,50,mix40.jpg,mix60.jpg,nogoal,NULL
1687281802,d58e4880e274174ff443724d4020461d,PennController,16,0,experiment,NULL,Selector,choice,Selection,option1,1687281473034,577cc873092b09000179c3e6,577cc873092b09000179c3e6,13,mix,critical,B,50,mix40.jpg,mix60.jpg,nogoal,option1;option2
1687281802,d58e4880e274174ff443724d4020461d,PennController,16,0,experiment,NULL,PennController,15,_Trial_,End,1687281473039,577cc873092b09000179c3e6,577cc873092b09000179c3e6,13,mix,critical,B,50,mix40.jpg,mix60.jpg,nogoal,NULL
1687281802,d58e4880e274174ff443724d4020461d,PennController,22,0,experiment,NULL,PennController,21,_Trial_,Start,1687281473045,577cc873092b09000179c3e6,577cc873092b09000179c3e6,19,cup,filler,B,50,cup40.jpg,cup60.jpg,nogoal,NULL
1687281802,d58e4880e274174ff443724d4020461d,PennController,22,0,experiment,NULL,PennController,21,_Header_,Start,1687281473045,577cc873092b09000179c3e6,577cc873092b09000179c3e6,19,cup,filler,B,50,cup40.jpg,cup60.jpg,nogoal,NULL
1687281802,d58e4880e274174ff443724d4020461d,PennController,22,0,experiment,NULL,PennController,21,_Header_,End,1687281473045,577cc873092b09000179c3e6,577cc873092b09000179c3e6,19,cup,filler,B,50,cup40.jpg,cup60.jpg,nogoal,NULL
1687281802,d58e4880e274174ff443724d4020461d,PennController,22,0,experiment,NULL,Canvas,canvas6,Print,NA,1687281477784,577cc873092b09000179c3e6,577cc873092b09000179c3e6,19,cup,filler,B,50,cup40.jpg,cup60.jpg,nogoal,NULL
1687281802,d58e4880e274174ff443724d4020461d,PennController,22,0,experiment,NULL,Video,progression,buffer,0.013813,1687281474598,577cc873092b09000179c3e6,577cc873092b09000179c3e6,19,cup,filler,B,50,cup40.jpg,cup60.jpg,nogoal,NULL
1687281802,d58e4880e274174ff443724d4020461d,PennController,22,0,experiment,NULL,Selector,choice,Selection,option2,1687281480346,577cc873092b09000179c3e6,577cc873092b09000179c3e6,19,cup,filler,B,50,cup40.jpg,cup60.jpg,nogoal,option1;option2
1687281802,d58e4880e274174ff443724d4020461d,PennController,22,0,experiment,NULL,PennController,21,_Trial_,End,1687281480351,577cc873092b09000179c3e6,577cc873092b09000179c3e6,19,cup,filler,B,50,cup40.jpg,cup60.jpg,nogoal,NULL
1687281802,d58e4880e274174ff443724d4020461d,PennController,26,0,experiment,NULL,PennController,25,_Trial_,Start,1687281480356,577cc873092b09000179c3e6,577cc873092b09000179c3e6,23,color,filler,B,75,color65.jpg,color85.jpg,nogoal,NULL
1687281802,d58e4880e274174ff443724d4020461d,PennController,26,0,experiment,NULL,PennController,25,_Header_,Start,1687281480356,577cc873092b09000179c3e6,577cc873092b09000179c3e6,23,color,filler,B,75,color65.jpg,color85.jpg,nogoal,NULL
1687281802,d58e4880e274174ff443724d4020461d,PennController,26,0,experiment,NULL,PennController,25,_Header_,End,1687281480356,577cc873092b09000179c3e6,577cc873092b09000179c3e6,23,color,filler,B,75,color65.jpg,color85.jpg,nogoal,NULL
1687281802,d58e4880e274174ff443724d4020461d,PennController,26,0,experiment,NULL,Canvas,canvas6,Print,NA,1687281486090,577cc873092b09000179c3e6,577cc873092b09000179c3e6,23,color,filler,B,75,color65.jpg,color85.jpg,nogoal,NULL
1687281802,d58e4880e274174ff443724d4020461d,PennController,26,0,experiment,NULL,Video,progression,buffer,0.016698,1687281481919,577cc873092b09000179c3e6,577cc873092b09000179c3e6,23,color,filler,B,75,color65.jpg,color85.jpg,nogoal,NULL
1687281802,d58e4880e274174ff443724d4020461d,PennController,26,0,experiment,NULL,Selector,choice,Selection,option2,1687281492065,577cc873092b09000179c3e6,577cc873092b09000179c3e6,23,color,filler,B,75,color65.jpg,color85.jpg,nogoal,option2;option1
1687281802,d58e4880e274174ff443724d4020461d,PennController,26,0,experiment,NULL,PennController,25,_Trial_,End,1687281492070,577cc873092b09000179c3e6,577cc873092b09000179c3e6,23,color,filler,B,75,color65.jpg,color85.jpg,nogoal,NULL
1687281802,d58e4880e274174ff443724d4020461d,PennController,7,0,experiment,NULL,PennController,6,_Trial_,Start,1687281492075,577cc873092b09000179c3e6,577cc873092b09000179c3e6,4,candy,critical,B,50,candy40.jpg,candy60.jpg,nogoal,NULL
1687281802,d58e4880e274174ff443724d4020461d,PennController,7,0,experiment,NULL,PennController,6,_Header_,Start,1687281492075,577cc873092b09000179c3e6,577cc873092b09000179c3e6,4,candy,critical,B,50,candy40.jpg,candy60.jpg,nogoal,NULL
1687281802,d58e4880e274174ff443724d4020461d,PennController,7,0,experiment,NULL,PennController,6,_Header_,End,1687281492075,577cc873092b09000179c3e6,577cc873092b09000179c3e6,4,candy,critical,B,50,candy40.jpg,candy60.jpg,nogoal,NULL
1687281802,d58e4880e274174ff443724d4020461d,PennController,7,0,experiment,NULL,Canvas,canvas6,Print,NA,1687281496823,577cc873092b09000179c3e6,577cc873092b09000179c3e6,4,candy,critical,B,50,candy40.jpg,candy60.jpg,nogoal,NULL
1687281802,d58e4880e274174ff443724d4020461d,PennController,7,0,experiment,NULL,Video,progression,buffer,0.019359,1687281493637,577cc873092b09000179c3e6,577cc873092b09000179c3e6,4,candy,critical,B,50,candy40.jpg,candy60.jpg,nogoal,NULL
1687281802,d58e4880e274174ff443724d4020461d,PennController,7,0,experiment,NULL,Selector,choice,Selection,option2,1687281514297,577cc873092b09000179c3e6,577cc873092b09000179c3e6,4,candy,critical,B,50,candy40.jpg,candy60.jpg,nogoal,option1;option2
1687281802,d58e4880e274174ff443724d4020461d,PennController,7,0,experiment,NULL,PennController,6,_Trial_,End,1687281514306,577cc873092b09000179c3e6,577cc873092b09000179c3e6,4,candy,critical,B,50,candy40.jpg,candy60.jpg,nogoal,NULL
1687281802,d58e4880e274174ff443724d4020461d,PennController,4,0,experiment,NULL,PennController,3,_Trial_,Start,1687281514313,577cc873092b09000179c3e6,577cc873092b09000179c3e6,1,vase,critical,B,50,vase40.jpg,vase60.jpg,nogoal,NULL
1687281802,d58e4880e274174ff443724d4020461d,PennController,4,0,experiment,NULL,PennController,3,_Header_,Start,1687281514313,577cc873092b09000179c3e6,577cc873092b09000179c3e6,1,vase,critical,B,50,vase40.jpg,vase60.jpg,nogoal,NULL
1687281802,d58e4880e274174ff443724d4020461d,PennController,4,0,experiment,NULL,PennController,3,_Header_,End,1687281514313,577cc873092b09000179c3e6,577cc873092b09000179c3e6,1,vase,critical,B,50,vase40.jpg,vase60.jpg,nogoal,NULL
1687281802,d58e4880e274174ff443724d4020461d,PennController,4,0,experiment,NULL,Canvas,canvas6,Print,NA,1687281519059,577cc873092b09000179c3e6,577cc873092b09000179c3e6,1,vase,critical,B,50,vase40.jpg,vase60.jpg,nogoal,NULL
1687281802,d58e4880e274174ff443724d4020461d,PennController,4,0,experiment,NULL,Video,progression,buffer,0.018155,1687281515886,577cc873092b09000179c3e6,577cc873092b09000179c3e6,1,vase,critical,B,50,vase40.jpg,vase60.jpg,nogoal,NULL
1687281802,d58e4880e274174ff443724d4020461d,PennController,4,0,experiment,NULL,Selector,choice,Selection,option2,1687281521698,577cc873092b09000179c3e6,577cc873092b09000179c3e6,1,vase,critical,B,50,vase40.jpg,vase60.jpg,nogoal,option2;option1
1687281802,d58e4880e274174ff443724d4020461d,PennController,4,0,experiment,NULL,PennController,3,_Trial_,End,1687281521702,577cc873092b09000179c3e6,577cc873092b09000179c3e6,1,vase,critical,B,50,vase40.jpg,vase60.jpg,nogoal,NULL
1687281802,d58e4880e274174ff443724d4020461d,PennController,15,0,experiment,NULL,PennController,14,_Trial_,Start,1687281521707,577cc873092b09000179c3e6,577cc873092b09000179c3e6,12,erase,critical,B,25,erase15.jpg,erase33.jpg,nogoal,NULL
1687281802,d58e4880e274174ff443724d4020461d,PennController,15,0,experiment,NULL,PennController,14,_Header_,Start,1687281521708,577cc873092b09000179c3e6,577cc873092b09000179c3e6,12,erase,critical,B,25,erase15.jpg,erase33.jpg,nogoal,NULL
1687281802,d58e4880e274174ff443724d4020461d,PennController,15,0,experiment,NULL,PennController,14,_Header_,End,1687281521708,577cc873092b09000179c3e6,577cc873092b09000179c3e6,12,erase,critical,B,25,erase15.jpg,erase33.jpg,nogoal,NULL
1687281802,d58e4880e274174ff443724d4020461d,PennController,15,0,experiment,NULL,Canvas,canvas6,Print,NA,1687281526049,577cc873092b09000179c3e6,577cc873092b09000179c3e6,12,erase,critical,B,25,erase15.jpg,erase33.jpg,nogoal,NULL
1687281802,d58e4880e274174ff443724d4020461d,PennController,15,0,experiment,NULL,Video,progression,buffer,0.019142,1687281523272,577cc873092b09000179c3e6,577cc873092b09000179c3e6,12,erase,critical,B,25,erase15.jpg,erase33.jpg,nogoal,NULL
1687281802,d58e4880e274174ff443724d4020461d,PennController,15,0,experiment,NULL,Selector,choice,Selection,option2,1687281528256,577cc873092b09000179c3e6,577cc873092b09000179c3e6,12,erase,critical,B,25,erase15.jpg,erase33.jpg,nogoal,option1;option2
1687281802,d58e4880e274174ff443724d4020461d,PennController,15,0,experiment,NULL,PennController,14,_Trial_,End,1687281528261,577cc873092b09000179c3e6,577cc873092b09000179c3e6,12,erase,critical,B,25,erase15.jpg,erase33.jpg,nogoal,NULL
1687281802,d58e4880e274174ff443724d4020461d,PennController,28,0,experiment,NULL,PennController,27,_Trial_,Start,1687281528266,577cc873092b09000179c3e6,577cc873092b09000179c3e6,25,house,filler,B,50,house40.jpg,house60.jpg,nogoal,NULL
1687281802,d58e4880e274174ff443724d4020461d,PennController,28,0,experiment,NULL,PennController,27,_Header_,Start,1687281528266,577cc873092b09000179c3e6,577cc873092b09000179c3e6,25,house,filler,B,50,house40.jpg,house60.jpg,nogoal,NULL
1687281802,d58e4880e274174ff443724d4020461d,PennController,28,0,experiment,NULL,PennController,27,_Header_,End,1687281528266,577cc873092b09000179c3e6,577cc873092b09000179c3e6,25,house,filler,B,50,house40.jpg,house60.jpg,nogoal,NULL
1687281802,d58e4880e274174ff443724d4020461d,PennController,28,0,experiment,NULL,Canvas,canvas6,Print,NA,1687281533004,577cc873092b09000179c3e6,577cc873092b09000179c3e6,25,house,filler,B,50,house40.jpg,house60.jpg,nogoal,NULL
1687281802,d58e4880e274174ff443724d4020461d,PennController,28,0,experiment,NULL,Video,progression,buffer,0.01797,1687281529828,577cc873092b09000179c3e6,577cc873092b09000179c3e6,25,house,filler,B,50,house40.jpg,house60.jpg,nogoal,NULL
1687281802,d58e4880e274174ff443724d4020461d,PennController,28,0,experiment,NULL,Selector,choice,Selection,option2,1687281534666,577cc873092b09000179c3e6,577cc873092b09000179c3e6,25,house,filler,B,50,house40.jpg,house60.jpg,nogoal,option2;option1
1687281802,d58e4880e274174ff443724d4020461d,PennController,28,0,experiment,NULL,PennController,27,_Trial_,End,1687281534672,577cc873092b09000179c3e6,577cc873092b09000179c3e6,25,house,filler,B,50,house40.jpg,house60.jpg,nogoal,NULL
1687281802,d58e4880e274174ff443724d4020461d,PennController,20,0,experiment,NULL,PennController,19,_Trial_,Start,1687281534677,577cc873092b09000179c3e6,577cc873092b09000179c3e6,17,roll,critical,B,75,roll65.jpg,roll85.jpg,nogoal,NULL
1687281802,d58e4880e274174ff443724d4020461d,PennController,20,0,experiment,NULL,PennController,19,_Header_,Start,1687281534677,577cc873092b09000179c3e6,577cc873092b09000179c3e6,17,roll,critical,B,75,roll65.jpg,roll85.jpg,nogoal,NULL
1687281802,d58e4880e274174ff443724d4020461d,PennController,20,0,experiment,NULL,PennController,19,_Header_,End,1687281534677,577cc873092b09000179c3e6,577cc873092b09000179c3e6,17,roll,critical,B,75,roll65.jpg,roll85.jpg,nogoal,NULL
1687281802,d58e4880e274174ff443724d4020461d,PennController,20,0,experiment,NULL,Canvas,canvas6,Print,NA,1687281540506,577cc873092b09000179c3e6,577cc873092b09000179c3e6,17,roll,critical,B,75,roll65.jpg,roll85.jpg,nogoal,NULL
1687281802,d58e4880e274174ff443724d4020461d,PennController,20,0,experiment,NULL,Video,progression,buffer,0,1687281536248,577cc873092b09000179c3e6,577cc873092b09000179c3e6,17,roll,critical,B,75,roll65.jpg,roll85.jpg,nogoal,NULL
1687281802,d58e4880e274174ff443724d4020461d,PennController,20,0,experiment,NULL,Selector,choice,Selection,option1,1687281549106,577cc873092b09000179c3e6,577cc873092b09000179c3e6,17,roll,critical,B,75,roll65.jpg,roll85.jpg,nogoal,option2;option1
1687281802,d58e4880e274174ff443724d4020461d,PennController,20,0,experiment,NULL,PennController,19,_Trial_,End,1687281549111,577cc873092b09000179c3e6,577cc873092b09000179c3e6,17,roll,critical,B,75,roll65.jpg,roll85.jpg,nogoal,NULL
1687281802,d58e4880e274174ff443724d4020461d,PennController,12,0,experiment,NULL,PennController,11,_Trial_,Start,1687281549117,577cc873092b09000179c3e6,577cc873092b09000179c3e6,9,cake,critical,B,25,cake15.jpg,cake33.jpg,nogoal,NULL
1687281802,d58e4880e274174ff443724d4020461d,PennController,12,0,experiment,NULL,PennController,11,_Header_,Start,1687281549117,577cc873092b09000179c3e6,577cc873092b09000179c3e6,9,cake,critical,B,25,cake15.jpg,cake33.jpg,nogoal,NULL
1687281802,d58e4880e274174ff443724d4020461d,PennController,12,0,experiment,NULL,PennController,11,_Header_,End,1687281549117,577cc873092b09000179c3e6,577cc873092b09000179c3e6,9,cake,critical,B,25,cake15.jpg,cake33.jpg,nogoal,NULL
1687281802,d58e4880e274174ff443724d4020461d,PennController,12,0,experiment,NULL,Canvas,canvas6,Print,NA,1687281553458,577cc873092b09000179c3e6,577cc873092b09000179c3e6,9,cake,critical,B,25,cake15.jpg,cake33.jpg,nogoal,NULL
1687281802,d58e4880e274174ff443724d4020461d,PennController,12,0,experiment,NULL,Video,progression,buffer,0.017948,1687281550678,577cc873092b09000179c3e6,577cc873092b09000179c3e6,9,cake,critical,B,25,cake15.jpg,cake33.jpg,nogoal,NULL
1687281802,d58e4880e274174ff443724d4020461d,PennController,12,0,experiment,NULL,Selector,choice,Selection,option2,1687281573808,577cc873092b09000179c3e6,577cc873092b09000179c3e6,9,cake,critical,B,25,cake15.jpg,cake33.jpg,nogoal,option2;option1
1687281802,d58e4880e274174ff443724d4020461d,PennController,12,0,experiment,NULL,PennController,11,_Trial_,End,1687281573813,577cc873092b09000179c3e6,577cc873092b09000179c3e6,9,cake,critical,B,25,cake15.jpg,cake33.jpg,nogoal,NULL
1687281802,d58e4880e274174ff443724d4020461d,PennController,8,0,experiment,NULL,PennController,7,_Trial_,Start,1687281573820,577cc873092b09000179c3e6,577cc873092b09000179c3e6,5,book,critical,B,75,book65.jpg,book85.jpg,nogoal,NULL
1687281802,d58e4880e274174ff443724d4020461d,PennController,8,0,experiment,NULL,PennController,7,_Header_,Start,1687281573820,577cc873092b09000179c3e6,577cc873092b09000179c3e6,5,book,critical,B,75,book65.jpg,book85.jpg,nogoal,NULL
1687281802,d58e4880e274174ff443724d4020461d,PennController,8,0,experiment,NULL,PennController,7,_Header_,End,1687281573820,577cc873092b09000179c3e6,577cc873092b09000179c3e6,5,book,critical,B,75,book65.jpg,book85.jpg,nogoal,NULL
1687281802,d58e4880e274174ff443724d4020461d,PennController,8,0,experiment,NULL,Canvas,canvas6,Print,NA,1687281579565,577cc873092b09000179c3e6,577cc873092b09000179c3e6,5,book,critical,B,75,book65.jpg,book85.jpg,nogoal,NULL
1687281802,d58e4880e274174ff443724d4020461d,PennController,8,0,experiment,NULL,Video,progression,buffer,0.016005,1687281575383,577cc873092b09000179c3e6,577cc873092b09000179c3e6,5,book,critical,B,75,book65.jpg,book85.jpg,nogoal,NULL
1687281802,d58e4880e274174ff443724d4020461d,PennController,8,0,experiment,NULL,Selector,choice,Selection,option1,1687281617872,577cc873092b09000179c3e6,577cc873092b09000179c3e6,5,book,critical,B,75,book65.jpg,book85.jpg,nogoal,option1;option2
1687281802,d58e4880e274174ff443724d4020461d,PennController,8,0,experiment,NULL,PennController,7,_Trial_,End,1687281617878,577cc873092b09000179c3e6,577cc873092b09000179c3e6,5,book,critical,B,75,book65.jpg,book85.jpg,nogoal,NULL
1687281802,d58e4880e274174ff443724d4020461d,PennController,6,0,experiment,NULL,PennController,5,_Trial_,Start,1687281617884,577cc873092b09000179c3e6,577cc873092b09000179c3e6,3,clean,critical,B,25,clean15.jpg,clean35.jpg,nogoal,NULL
1687281802,d58e4880e274174ff443724d4020461d,PennController,6,0,experiment,NULL,PennController,5,_Header_,Start,1687281617884,577cc873092b09000179c3e6,577cc873092b09000179c3e6,3,clean,critical,B,25,clean15.jpg,clean35.jpg,nogoal,NULL
1687281802,d58e4880e274174ff443724d4020461d,PennController,6,0,experiment,NULL,PennController,5,_Header_,End,1687281617885,577cc873092b09000179c3e6,577cc873092b09000179c3e6,3,clean,critical,B,25,clean15.jpg,clean35.jpg,nogoal,NULL
1687281802,d58e4880e274174ff443724d4020461d,PennController,6,0,experiment,NULL,Canvas,canvas6,Print,NA,1687281621636,577cc873092b09000179c3e6,577cc873092b09000179c3e6,3,clean,critical,B,25,clean15.jpg,clean35.jpg,nogoal,NULL
1687281802,d58e4880e274174ff443724d4020461d,PennController,6,0,experiment,NULL,Video,progression,buffer,0.017744,1687281619446,577cc873092b09000179c3e6,577cc873092b09000179c3e6,3,clean,critical,B,25,clean15.jpg,clean35.jpg,nogoal,NULL
1687281802,d58e4880e274174ff443724d4020461d,PennController,6,0,experiment,NULL,Selector,choice,Selection,option2,1687281625015,577cc873092b09000179c3e6,577cc873092b09000179c3e6,3,clean,critical,B,25,clean15.jpg,clean35.jpg,nogoal,option2;option1
1687281802,d58e4880e274174ff443724d4020461d,PennController,6,0,experiment,NULL,PennController,5,_Trial_,End,1687281625021,577cc873092b09000179c3e6,577cc873092b09000179c3e6,3,clean,critical,B,25,clean15.jpg,clean35.jpg,nogoal,NULL
1687281802,d58e4880e274174ff443724d4020461d,PennController,10,0,experiment,NULL,PennController,9,_Trial_,Start,1687281625026,577cc873092b09000179c3e6,577cc873092b09000179c3e6,7,stack,critical,B,50,stack40.jpg,stack60.jpg,nogoal,NULL
1687281802,d58e4880e274174ff443724d4020461d,PennController,10,0,experiment,NULL,PennController,9,_Header_,Start,1687281625026,577cc873092b09000179c3e6,577cc873092b09000179c3e6,7,stack,critical,B,50,stack40.jpg,stack60.jpg,nogoal,NULL
1687281802,d58e4880e274174ff443724d4020461d,PennController,10,0,experiment,NULL,PennController,9,_Header_,End,1687281625026,577cc873092b09000179c3e6,577cc873092b09000179c3e6,7,stack,critical,B,50,stack40.jpg,stack60.jpg,nogoal,NULL
1687281802,d58e4880e274174ff443724d4020461d,PennController,10,0,experiment,NULL,Canvas,canvas6,Print,NA,1687281629766,577cc873092b09000179c3e6,577cc873092b09000179c3e6,7,stack,critical,B,50,stack40.jpg,stack60.jpg,nogoal,NULL
1687281802,d58e4880e274174ff443724d4020461d,PennController,10,0,experiment,NULL,Video,progression,buffer,0.017523,1687281626590,577cc873092b09000179c3e6,577cc873092b09000179c3e6,7,stack,critical,B,50,stack40.jpg,stack60.jpg,nogoal,NULL
1687281802,d58e4880e274174ff443724d4020461d,PennController,10,0,experiment,NULL,Selector,choice,Selection,option2,1687281652002,577cc873092b09000179c3e6,577cc873092b09000179c3e6,7,stack,critical,B,50,stack40.jpg,stack60.jpg,nogoal,option2;option1
1687281802,d58e4880e274174ff443724d4020461d,PennController,10,0,experiment,NULL,PennController,9,_Trial_,End,1687281652009,577cc873092b09000179c3e6,577cc873092b09000179c3e6,7,stack,critical,B,50,stack40.jpg,stack60.jpg,nogoal,NULL
1687281802,d58e4880e274174ff443724d4020461d,PennController,13,0,experiment,NULL,PennController,12,_Trial_,Start,1687281652016,577cc873092b09000179c3e6,577cc873092b09000179c3e6,10,train,critical,B,50,train40.jpg,train60.jpg,nogoal,NULL
1687281802,d58e4880e274174ff443724d4020461d,PennController,13,0,experiment,NULL,PennController,12,_Header_,Start,1687281652016,577cc873092b09000179c3e6,577cc873092b09000179c3e6,10,train,critical,B,50,train40.jpg,train60.jpg,nogoal,NULL
1687281802,d58e4880e274174ff443724d4020461d,PennController,13,0,experiment,NULL,PennController,12,_Header_,End,1687281652016,577cc873092b09000179c3e6,577cc873092b09000179c3e6,10,train,critical,B,50,train40.jpg,train60.jpg,nogoal,NULL
1687281802,d58e4880e274174ff443724d4020461d,PennController,13,0,experiment,NULL,Canvas,canvas6,Print,NA,1687281656755,577cc873092b09000179c3e6,577cc873092b09000179c3e6,10,train,critical,B,50,train40.jpg,train60.jpg,nogoal,NULL
1687281802,d58e4880e274174ff443724d4020461d,PennController,13,0,experiment,NULL,Video,progression,buffer,0.018131,1687281653582,577cc873092b09000179c3e6,577cc873092b09000179c3e6,10,train,critical,B,50,train40.jpg,train60.jpg,nogoal,NULL
1687281802,d58e4880e274174ff443724d4020461d,PennController,13,0,experiment,NULL,Selector,choice,Selection,option2,1687281665592,577cc873092b09000179c3e6,577cc873092b09000179c3e6,10,train,critical,B,50,train40.jpg,train60.jpg,nogoal,option2;option1
1687281802,d58e4880e274174ff443724d4020461d,PennController,13,0,experiment,NULL,PennController,12,_Trial_,End,1687281665598,577cc873092b09000179c3e6,577cc873092b09000179c3e6,10,train,critical,B,50,train40.jpg,train60.jpg,nogoal,NULL
1687281802,d58e4880e274174ff443724d4020461d,PennController,14,0,experiment,NULL,PennController,13,_Trial_,Start,1687281665603,577cc873092b09000179c3e6,577cc873092b09000179c3e6,11,beads,critical,B,75,beads65.jpg,beads85.jpg,nogoal,NULL
1687281802,d58e4880e274174ff443724d4020461d,PennController,14,0,experiment,NULL,PennController,13,_Header_,Start,1687281665604,577cc873092b09000179c3e6,577cc873092b09000179c3e6,11,beads,critical,B,75,beads65.jpg,beads85.jpg,nogoal,NULL
1687281802,d58e4880e274174ff443724d4020461d,PennController,14,0,experiment,NULL,PennController,13,_Header_,End,1687281665604,577cc873092b09000179c3e6,577cc873092b09000179c3e6,11,beads,critical,B,75,beads65.jpg,beads85.jpg,nogoal,NULL
1687281802,d58e4880e274174ff443724d4020461d,PennController,14,0,experiment,NULL,Canvas,canvas6,Print,NA,1687281671349,577cc873092b09000179c3e6,577cc873092b09000179c3e6,11,beads,critical,B,75,beads65.jpg,beads85.jpg,nogoal,NULL
1687281802,d58e4880e274174ff443724d4020461d,PennController,14,0,experiment,NULL,Video,progression,buffer,0.018841,1687281667166,577cc873092b09000179c3e6,577cc873092b09000179c3e6,11,beads,critical,B,75,beads65.jpg,beads85.jpg,nogoal,NULL
1687281802,d58e4880e274174ff443724d4020461d,PennController,14,0,experiment,NULL,Selector,choice,Selection,option1,1687281682457,577cc873092b09000179c3e6,577cc873092b09000179c3e6,11,beads,critical,B,75,beads65.jpg,beads85.jpg,nogoal,option1;option2
1687281802,d58e4880e274174ff443724d4020461d,PennController,14,0,experiment,NULL,PennController,13,_Trial_,End,1687281682462,577cc873092b09000179c3e6,577cc873092b09000179c3e6,11,beads,critical,B,75,beads65.jpg,beads85.jpg,nogoal,NULL
1687281802,d58e4880e274174ff443724d4020461d,PennController,5,0,experiment,NULL,PennController,4,_Trial_,Start,1687281682468,577cc873092b09000179c3e6,577cc873092b09000179c3e6,2,door,critical,B,75,door65.jpg,door85.jpg,nogoal,NULL
1687281802,d58e4880e274174ff443724d4020461d,PennController,5,0,experiment,NULL,PennController,4,_Header_,Start,1687281682468,577cc873092b09000179c3e6,577cc873092b09000179c3e6,2,door,critical,B,75,door65.jpg,door85.jpg,nogoal,NULL
1687281802,d58e4880e274174ff443724d4020461d,PennController,5,0,experiment,NULL,PennController,4,_Header_,End,1687281682468,577cc873092b09000179c3e6,577cc873092b09000179c3e6,2,door,critical,B,75,door65.jpg,door85.jpg,nogoal,NULL
1687281802,d58e4880e274174ff443724d4020461d,PennController,5,0,experiment,NULL,Canvas,canvas6,Print,NA,1687281688208,577cc873092b09000179c3e6,577cc873092b09000179c3e6,2,door,critical,B,75,door65.jpg,door85.jpg,nogoal,NULL
1687281802,d58e4880e274174ff443724d4020461d,PennController,5,0,experiment,NULL,Video,progression,buffer,0.014884,1687281684025,577cc873092b09000179c3e6,577cc873092b09000179c3e6,2,door,critical,B,75,door65.jpg,door85.jpg,nogoal,NULL
1687281802,d58e4880e274174ff443724d4020461d,PennController,5,0,experiment,NULL,Selector,choice,Selection,option2,1687281701247,577cc873092b09000179c3e6,577cc873092b09000179c3e6,2,door,critical,B,75,door65.jpg,door85.jpg,nogoal,option1;option2
1687281802,d58e4880e274174ff443724d4020461d,PennController,5,0,experiment,NULL,PennController,4,_Trial_,End,1687281701253,577cc873092b09000179c3e6,577cc873092b09000179c3e6,2,door,critical,B,75,door65.jpg,door85.jpg,nogoal,NULL
1687281802,d58e4880e274174ff443724d4020461d,PennController,30,0,experiment,NULL,PennController,29,_Trial_,Start,1687281701259,577cc873092b09000179c3e6,577cc873092b09000179c3e6,27,square,filler,B,25,square15.jpg,square35.jpg,nogoal,NULL
1687281802,d58e4880e274174ff443724d4020461d,PennController,30,0,experiment,NULL,PennController,29,_Header_,Start,1687281701259,577cc873092b09000179c3e6,577cc873092b09000179c3e6,27,square,filler,B,25,square15.jpg,square35.jpg,nogoal,NULL
1687281802,d58e4880e274174ff443724d4020461d,PennController,30,0,experiment,NULL,PennController,29,_Header_,End,1687281701259,577cc873092b09000179c3e6,577cc873092b09000179c3e6,27,square,filler,B,25,square15.jpg,square35.jpg,nogoal,NULL
1687281802,d58e4880e274174ff443724d4020461d,PennController,30,0,experiment,NULL,Canvas,canvas6,Print,NA,1687281704999,577cc873092b09000179c3e6,577cc873092b09000179c3e6,27,square,filler,B,25,square15.jpg,square35.jpg,nogoal,NULL
1687281802,d58e4880e274174ff443724d4020461d,PennController,30,0,experiment,NULL,Video,progression,buffer,0.01489,1687281702817,577cc873092b09000179c3e6,577cc873092b09000179c3e6,27,square,filler,B,25,square15.jpg,square35.jpg,nogoal,NULL
1687281802,d58e4880e274174ff443724d4020461d,PennController,30,0,experiment,NULL,Selector,choice,Selection,option2,1687281715328,577cc873092b09000179c3e6,577cc873092b09000179c3e6,27,square,filler,B,25,square15.jpg,square35.jpg,nogoal,option2;option1
1687281802,d58e4880e274174ff443724d4020461d,PennController,30,0,experiment,NULL,PennController,29,_Trial_,End,1687281715334,577cc873092b09000179c3e6,577cc873092b09000179c3e6,27,square,filler,B,25,square15.jpg,square35.jpg,nogoal,NULL
1687281802,d58e4880e274174ff443724d4020461d,PennController,21,0,experiment,NULL,PennController,20,_Trial_,Start,1687281715340,577cc873092b09000179c3e6,577cc873092b09000179c3e6,18,ball,critical,B,25,ball15.jpg,ball35.jpg,nogoal,NULL
1687281802,d58e4880e274174ff443724d4020461d,PennController,21,0,experiment,NULL,PennController,20,_Header_,Start,1687281715340,577cc873092b09000179c3e6,577cc873092b09000179c3e6,18,ball,critical,B,25,ball15.jpg,ball35.jpg,nogoal,NULL
1687281802,d58e4880e274174ff443724d4020461d,PennController,21,0,experiment,NULL,PennController,20,_Header_,End,1687281715340,577cc873092b09000179c3e6,577cc873092b09000179c3e6,18,ball,critical,B,25,ball15.jpg,ball35.jpg,nogoal,NULL
1687281802,d58e4880e274174ff443724d4020461d,PennController,21,0,experiment,NULL,Canvas,canvas6,Print,NA,1687281719075,577cc873092b09000179c3e6,577cc873092b09000179c3e6,18,ball,critical,B,25,ball15.jpg,ball35.jpg,nogoal,NULL
1687281802,d58e4880e274174ff443724d4020461d,PennController,21,0,experiment,NULL,Video,progression,buffer,0.017524,1687281716908,577cc873092b09000179c3e6,577cc873092b09000179c3e6,18,ball,critical,B,25,ball15.jpg,ball35.jpg,nogoal,NULL
1687281802,d58e4880e274174ff443724d4020461d,PennController,21,0,experiment,NULL,Selector,choice,Selection,option1,1687281724816,577cc873092b09000179c3e6,577cc873092b09000179c3e6,18,ball,critical,B,25,ball15.jpg,ball35.jpg,nogoal,option1;option2
1687281802,d58e4880e274174ff443724d4020461d,PennController,21,0,experiment,NULL,PennController,20,_Trial_,End,1687281724823,577cc873092b09000179c3e6,577cc873092b09000179c3e6,18,ball,critical,B,25,ball15.jpg,ball35.jpg,nogoal,NULL
1687281802,d58e4880e274174ff443724d4020461d,PennController,11,0,experiment,NULL,PennController,10,_Trial_,Start,1687281724829,577cc873092b09000179c3e6,577cc873092b09000179c3e6,8,cucumber,critical,B,75,cucumber66.jpg,cucumber84.jpg,nogoal,NULL
1687281802,d58e4880e274174ff443724d4020461d,PennController,11,0,experiment,NULL,PennController,10,_Header_,Start,1687281724829,577cc873092b09000179c3e6,577cc873092b09000179c3e6,8,cucumber,critical,B,75,cucumber66.jpg,cucumber84.jpg,nogoal,NULL
1687281802,d58e4880e274174ff443724d4020461d,PennController,11,0,experiment,NULL,PennController,10,_Header_,End,1687281724829,577cc873092b09000179c3e6,577cc873092b09000179c3e6,8,cucumber,critical,B,75,cucumber66.jpg,cucumber84.jpg,nogoal,NULL
1687281802,d58e4880e274174ff443724d4020461d,PennController,11,0,experiment,NULL,Canvas,canvas6,Print,NA,1687281732579,577cc873092b09000179c3e6,577cc873092b09000179c3e6,8,cucumber,critical,B,75,cucumber66.jpg,cucumber84.jpg,nogoal,NULL
1687281802,d58e4880e274174ff443724d4020461d,PennController,11,0,experiment,NULL,Video,progression,buffer,0.015554,1687281726390,577cc873092b09000179c3e6,577cc873092b09000179c3e6,8,cucumber,critical,B,75,cucumber66.jpg,cucumber84.jpg,nogoal,NULL
1687281802,d58e4880e274174ff443724d4020461d,PennController,11,0,experiment,NULL,Selector,choice,Selection,option1,1687281736280,577cc873092b09000179c3e6,577cc873092b09000179c3e6,8,cucumber,critical,B,75,cucumber66.jpg,cucumber84.jpg,nogoal,option1;option2
1687281802,d58e4880e274174ff443724d4020461d,PennController,11,0,experiment,NULL,PennController,10,_Trial_,End,1687281736286,577cc873092b09000179c3e6,577cc873092b09000179c3e6,8,cucumber,critical,B,75,cucumber66.jpg,cucumber84.jpg,nogoal,NULL
1687281802,d58e4880e274174ff443724d4020461d,PennController,27,0,experiment,NULL,PennController,26,_Trial_,Start,1687281736292,577cc873092b09000179c3e6,577cc873092b09000179c3e6,24,match,filler,B,25,match15.jpg,match35.jpg,nogoal,NULL
1687281802,d58e4880e274174ff443724d4020461d,PennController,27,0,experiment,NULL,PennController,26,_Header_,Start,1687281736292,577cc873092b09000179c3e6,577cc873092b09000179c3e6,24,match,filler,B,25,match15.jpg,match35.jpg,nogoal,NULL
1687281802,d58e4880e274174ff443724d4020461d,PennController,27,0,experiment,NULL,PennController,26,_Header_,End,1687281736292,577cc873092b09000179c3e6,577cc873092b09000179c3e6,24,match,filler,B,25,match15.jpg,match35.jpg,nogoal,NULL
1687281802,d58e4880e274174ff443724d4020461d,PennController,27,0,experiment,NULL,Canvas,canvas6,Print,NA,1687281740030,577cc873092b09000179c3e6,577cc873092b09000179c3e6,24,match,filler,B,25,match15.jpg,match35.jpg,nogoal,NULL
1687281802,d58e4880e274174ff443724d4020461d,PennController,27,0,experiment,NULL,Video,progression,buffer,0.015606,1687281737850,577cc873092b09000179c3e6,577cc873092b09000179c3e6,24,match,filler,B,25,match15.jpg,match35.jpg,nogoal,NULL
1687281802,d58e4880e274174ff443724d4020461d,PennController,27,0,experiment,NULL,Selector,choice,Selection,option1,1687281743200,577cc873092b09000179c3e6,577cc873092b09000179c3e6,24,match,filler,B,25,match15.jpg,match35.jpg,nogoal,option1;option2
1687281802,d58e4880e274174ff443724d4020461d,PennController,27,0,experiment,NULL,PennController,26,_Trial_,End,1687281743206,577cc873092b09000179c3e6,577cc873092b09000179c3e6,24,match,filler,B,25,match15.jpg,match35.jpg,nogoal,NULL
1687281802,d58e4880e274174ff443724d4020461d,PennController,9,0,experiment,NULL,PennController,8,_Trial_,Start,1687281743211,577cc873092b09000179c3e6,577cc873092b09000179c3e6,6,flower,critical,B,25,flower15.jpg,flower35.jpg,nogoal,NULL
1687281802,d58e4880e274174ff443724d4020461d,PennController,9,0,experiment,NULL,PennController,8,_Header_,Start,1687281743211,577cc873092b09000179c3e6,577cc873092b09000179c3e6,6,flower,critical,B,25,flower15.jpg,flower35.jpg,nogoal,NULL
1687281802,d58e4880e274174ff443724d4020461d,PennController,9,0,experiment,NULL,PennController,8,_Header_,End,1687281743211,577cc873092b09000179c3e6,577cc873092b09000179c3e6,6,flower,critical,B,25,flower15.jpg,flower35.jpg,nogoal,NULL
1687281802,d58e4880e274174ff443724d4020461d,PennController,9,0,experiment,NULL,Canvas,canvas6,Print,NA,1687281746961,577cc873092b09000179c3e6,577cc873092b09000179c3e6,6,flower,critical,B,25,flower15.jpg,flower35.jpg,nogoal,NULL
1687281802,d58e4880e274174ff443724d4020461d,PennController,9,0,experiment,NULL,Video,progression,buffer,0.013837,1687281744767,577cc873092b09000179c3e6,577cc873092b09000179c3e6,6,flower,critical,B,25,flower15.jpg,flower35.jpg,nogoal,NULL
1687281802,d58e4880e274174ff443724d4020461d,PennController,9,0,experiment,NULL,Selector,choice,Selection,option1,1687281771510,577cc873092b09000179c3e6,577cc873092b09000179c3e6,6,flower,critical,B,25,flower15.jpg,flower35.jpg,nogoal,option2;option1
1687281802,d58e4880e274174ff443724d4020461d,PennController,9,0,experiment,NULL,PennController,8,_Trial_,End,1687281771517,577cc873092b09000179c3e6,577cc873092b09000179c3e6,6,flower,critical,B,25,flower15.jpg,flower35.jpg,nogoal,NULL
1687281802,d58e4880e274174ff443724d4020461d,PennController,25,0,experiment,NULL,PennController,24,_Trial_,Start,1687281771525,577cc873092b09000179c3e6,577cc873092b09000179c3e6,22,wall,filler,B,50,wall40.jpg,wall60.jpg,nogoal,NULL
1687281802,d58e4880e274174ff443724d4020461d,PennController,25,0,experiment,NULL,PennController,24,_Header_,Start,1687281771525,577cc873092b09000179c3e6,577cc873092b09000179c3e6,22,wall,filler,B,50,wall40.jpg,wall60.jpg,nogoal,NULL
1687281802,d58e4880e274174ff443724d4020461d,PennController,25,0,experiment,NULL,PennController,24,_Header_,End,1687281771525,577cc873092b09000179c3e6,577cc873092b09000179c3e6,22,wall,filler,B,50,wall40.jpg,wall60.jpg,nogoal,NULL
1687281802,d58e4880e274174ff443724d4020461d,PennController,25,0,experiment,NULL,Canvas,canvas6,Print,NA,1687281776265,577cc873092b09000179c3e6,577cc873092b09000179c3e6,22,wall,filler,B,50,wall40.jpg,wall60.jpg,nogoal,NULL
1687281802,d58e4880e274174ff443724d4020461d,PennController,25,0,experiment,NULL,Video,progression,buffer,0.0194,1687281773094,577cc873092b09000179c3e6,577cc873092b09000179c3e6,22,wall,filler,B,50,wall40.jpg,wall60.jpg,nogoal,NULL
1687281802,d58e4880e274174ff443724d4020461d,PennController,25,0,experiment,NULL,Selector,choice,Selection,option1,1687281791599,577cc873092b09000179c3e6,577cc873092b09000179c3e6,22,wall,filler,B,50,wall40.jpg,wall60.jpg,nogoal,option2;option1
1687281802,d58e4880e274174ff443724d4020461d,PennController,25,0,experiment,NULL,PennController,24,_Trial_,End,1687281791605,577cc873092b09000179c3e6,577cc873092b09000179c3e6,22,wall,filler,B,50,wall40.jpg,wall60.jpg,nogoal,NULL
1687281802,d58e4880e274174ff443724d4020461d,PennController,32,0,experiment,NULL,PennController,31,_Trial_,Start,1687281791612,577cc873092b09000179c3e6,577cc873092b09000179c3e6,29,frog,filler,B,75,frog65.jpg,frog85.jpg,nogoal,NULL
1687281802,d58e4880e274174ff443724d4020461d,PennController,32,0,experiment,NULL,PennController,31,_Header_,Start,1687281791612,577cc873092b09000179c3e6,577cc873092b09000179c3e6,29,frog,filler,B,75,frog65.jpg,frog85.jpg,nogoal,NULL
1687281802,d58e4880e274174ff443724d4020461d,PennController,32,0,experiment,NULL,PennController,31,_Header_,End,1687281791612,577cc873092b09000179c3e6,577cc873092b09000179c3e6,29,frog,filler,B,75,frog65.jpg,frog85.jpg,nogoal,NULL
1687281802,d58e4880e274174ff443724d4020461d,PennController,32,0,experiment,NULL,Canvas,canvas6,Print,NA,1687281797354,577cc873092b09000179c3e6,577cc873092b09000179c3e6,29,frog,filler,B,75,frog65.jpg,frog85.jpg,nogoal,NULL
1687281802,d58e4880e274174ff443724d4020461d,PennController,32,0,experiment,NULL,Video,progression,buffer,0.019757,1687281793178,577cc873092b09000179c3e6,577cc873092b09000179c3e6,29,frog,filler,B,75,frog65.jpg,frog85.jpg,nogoal,NULL
1687281802,d58e4880e274174ff443724d4020461d,PennController,32,0,experiment,NULL,Selector,choice,Selection,option1,1687281804375,577cc873092b09000179c3e6,577cc873092b09000179c3e6,29,frog,filler,B,75,frog65.jpg,frog85.jpg,nogoal,option1;option2
1687281802,d58e4880e274174ff443724d4020461d,PennController,32,0,experiment,NULL,PennController,31,_Trial_,End,1687281804380,577cc873092b09000179c3e6,577cc873092b09000179c3e6,29,frog,filler,B,75,frog65.jpg,frog85.jpg,nogoal,NULL
