#
# Results on Tuesday June 20 2023 17:19:43 UTC
# USER AGENT: Mozilla/5.0 (Windows NT 10.0; Win64; x64) AppleWebKit/537.36 (KHTML, like Gecko) Chrome/114.0.0.0 Safari/537.36
# Design number was non-random = 4
#
# Columns below this comment are as follows:
# 1. Results reception time.
# 2. MD5 hash of participant's IP address.
# 3. Controller name.
# 4. Order number of item.
# 5. Inner element number.
# 6. Label.
# 7. Latin Square Group.
# 8. PennElementType.
# 9. PennElementName.
# 10. Parameter.
# 11. Value.
# 12. EventTime.
# 13. PROLIFIC_ID.
# 14. Comments.
1687281583,0476e01c235bae63883f1768aeab7565,PennController,2,0,consent,NULL,PennController,0,_Trial_,Start,1687281284908,60fd5af9744452c6f69ee234,NULL
1687281583,0476e01c235bae63883f1768aeab7565,PennController,2,0,consent,NULL,PennController,0,_Header_,Start,1687281284908,60fd5af9744452c6f69ee234,NULL
1687281583,0476e01c235bae63883f1768aeab7565,PennController,2,0,consent,NULL,PennController,0,_Header_,End,1687281284908,60fd5af9744452c6f69ee234,NULL
1687281583,0476e01c235bae63883f1768aeab7565,PennController,2,0,consent,NULL,PennController,0,_Trial_,End,1687281337308,60fd5af9744452c6f69ee234,NULL
# Columns below this comment are as follows:
# 14. ID.
# 15. Comments.
1687281583,0476e01c235bae63883f1768aeab7565,PennController,3,0,intro,NULL,PennController,1,_Trial_,Start,1687281337318,60fd5af9744452c6f69ee234,60fd5af9744452c6f69ee234,NULL
1687281583,0476e01c235bae63883f1768aeab7565,PennController,3,0,intro,NULL,PennController,1,_Header_,Start,1687281337318,60fd5af9744452c6f69ee234,60fd5af9744452c6f69ee234,NULL
1687281583,0476e01c235bae63883f1768aeab7565,PennController,3,0,intro,NULL,PennController,1,_Header_,End,1687281337318,60fd5af9744452c6f69ee234,60fd5af9744452c6f69ee234,NULL
1687281583,0476e01c235bae63883f1768aeab7565,PennController,3,0,intro,NULL,PennController,1,_Trial_,End,1687281361255,60fd5af9744452c6f69ee234,60fd5af9744452c6f69ee234,NULL
# Columns below this comment are as follows:
# 15. item_number.
# 16. item.
# 17. type.
# 18. Group.
# 19. prog.
# 20. prev_image.
# 21. next_image.
# 22. height.
# 23. Comments.
1687281583,0476e01c235bae63883f1768aeab7565,PennController,11,0,experiment,NULL,PennController,10,_Trial_,Start,1687281361263,60fd5af9744452c6f69ee234,60fd5af9744452c6f69ee234,8,cucumber,critical,B,75,cucumber66.jpg,cucumber84.jpg,nogoal,NULL
1687281583,0476e01c235bae63883f1768aeab7565,PennController,11,0,experiment,NULL,PennController,10,_Header_,Start,1687281361263,60fd5af9744452c6f69ee234,60fd5af9744452c6f69ee234,8,cucumber,critical,B,75,cucumber66.jpg,cucumber84.jpg,nogoal,NULL
1687281583,0476e01c235bae63883f1768aeab7565,PennController,11,0,experiment,NULL,PennController,10,_Header_,End,1687281361263,60fd5af9744452c6f69ee234,60fd5af9744452c6f69ee234,8,cucumber,critical,B,75,cucumber66.jpg,cucumber84.jpg,nogoal,NULL
1687281583,0476e01c235bae63883f1768aeab7565,PennController,11,0,experiment,NULL,Canvas,canvas6,Print,NA,1687281369055,60fd5af9744452c6f69ee234,60fd5af9744452c6f69ee234,8,cucumber,critical,B,75,cucumber66.jpg,cucumber84.jpg,nogoal,NULL
1687281583,0476e01c235bae63883f1768aeab7565,PennController,11,0,experiment,NULL,Video,progression,buffer,0.024095,1687281362872,60fd5af9744452c6f69ee234,60fd5af9744452c6f69ee234,8,cucumber,critical,B,75,cucumber66.jpg,cucumber84.jpg,nogoal,NULL
1687281583,0476e01c235bae63883f1768aeab7565,PennController,11,0,experiment,NULL,Selector,choice,Selection,option1,1687281371633,60fd5af9744452c6f69ee234,60fd5af9744452c6f69ee234,8,cucumber,critical,B,75,cucumber66.jpg,cucumber84.jpg,nogoal,option2;option1
1687281583,0476e01c235bae63883f1768aeab7565,PennController,11,0,experiment,NULL,PennController,10,_Trial_,End,1687281371644,60fd5af9744452c6f69ee234,60fd5af9744452c6f69ee234,8,cucumber,critical,B,75,cucumber66.jpg,cucumber84.jpg,nogoal,NULL
1687281583,0476e01c235bae63883f1768aeab7565,PennController,26,0,experiment,NULL,PennController,25,_Trial_,Start,1687281371650,60fd5af9744452c6f69ee234,60fd5af9744452c6f69ee234,23,color,filler,B,75,color65.jpg,color85.jpg,nogoal,NULL
1687281583,0476e01c235bae63883f1768aeab7565,PennController,26,0,experiment,NULL,PennController,25,_Header_,Start,1687281371650,60fd5af9744452c6f69ee234,60fd5af9744452c6f69ee234,23,color,filler,B,75,color65.jpg,color85.jpg,nogoal,NULL
1687281583,0476e01c235bae63883f1768aeab7565,PennController,26,0,experiment,NULL,PennController,25,_Header_,End,1687281371650,60fd5af9744452c6f69ee234,60fd5af9744452c6f69ee234,23,color,filler,B,75,color65.jpg,color85.jpg,nogoal,NULL
1687281583,0476e01c235bae63883f1768aeab7565,PennController,26,0,experiment,NULL,Canvas,canvas6,Print,NA,1687281377404,60fd5af9744452c6f69ee234,60fd5af9744452c6f69ee234,23,color,filler,B,75,color65.jpg,color85.jpg,nogoal,NULL
1687281583,0476e01c235bae63883f1768aeab7565,PennController,26,0,experiment,NULL,Video,progression,buffer,0.017647,1687281373224,60fd5af9744452c6f69ee234,60fd5af9744452c6f69ee234,23,color,filler,B,75,color65.jpg,color85.jpg,nogoal,NULL
1687281583,0476e01c235bae63883f1768aeab7565,PennController,26,0,experiment,NULL,Selector,choice,Selection,option2,1687281380156,60fd5af9744452c6f69ee234,60fd5af9744452c6f69ee234,23,color,filler,B,75,color65.jpg,color85.jpg,nogoal,option1;option2
1687281583,0476e01c235bae63883f1768aeab7565,PennController,26,0,experiment,NULL,PennController,25,_Trial_,End,1687281380162,60fd5af9744452c6f69ee234,60fd5af9744452c6f69ee234,23,color,filler,B,75,color65.jpg,color85.jpg,nogoal,NULL
1687281583,0476e01c235bae63883f1768aeab7565,PennController,12,0,experiment,NULL,PennController,11,_Trial_,Start,1687281380173,60fd5af9744452c6f69ee234,60fd5af9744452c6f69ee234,9,cake,critical,B,25,cake15.jpg,cake33.jpg,nogoal,NULL
1687281583,0476e01c235bae63883f1768aeab7565,PennController,12,0,experiment,NULL,PennController,11,_Header_,Start,1687281380173,60fd5af9744452c6f69ee234,60fd5af9744452c6f69ee234,9,cake,critical,B,25,cake15.jpg,cake33.jpg,nogoal,NULL
1687281583,0476e01c235bae63883f1768aeab7565,PennController,12,0,experiment,NULL,PennController,11,_Header_,End,1687281380173,60fd5af9744452c6f69ee234,60fd5af9744452c6f69ee234,9,cake,critical,B,25,cake15.jpg,cake33.jpg,nogoal,NULL
1687281583,0476e01c235bae63883f1768aeab7565,PennController,12,0,experiment,NULL,Canvas,canvas6,Print,NA,1687281384496,60fd5af9744452c6f69ee234,60fd5af9744452c6f69ee234,9,cake,critical,B,25,cake15.jpg,cake33.jpg,nogoal,NULL
1687281583,0476e01c235bae63883f1768aeab7565,PennController,12,0,experiment,NULL,Video,progression,buffer,0.014773,1687281381733,60fd5af9744452c6f69ee234,60fd5af9744452c6f69ee234,9,cake,critical,B,25,cake15.jpg,cake33.jpg,nogoal,NULL
1687281583,0476e01c235bae63883f1768aeab7565,PennController,12,0,experiment,NULL,Selector,choice,Selection,option2,1687281386017,60fd5af9744452c6f69ee234,60fd5af9744452c6f69ee234,9,cake,critical,B,25,cake15.jpg,cake33.jpg,nogoal,option1;option2
1687281583,0476e01c235bae63883f1768aeab7565,PennController,12,0,experiment,NULL,PennController,11,_Trial_,End,1687281386023,60fd5af9744452c6f69ee234,60fd5af9744452c6f69ee234,9,cake,critical,B,25,cake15.jpg,cake33.jpg,nogoal,NULL
1687281583,0476e01c235bae63883f1768aeab7565,PennController,21,0,experiment,NULL,PennController,20,_Trial_,Start,1687281386028,60fd5af9744452c6f69ee234,60fd5af9744452c6f69ee234,18,ball,critical,B,25,ball15.jpg,ball35.jpg,nogoal,NULL
1687281583,0476e01c235bae63883f1768aeab7565,PennController,21,0,experiment,NULL,PennController,20,_Header_,Start,1687281386028,60fd5af9744452c6f69ee234,60fd5af9744452c6f69ee234,18,ball,critical,B,25,ball15.jpg,ball35.jpg,nogoal,NULL
1687281583,0476e01c235bae63883f1768aeab7565,PennController,21,0,experiment,NULL,PennController,20,_Header_,End,1687281386028,60fd5af9744452c6f69ee234,60fd5af9744452c6f69ee234,18,ball,critical,B,25,ball15.jpg,ball35.jpg,nogoal,NULL
1687281583,0476e01c235bae63883f1768aeab7565,PennController,21,0,experiment,NULL,Canvas,canvas6,Print,NA,1687281389763,60fd5af9744452c6f69ee234,60fd5af9744452c6f69ee234,18,ball,critical,B,25,ball15.jpg,ball35.jpg,nogoal,NULL
1687281583,0476e01c235bae63883f1768aeab7565,PennController,21,0,experiment,NULL,Video,progression,buffer,0.014205,1687281387585,60fd5af9744452c6f69ee234,60fd5af9744452c6f69ee234,18,ball,critical,B,25,ball15.jpg,ball35.jpg,nogoal,NULL
1687281583,0476e01c235bae63883f1768aeab7565,PennController,21,0,experiment,NULL,Selector,choice,Selection,option1,1687281390977,60fd5af9744452c6f69ee234,60fd5af9744452c6f69ee234,18,ball,critical,B,25,ball15.jpg,ball35.jpg,nogoal,option2;option1
1687281583,0476e01c235bae63883f1768aeab7565,PennController,21,0,experiment,NULL,PennController,20,_Trial_,End,1687281390983,60fd5af9744452c6f69ee234,60fd5af9744452c6f69ee234,18,ball,critical,B,25,ball15.jpg,ball35.jpg,nogoal,NULL
1687281583,0476e01c235bae63883f1768aeab7565,PennController,30,0,experiment,NULL,PennController,29,_Trial_,Start,1687281390989,60fd5af9744452c6f69ee234,60fd5af9744452c6f69ee234,27,square,filler,B,25,square15.jpg,square35.jpg,nogoal,NULL
1687281583,0476e01c235bae63883f1768aeab7565,PennController,30,0,experiment,NULL,PennController,29,_Header_,Start,1687281390989,60fd5af9744452c6f69ee234,60fd5af9744452c6f69ee234,27,square,filler,B,25,square15.jpg,square35.jpg,nogoal,NULL
1687281583,0476e01c235bae63883f1768aeab7565,PennController,30,0,experiment,NULL,PennController,29,_Header_,End,1687281390989,60fd5af9744452c6f69ee234,60fd5af9744452c6f69ee234,27,square,filler,B,25,square15.jpg,square35.jpg,nogoal,NULL
1687281583,0476e01c235bae63883f1768aeab7565,PennController,30,0,experiment,NULL,Canvas,canvas6,Print,NA,1687281394721,60fd5af9744452c6f69ee234,60fd5af9744452c6f69ee234,27,square,filler,B,25,square15.jpg,square35.jpg,nogoal,NULL
1687281583,0476e01c235bae63883f1768aeab7565,PennController,30,0,experiment,NULL,Video,progression,buffer,0.015941,1687281392549,60fd5af9744452c6f69ee234,60fd5af9744452c6f69ee234,27,square,filler,B,25,square15.jpg,square35.jpg,nogoal,NULL
1687281583,0476e01c235bae63883f1768aeab7565,PennController,30,0,experiment,NULL,Selector,choice,Selection,option1,1687281397887,60fd5af9744452c6f69ee234,60fd5af9744452c6f69ee234,27,square,filler,B,25,square15.jpg,square35.jpg,nogoal,option2;option1
1687281583,0476e01c235bae63883f1768aeab7565,PennController,30,0,experiment,NULL,PennController,29,_Trial_,End,1687281397894,60fd5af9744452c6f69ee234,60fd5af9744452c6f69ee234,27,square,filler,B,25,square15.jpg,square35.jpg,nogoal,NULL
1687281583,0476e01c235bae63883f1768aeab7565,PennController,7,0,experiment,NULL,PennController,6,_Trial_,Start,1687281397899,60fd5af9744452c6f69ee234,60fd5af9744452c6f69ee234,4,candy,critical,B,50,candy40.jpg,candy60.jpg,nogoal,NULL
1687281583,0476e01c235bae63883f1768aeab7565,PennController,7,0,experiment,NULL,PennController,6,_Header_,Start,1687281397899,60fd5af9744452c6f69ee234,60fd5af9744452c6f69ee234,4,candy,critical,B,50,candy40.jpg,candy60.jpg,nogoal,NULL
1687281583,0476e01c235bae63883f1768aeab7565,PennController,7,0,experiment,NULL,PennController,6,_Header_,End,1687281397899,60fd5af9744452c6f69ee234,60fd5af9744452c6f69ee234,4,candy,critical,B,50,candy40.jpg,candy60.jpg,nogoal,NULL
1687281583,0476e01c235bae63883f1768aeab7565,PennController,7,0,experiment,NULL,Canvas,canvas6,Print,NA,1687281402630,60fd5af9744452c6f69ee234,60fd5af9744452c6f69ee234,4,candy,critical,B,50,candy40.jpg,candy60.jpg,nogoal,NULL
1687281583,0476e01c235bae63883f1768aeab7565,PennController,7,0,experiment,NULL,Video,progression,buffer,0.017242,1687281399463,60fd5af9744452c6f69ee234,60fd5af9744452c6f69ee234,4,candy,critical,B,50,candy40.jpg,candy60.jpg,nogoal,NULL
1687281583,0476e01c235bae63883f1768aeab7565,PennController,7,0,experiment,NULL,Selector,choice,Selection,option1,1687281404943,60fd5af9744452c6f69ee234,60fd5af9744452c6f69ee234,4,candy,critical,B,50,candy40.jpg,candy60.jpg,nogoal,option1;option2
1687281583,0476e01c235bae63883f1768aeab7565,PennController,7,0,experiment,NULL,PennController,6,_Trial_,End,1687281404949,60fd5af9744452c6f69ee234,60fd5af9744452c6f69ee234,4,candy,critical,B,50,candy40.jpg,candy60.jpg,nogoal,NULL
1687281583,0476e01c235bae63883f1768aeab7565,PennController,4,0,experiment,NULL,PennController,3,_Trial_,Start,1687281404955,60fd5af9744452c6f69ee234,60fd5af9744452c6f69ee234,1,vase,critical,B,50,vase40.jpg,vase60.jpg,nogoal,NULL
1687281583,0476e01c235bae63883f1768aeab7565,PennController,4,0,experiment,NULL,PennController,3,_Header_,Start,1687281404955,60fd5af9744452c6f69ee234,60fd5af9744452c6f69ee234,1,vase,critical,B,50,vase40.jpg,vase60.jpg,nogoal,NULL
1687281583,0476e01c235bae63883f1768aeab7565,PennController,4,0,experiment,NULL,PennController,3,_Header_,End,1687281404955,60fd5af9744452c6f69ee234,60fd5af9744452c6f69ee234,1,vase,critical,B,50,vase40.jpg,vase60.jpg,nogoal,NULL
1687281583,0476e01c235bae63883f1768aeab7565,PennController,4,0,experiment,NULL,Canvas,canvas6,Print,NA,1687281409679,60fd5af9744452c6f69ee234,60fd5af9744452c6f69ee234,1,vase,critical,B,50,vase40.jpg,vase60.jpg,nogoal,NULL
1687281583,0476e01c235bae63883f1768aeab7565,PennController,4,0,experiment,NULL,Video,progression,buffer,0.014998,1687281406510,60fd5af9744452c6f69ee234,60fd5af9744452c6f69ee234,1,vase,critical,B,50,vase40.jpg,vase60.jpg,nogoal,NULL
1687281583,0476e01c235bae63883f1768aeab7565,PennController,4,0,experiment,NULL,Selector,choice,Selection,option2,1687281412457,60fd5af9744452c6f69ee234,60fd5af9744452c6f69ee234,1,vase,critical,B,50,vase40.jpg,vase60.jpg,nogoal,option2;option1
1687281583,0476e01c235bae63883f1768aeab7565,PennController,4,0,experiment,NULL,PennController,3,_Trial_,End,1687281412462,60fd5af9744452c6f69ee234,60fd5af9744452c6f69ee234,1,vase,critical,B,50,vase40.jpg,vase60.jpg,nogoal,NULL
1687281583,0476e01c235bae63883f1768aeab7565,PennController,5,0,experiment,NULL,PennController,4,_Trial_,Start,1687281412466,60fd5af9744452c6f69ee234,60fd5af9744452c6f69ee234,2,door,critical,B,75,door65.jpg,door85.jpg,nogoal,NULL
1687281583,0476e01c235bae63883f1768aeab7565,PennController,5,0,experiment,NULL,PennController,4,_Header_,Start,1687281412466,60fd5af9744452c6f69ee234,60fd5af9744452c6f69ee234,2,door,critical,B,75,door65.jpg,door85.jpg,nogoal,NULL
1687281583,0476e01c235bae63883f1768aeab7565,PennController,5,0,experiment,NULL,PennController,4,_Header_,End,1687281412466,60fd5af9744452c6f69ee234,60fd5af9744452c6f69ee234,2,door,critical,B,75,door65.jpg,door85.jpg,nogoal,NULL
1687281583,0476e01c235bae63883f1768aeab7565,PennController,5,0,experiment,NULL,Canvas,canvas6,Print,NA,1687281418208,60fd5af9744452c6f69ee234,60fd5af9744452c6f69ee234,2,door,critical,B,75,door65.jpg,door85.jpg,nogoal,NULL
1687281583,0476e01c235bae63883f1768aeab7565,PennController,5,0,experiment,NULL,Video,progression,buffer,0.020856,1687281414037,60fd5af9744452c6f69ee234,60fd5af9744452c6f69ee234,2,door,critical,B,75,door65.jpg,door85.jpg,nogoal,NULL
1687281583,0476e01c235bae63883f1768aeab7565,PennController,5,0,experiment,NULL,Selector,choice,Selection,option2,1687281420097,60fd5af9744452c6f69ee234,60fd5af9744452c6f69ee234,2,door,critical,B,75,door65.jpg,door85.jpg,nogoal,option2;option1
1687281583,0476e01c235bae63883f1768aeab7565,PennController,5,0,experiment,NULL,PennController,4,_Trial_,End,1687281420103,60fd5af9744452c6f69ee234,60fd5af9744452c6f69ee234,2,door,critical,B,75,door65.jpg,door85.jpg,nogoal,NULL
1687281583,0476e01c235bae63883f1768aeab7565,PennController,28,0,experiment,NULL,PennController,27,_Trial_,Start,1687281420109,60fd5af9744452c6f69ee234,60fd5af9744452c6f69ee234,25,house,filler,B,50,house40.jpg,house60.jpg,nogoal,NULL
1687281583,0476e01c235bae63883f1768aeab7565,PennController,28,0,experiment,NULL,PennController,27,_Header_,Start,1687281420109,60fd5af9744452c6f69ee234,60fd5af9744452c6f69ee234,25,house,filler,B,50,house40.jpg,house60.jpg,nogoal,NULL
1687281583,0476e01c235bae63883f1768aeab7565,PennController,28,0,experiment,NULL,PennController,27,_Header_,End,1687281420109,60fd5af9744452c6f69ee234,60fd5af9744452c6f69ee234,25,house,filler,B,50,house40.jpg,house60.jpg,nogoal,NULL
1687281583,0476e01c235bae63883f1768aeab7565,PennController,28,0,experiment,NULL,Canvas,canvas6,Print,NA,1687281424847,60fd5af9744452c6f69ee234,60fd5af9744452c6f69ee234,25,house,filler,B,50,house40.jpg,house60.jpg,nogoal,NULL
1687281583,0476e01c235bae63883f1768aeab7565,PennController,28,0,experiment,NULL,Video,progression,buffer,0.015294,1687281421669,60fd5af9744452c6f69ee234,60fd5af9744452c6f69ee234,25,house,filler,B,50,house40.jpg,house60.jpg,nogoal,NULL
1687281583,0476e01c235bae63883f1768aeab7565,PennController,28,0,experiment,NULL,Selector,choice,Selection,option1,1687281428123,60fd5af9744452c6f69ee234,60fd5af9744452c6f69ee234,25,house,filler,B,50,house40.jpg,house60.jpg,nogoal,option1;option2
1687281583,0476e01c235bae63883f1768aeab7565,PennController,28,0,experiment,NULL,PennController,27,_Trial_,End,1687281428128,60fd5af9744452c6f69ee234,60fd5af9744452c6f69ee234,25,house,filler,B,50,house40.jpg,house60.jpg,nogoal,NULL
1687281583,0476e01c235bae63883f1768aeab7565,PennController,24,0,experiment,NULL,PennController,23,_Trial_,Start,1687281428133,60fd5af9744452c6f69ee234,60fd5af9744452c6f69ee234,21,visit,filler,B,25,visit15.jpg,visit35.jpg,nogoal,NULL
1687281583,0476e01c235bae63883f1768aeab7565,PennController,24,0,experiment,NULL,PennController,23,_Header_,Start,1687281428133,60fd5af9744452c6f69ee234,60fd5af9744452c6f69ee234,21,visit,filler,B,25,visit15.jpg,visit35.jpg,nogoal,NULL
1687281583,0476e01c235bae63883f1768aeab7565,PennController,24,0,experiment,NULL,PennController,23,_Header_,End,1687281428133,60fd5af9744452c6f69ee234,60fd5af9744452c6f69ee234,21,visit,filler,B,25,visit15.jpg,visit35.jpg,nogoal,NULL
1687281583,0476e01c235bae63883f1768aeab7565,PennController,24,0,experiment,NULL,Canvas,canvas6,Print,NA,1687281431864,60fd5af9744452c6f69ee234,60fd5af9744452c6f69ee234,21,visit,filler,B,25,visit15.jpg,visit35.jpg,nogoal,NULL
1687281583,0476e01c235bae63883f1768aeab7565,PennController,24,0,experiment,NULL,Video,progression,buffer,0.021936,1687281429702,60fd5af9744452c6f69ee234,60fd5af9744452c6f69ee234,21,visit,filler,B,25,visit15.jpg,visit35.jpg,nogoal,NULL
1687281583,0476e01c235bae63883f1768aeab7565,PennController,24,0,experiment,NULL,Selector,choice,Selection,option1,1687281433884,60fd5af9744452c6f69ee234,60fd5af9744452c6f69ee234,21,visit,filler,B,25,visit15.jpg,visit35.jpg,nogoal,option1;option2
1687281583,0476e01c235bae63883f1768aeab7565,PennController,24,0,experiment,NULL,PennController,23,_Trial_,End,1687281433891,60fd5af9744452c6f69ee234,60fd5af9744452c6f69ee234,21,visit,filler,B,25,visit15.jpg,visit35.jpg,nogoal,NULL
1687281583,0476e01c235bae63883f1768aeab7565,PennController,6,0,experiment,NULL,PennController,5,_Trial_,Start,1687281433895,60fd5af9744452c6f69ee234,60fd5af9744452c6f69ee234,3,clean,critical,B,25,clean15.jpg,clean35.jpg,nogoal,NULL
1687281583,0476e01c235bae63883f1768aeab7565,PennController,6,0,experiment,NULL,PennController,5,_Header_,Start,1687281433895,60fd5af9744452c6f69ee234,60fd5af9744452c6f69ee234,3,clean,critical,B,25,clean15.jpg,clean35.jpg,nogoal,NULL
1687281583,0476e01c235bae63883f1768aeab7565,PennController,6,0,experiment,NULL,PennController,5,_Header_,End,1687281433895,60fd5af9744452c6f69ee234,60fd5af9744452c6f69ee234,3,clean,critical,B,25,clean15.jpg,clean35.jpg,nogoal,NULL
1687281583,0476e01c235bae63883f1768aeab7565,PennController,6,0,experiment,NULL,Canvas,canvas6,Print,NA,1687281437621,60fd5af9744452c6f69ee234,60fd5af9744452c6f69ee234,3,clean,critical,B,25,clean15.jpg,clean35.jpg,nogoal,NULL
1687281583,0476e01c235bae63883f1768aeab7565,PennController,6,0,experiment,NULL,Video,progression,buffer,0.008268,1687281435431,60fd5af9744452c6f69ee234,60fd5af9744452c6f69ee234,3,clean,critical,B,25,clean15.jpg,clean35.jpg,nogoal,NULL
1687281583,0476e01c235bae63883f1768aeab7565,PennController,6,0,experiment,NULL,Selector,choice,Selection,option1,1687281442203,60fd5af9744452c6f69ee234,60fd5af9744452c6f69ee234,3,clean,critical,B,25,clean15.jpg,clean35.jpg,nogoal,option2;option1
1687281583,0476e01c235bae63883f1768aeab7565,PennController,6,0,experiment,NULL,PennController,5,_Trial_,End,1687281442205,60fd5af9744452c6f69ee234,60fd5af9744452c6f69ee234,3,clean,critical,B,25,clean15.jpg,clean35.jpg,nogoal,NULL
1687281583,0476e01c235bae63883f1768aeab7565,PennController,25,0,experiment,NULL,PennController,24,_Trial_,Start,1687281442207,60fd5af9744452c6f69ee234,60fd5af9744452c6f69ee234,22,wall,filler,B,50,wall40.jpg,wall60.jpg,nogoal,NULL
1687281583,0476e01c235bae63883f1768aeab7565,PennController,25,0,experiment,NULL,PennController,24,_Header_,Start,1687281442207,60fd5af9744452c6f69ee234,60fd5af9744452c6f69ee234,22,wall,filler,B,50,wall40.jpg,wall60.jpg,nogoal,NULL
1687281583,0476e01c235bae63883f1768aeab7565,PennController,25,0,experiment,NULL,PennController,24,_Header_,End,1687281442207,60fd5af9744452c6f69ee234,60fd5af9744452c6f69ee234,22,wall,filler,B,50,wall40.jpg,wall60.jpg,nogoal,NULL
1687281583,0476e01c235bae63883f1768aeab7565,PennController,25,0,experiment,NULL,Canvas,canvas6,Print,NA,1687281446931,60fd5af9744452c6f69ee234,60fd5af9744452c6f69ee234,22,wall,filler,B,50,wall40.jpg,wall60.jpg,nogoal,NULL
1687281583,0476e01c235bae63883f1768aeab7565,PennController,25,0,experiment,NULL,Video,progression,buffer,0.02035,1687281443766,60fd5af9744452c6f69ee234,60fd5af9744452c6f69ee234,22,wall,filler,B,50,wall40.jpg,wall60.jpg,nogoal,NULL
1687281583,0476e01c235bae63883f1768aeab7565,PennController,25,0,experiment,NULL,Selector,choice,Selection,option1,1687281451280,60fd5af9744452c6f69ee234,60fd5af9744452c6f69ee234,22,wall,filler,B,50,wall40.jpg,wall60.jpg,nogoal,option2;option1
1687281583,0476e01c235bae63883f1768aeab7565,PennController,25,0,experiment,NULL,PennController,24,_Trial_,End,1687281451285,60fd5af9744452c6f69ee234,60fd5af9744452c6f69ee234,22,wall,filler,B,50,wall40.jpg,wall60.jpg,nogoal,NULL
1687281583,0476e01c235bae63883f1768aeab7565,PennController,23,0,experiment,NULL,PennController,22,_Trial_,Start,1687281451290,60fd5af9744452c6f69ee234,60fd5af9744452c6f69ee234,20,cat,filler,B,75,cat65.jpg,cat85.jpg,nogoal,NULL
1687281583,0476e01c235bae63883f1768aeab7565,PennController,23,0,experiment,NULL,PennController,22,_Header_,Start,1687281451290,60fd5af9744452c6f69ee234,60fd5af9744452c6f69ee234,20,cat,filler,B,75,cat65.jpg,cat85.jpg,nogoal,NULL
1687281583,0476e01c235bae63883f1768aeab7565,PennController,23,0,experiment,NULL,PennController,22,_Header_,End,1687281451290,60fd5af9744452c6f69ee234,60fd5af9744452c6f69ee234,20,cat,filler,B,75,cat65.jpg,cat85.jpg,nogoal,NULL
1687281583,0476e01c235bae63883f1768aeab7565,PennController,23,0,experiment,NULL,Canvas,canvas6,Print,NA,1687281457020,60fd5af9744452c6f69ee234,60fd5af9744452c6f69ee234,20,cat,filler,B,75,cat65.jpg,cat85.jpg,nogoal,NULL
1687281583,0476e01c235bae63883f1768aeab7565,PennController,23,0,experiment,NULL,Video,progression,buffer,0.015484,1687281452849,60fd5af9744452c6f69ee234,60fd5af9744452c6f69ee234,20,cat,filler,B,75,cat65.jpg,cat85.jpg,nogoal,NULL
1687281583,0476e01c235bae63883f1768aeab7565,PennController,23,0,experiment,NULL,Selector,choice,Selection,option1,1687281458701,60fd5af9744452c6f69ee234,60fd5af9744452c6f69ee234,20,cat,filler,B,75,cat65.jpg,cat85.jpg,nogoal,option2;option1
1687281583,0476e01c235bae63883f1768aeab7565,PennController,23,0,experiment,NULL,PennController,22,_Trial_,End,1687281458708,60fd5af9744452c6f69ee234,60fd5af9744452c6f69ee234,20,cat,filler,B,75,cat65.jpg,cat85.jpg,nogoal,NULL
1687281583,0476e01c235bae63883f1768aeab7565,PennController,31,0,experiment,NULL,PennController,30,_Trial_,Start,1687281458712,60fd5af9744452c6f69ee234,60fd5af9744452c6f69ee234,28,sort,filler,B,50,sort40.jpg,sort60.jpg,nogoal,NULL
1687281583,0476e01c235bae63883f1768aeab7565,PennController,31,0,experiment,NULL,PennController,30,_Header_,Start,1687281458712,60fd5af9744452c6f69ee234,60fd5af9744452c6f69ee234,28,sort,filler,B,50,sort40.jpg,sort60.jpg,nogoal,NULL
1687281583,0476e01c235bae63883f1768aeab7565,PennController,31,0,experiment,NULL,PennController,30,_Header_,End,1687281458712,60fd5af9744452c6f69ee234,60fd5af9744452c6f69ee234,28,sort,filler,B,50,sort40.jpg,sort60.jpg,nogoal,NULL
1687281583,0476e01c235bae63883f1768aeab7565,PennController,31,0,experiment,NULL,Canvas,canvas6,Print,NA,1687281463460,60fd5af9744452c6f69ee234,60fd5af9744452c6f69ee234,28,sort,filler,B,50,sort40.jpg,sort60.jpg,nogoal,NULL
1687281583,0476e01c235bae63883f1768aeab7565,PennController,31,0,experiment,NULL,Video,progression,buffer,0.018514,1687281460273,60fd5af9744452c6f69ee234,60fd5af9744452c6f69ee234,28,sort,filler,B,50,sort40.jpg,sort60.jpg,nogoal,NULL
1687281583,0476e01c235bae63883f1768aeab7565,PennController,31,0,experiment,NULL,Selector,choice,Selection,option2,1687281467290,60fd5af9744452c6f69ee234,60fd5af9744452c6f69ee234,28,sort,filler,B,50,sort40.jpg,sort60.jpg,nogoal,option1;option2
1687281583,0476e01c235bae63883f1768aeab7565,PennController,31,0,experiment,NULL,PennController,30,_Trial_,End,1687281467295,60fd5af9744452c6f69ee234,60fd5af9744452c6f69ee234,28,sort,filler,B,50,sort40.jpg,sort60.jpg,nogoal,NULL
1687281583,0476e01c235bae63883f1768aeab7565,PennController,14,0,experiment,NULL,PennController,13,_Trial_,Start,1687281467301,60fd5af9744452c6f69ee234,60fd5af9744452c6f69ee234,11,beads,critical,B,75,beads65.jpg,beads85.jpg,nogoal,NULL
1687281583,0476e01c235bae63883f1768aeab7565,PennController,14,0,experiment,NULL,PennController,13,_Header_,Start,1687281467301,60fd5af9744452c6f69ee234,60fd5af9744452c6f69ee234,11,beads,critical,B,75,beads65.jpg,beads85.jpg,nogoal,NULL
1687281583,0476e01c235bae63883f1768aeab7565,PennController,14,0,experiment,NULL,PennController,13,_Header_,End,1687281467301,60fd5af9744452c6f69ee234,60fd5af9744452c6f69ee234,11,beads,critical,B,75,beads65.jpg,beads85.jpg,nogoal,NULL
1687281583,0476e01c235bae63883f1768aeab7565,PennController,14,0,experiment,NULL,Canvas,canvas6,Print,NA,1687281473017,60fd5af9744452c6f69ee234,60fd5af9744452c6f69ee234,11,beads,critical,B,75,beads65.jpg,beads85.jpg,nogoal,NULL
1687281583,0476e01c235bae63883f1768aeab7565,PennController,14,0,experiment,NULL,Video,progression,buffer,0.011383,1687281468850,60fd5af9744452c6f69ee234,60fd5af9744452c6f69ee234,11,beads,critical,B,75,beads65.jpg,beads85.jpg,nogoal,NULL
1687281583,0476e01c235bae63883f1768aeab7565,PennController,14,0,experiment,NULL,Selector,choice,Selection,option1,1687281477529,60fd5af9744452c6f69ee234,60fd5af9744452c6f69ee234,11,beads,critical,B,75,beads65.jpg,beads85.jpg,nogoal,option2;option1
1687281583,0476e01c235bae63883f1768aeab7565,PennController,14,0,experiment,NULL,PennController,13,_Trial_,End,1687281477534,60fd5af9744452c6f69ee234,60fd5af9744452c6f69ee234,11,beads,critical,B,75,beads65.jpg,beads85.jpg,nogoal,NULL
1687281583,0476e01c235bae63883f1768aeab7565,PennController,27,0,experiment,NULL,PennController,26,_Trial_,Start,1687281477538,60fd5af9744452c6f69ee234,60fd5af9744452c6f69ee234,24,match,filler,B,25,match15.jpg,match35.jpg,nogoal,NULL
1687281583,0476e01c235bae63883f1768aeab7565,PennController,27,0,experiment,NULL,PennController,26,_Header_,Start,1687281477538,60fd5af9744452c6f69ee234,60fd5af9744452c6f69ee234,24,match,filler,B,25,match15.jpg,match35.jpg,nogoal,NULL
1687281583,0476e01c235bae63883f1768aeab7565,PennController,27,0,experiment,NULL,PennController,26,_Header_,End,1687281477538,60fd5af9744452c6f69ee234,60fd5af9744452c6f69ee234,24,match,filler,B,25,match15.jpg,match35.jpg,nogoal,NULL
1687281583,0476e01c235bae63883f1768aeab7565,PennController,27,0,experiment,NULL,Canvas,canvas6,Print,NA,1687281481280,60fd5af9744452c6f69ee234,60fd5af9744452c6f69ee234,24,match,filler,B,25,match15.jpg,match35.jpg,nogoal,NULL
1687281583,0476e01c235bae63883f1768aeab7565,PennController,27,0,experiment,NULL,Video,progression,buffer,0.010765,1687281479083,60fd5af9744452c6f69ee234,60fd5af9744452c6f69ee234,24,match,filler,B,25,match15.jpg,match35.jpg,nogoal,NULL
1687281583,0476e01c235bae63883f1768aeab7565,PennController,27,0,experiment,NULL,Selector,choice,Selection,option1,1687281483229,60fd5af9744452c6f69ee234,60fd5af9744452c6f69ee234,24,match,filler,B,25,match15.jpg,match35.jpg,nogoal,option2;option1
1687281583,0476e01c235bae63883f1768aeab7565,PennController,27,0,experiment,NULL,PennController,26,_Trial_,End,1687281483234,60fd5af9744452c6f69ee234,60fd5af9744452c6f69ee234,24,match,filler,B,25,match15.jpg,match35.jpg,nogoal,NULL
1687281583,0476e01c235bae63883f1768aeab7565,PennController,22,0,experiment,NULL,PennController,21,_Trial_,Start,1687281483237,60fd5af9744452c6f69ee234,60fd5af9744452c6f69ee234,19,cup,filler,B,50,cup40.jpg,cup60.jpg,nogoal,NULL
1687281583,0476e01c235bae63883f1768aeab7565,PennController,22,0,experiment,NULL,PennController,21,_Header_,Start,1687281483238,60fd5af9744452c6f69ee234,60fd5af9744452c6f69ee234,19,cup,filler,B,50,cup40.jpg,cup60.jpg,nogoal,NULL
1687281583,0476e01c235bae63883f1768aeab7565,PennController,22,0,experiment,NULL,PennController,21,_Header_,End,1687281483238,60fd5af9744452c6f69ee234,60fd5af9744452c6f69ee234,19,cup,filler,B,50,cup40.jpg,cup60.jpg,nogoal,NULL
1687281583,0476e01c235bae63883f1768aeab7565,PennController,22,0,experiment,NULL,Canvas,canvas6,Print,NA,1687281487967,60fd5af9744452c6f69ee234,60fd5af9744452c6f69ee234,19,cup,filler,B,50,cup40.jpg,cup60.jpg,nogoal,NULL
1687281583,0476e01c235bae63883f1768aeab7565,PennController,22,0,experiment,NULL,Video,progression,buffer,0.014073,1687281484788,60fd5af9744452c6f69ee234,60fd5af9744452c6f69ee234,19,cup,filler,B,50,cup40.jpg,cup60.jpg,nogoal,NULL
1687281583,0476e01c235bae63883f1768aeab7565,PennController,22,0,experiment,NULL,Selector,choice,Selection,option1,1687281490450,60fd5af9744452c6f69ee234,60fd5af9744452c6f69ee234,19,cup,filler,B,50,cup40.jpg,cup60.jpg,nogoal,option2;option1
1687281583,0476e01c235bae63883f1768aeab7565,PennController,22,0,experiment,NULL,PennController,21,_Trial_,End,1687281490455,60fd5af9744452c6f69ee234,60fd5af9744452c6f69ee234,19,cup,filler,B,50,cup40.jpg,cup60.jpg,nogoal,NULL
1687281583,0476e01c235bae63883f1768aeab7565,PennController,9,0,experiment,NULL,PennController,8,_Trial_,Start,1687281490461,60fd5af9744452c6f69ee234,60fd5af9744452c6f69ee234,6,flower,critical,B,25,flower15.jpg,flower35.jpg,nogoal,NULL
1687281583,0476e01c235bae63883f1768aeab7565,PennController,9,0,experiment,NULL,PennController,8,_Header_,Start,1687281490461,60fd5af9744452c6f69ee234,60fd5af9744452c6f69ee234,6,flower,critical,B,25,flower15.jpg,flower35.jpg,nogoal,NULL
1687281583,0476e01c235bae63883f1768aeab7565,PennController,9,0,experiment,NULL,PennController,8,_Header_,End,1687281490461,60fd5af9744452c6f69ee234,60fd5af9744452c6f69ee234,6,flower,critical,B,25,flower15.jpg,flower35.jpg,nogoal,NULL
1687281583,0476e01c235bae63883f1768aeab7565,PennController,9,0,experiment,NULL,Canvas,canvas6,Print,NA,1687281494187,60fd5af9744452c6f69ee234,60fd5af9744452c6f69ee234,6,flower,critical,B,25,flower15.jpg,flower35.jpg,nogoal,NULL
1687281583,0476e01c235bae63883f1768aeab7565,PennController,9,0,experiment,NULL,Video,progression,buffer,0.017865,1687281492019,60fd5af9744452c6f69ee234,60fd5af9744452c6f69ee234,6,flower,critical,B,25,flower15.jpg,flower35.jpg,nogoal,NULL
1687281583,0476e01c235bae63883f1768aeab7565,PennController,9,0,experiment,NULL,Selector,choice,Selection,option1,1687281496500,60fd5af9744452c6f69ee234,60fd5af9744452c6f69ee234,6,flower,critical,B,25,flower15.jpg,flower35.jpg,nogoal,option1;option2
1687281583,0476e01c235bae63883f1768aeab7565,PennController,9,0,experiment,NULL,PennController,8,_Trial_,End,1687281496505,60fd5af9744452c6f69ee234,60fd5af9744452c6f69ee234,6,flower,critical,B,25,flower15.jpg,flower35.jpg,nogoal,NULL
1687281583,0476e01c235bae63883f1768aeab7565,PennController,10,0,experiment,NULL,PennController,9,_Trial_,Start,1687281496510,60fd5af9744452c6f69ee234,60fd5af9744452c6f69ee234,7,stack,critical,B,50,stack40.jpg,stack60.jpg,nogoal,NULL
1687281583,0476e01c235bae63883f1768aeab7565,PennController,10,0,experiment,NULL,PennController,9,_Header_,Start,1687281496511,60fd5af9744452c6f69ee234,60fd5af9744452c6f69ee234,7,stack,critical,B,50,stack40.jpg,stack60.jpg,nogoal,NULL
1687281583,0476e01c235bae63883f1768aeab7565,PennController,10,0,experiment,NULL,PennController,9,_Header_,End,1687281496511,60fd5af9744452c6f69ee234,60fd5af9744452c6f69ee234,7,stack,critical,B,50,stack40.jpg,stack60.jpg,nogoal,NULL
1687281583,0476e01c235bae63883f1768aeab7565,PennController,10,0,experiment,NULL,Canvas,canvas6,Print,NA,1687281501233,60fd5af9744452c6f69ee234,60fd5af9744452c6f69ee234,7,stack,critical,B,50,stack40.jpg,stack60.jpg,nogoal,NULL
1687281583,0476e01c235bae63883f1768aeab7565,PennController,10,0,experiment,NULL,Video,progression,buffer,0.014762,1687281498063,60fd5af9744452c6f69ee234,60fd5af9744452c6f69ee234,7,stack,critical,B,50,stack40.jpg,stack60.jpg,nogoal,NULL
1687281583,0476e01c235bae63883f1768aeab7565,PennController,10,0,experiment,NULL,Selector,choice,Selection,option1,1687281508494,60fd5af9744452c6f69ee234,60fd5af9744452c6f69ee234,7,stack,critical,B,50,stack40.jpg,stack60.jpg,nogoal,option1;option2
1687281583,0476e01c235bae63883f1768aeab7565,PennController,10,0,experiment,NULL,PennController,9,_Trial_,End,1687281508498,60fd5af9744452c6f69ee234,60fd5af9744452c6f69ee234,7,stack,critical,B,50,stack40.jpg,stack60.jpg,nogoal,NULL
1687281583,0476e01c235bae63883f1768aeab7565,PennController,17,0,experiment,NULL,PennController,16,_Trial_,Start,1687281508504,60fd5af9744452c6f69ee234,60fd5af9744452c6f69ee234,14,cover,critical,B,75,cover66.jpg,cover84.jpg,nogoal,NULL
1687281583,0476e01c235bae63883f1768aeab7565,PennController,17,0,experiment,NULL,PennController,16,_Header_,Start,1687281508504,60fd5af9744452c6f69ee234,60fd5af9744452c6f69ee234,14,cover,critical,B,75,cover66.jpg,cover84.jpg,nogoal,NULL
1687281583,0476e01c235bae63883f1768aeab7565,PennController,17,0,experiment,NULL,PennController,16,_Header_,End,1687281508504,60fd5af9744452c6f69ee234,60fd5af9744452c6f69ee234,14,cover,critical,B,75,cover66.jpg,cover84.jpg,nogoal,NULL
1687281583,0476e01c235bae63883f1768aeab7565,PennController,17,0,experiment,NULL,Canvas,canvas6,Print,NA,1687281516244,60fd5af9744452c6f69ee234,60fd5af9744452c6f69ee234,14,cover,critical,B,75,cover66.jpg,cover84.jpg,nogoal,NULL
1687281583,0476e01c235bae63883f1768aeab7565,PennController,17,0,experiment,NULL,Video,progression,buffer,0.015709,1687281510067,60fd5af9744452c6f69ee234,60fd5af9744452c6f69ee234,14,cover,critical,B,75,cover66.jpg,cover84.jpg,nogoal,NULL
1687281583,0476e01c235bae63883f1768aeab7565,PennController,17,0,experiment,NULL,Selector,choice,Selection,option1,1687281518637,60fd5af9744452c6f69ee234,60fd5af9744452c6f69ee234,14,cover,critical,B,75,cover66.jpg,cover84.jpg,nogoal,option2;option1
1687281583,0476e01c235bae63883f1768aeab7565,PennController,17,0,experiment,NULL,PennController,16,_Trial_,End,1687281518644,60fd5af9744452c6f69ee234,60fd5af9744452c6f69ee234,14,cover,critical,B,75,cover66.jpg,cover84.jpg,nogoal,NULL
1687281583,0476e01c235bae63883f1768aeab7565,PennController,20,0,experiment,NULL,PennController,19,_Trial_,Start,1687281518648,60fd5af9744452c6f69ee234,60fd5af9744452c6f69ee234,17,roll,critical,B,75,roll65.jpg,roll85.jpg,nogoal,NULL
1687281583,0476e01c235bae63883f1768aeab7565,PennController,20,0,experiment,NULL,PennController,19,_Header_,Start,1687281518648,60fd5af9744452c6f69ee234,60fd5af9744452c6f69ee234,17,roll,critical,B,75,roll65.jpg,roll85.jpg,nogoal,NULL
1687281583,0476e01c235bae63883f1768aeab7565,PennController,20,0,experiment,NULL,PennController,19,_Header_,End,1687281518648,60fd5af9744452c6f69ee234,60fd5af9744452c6f69ee234,17,roll,critical,B,75,roll65.jpg,roll85.jpg,nogoal,NULL
1687281583,0476e01c235bae63883f1768aeab7565,PennController,20,0,experiment,NULL,Canvas,canvas6,Print,NA,1687281524373,60fd5af9744452c6f69ee234,60fd5af9744452c6f69ee234,17,roll,critical,B,75,roll65.jpg,roll85.jpg,nogoal,NULL
1687281583,0476e01c235bae63883f1768aeab7565,PennController,20,0,experiment,NULL,Video,progression,buffer,0.015528,1687281520200,60fd5af9744452c6f69ee234,60fd5af9744452c6f69ee234,17,roll,critical,B,75,roll65.jpg,roll85.jpg,nogoal,NULL
1687281583,0476e01c235bae63883f1768aeab7565,PennController,20,0,experiment,NULL,Selector,choice,Selection,option1,1687281525826,60fd5af9744452c6f69ee234,60fd5af9744452c6f69ee234,17,roll,critical,B,75,roll65.jpg,roll85.jpg,nogoal,option2;option1
1687281583,0476e01c235bae63883f1768aeab7565,PennController,20,0,experiment,NULL,PennController,19,_Trial_,End,1687281525831,60fd5af9744452c6f69ee234,60fd5af9744452c6f69ee234,17,roll,critical,B,75,roll65.jpg,roll85.jpg,nogoal,NULL
1687281583,0476e01c235bae63883f1768aeab7565,PennController,19,0,experiment,NULL,PennController,18,_Trial_,Start,1687281525835,60fd5af9744452c6f69ee234,60fd5af9744452c6f69ee234,16,blinds,critical,B,50,blinds42.jpg,blinds60.jpg,nogoal,NULL
1687281583,0476e01c235bae63883f1768aeab7565,PennController,19,0,experiment,NULL,PennController,18,_Header_,Start,1687281525835,60fd5af9744452c6f69ee234,60fd5af9744452c6f69ee234,16,blinds,critical,B,50,blinds42.jpg,blinds60.jpg,nogoal,NULL
1687281583,0476e01c235bae63883f1768aeab7565,PennController,19,0,experiment,NULL,PennController,18,_Header_,End,1687281525835,60fd5af9744452c6f69ee234,60fd5af9744452c6f69ee234,16,blinds,critical,B,50,blinds42.jpg,blinds60.jpg,nogoal,NULL
1687281583,0476e01c235bae63883f1768aeab7565,PennController,19,0,experiment,NULL,Canvas,canvas6,Print,NA,1687281531957,60fd5af9744452c6f69ee234,60fd5af9744452c6f69ee234,16,blinds,critical,B,50,blinds42.jpg,blinds60.jpg,nogoal,NULL
1687281583,0476e01c235bae63883f1768aeab7565,PennController,19,0,experiment,NULL,Video,progression,buffer,0.015018,1687281527387,60fd5af9744452c6f69ee234,60fd5af9744452c6f69ee234,16,blinds,critical,B,50,blinds42.jpg,blinds60.jpg,nogoal,NULL
1687281583,0476e01c235bae63883f1768aeab7565,PennController,19,0,experiment,NULL,Selector,choice,Selection,option1,1687281533564,60fd5af9744452c6f69ee234,60fd5af9744452c6f69ee234,16,blinds,critical,B,50,blinds42.jpg,blinds60.jpg,nogoal,option2;option1
1687281583,0476e01c235bae63883f1768aeab7565,PennController,19,0,experiment,NULL,PennController,18,_Trial_,End,1687281533569,60fd5af9744452c6f69ee234,60fd5af9744452c6f69ee234,16,blinds,critical,B,50,blinds42.jpg,blinds60.jpg,nogoal,NULL
1687281583,0476e01c235bae63883f1768aeab7565,PennController,16,0,experiment,NULL,PennController,15,_Trial_,Start,1687281533574,60fd5af9744452c6f69ee234,60fd5af9744452c6f69ee234,13,mix,critical,B,50,mix40.jpg,mix60.jpg,nogoal,NULL
1687281583,0476e01c235bae63883f1768aeab7565,PennController,16,0,experiment,NULL,PennController,15,_Header_,Start,1687281533574,60fd5af9744452c6f69ee234,60fd5af9744452c6f69ee234,13,mix,critical,B,50,mix40.jpg,mix60.jpg,nogoal,NULL
1687281583,0476e01c235bae63883f1768aeab7565,PennController,16,0,experiment,NULL,PennController,15,_Header_,End,1687281533574,60fd5af9744452c6f69ee234,60fd5af9744452c6f69ee234,13,mix,critical,B,50,mix40.jpg,mix60.jpg,nogoal,NULL
1687281583,0476e01c235bae63883f1768aeab7565,PennController,16,0,experiment,NULL,Canvas,canvas6,Print,NA,1687281538312,60fd5af9744452c6f69ee234,60fd5af9744452c6f69ee234,13,mix,critical,B,50,mix40.jpg,mix60.jpg,nogoal,NULL
1687281583,0476e01c235bae63883f1768aeab7565,PennController,16,0,experiment,NULL,Video,progression,buffer,0.017859,1687281535137,60fd5af9744452c6f69ee234,60fd5af9744452c6f69ee234,13,mix,critical,B,50,mix40.jpg,mix60.jpg,nogoal,NULL
1687281583,0476e01c235bae63883f1768aeab7565,PennController,16,0,experiment,NULL,Selector,choice,Selection,option1,1687281540390,60fd5af9744452c6f69ee234,60fd5af9744452c6f69ee234,13,mix,critical,B,50,mix40.jpg,mix60.jpg,nogoal,option2;option1
1687281583,0476e01c235bae63883f1768aeab7565,PennController,16,0,experiment,NULL,PennController,15,_Trial_,End,1687281540396,60fd5af9744452c6f69ee234,60fd5af9744452c6f69ee234,13,mix,critical,B,50,mix40.jpg,mix60.jpg,nogoal,NULL
1687281583,0476e01c235bae63883f1768aeab7565,PennController,29,0,experiment,NULL,PennController,28,_Trial_,Start,1687281540399,60fd5af9744452c6f69ee234,60fd5af9744452c6f69ee234,26,sandwich,filler,B,75,sandwich65.jpg,sandwich85.jpg,nogoal,NULL
1687281583,0476e01c235bae63883f1768aeab7565,PennController,29,0,experiment,NULL,PennController,28,_Header_,Start,1687281540399,60fd5af9744452c6f69ee234,60fd5af9744452c6f69ee234,26,sandwich,filler,B,75,sandwich65.jpg,sandwich85.jpg,nogoal,NULL
1687281583,0476e01c235bae63883f1768aeab7565,PennController,29,0,experiment,NULL,PennController,28,_Header_,End,1687281540399,60fd5af9744452c6f69ee234,60fd5af9744452c6f69ee234,26,sandwich,filler,B,75,sandwich65.jpg,sandwich85.jpg,nogoal,NULL
1687281583,0476e01c235bae63883f1768aeab7565,PennController,29,0,experiment,NULL,Canvas,canvas6,Print,NA,1687281546122,60fd5af9744452c6f69ee234,60fd5af9744452c6f69ee234,26,sandwich,filler,B,75,sandwich65.jpg,sandwich85.jpg,nogoal,NULL
1687281583,0476e01c235bae63883f1768aeab7565,PennController,29,0,experiment,NULL,Video,progression,buffer,0.015907,1687281541954,60fd5af9744452c6f69ee234,60fd5af9744452c6f69ee234,26,sandwich,filler,B,75,sandwich65.jpg,sandwich85.jpg,nogoal,NULL
1687281583,0476e01c235bae63883f1768aeab7565,PennController,29,0,experiment,NULL,Selector,choice,Selection,option2,1687281548927,60fd5af9744452c6f69ee234,60fd5af9744452c6f69ee234,26,sandwich,filler,B,75,sandwich65.jpg,sandwich85.jpg,nogoal,option1;option2
1687281583,0476e01c235bae63883f1768aeab7565,PennController,29,0,experiment,NULL,PennController,28,_Trial_,End,1687281548931,60fd5af9744452c6f69ee234,60fd5af9744452c6f69ee234,26,sandwich,filler,B,75,sandwich65.jpg,sandwich85.jpg,nogoal,NULL
1687281583,0476e01c235bae63883f1768aeab7565,PennController,32,0,experiment,NULL,PennController,31,_Trial_,Start,1687281548935,60fd5af9744452c6f69ee234,60fd5af9744452c6f69ee234,29,frog,filler,B,75,frog65.jpg,frog85.jpg,nogoal,NULL
1687281583,0476e01c235bae63883f1768aeab7565,PennController,32,0,experiment,NULL,PennController,31,_Header_,Start,1687281548935,60fd5af9744452c6f69ee234,60fd5af9744452c6f69ee234,29,frog,filler,B,75,frog65.jpg,frog85.jpg,nogoal,NULL
1687281583,0476e01c235bae63883f1768aeab7565,PennController,32,0,experiment,NULL,PennController,31,_Header_,End,1687281548935,60fd5af9744452c6f69ee234,60fd5af9744452c6f69ee234,29,frog,filler,B,75,frog65.jpg,frog85.jpg,nogoal,NULL
1687281583,0476e01c235bae63883f1768aeab7565,PennController,32,0,experiment,NULL,Canvas,canvas6,Print,NA,1687281554674,60fd5af9744452c6f69ee234,60fd5af9744452c6f69ee234,29,frog,filler,B,75,frog65.jpg,frog85.jpg,nogoal,NULL
1687281583,0476e01c235bae63883f1768aeab7565,PennController,32,0,experiment,NULL,Video,progression,buffer,0.014226,1687281550491,60fd5af9744452c6f69ee234,60fd5af9744452c6f69ee234,29,frog,filler,B,75,frog65.jpg,frog85.jpg,nogoal,NULL
1687281583,0476e01c235bae63883f1768aeab7565,PennController,32,0,experiment,NULL,Selector,choice,Selection,option1,1687281556601,60fd5af9744452c6f69ee234,60fd5af9744452c6f69ee234,29,frog,filler,B,75,frog65.jpg,frog85.jpg,nogoal,option1;option2
1687281583,0476e01c235bae63883f1768aeab7565,PennController,32,0,experiment,NULL,PennController,31,_Trial_,End,1687281556606,60fd5af9744452c6f69ee234,60fd5af9744452c6f69ee234,29,frog,filler,B,75,frog65.jpg,frog85.jpg,nogoal,NULL
1687281583,0476e01c235bae63883f1768aeab7565,PennController,13,0,experiment,NULL,PennController,12,_Trial_,Start,1687281556613,60fd5af9744452c6f69ee234,60fd5af9744452c6f69ee234,10,train,critical,B,50,train40.jpg,train60.jpg,nogoal,NULL
1687281583,0476e01c235bae63883f1768aeab7565,PennController,13,0,experiment,NULL,PennController,12,_Header_,Start,1687281556613,60fd5af9744452c6f69ee234,60fd5af9744452c6f69ee234,10,train,critical,B,50,train40.jpg,train60.jpg,nogoal,NULL
1687281583,0476e01c235bae63883f1768aeab7565,PennController,13,0,experiment,NULL,PennController,12,_Header_,End,1687281556613,60fd5af9744452c6f69ee234,60fd5af9744452c6f69ee234,10,train,critical,B,50,train40.jpg,train60.jpg,nogoal,NULL
1687281583,0476e01c235bae63883f1768aeab7565,PennController,13,0,experiment,NULL,Canvas,canvas6,Print,NA,1687281561336,60fd5af9744452c6f69ee234,60fd5af9744452c6f69ee234,10,train,critical,B,50,train40.jpg,train60.jpg,nogoal,NULL
1687281583,0476e01c235bae63883f1768aeab7565,PennController,13,0,experiment,NULL,Video,progression,buffer,0.01546,1687281558173,60fd5af9744452c6f69ee234,60fd5af9744452c6f69ee234,10,train,critical,B,50,train40.jpg,train60.jpg,nogoal,NULL
1687281583,0476e01c235bae63883f1768aeab7565,PennController,13,0,experiment,NULL,Selector,choice,Selection,option1,1687281563257,60fd5af9744452c6f69ee234,60fd5af9744452c6f69ee234,10,train,critical,B,50,train40.jpg,train60.jpg,nogoal,option1;option2
1687281583,0476e01c235bae63883f1768aeab7565,PennController,13,0,experiment,NULL,PennController,12,_Trial_,End,1687281563263,60fd5af9744452c6f69ee234,60fd5af9744452c6f69ee234,10,train,critical,B,50,train40.jpg,train60.jpg,nogoal,NULL
1687281583,0476e01c235bae63883f1768aeab7565,PennController,8,0,experiment,NULL,PennController,7,_Trial_,Start,1687281563267,60fd5af9744452c6f69ee234,60fd5af9744452c6f69ee234,5,book,critical,B,75,book65.jpg,book85.jpg,nogoal,NULL
1687281583,0476e01c235bae63883f1768aeab7565,PennController,8,0,experiment,NULL,PennController,7,_Header_,Start,1687281563267,60fd5af9744452c6f69ee234,60fd5af9744452c6f69ee234,5,book,critical,B,75,book65.jpg,book85.jpg,nogoal,NULL
1687281583,0476e01c235bae63883f1768aeab7565,PennController,8,0,experiment,NULL,PennController,7,_Header_,End,1687281563267,60fd5af9744452c6f69ee234,60fd5af9744452c6f69ee234,5,book,critical,B,75,book65.jpg,book85.jpg,nogoal,NULL
1687281583,0476e01c235bae63883f1768aeab7565,PennController,8,0,experiment,NULL,Canvas,canvas6,Print,NA,1687281568985,60fd5af9744452c6f69ee234,60fd5af9744452c6f69ee234,5,book,critical,B,75,book65.jpg,book85.jpg,nogoal,NULL
1687281583,0476e01c235bae63883f1768aeab7565,PennController,8,0,experiment,NULL,Video,progression,buffer,0.016542,1687281564820,60fd5af9744452c6f69ee234,60fd5af9744452c6f69ee234,5,book,critical,B,75,book65.jpg,book85.jpg,nogoal,NULL
1687281583,0476e01c235bae63883f1768aeab7565,PennController,8,0,experiment,NULL,Selector,choice,Selection,option1,1687281571220,60fd5af9744452c6f69ee234,60fd5af9744452c6f69ee234,5,book,critical,B,75,book65.jpg,book85.jpg,nogoal,option1;option2
1687281583,0476e01c235bae63883f1768aeab7565,PennController,8,0,experiment,NULL,PennController,7,_Trial_,End,1687281571225,60fd5af9744452c6f69ee234,60fd5af9744452c6f69ee234,5,book,critical,B,75,book65.jpg,book85.jpg,nogoal,NULL
1687281583,0476e01c235bae63883f1768aeab7565,PennController,18,0,experiment,NULL,PennController,17,_Trial_,Start,1687281571229,60fd5af9744452c6f69ee234,60fd5af9744452c6f69ee234,15,zip,critical,B,25,zip15.jpg,zip35.jpg,nogoal,NULL
1687281583,0476e01c235bae63883f1768aeab7565,PennController,18,0,experiment,NULL,PennController,17,_Header_,Start,1687281571229,60fd5af9744452c6f69ee234,60fd5af9744452c6f69ee234,15,zip,critical,B,25,zip15.jpg,zip35.jpg,nogoal,NULL
1687281583,0476e01c235bae63883f1768aeab7565,PennController,18,0,experiment,NULL,PennController,17,_Header_,End,1687281571229,60fd5af9744452c6f69ee234,60fd5af9744452c6f69ee234,15,zip,critical,B,25,zip15.jpg,zip35.jpg,nogoal,NULL
1687281583,0476e01c235bae63883f1768aeab7565,PennController,18,0,experiment,NULL,Canvas,canvas6,Print,NA,1687281574952,60fd5af9744452c6f69ee234,60fd5af9744452c6f69ee234,15,zip,critical,B,25,zip15.jpg,zip35.jpg,nogoal,NULL
1687281583,0476e01c235bae63883f1768aeab7565,PennController,18,0,experiment,NULL,Video,progression,buffer,0.019182,1687281572786,60fd5af9744452c6f69ee234,60fd5af9744452c6f69ee234,15,zip,critical,B,25,zip15.jpg,zip35.jpg,nogoal,NULL
1687281583,0476e01c235bae63883f1768aeab7565,PennController,18,0,experiment,NULL,Selector,choice,Selection,option1,1687281576690,60fd5af9744452c6f69ee234,60fd5af9744452c6f69ee234,15,zip,critical,B,25,zip15.jpg,zip35.jpg,nogoal,option2;option1
1687281583,0476e01c235bae63883f1768aeab7565,PennController,18,0,experiment,NULL,PennController,17,_Trial_,End,1687281576696,60fd5af9744452c6f69ee234,60fd5af9744452c6f69ee234,15,zip,critical,B,25,zip15.jpg,zip35.jpg,nogoal,NULL
1687281583,0476e01c235bae63883f1768aeab7565,PennController,15,0,experiment,NULL,PennController,14,_Trial_,Start,1687281576699,60fd5af9744452c6f69ee234,60fd5af9744452c6f69ee234,12,erase,critical,B,25,erase15.jpg,erase33.jpg,nogoal,NULL
1687281583,0476e01c235bae63883f1768aeab7565,PennController,15,0,experiment,NULL,PennController,14,_Header_,Start,1687281576699,60fd5af9744452c6f69ee234,60fd5af9744452c6f69ee234,12,erase,critical,B,25,erase15.jpg,erase33.jpg,nogoal,NULL
1687281583,0476e01c235bae63883f1768aeab7565,PennController,15,0,experiment,NULL,PennController,14,_Header_,End,1687281576699,60fd5af9744452c6f69ee234,60fd5af9744452c6f69ee234,12,erase,critical,B,25,erase15.jpg,erase33.jpg,nogoal,NULL
1687281583,0476e01c235bae63883f1768aeab7565,PennController,15,0,experiment,NULL,Canvas,canvas6,Print,NA,1687281581029,60fd5af9744452c6f69ee234,60fd5af9744452c6f69ee234,12,erase,critical,B,25,erase15.jpg,erase33.jpg,nogoal,NULL
1687281583,0476e01c235bae63883f1768aeab7565,PennController,15,0,experiment,NULL,Video,progression,buffer,0.015311,1687281578253,60fd5af9744452c6f69ee234,60fd5af9744452c6f69ee234,12,erase,critical,B,25,erase15.jpg,erase33.jpg,nogoal,NULL
1687281583,0476e01c235bae63883f1768aeab7565,PennController,15,0,experiment,NULL,Selector,choice,Selection,option1,1687281583227,60fd5af9744452c6f69ee234,60fd5af9744452c6f69ee234,12,erase,critical,B,25,erase15.jpg,erase33.jpg,nogoal,option1;option2
1687281583,0476e01c235bae63883f1768aeab7565,PennController,15,0,experiment,NULL,PennController,14,_Trial_,End,1687281583232,60fd5af9744452c6f69ee234,60fd5af9744452c6f69ee234,12,erase,critical,B,25,erase15.jpg,erase33.jpg,nogoal,NULL
