#
# Results on Tuesday June 20 2023 17:22:58 UTC
# USER AGENT: Mozilla/5.0 (Windows NT 10.0; Win64; x64; rv:109.0) Gecko/20100101 Firefox/112.0
# Design number was non-random = 4
#
# Columns below this comment are as follows:
# 1. Results reception time.
# 2. MD5 hash of participant's IP address.
# 3. Controller name.
# 4. Order number of item.
# 5. Inner element number.
# 6. Label.
# 7. Latin Square Group.
# 8. PennElementType.
# 9. PennElementName.
# 10. Parameter.
# 11. Value.
# 12. EventTime.
# 13. PROLIFIC_ID.
# 14. Comments.
1687281778,cd2038640f1816160674142d433e4cea,PennController,2,0,consent,NULL,PennController,0,_Trial_,Start,1687281272569,5d7d41e8ab1788001a3dcb4f,NULL
1687281778,cd2038640f1816160674142d433e4cea,PennController,2,0,consent,NULL,PennController,0,_Header_,Start,1687281272569,5d7d41e8ab1788001a3dcb4f,NULL
1687281778,cd2038640f1816160674142d433e4cea,PennController,2,0,consent,NULL,PennController,0,_Header_,End,1687281272569,5d7d41e8ab1788001a3dcb4f,NULL
1687281778,cd2038640f1816160674142d433e4cea,PennController,2,0,consent,NULL,PennController,0,_Trial_,End,1687281316233,5d7d41e8ab1788001a3dcb4f,NULL
# Columns below this comment are as follows:
# 14. ID.
# 15. Comments.
1687281778,cd2038640f1816160674142d433e4cea,PennController,3,0,intro,NULL,PennController,1,_Trial_,Start,1687281316236,5d7d41e8ab1788001a3dcb4f,5d7d41e8ab1788001a3dcb4f,NULL
1687281778,cd2038640f1816160674142d433e4cea,PennController,3,0,intro,NULL,PennController,1,_Header_,Start,1687281316236,5d7d41e8ab1788001a3dcb4f,5d7d41e8ab1788001a3dcb4f,NULL
1687281778,cd2038640f1816160674142d433e4cea,PennController,3,0,intro,NULL,PennController,1,_Header_,End,1687281316236,5d7d41e8ab1788001a3dcb4f,5d7d41e8ab1788001a3dcb4f,NULL
1687281778,cd2038640f1816160674142d433e4cea,PennController,3,0,intro,NULL,PennController,1,_Trial_,End,1687281370057,5d7d41e8ab1788001a3dcb4f,5d7d41e8ab1788001a3dcb4f,NULL
# Columns below this comment are as follows:
# 15. item_number.
# 16. item.
# 17. type.
# 18. Group.
# 19. prog.
# 20. prev_image.
# 21. next_image.
# 22. height.
# 23. Comments.
1687281778,cd2038640f1816160674142d433e4cea,PennController,11,0,experiment,NULL,PennController,10,_Trial_,Start,1687281370060,5d7d41e8ab1788001a3dcb4f,5d7d41e8ab1788001a3dcb4f,8,cucumber,critical,B,75,cucumber66.jpg,cucumber84.jpg,nogoal,NULL
1687281778,cd2038640f1816160674142d433e4cea,PennController,11,0,experiment,NULL,PennController,10,_Header_,Start,1687281370060,5d7d41e8ab1788001a3dcb4f,5d7d41e8ab1788001a3dcb4f,8,cucumber,critical,B,75,cucumber66.jpg,cucumber84.jpg,nogoal,NULL
1687281778,cd2038640f1816160674142d433e4cea,PennController,11,0,experiment,NULL,PennController,10,_Header_,End,1687281370060,5d7d41e8ab1788001a3dcb4f,5d7d41e8ab1788001a3dcb4f,8,cucumber,critical,B,75,cucumber66.jpg,cucumber84.jpg,nogoal,NULL
1687281778,cd2038640f1816160674142d433e4cea,PennController,11,0,experiment,NULL,Video,progression,buffer,0,1687281371599,5d7d41e8ab1788001a3dcb4f,5d7d41e8ab1788001a3dcb4f,8,cucumber,critical,B,75,cucumber66.jpg,cucumber84.jpg,nogoal,NULL
1687281778,cd2038640f1816160674142d433e4cea,PennController,11,0,experiment,NULL,Canvas,canvas6,Print,NA,1687281377997,5d7d41e8ab1788001a3dcb4f,5d7d41e8ab1788001a3dcb4f,8,cucumber,critical,B,75,cucumber66.jpg,cucumber84.jpg,nogoal,NULL
1687281778,cd2038640f1816160674142d433e4cea,PennController,11,0,experiment,NULL,Selector,choice,Selection,option1,1687281388230,5d7d41e8ab1788001a3dcb4f,5d7d41e8ab1788001a3dcb4f,8,cucumber,critical,B,75,cucumber66.jpg,cucumber84.jpg,nogoal,option2;option1
1687281778,cd2038640f1816160674142d433e4cea,PennController,11,0,experiment,NULL,PennController,10,_Trial_,End,1687281388231,5d7d41e8ab1788001a3dcb4f,5d7d41e8ab1788001a3dcb4f,8,cucumber,critical,B,75,cucumber66.jpg,cucumber84.jpg,nogoal,NULL
1687281778,cd2038640f1816160674142d433e4cea,PennController,24,0,experiment,NULL,PennController,23,_Trial_,Start,1687281388233,5d7d41e8ab1788001a3dcb4f,5d7d41e8ab1788001a3dcb4f,21,visit,filler,B,25,visit15.jpg,visit35.jpg,nogoal,NULL
1687281778,cd2038640f1816160674142d433e4cea,PennController,24,0,experiment,NULL,PennController,23,_Header_,Start,1687281388233,5d7d41e8ab1788001a3dcb4f,5d7d41e8ab1788001a3dcb4f,21,visit,filler,B,25,visit15.jpg,visit35.jpg,nogoal,NULL
1687281778,cd2038640f1816160674142d433e4cea,PennController,24,0,experiment,NULL,PennController,23,_Header_,End,1687281388233,5d7d41e8ab1788001a3dcb4f,5d7d41e8ab1788001a3dcb4f,21,visit,filler,B,25,visit15.jpg,visit35.jpg,nogoal,NULL
1687281778,cd2038640f1816160674142d433e4cea,PennController,24,0,experiment,NULL,Video,progression,buffer,0,1687281389771,5d7d41e8ab1788001a3dcb4f,5d7d41e8ab1788001a3dcb4f,21,visit,filler,B,25,visit15.jpg,visit35.jpg,nogoal,NULL
1687281778,cd2038640f1816160674142d433e4cea,PennController,24,0,experiment,NULL,Canvas,canvas6,Print,NA,1687281392025,5d7d41e8ab1788001a3dcb4f,5d7d41e8ab1788001a3dcb4f,21,visit,filler,B,25,visit15.jpg,visit35.jpg,nogoal,NULL
1687281778,cd2038640f1816160674142d433e4cea,PennController,24,0,experiment,NULL,Selector,choice,Selection,option2,1687281503342,5d7d41e8ab1788001a3dcb4f,5d7d41e8ab1788001a3dcb4f,21,visit,filler,B,25,visit15.jpg,visit35.jpg,nogoal,option2;option1
1687281778,cd2038640f1816160674142d433e4cea,PennController,24,0,experiment,NULL,PennController,23,_Trial_,End,1687281503344,5d7d41e8ab1788001a3dcb4f,5d7d41e8ab1788001a3dcb4f,21,visit,filler,B,25,visit15.jpg,visit35.jpg,nogoal,NULL
1687281778,cd2038640f1816160674142d433e4cea,PennController,16,0,experiment,NULL,PennController,15,_Trial_,Start,1687281503346,5d7d41e8ab1788001a3dcb4f,5d7d41e8ab1788001a3dcb4f,13,mix,critical,B,50,mix40.jpg,mix60.jpg,nogoal,NULL
1687281778,cd2038640f1816160674142d433e4cea,PennController,16,0,experiment,NULL,PennController,15,_Header_,Start,1687281503346,5d7d41e8ab1788001a3dcb4f,5d7d41e8ab1788001a3dcb4f,13,mix,critical,B,50,mix40.jpg,mix60.jpg,nogoal,NULL
1687281778,cd2038640f1816160674142d433e4cea,PennController,16,0,experiment,NULL,PennController,15,_Header_,End,1687281503346,5d7d41e8ab1788001a3dcb4f,5d7d41e8ab1788001a3dcb4f,13,mix,critical,B,50,mix40.jpg,mix60.jpg,nogoal,NULL
1687281778,cd2038640f1816160674142d433e4cea,PennController,16,0,experiment,NULL,Video,progression,buffer,0,1687281504870,5d7d41e8ab1788001a3dcb4f,5d7d41e8ab1788001a3dcb4f,13,mix,critical,B,50,mix40.jpg,mix60.jpg,nogoal,NULL
1687281778,cd2038640f1816160674142d433e4cea,PennController,16,0,experiment,NULL,Canvas,canvas6,Print,NA,1687281508134,5d7d41e8ab1788001a3dcb4f,5d7d41e8ab1788001a3dcb4f,13,mix,critical,B,50,mix40.jpg,mix60.jpg,nogoal,NULL
1687281778,cd2038640f1816160674142d433e4cea,PennController,16,0,experiment,NULL,Selector,choice,Selection,option2,1687281509941,5d7d41e8ab1788001a3dcb4f,5d7d41e8ab1788001a3dcb4f,13,mix,critical,B,50,mix40.jpg,mix60.jpg,nogoal,option2;option1
1687281778,cd2038640f1816160674142d433e4cea,PennController,16,0,experiment,NULL,PennController,15,_Trial_,End,1687281509942,5d7d41e8ab1788001a3dcb4f,5d7d41e8ab1788001a3dcb4f,13,mix,critical,B,50,mix40.jpg,mix60.jpg,nogoal,NULL
1687281778,cd2038640f1816160674142d433e4cea,PennController,4,0,experiment,NULL,PennController,3,_Trial_,Start,1687281509944,5d7d41e8ab1788001a3dcb4f,5d7d41e8ab1788001a3dcb4f,1,vase,critical,B,50,vase40.jpg,vase60.jpg,nogoal,NULL
1687281778,cd2038640f1816160674142d433e4cea,PennController,4,0,experiment,NULL,PennController,3,_Header_,Start,1687281509944,5d7d41e8ab1788001a3dcb4f,5d7d41e8ab1788001a3dcb4f,1,vase,critical,B,50,vase40.jpg,vase60.jpg,nogoal,NULL
1687281778,cd2038640f1816160674142d433e4cea,PennController,4,0,experiment,NULL,PennController,3,_Header_,End,1687281509944,5d7d41e8ab1788001a3dcb4f,5d7d41e8ab1788001a3dcb4f,1,vase,critical,B,50,vase40.jpg,vase60.jpg,nogoal,NULL
1687281778,cd2038640f1816160674142d433e4cea,PennController,4,0,experiment,NULL,Video,progression,buffer,0,1687281511466,5d7d41e8ab1788001a3dcb4f,5d7d41e8ab1788001a3dcb4f,1,vase,critical,B,50,vase40.jpg,vase60.jpg,nogoal,NULL
1687281778,cd2038640f1816160674142d433e4cea,PennController,4,0,experiment,NULL,Canvas,canvas6,Print,NA,1687281514706,5d7d41e8ab1788001a3dcb4f,5d7d41e8ab1788001a3dcb4f,1,vase,critical,B,50,vase40.jpg,vase60.jpg,nogoal,NULL
1687281778,cd2038640f1816160674142d433e4cea,PennController,4,0,experiment,NULL,Selector,choice,Selection,option1,1687281518533,5d7d41e8ab1788001a3dcb4f,5d7d41e8ab1788001a3dcb4f,1,vase,critical,B,50,vase40.jpg,vase60.jpg,nogoal,option1;option2
1687281778,cd2038640f1816160674142d433e4cea,PennController,4,0,experiment,NULL,PennController,3,_Trial_,End,1687281518534,5d7d41e8ab1788001a3dcb4f,5d7d41e8ab1788001a3dcb4f,1,vase,critical,B,50,vase40.jpg,vase60.jpg,nogoal,NULL
1687281778,cd2038640f1816160674142d433e4cea,PennController,17,0,experiment,NULL,PennController,16,_Trial_,Start,1687281518535,5d7d41e8ab1788001a3dcb4f,5d7d41e8ab1788001a3dcb4f,14,cover,critical,B,75,cover66.jpg,cover84.jpg,nogoal,NULL
1687281778,cd2038640f1816160674142d433e4cea,PennController,17,0,experiment,NULL,PennController,16,_Header_,Start,1687281518535,5d7d41e8ab1788001a3dcb4f,5d7d41e8ab1788001a3dcb4f,14,cover,critical,B,75,cover66.jpg,cover84.jpg,nogoal,NULL
1687281778,cd2038640f1816160674142d433e4cea,PennController,17,0,experiment,NULL,PennController,16,_Header_,End,1687281518535,5d7d41e8ab1788001a3dcb4f,5d7d41e8ab1788001a3dcb4f,14,cover,critical,B,75,cover66.jpg,cover84.jpg,nogoal,NULL
1687281778,cd2038640f1816160674142d433e4cea,PennController,17,0,experiment,NULL,Video,progression,buffer,0,1687281520063,5d7d41e8ab1788001a3dcb4f,5d7d41e8ab1788001a3dcb4f,14,cover,critical,B,75,cover66.jpg,cover84.jpg,nogoal,NULL
1687281778,cd2038640f1816160674142d433e4cea,PennController,17,0,experiment,NULL,Canvas,canvas6,Print,NA,1687281526312,5d7d41e8ab1788001a3dcb4f,5d7d41e8ab1788001a3dcb4f,14,cover,critical,B,75,cover66.jpg,cover84.jpg,nogoal,NULL
1687281778,cd2038640f1816160674142d433e4cea,PennController,17,0,experiment,NULL,Selector,choice,Selection,option2,1687281527965,5d7d41e8ab1788001a3dcb4f,5d7d41e8ab1788001a3dcb4f,14,cover,critical,B,75,cover66.jpg,cover84.jpg,nogoal,option2;option1
1687281778,cd2038640f1816160674142d433e4cea,PennController,17,0,experiment,NULL,PennController,16,_Trial_,End,1687281527966,5d7d41e8ab1788001a3dcb4f,5d7d41e8ab1788001a3dcb4f,14,cover,critical,B,75,cover66.jpg,cover84.jpg,nogoal,NULL
1687281778,cd2038640f1816160674142d433e4cea,PennController,5,0,experiment,NULL,PennController,4,_Trial_,Start,1687281527967,5d7d41e8ab1788001a3dcb4f,5d7d41e8ab1788001a3dcb4f,2,door,critical,B,75,door65.jpg,door85.jpg,nogoal,NULL
1687281778,cd2038640f1816160674142d433e4cea,PennController,5,0,experiment,NULL,PennController,4,_Header_,Start,1687281527967,5d7d41e8ab1788001a3dcb4f,5d7d41e8ab1788001a3dcb4f,2,door,critical,B,75,door65.jpg,door85.jpg,nogoal,NULL
1687281778,cd2038640f1816160674142d433e4cea,PennController,5,0,experiment,NULL,PennController,4,_Header_,End,1687281527967,5d7d41e8ab1788001a3dcb4f,5d7d41e8ab1788001a3dcb4f,2,door,critical,B,75,door65.jpg,door85.jpg,nogoal,NULL
1687281778,cd2038640f1816160674142d433e4cea,PennController,5,0,experiment,NULL,Video,progression,buffer,0,1687281529489,5d7d41e8ab1788001a3dcb4f,5d7d41e8ab1788001a3dcb4f,2,door,critical,B,75,door65.jpg,door85.jpg,nogoal,NULL
1687281778,cd2038640f1816160674142d433e4cea,PennController,5,0,experiment,NULL,Canvas,canvas6,Print,NA,1687281533741,5d7d41e8ab1788001a3dcb4f,5d7d41e8ab1788001a3dcb4f,2,door,critical,B,75,door65.jpg,door85.jpg,nogoal,NULL
1687281778,cd2038640f1816160674142d433e4cea,PennController,5,0,experiment,NULL,Selector,choice,Selection,option2,1687281535693,5d7d41e8ab1788001a3dcb4f,5d7d41e8ab1788001a3dcb4f,2,door,critical,B,75,door65.jpg,door85.jpg,nogoal,option1;option2
1687281778,cd2038640f1816160674142d433e4cea,PennController,5,0,experiment,NULL,PennController,4,_Trial_,End,1687281535695,5d7d41e8ab1788001a3dcb4f,5d7d41e8ab1788001a3dcb4f,2,door,critical,B,75,door65.jpg,door85.jpg,nogoal,NULL
1687281778,cd2038640f1816160674142d433e4cea,PennController,10,0,experiment,NULL,PennController,9,_Trial_,Start,1687281535695,5d7d41e8ab1788001a3dcb4f,5d7d41e8ab1788001a3dcb4f,7,stack,critical,B,50,stack40.jpg,stack60.jpg,nogoal,NULL
1687281778,cd2038640f1816160674142d433e4cea,PennController,10,0,experiment,NULL,PennController,9,_Header_,Start,1687281535695,5d7d41e8ab1788001a3dcb4f,5d7d41e8ab1788001a3dcb4f,7,stack,critical,B,50,stack40.jpg,stack60.jpg,nogoal,NULL
1687281778,cd2038640f1816160674142d433e4cea,PennController,10,0,experiment,NULL,PennController,9,_Header_,End,1687281535695,5d7d41e8ab1788001a3dcb4f,5d7d41e8ab1788001a3dcb4f,7,stack,critical,B,50,stack40.jpg,stack60.jpg,nogoal,NULL
1687281778,cd2038640f1816160674142d433e4cea,PennController,10,0,experiment,NULL,Video,progression,buffer,0,1687281537215,5d7d41e8ab1788001a3dcb4f,5d7d41e8ab1788001a3dcb4f,7,stack,critical,B,50,stack40.jpg,stack60.jpg,nogoal,NULL
1687281778,cd2038640f1816160674142d433e4cea,PennController,10,0,experiment,NULL,Canvas,canvas6,Print,NA,1687281540453,5d7d41e8ab1788001a3dcb4f,5d7d41e8ab1788001a3dcb4f,7,stack,critical,B,50,stack40.jpg,stack60.jpg,nogoal,NULL
1687281778,cd2038640f1816160674142d433e4cea,PennController,10,0,experiment,NULL,Selector,choice,Selection,option2,1687281544461,5d7d41e8ab1788001a3dcb4f,5d7d41e8ab1788001a3dcb4f,7,stack,critical,B,50,stack40.jpg,stack60.jpg,nogoal,option1;option2
1687281778,cd2038640f1816160674142d433e4cea,PennController,10,0,experiment,NULL,PennController,9,_Trial_,End,1687281544463,5d7d41e8ab1788001a3dcb4f,5d7d41e8ab1788001a3dcb4f,7,stack,critical,B,50,stack40.jpg,stack60.jpg,nogoal,NULL
1687281778,cd2038640f1816160674142d433e4cea,PennController,26,0,experiment,NULL,PennController,25,_Trial_,Start,1687281544464,5d7d41e8ab1788001a3dcb4f,5d7d41e8ab1788001a3dcb4f,23,color,filler,B,75,color65.jpg,color85.jpg,nogoal,NULL
1687281778,cd2038640f1816160674142d433e4cea,PennController,26,0,experiment,NULL,PennController,25,_Header_,Start,1687281544464,5d7d41e8ab1788001a3dcb4f,5d7d41e8ab1788001a3dcb4f,23,color,filler,B,75,color65.jpg,color85.jpg,nogoal,NULL
1687281778,cd2038640f1816160674142d433e4cea,PennController,26,0,experiment,NULL,PennController,25,_Header_,End,1687281544464,5d7d41e8ab1788001a3dcb4f,5d7d41e8ab1788001a3dcb4f,23,color,filler,B,75,color65.jpg,color85.jpg,nogoal,NULL
1687281778,cd2038640f1816160674142d433e4cea,PennController,26,0,experiment,NULL,Video,progression,buffer,0,1687281545990,5d7d41e8ab1788001a3dcb4f,5d7d41e8ab1788001a3dcb4f,23,color,filler,B,75,color65.jpg,color85.jpg,nogoal,NULL
1687281778,cd2038640f1816160674142d433e4cea,PennController,26,0,experiment,NULL,Canvas,canvas6,Print,NA,1687281550238,5d7d41e8ab1788001a3dcb4f,5d7d41e8ab1788001a3dcb4f,23,color,filler,B,75,color65.jpg,color85.jpg,nogoal,NULL
1687281778,cd2038640f1816160674142d433e4cea,PennController,26,0,experiment,NULL,Selector,choice,Selection,option2,1687281554381,5d7d41e8ab1788001a3dcb4f,5d7d41e8ab1788001a3dcb4f,23,color,filler,B,75,color65.jpg,color85.jpg,nogoal,option2;option1
1687281778,cd2038640f1816160674142d433e4cea,PennController,26,0,experiment,NULL,PennController,25,_Trial_,End,1687281554382,5d7d41e8ab1788001a3dcb4f,5d7d41e8ab1788001a3dcb4f,23,color,filler,B,75,color65.jpg,color85.jpg,nogoal,NULL
1687281778,cd2038640f1816160674142d433e4cea,PennController,8,0,experiment,NULL,PennController,7,_Trial_,Start,1687281554383,5d7d41e8ab1788001a3dcb4f,5d7d41e8ab1788001a3dcb4f,5,book,critical,B,75,book65.jpg,book85.jpg,nogoal,NULL
1687281778,cd2038640f1816160674142d433e4cea,PennController,8,0,experiment,NULL,PennController,7,_Header_,Start,1687281554383,5d7d41e8ab1788001a3dcb4f,5d7d41e8ab1788001a3dcb4f,5,book,critical,B,75,book65.jpg,book85.jpg,nogoal,NULL
1687281778,cd2038640f1816160674142d433e4cea,PennController,8,0,experiment,NULL,PennController,7,_Header_,End,1687281554383,5d7d41e8ab1788001a3dcb4f,5d7d41e8ab1788001a3dcb4f,5,book,critical,B,75,book65.jpg,book85.jpg,nogoal,NULL
1687281778,cd2038640f1816160674142d433e4cea,PennController,8,0,experiment,NULL,Video,progression,buffer,0,1687281555906,5d7d41e8ab1788001a3dcb4f,5d7d41e8ab1788001a3dcb4f,5,book,critical,B,75,book65.jpg,book85.jpg,nogoal,NULL
1687281778,cd2038640f1816160674142d433e4cea,PennController,8,0,experiment,NULL,Canvas,canvas6,Print,NA,1687281560147,5d7d41e8ab1788001a3dcb4f,5d7d41e8ab1788001a3dcb4f,5,book,critical,B,75,book65.jpg,book85.jpg,nogoal,NULL
1687281778,cd2038640f1816160674142d433e4cea,PennController,8,0,experiment,NULL,Selector,choice,Selection,option1,1687281622334,5d7d41e8ab1788001a3dcb4f,5d7d41e8ab1788001a3dcb4f,5,book,critical,B,75,book65.jpg,book85.jpg,nogoal,option1;option2
1687281778,cd2038640f1816160674142d433e4cea,PennController,8,0,experiment,NULL,PennController,7,_Trial_,End,1687281622335,5d7d41e8ab1788001a3dcb4f,5d7d41e8ab1788001a3dcb4f,5,book,critical,B,75,book65.jpg,book85.jpg,nogoal,NULL
1687281778,cd2038640f1816160674142d433e4cea,PennController,13,0,experiment,NULL,PennController,12,_Trial_,Start,1687281622336,5d7d41e8ab1788001a3dcb4f,5d7d41e8ab1788001a3dcb4f,10,train,critical,B,50,train40.jpg,train60.jpg,nogoal,NULL
1687281778,cd2038640f1816160674142d433e4cea,PennController,13,0,experiment,NULL,PennController,12,_Header_,Start,1687281622336,5d7d41e8ab1788001a3dcb4f,5d7d41e8ab1788001a3dcb4f,10,train,critical,B,50,train40.jpg,train60.jpg,nogoal,NULL
1687281778,cd2038640f1816160674142d433e4cea,PennController,13,0,experiment,NULL,PennController,12,_Header_,End,1687281622336,5d7d41e8ab1788001a3dcb4f,5d7d41e8ab1788001a3dcb4f,10,train,critical,B,50,train40.jpg,train60.jpg,nogoal,NULL
1687281778,cd2038640f1816160674142d433e4cea,PennController,13,0,experiment,NULL,Video,progression,buffer,0,1687281623852,5d7d41e8ab1788001a3dcb4f,5d7d41e8ab1788001a3dcb4f,10,train,critical,B,50,train40.jpg,train60.jpg,nogoal,NULL
1687281778,cd2038640f1816160674142d433e4cea,PennController,13,0,experiment,NULL,Canvas,canvas6,Print,NA,1687281627099,5d7d41e8ab1788001a3dcb4f,5d7d41e8ab1788001a3dcb4f,10,train,critical,B,50,train40.jpg,train60.jpg,nogoal,NULL
1687281778,cd2038640f1816160674142d433e4cea,PennController,13,0,experiment,NULL,Selector,choice,Selection,option2,1687281628533,5d7d41e8ab1788001a3dcb4f,5d7d41e8ab1788001a3dcb4f,10,train,critical,B,50,train40.jpg,train60.jpg,nogoal,option2;option1
1687281778,cd2038640f1816160674142d433e4cea,PennController,13,0,experiment,NULL,PennController,12,_Trial_,End,1687281628534,5d7d41e8ab1788001a3dcb4f,5d7d41e8ab1788001a3dcb4f,10,train,critical,B,50,train40.jpg,train60.jpg,nogoal,NULL
1687281778,cd2038640f1816160674142d433e4cea,PennController,21,0,experiment,NULL,PennController,20,_Trial_,Start,1687281628535,5d7d41e8ab1788001a3dcb4f,5d7d41e8ab1788001a3dcb4f,18,ball,critical,B,25,ball15.jpg,ball35.jpg,nogoal,NULL
1687281778,cd2038640f1816160674142d433e4cea,PennController,21,0,experiment,NULL,PennController,20,_Header_,Start,1687281628535,5d7d41e8ab1788001a3dcb4f,5d7d41e8ab1788001a3dcb4f,18,ball,critical,B,25,ball15.jpg,ball35.jpg,nogoal,NULL
1687281778,cd2038640f1816160674142d433e4cea,PennController,21,0,experiment,NULL,PennController,20,_Header_,End,1687281628535,5d7d41e8ab1788001a3dcb4f,5d7d41e8ab1788001a3dcb4f,18,ball,critical,B,25,ball15.jpg,ball35.jpg,nogoal,NULL
1687281778,cd2038640f1816160674142d433e4cea,PennController,21,0,experiment,NULL,Video,progression,buffer,0,1687281630051,5d7d41e8ab1788001a3dcb4f,5d7d41e8ab1788001a3dcb4f,18,ball,critical,B,25,ball15.jpg,ball35.jpg,nogoal,NULL
1687281778,cd2038640f1816160674142d433e4cea,PennController,21,0,experiment,NULL,Canvas,canvas6,Print,NA,1687281632296,5d7d41e8ab1788001a3dcb4f,5d7d41e8ab1788001a3dcb4f,18,ball,critical,B,25,ball15.jpg,ball35.jpg,nogoal,NULL
1687281778,cd2038640f1816160674142d433e4cea,PennController,21,0,experiment,NULL,Selector,choice,Selection,option2,1687281635845,5d7d41e8ab1788001a3dcb4f,5d7d41e8ab1788001a3dcb4f,18,ball,critical,B,25,ball15.jpg,ball35.jpg,nogoal,option1;option2
1687281778,cd2038640f1816160674142d433e4cea,PennController,21,0,experiment,NULL,PennController,20,_Trial_,End,1687281635846,5d7d41e8ab1788001a3dcb4f,5d7d41e8ab1788001a3dcb4f,18,ball,critical,B,25,ball15.jpg,ball35.jpg,nogoal,NULL
1687281778,cd2038640f1816160674142d433e4cea,PennController,14,0,experiment,NULL,PennController,13,_Trial_,Start,1687281635847,5d7d41e8ab1788001a3dcb4f,5d7d41e8ab1788001a3dcb4f,11,beads,critical,B,75,beads65.jpg,beads85.jpg,nogoal,NULL
1687281778,cd2038640f1816160674142d433e4cea,PennController,14,0,experiment,NULL,PennController,13,_Header_,Start,1687281635847,5d7d41e8ab1788001a3dcb4f,5d7d41e8ab1788001a3dcb4f,11,beads,critical,B,75,beads65.jpg,beads85.jpg,nogoal,NULL
1687281778,cd2038640f1816160674142d433e4cea,PennController,14,0,experiment,NULL,PennController,13,_Header_,End,1687281635847,5d7d41e8ab1788001a3dcb4f,5d7d41e8ab1788001a3dcb4f,11,beads,critical,B,75,beads65.jpg,beads85.jpg,nogoal,NULL
1687281778,cd2038640f1816160674142d433e4cea,PennController,14,0,experiment,NULL,Video,progression,buffer,0,1687281637371,5d7d41e8ab1788001a3dcb4f,5d7d41e8ab1788001a3dcb4f,11,beads,critical,B,75,beads65.jpg,beads85.jpg,nogoal,NULL
1687281778,cd2038640f1816160674142d433e4cea,PennController,14,0,experiment,NULL,Canvas,canvas6,Print,NA,1687281641616,5d7d41e8ab1788001a3dcb4f,5d7d41e8ab1788001a3dcb4f,11,beads,critical,B,75,beads65.jpg,beads85.jpg,nogoal,NULL
1687281778,cd2038640f1816160674142d433e4cea,PennController,14,0,experiment,NULL,Selector,choice,Selection,option2,1687281644317,5d7d41e8ab1788001a3dcb4f,5d7d41e8ab1788001a3dcb4f,11,beads,critical,B,75,beads65.jpg,beads85.jpg,nogoal,option2;option1
1687281778,cd2038640f1816160674142d433e4cea,PennController,14,0,experiment,NULL,PennController,13,_Trial_,End,1687281644318,5d7d41e8ab1788001a3dcb4f,5d7d41e8ab1788001a3dcb4f,11,beads,critical,B,75,beads65.jpg,beads85.jpg,nogoal,NULL
1687281778,cd2038640f1816160674142d433e4cea,PennController,25,0,experiment,NULL,PennController,24,_Trial_,Start,1687281644319,5d7d41e8ab1788001a3dcb4f,5d7d41e8ab1788001a3dcb4f,22,wall,filler,B,50,wall40.jpg,wall60.jpg,nogoal,NULL
1687281778,cd2038640f1816160674142d433e4cea,PennController,25,0,experiment,NULL,PennController,24,_Header_,Start,1687281644319,5d7d41e8ab1788001a3dcb4f,5d7d41e8ab1788001a3dcb4f,22,wall,filler,B,50,wall40.jpg,wall60.jpg,nogoal,NULL
1687281778,cd2038640f1816160674142d433e4cea,PennController,25,0,experiment,NULL,PennController,24,_Header_,End,1687281644319,5d7d41e8ab1788001a3dcb4f,5d7d41e8ab1788001a3dcb4f,22,wall,filler,B,50,wall40.jpg,wall60.jpg,nogoal,NULL
1687281778,cd2038640f1816160674142d433e4cea,PennController,25,0,experiment,NULL,Video,progression,buffer,0,1687281645842,5d7d41e8ab1788001a3dcb4f,5d7d41e8ab1788001a3dcb4f,22,wall,filler,B,50,wall40.jpg,wall60.jpg,nogoal,NULL
1687281778,cd2038640f1816160674142d433e4cea,PennController,25,0,experiment,NULL,Canvas,canvas6,Print,NA,1687281649094,5d7d41e8ab1788001a3dcb4f,5d7d41e8ab1788001a3dcb4f,22,wall,filler,B,50,wall40.jpg,wall60.jpg,nogoal,NULL
1687281778,cd2038640f1816160674142d433e4cea,PennController,25,0,experiment,NULL,Selector,choice,Selection,option2,1687281651173,5d7d41e8ab1788001a3dcb4f,5d7d41e8ab1788001a3dcb4f,22,wall,filler,B,50,wall40.jpg,wall60.jpg,nogoal,option2;option1
1687281778,cd2038640f1816160674142d433e4cea,PennController,25,0,experiment,NULL,PennController,24,_Trial_,End,1687281651174,5d7d41e8ab1788001a3dcb4f,5d7d41e8ab1788001a3dcb4f,22,wall,filler,B,50,wall40.jpg,wall60.jpg,nogoal,NULL
1687281778,cd2038640f1816160674142d433e4cea,PennController,22,0,experiment,NULL,PennController,21,_Trial_,Start,1687281651175,5d7d41e8ab1788001a3dcb4f,5d7d41e8ab1788001a3dcb4f,19,cup,filler,B,50,cup40.jpg,cup60.jpg,nogoal,NULL
1687281778,cd2038640f1816160674142d433e4cea,PennController,22,0,experiment,NULL,PennController,21,_Header_,Start,1687281651175,5d7d41e8ab1788001a3dcb4f,5d7d41e8ab1788001a3dcb4f,19,cup,filler,B,50,cup40.jpg,cup60.jpg,nogoal,NULL
1687281778,cd2038640f1816160674142d433e4cea,PennController,22,0,experiment,NULL,PennController,21,_Header_,End,1687281651175,5d7d41e8ab1788001a3dcb4f,5d7d41e8ab1788001a3dcb4f,19,cup,filler,B,50,cup40.jpg,cup60.jpg,nogoal,NULL
1687281778,cd2038640f1816160674142d433e4cea,PennController,22,0,experiment,NULL,Video,progression,buffer,0,1687281652695,5d7d41e8ab1788001a3dcb4f,5d7d41e8ab1788001a3dcb4f,19,cup,filler,B,50,cup40.jpg,cup60.jpg,nogoal,NULL
1687281778,cd2038640f1816160674142d433e4cea,PennController,22,0,experiment,NULL,Canvas,canvas6,Print,NA,1687281655942,5d7d41e8ab1788001a3dcb4f,5d7d41e8ab1788001a3dcb4f,19,cup,filler,B,50,cup40.jpg,cup60.jpg,nogoal,NULL
1687281778,cd2038640f1816160674142d433e4cea,PennController,22,0,experiment,NULL,Selector,choice,Selection,option2,1687281663702,5d7d41e8ab1788001a3dcb4f,5d7d41e8ab1788001a3dcb4f,19,cup,filler,B,50,cup40.jpg,cup60.jpg,nogoal,option2;option1
1687281778,cd2038640f1816160674142d433e4cea,PennController,22,0,experiment,NULL,PennController,21,_Trial_,End,1687281663702,5d7d41e8ab1788001a3dcb4f,5d7d41e8ab1788001a3dcb4f,19,cup,filler,B,50,cup40.jpg,cup60.jpg,nogoal,NULL
1687281778,cd2038640f1816160674142d433e4cea,PennController,29,0,experiment,NULL,PennController,28,_Trial_,Start,1687281663703,5d7d41e8ab1788001a3dcb4f,5d7d41e8ab1788001a3dcb4f,26,sandwich,filler,B,75,sandwich65.jpg,sandwich85.jpg,nogoal,NULL
1687281778,cd2038640f1816160674142d433e4cea,PennController,29,0,experiment,NULL,PennController,28,_Header_,Start,1687281663703,5d7d41e8ab1788001a3dcb4f,5d7d41e8ab1788001a3dcb4f,26,sandwich,filler,B,75,sandwich65.jpg,sandwich85.jpg,nogoal,NULL
1687281778,cd2038640f1816160674142d433e4cea,PennController,29,0,experiment,NULL,PennController,28,_Header_,End,1687281663703,5d7d41e8ab1788001a3dcb4f,5d7d41e8ab1788001a3dcb4f,26,sandwich,filler,B,75,sandwich65.jpg,sandwich85.jpg,nogoal,NULL
1687281778,cd2038640f1816160674142d433e4cea,PennController,29,0,experiment,NULL,Video,progression,buffer,0,1687281665227,5d7d41e8ab1788001a3dcb4f,5d7d41e8ab1788001a3dcb4f,26,sandwich,filler,B,75,sandwich65.jpg,sandwich85.jpg,nogoal,NULL
1687281778,cd2038640f1816160674142d433e4cea,PennController,29,0,experiment,NULL,Canvas,canvas6,Print,NA,1687281669460,5d7d41e8ab1788001a3dcb4f,5d7d41e8ab1788001a3dcb4f,26,sandwich,filler,B,75,sandwich65.jpg,sandwich85.jpg,nogoal,NULL
1687281778,cd2038640f1816160674142d433e4cea,PennController,29,0,experiment,NULL,Selector,choice,Selection,option2,1687281670901,5d7d41e8ab1788001a3dcb4f,5d7d41e8ab1788001a3dcb4f,26,sandwich,filler,B,75,sandwich65.jpg,sandwich85.jpg,nogoal,option2;option1
1687281778,cd2038640f1816160674142d433e4cea,PennController,29,0,experiment,NULL,PennController,28,_Trial_,End,1687281670902,5d7d41e8ab1788001a3dcb4f,5d7d41e8ab1788001a3dcb4f,26,sandwich,filler,B,75,sandwich65.jpg,sandwich85.jpg,nogoal,NULL
1687281778,cd2038640f1816160674142d433e4cea,PennController,15,0,experiment,NULL,PennController,14,_Trial_,Start,1687281670903,5d7d41e8ab1788001a3dcb4f,5d7d41e8ab1788001a3dcb4f,12,erase,critical,B,25,erase15.jpg,erase33.jpg,nogoal,NULL
1687281778,cd2038640f1816160674142d433e4cea,PennController,15,0,experiment,NULL,PennController,14,_Header_,Start,1687281670903,5d7d41e8ab1788001a3dcb4f,5d7d41e8ab1788001a3dcb4f,12,erase,critical,B,25,erase15.jpg,erase33.jpg,nogoal,NULL
1687281778,cd2038640f1816160674142d433e4cea,PennController,15,0,experiment,NULL,PennController,14,_Header_,End,1687281670903,5d7d41e8ab1788001a3dcb4f,5d7d41e8ab1788001a3dcb4f,12,erase,critical,B,25,erase15.jpg,erase33.jpg,nogoal,NULL
1687281778,cd2038640f1816160674142d433e4cea,PennController,15,0,experiment,NULL,Video,progression,buffer,0,1687281672417,5d7d41e8ab1788001a3dcb4f,5d7d41e8ab1788001a3dcb4f,12,erase,critical,B,25,erase15.jpg,erase33.jpg,nogoal,NULL
1687281778,cd2038640f1816160674142d433e4cea,PennController,15,0,experiment,NULL,Canvas,canvas6,Print,NA,1687281675264,5d7d41e8ab1788001a3dcb4f,5d7d41e8ab1788001a3dcb4f,12,erase,critical,B,25,erase15.jpg,erase33.jpg,nogoal,NULL
1687281778,cd2038640f1816160674142d433e4cea,PennController,15,0,experiment,NULL,Selector,choice,Selection,option2,1687281677045,5d7d41e8ab1788001a3dcb4f,5d7d41e8ab1788001a3dcb4f,12,erase,critical,B,25,erase15.jpg,erase33.jpg,nogoal,option1;option2
1687281778,cd2038640f1816160674142d433e4cea,PennController,15,0,experiment,NULL,PennController,14,_Trial_,End,1687281677046,5d7d41e8ab1788001a3dcb4f,5d7d41e8ab1788001a3dcb4f,12,erase,critical,B,25,erase15.jpg,erase33.jpg,nogoal,NULL
1687281778,cd2038640f1816160674142d433e4cea,PennController,27,0,experiment,NULL,PennController,26,_Trial_,Start,1687281677047,5d7d41e8ab1788001a3dcb4f,5d7d41e8ab1788001a3dcb4f,24,match,filler,B,25,match15.jpg,match35.jpg,nogoal,NULL
1687281778,cd2038640f1816160674142d433e4cea,PennController,27,0,experiment,NULL,PennController,26,_Header_,Start,1687281677047,5d7d41e8ab1788001a3dcb4f,5d7d41e8ab1788001a3dcb4f,24,match,filler,B,25,match15.jpg,match35.jpg,nogoal,NULL
1687281778,cd2038640f1816160674142d433e4cea,PennController,27,0,experiment,NULL,PennController,26,_Header_,End,1687281677047,5d7d41e8ab1788001a3dcb4f,5d7d41e8ab1788001a3dcb4f,24,match,filler,B,25,match15.jpg,match35.jpg,nogoal,NULL
1687281778,cd2038640f1816160674142d433e4cea,PennController,27,0,experiment,NULL,Video,progression,buffer,0,1687281678560,5d7d41e8ab1788001a3dcb4f,5d7d41e8ab1788001a3dcb4f,24,match,filler,B,25,match15.jpg,match35.jpg,nogoal,NULL
1687281778,cd2038640f1816160674142d433e4cea,PennController,27,0,experiment,NULL,Canvas,canvas6,Print,NA,1687281680802,5d7d41e8ab1788001a3dcb4f,5d7d41e8ab1788001a3dcb4f,24,match,filler,B,25,match15.jpg,match35.jpg,nogoal,NULL
1687281778,cd2038640f1816160674142d433e4cea,PennController,27,0,experiment,NULL,Selector,choice,Selection,option2,1687281683373,5d7d41e8ab1788001a3dcb4f,5d7d41e8ab1788001a3dcb4f,24,match,filler,B,25,match15.jpg,match35.jpg,nogoal,option2;option1
1687281778,cd2038640f1816160674142d433e4cea,PennController,27,0,experiment,NULL,PennController,26,_Trial_,End,1687281683374,5d7d41e8ab1788001a3dcb4f,5d7d41e8ab1788001a3dcb4f,24,match,filler,B,25,match15.jpg,match35.jpg,nogoal,NULL
1687281778,cd2038640f1816160674142d433e4cea,PennController,9,0,experiment,NULL,PennController,8,_Trial_,Start,1687281683374,5d7d41e8ab1788001a3dcb4f,5d7d41e8ab1788001a3dcb4f,6,flower,critical,B,25,flower15.jpg,flower35.jpg,nogoal,NULL
1687281778,cd2038640f1816160674142d433e4cea,PennController,9,0,experiment,NULL,PennController,8,_Header_,Start,1687281683374,5d7d41e8ab1788001a3dcb4f,5d7d41e8ab1788001a3dcb4f,6,flower,critical,B,25,flower15.jpg,flower35.jpg,nogoal,NULL
1687281778,cd2038640f1816160674142d433e4cea,PennController,9,0,experiment,NULL,PennController,8,_Header_,End,1687281683374,5d7d41e8ab1788001a3dcb4f,5d7d41e8ab1788001a3dcb4f,6,flower,critical,B,25,flower15.jpg,flower35.jpg,nogoal,NULL
1687281778,cd2038640f1816160674142d433e4cea,PennController,9,0,experiment,NULL,Video,progression,buffer,0,1687281684896,5d7d41e8ab1788001a3dcb4f,5d7d41e8ab1788001a3dcb4f,6,flower,critical,B,25,flower15.jpg,flower35.jpg,nogoal,NULL
1687281778,cd2038640f1816160674142d433e4cea,PennController,9,0,experiment,NULL,Canvas,canvas6,Print,NA,1687281687141,5d7d41e8ab1788001a3dcb4f,5d7d41e8ab1788001a3dcb4f,6,flower,critical,B,25,flower15.jpg,flower35.jpg,nogoal,NULL
1687281778,cd2038640f1816160674142d433e4cea,PennController,9,0,experiment,NULL,Selector,choice,Selection,option2,1687281688781,5d7d41e8ab1788001a3dcb4f,5d7d41e8ab1788001a3dcb4f,6,flower,critical,B,25,flower15.jpg,flower35.jpg,nogoal,option1;option2
1687281778,cd2038640f1816160674142d433e4cea,PennController,9,0,experiment,NULL,PennController,8,_Trial_,End,1687281688782,5d7d41e8ab1788001a3dcb4f,5d7d41e8ab1788001a3dcb4f,6,flower,critical,B,25,flower15.jpg,flower35.jpg,nogoal,NULL
1687281778,cd2038640f1816160674142d433e4cea,PennController,30,0,experiment,NULL,PennController,29,_Trial_,Start,1687281688782,5d7d41e8ab1788001a3dcb4f,5d7d41e8ab1788001a3dcb4f,27,square,filler,B,25,square15.jpg,square35.jpg,nogoal,NULL
1687281778,cd2038640f1816160674142d433e4cea,PennController,30,0,experiment,NULL,PennController,29,_Header_,Start,1687281688782,5d7d41e8ab1788001a3dcb4f,5d7d41e8ab1788001a3dcb4f,27,square,filler,B,25,square15.jpg,square35.jpg,nogoal,NULL
1687281778,cd2038640f1816160674142d433e4cea,PennController,30,0,experiment,NULL,PennController,29,_Header_,End,1687281688782,5d7d41e8ab1788001a3dcb4f,5d7d41e8ab1788001a3dcb4f,27,square,filler,B,25,square15.jpg,square35.jpg,nogoal,NULL
1687281778,cd2038640f1816160674142d433e4cea,PennController,30,0,experiment,NULL,Video,progression,buffer,0,1687281690298,5d7d41e8ab1788001a3dcb4f,5d7d41e8ab1788001a3dcb4f,27,square,filler,B,25,square15.jpg,square35.jpg,nogoal,NULL
1687281778,cd2038640f1816160674142d433e4cea,PennController,30,0,experiment,NULL,Canvas,canvas6,Print,NA,1687281692545,5d7d41e8ab1788001a3dcb4f,5d7d41e8ab1788001a3dcb4f,27,square,filler,B,25,square15.jpg,square35.jpg,nogoal,NULL
1687281778,cd2038640f1816160674142d433e4cea,PennController,30,0,experiment,NULL,Selector,choice,Selection,option2,1687281694325,5d7d41e8ab1788001a3dcb4f,5d7d41e8ab1788001a3dcb4f,27,square,filler,B,25,square15.jpg,square35.jpg,nogoal,option1;option2
1687281778,cd2038640f1816160674142d433e4cea,PennController,30,0,experiment,NULL,PennController,29,_Trial_,End,1687281694325,5d7d41e8ab1788001a3dcb4f,5d7d41e8ab1788001a3dcb4f,27,square,filler,B,25,square15.jpg,square35.jpg,nogoal,NULL
1687281778,cd2038640f1816160674142d433e4cea,PennController,12,0,experiment,NULL,PennController,11,_Trial_,Start,1687281694326,5d7d41e8ab1788001a3dcb4f,5d7d41e8ab1788001a3dcb4f,9,cake,critical,B,25,cake15.jpg,cake33.jpg,nogoal,NULL
1687281778,cd2038640f1816160674142d433e4cea,PennController,12,0,experiment,NULL,PennController,11,_Header_,Start,1687281694326,5d7d41e8ab1788001a3dcb4f,5d7d41e8ab1788001a3dcb4f,9,cake,critical,B,25,cake15.jpg,cake33.jpg,nogoal,NULL
1687281778,cd2038640f1816160674142d433e4cea,PennController,12,0,experiment,NULL,PennController,11,_Header_,End,1687281694326,5d7d41e8ab1788001a3dcb4f,5d7d41e8ab1788001a3dcb4f,9,cake,critical,B,25,cake15.jpg,cake33.jpg,nogoal,NULL
1687281778,cd2038640f1816160674142d433e4cea,PennController,12,0,experiment,NULL,Video,progression,buffer,0,1687281695848,5d7d41e8ab1788001a3dcb4f,5d7d41e8ab1788001a3dcb4f,9,cake,critical,B,25,cake15.jpg,cake33.jpg,nogoal,NULL
1687281778,cd2038640f1816160674142d433e4cea,PennController,12,0,experiment,NULL,Canvas,canvas6,Print,NA,1687281698687,5d7d41e8ab1788001a3dcb4f,5d7d41e8ab1788001a3dcb4f,9,cake,critical,B,25,cake15.jpg,cake33.jpg,nogoal,NULL
1687281778,cd2038640f1816160674142d433e4cea,PennController,12,0,experiment,NULL,Selector,choice,Selection,option1,1687281700853,5d7d41e8ab1788001a3dcb4f,5d7d41e8ab1788001a3dcb4f,9,cake,critical,B,25,cake15.jpg,cake33.jpg,nogoal,option1;option2
1687281778,cd2038640f1816160674142d433e4cea,PennController,12,0,experiment,NULL,PennController,11,_Trial_,End,1687281700854,5d7d41e8ab1788001a3dcb4f,5d7d41e8ab1788001a3dcb4f,9,cake,critical,B,25,cake15.jpg,cake33.jpg,nogoal,NULL
1687281778,cd2038640f1816160674142d433e4cea,PennController,18,0,experiment,NULL,PennController,17,_Trial_,Start,1687281700855,5d7d41e8ab1788001a3dcb4f,5d7d41e8ab1788001a3dcb4f,15,zip,critical,B,25,zip15.jpg,zip35.jpg,nogoal,NULL
1687281778,cd2038640f1816160674142d433e4cea,PennController,18,0,experiment,NULL,PennController,17,_Header_,Start,1687281700855,5d7d41e8ab1788001a3dcb4f,5d7d41e8ab1788001a3dcb4f,15,zip,critical,B,25,zip15.jpg,zip35.jpg,nogoal,NULL
1687281778,cd2038640f1816160674142d433e4cea,PennController,18,0,experiment,NULL,PennController,17,_Header_,End,1687281700855,5d7d41e8ab1788001a3dcb4f,5d7d41e8ab1788001a3dcb4f,15,zip,critical,B,25,zip15.jpg,zip35.jpg,nogoal,NULL
1687281778,cd2038640f1816160674142d433e4cea,PennController,18,0,experiment,NULL,Video,progression,buffer,0,1687281702377,5d7d41e8ab1788001a3dcb4f,5d7d41e8ab1788001a3dcb4f,15,zip,critical,B,25,zip15.jpg,zip35.jpg,nogoal,NULL
1687281778,cd2038640f1816160674142d433e4cea,PennController,18,0,experiment,NULL,Canvas,canvas6,Print,NA,1687281704609,5d7d41e8ab1788001a3dcb4f,5d7d41e8ab1788001a3dcb4f,15,zip,critical,B,25,zip15.jpg,zip35.jpg,nogoal,NULL
1687281778,cd2038640f1816160674142d433e4cea,PennController,18,0,experiment,NULL,Selector,choice,Selection,option2,1687281707469,5d7d41e8ab1788001a3dcb4f,5d7d41e8ab1788001a3dcb4f,15,zip,critical,B,25,zip15.jpg,zip35.jpg,nogoal,option1;option2
1687281778,cd2038640f1816160674142d433e4cea,PennController,18,0,experiment,NULL,PennController,17,_Trial_,End,1687281707470,5d7d41e8ab1788001a3dcb4f,5d7d41e8ab1788001a3dcb4f,15,zip,critical,B,25,zip15.jpg,zip35.jpg,nogoal,NULL
1687281778,cd2038640f1816160674142d433e4cea,PennController,20,0,experiment,NULL,PennController,19,_Trial_,Start,1687281707470,5d7d41e8ab1788001a3dcb4f,5d7d41e8ab1788001a3dcb4f,17,roll,critical,B,75,roll65.jpg,roll85.jpg,nogoal,NULL
1687281778,cd2038640f1816160674142d433e4cea,PennController,20,0,experiment,NULL,PennController,19,_Header_,Start,1687281707470,5d7d41e8ab1788001a3dcb4f,5d7d41e8ab1788001a3dcb4f,17,roll,critical,B,75,roll65.jpg,roll85.jpg,nogoal,NULL
1687281778,cd2038640f1816160674142d433e4cea,PennController,20,0,experiment,NULL,PennController,19,_Header_,End,1687281707470,5d7d41e8ab1788001a3dcb4f,5d7d41e8ab1788001a3dcb4f,17,roll,critical,B,75,roll65.jpg,roll85.jpg,nogoal,NULL
1687281778,cd2038640f1816160674142d433e4cea,PennController,20,0,experiment,NULL,Video,progression,buffer,0,1687281708994,5d7d41e8ab1788001a3dcb4f,5d7d41e8ab1788001a3dcb4f,17,roll,critical,B,75,roll65.jpg,roll85.jpg,nogoal,NULL
1687281778,cd2038640f1816160674142d433e4cea,PennController,20,0,experiment,NULL,Canvas,canvas6,Print,NA,1687281713246,5d7d41e8ab1788001a3dcb4f,5d7d41e8ab1788001a3dcb4f,17,roll,critical,B,75,roll65.jpg,roll85.jpg,nogoal,NULL
1687281778,cd2038640f1816160674142d433e4cea,PennController,20,0,experiment,NULL,Selector,choice,Selection,option1,1687281716774,5d7d41e8ab1788001a3dcb4f,5d7d41e8ab1788001a3dcb4f,17,roll,critical,B,75,roll65.jpg,roll85.jpg,nogoal,option1;option2
1687281778,cd2038640f1816160674142d433e4cea,PennController,20,0,experiment,NULL,PennController,19,_Trial_,End,1687281716774,5d7d41e8ab1788001a3dcb4f,5d7d41e8ab1788001a3dcb4f,17,roll,critical,B,75,roll65.jpg,roll85.jpg,nogoal,NULL
1687281778,cd2038640f1816160674142d433e4cea,PennController,32,0,experiment,NULL,PennController,31,_Trial_,Start,1687281716775,5d7d41e8ab1788001a3dcb4f,5d7d41e8ab1788001a3dcb4f,29,frog,filler,B,75,frog65.jpg,frog85.jpg,nogoal,NULL
1687281778,cd2038640f1816160674142d433e4cea,PennController,32,0,experiment,NULL,PennController,31,_Header_,Start,1687281716775,5d7d41e8ab1788001a3dcb4f,5d7d41e8ab1788001a3dcb4f,29,frog,filler,B,75,frog65.jpg,frog85.jpg,nogoal,NULL
1687281778,cd2038640f1816160674142d433e4cea,PennController,32,0,experiment,NULL,PennController,31,_Header_,End,1687281716775,5d7d41e8ab1788001a3dcb4f,5d7d41e8ab1788001a3dcb4f,29,frog,filler,B,75,frog65.jpg,frog85.jpg,nogoal,NULL
1687281778,cd2038640f1816160674142d433e4cea,PennController,32,0,experiment,NULL,Video,progression,buffer,0,1687281718300,5d7d41e8ab1788001a3dcb4f,5d7d41e8ab1788001a3dcb4f,29,frog,filler,B,75,frog65.jpg,frog85.jpg,nogoal,NULL
1687281778,cd2038640f1816160674142d433e4cea,PennController,32,0,experiment,NULL,Canvas,canvas6,Print,NA,1687281722559,5d7d41e8ab1788001a3dcb4f,5d7d41e8ab1788001a3dcb4f,29,frog,filler,B,75,frog65.jpg,frog85.jpg,nogoal,NULL
1687281778,cd2038640f1816160674142d433e4cea,PennController,32,0,experiment,NULL,Selector,choice,Selection,option2,1687281724598,5d7d41e8ab1788001a3dcb4f,5d7d41e8ab1788001a3dcb4f,29,frog,filler,B,75,frog65.jpg,frog85.jpg,nogoal,option1;option2
1687281778,cd2038640f1816160674142d433e4cea,PennController,32,0,experiment,NULL,PennController,31,_Trial_,End,1687281724599,5d7d41e8ab1788001a3dcb4f,5d7d41e8ab1788001a3dcb4f,29,frog,filler,B,75,frog65.jpg,frog85.jpg,nogoal,NULL
1687281778,cd2038640f1816160674142d433e4cea,PennController,19,0,experiment,NULL,PennController,18,_Trial_,Start,1687281724600,5d7d41e8ab1788001a3dcb4f,5d7d41e8ab1788001a3dcb4f,16,blinds,critical,B,50,blinds42.jpg,blinds60.jpg,nogoal,NULL
1687281778,cd2038640f1816160674142d433e4cea,PennController,19,0,experiment,NULL,PennController,18,_Header_,Start,1687281724600,5d7d41e8ab1788001a3dcb4f,5d7d41e8ab1788001a3dcb4f,16,blinds,critical,B,50,blinds42.jpg,blinds60.jpg,nogoal,NULL
1687281778,cd2038640f1816160674142d433e4cea,PennController,19,0,experiment,NULL,PennController,18,_Header_,End,1687281724600,5d7d41e8ab1788001a3dcb4f,5d7d41e8ab1788001a3dcb4f,16,blinds,critical,B,50,blinds42.jpg,blinds60.jpg,nogoal,NULL
1687281778,cd2038640f1816160674142d433e4cea,PennController,19,0,experiment,NULL,Video,progression,buffer,0,1687281726119,5d7d41e8ab1788001a3dcb4f,5d7d41e8ab1788001a3dcb4f,16,blinds,critical,B,50,blinds42.jpg,blinds60.jpg,nogoal,NULL
1687281778,cd2038640f1816160674142d433e4cea,PennController,19,0,experiment,NULL,Canvas,canvas6,Print,NA,1687281730765,5d7d41e8ab1788001a3dcb4f,5d7d41e8ab1788001a3dcb4f,16,blinds,critical,B,50,blinds42.jpg,blinds60.jpg,nogoal,NULL
1687281778,cd2038640f1816160674142d433e4cea,PennController,19,0,experiment,NULL,Selector,choice,Selection,option2,1687281734093,5d7d41e8ab1788001a3dcb4f,5d7d41e8ab1788001a3dcb4f,16,blinds,critical,B,50,blinds42.jpg,blinds60.jpg,nogoal,option1;option2
1687281778,cd2038640f1816160674142d433e4cea,PennController,19,0,experiment,NULL,PennController,18,_Trial_,End,1687281734094,5d7d41e8ab1788001a3dcb4f,5d7d41e8ab1788001a3dcb4f,16,blinds,critical,B,50,blinds42.jpg,blinds60.jpg,nogoal,NULL
1687281778,cd2038640f1816160674142d433e4cea,PennController,23,0,experiment,NULL,PennController,22,_Trial_,Start,1687281734094,5d7d41e8ab1788001a3dcb4f,5d7d41e8ab1788001a3dcb4f,20,cat,filler,B,75,cat65.jpg,cat85.jpg,nogoal,NULL
1687281778,cd2038640f1816160674142d433e4cea,PennController,23,0,experiment,NULL,PennController,22,_Header_,Start,1687281734094,5d7d41e8ab1788001a3dcb4f,5d7d41e8ab1788001a3dcb4f,20,cat,filler,B,75,cat65.jpg,cat85.jpg,nogoal,NULL
1687281778,cd2038640f1816160674142d433e4cea,PennController,23,0,experiment,NULL,PennController,22,_Header_,End,1687281734094,5d7d41e8ab1788001a3dcb4f,5d7d41e8ab1788001a3dcb4f,20,cat,filler,B,75,cat65.jpg,cat85.jpg,nogoal,NULL
1687281778,cd2038640f1816160674142d433e4cea,PennController,23,0,experiment,NULL,Video,progression,buffer,0,1687281735627,5d7d41e8ab1788001a3dcb4f,5d7d41e8ab1788001a3dcb4f,20,cat,filler,B,75,cat65.jpg,cat85.jpg,nogoal,NULL
1687281778,cd2038640f1816160674142d433e4cea,PennController,23,0,experiment,NULL,Canvas,canvas6,Print,NA,1687281739886,5d7d41e8ab1788001a3dcb4f,5d7d41e8ab1788001a3dcb4f,20,cat,filler,B,75,cat65.jpg,cat85.jpg,nogoal,NULL
1687281778,cd2038640f1816160674142d433e4cea,PennController,23,0,experiment,NULL,Selector,choice,Selection,option2,1687281741765,5d7d41e8ab1788001a3dcb4f,5d7d41e8ab1788001a3dcb4f,20,cat,filler,B,75,cat65.jpg,cat85.jpg,nogoal,option2;option1
1687281778,cd2038640f1816160674142d433e4cea,PennController,23,0,experiment,NULL,PennController,22,_Trial_,End,1687281741766,5d7d41e8ab1788001a3dcb4f,5d7d41e8ab1788001a3dcb4f,20,cat,filler,B,75,cat65.jpg,cat85.jpg,nogoal,NULL
1687281778,cd2038640f1816160674142d433e4cea,PennController,7,0,experiment,NULL,PennController,6,_Trial_,Start,1687281741767,5d7d41e8ab1788001a3dcb4f,5d7d41e8ab1788001a3dcb4f,4,candy,critical,B,50,candy40.jpg,candy60.jpg,nogoal,NULL
1687281778,cd2038640f1816160674142d433e4cea,PennController,7,0,experiment,NULL,PennController,6,_Header_,Start,1687281741767,5d7d41e8ab1788001a3dcb4f,5d7d41e8ab1788001a3dcb4f,4,candy,critical,B,50,candy40.jpg,candy60.jpg,nogoal,NULL
1687281778,cd2038640f1816160674142d433e4cea,PennController,7,0,experiment,NULL,PennController,6,_Header_,End,1687281741767,5d7d41e8ab1788001a3dcb4f,5d7d41e8ab1788001a3dcb4f,4,candy,critical,B,50,candy40.jpg,candy60.jpg,nogoal,NULL
1687281778,cd2038640f1816160674142d433e4cea,PennController,7,0,experiment,NULL,Video,progression,buffer,0,1687281743289,5d7d41e8ab1788001a3dcb4f,5d7d41e8ab1788001a3dcb4f,4,candy,critical,B,50,candy40.jpg,candy60.jpg,nogoal,NULL
1687281778,cd2038640f1816160674142d433e4cea,PennController,7,0,experiment,NULL,Canvas,canvas6,Print,NA,1687281746533,5d7d41e8ab1788001a3dcb4f,5d7d41e8ab1788001a3dcb4f,4,candy,critical,B,50,candy40.jpg,candy60.jpg,nogoal,NULL
1687281778,cd2038640f1816160674142d433e4cea,PennController,7,0,experiment,NULL,Selector,choice,Selection,option2,1687281748141,5d7d41e8ab1788001a3dcb4f,5d7d41e8ab1788001a3dcb4f,4,candy,critical,B,50,candy40.jpg,candy60.jpg,nogoal,option1;option2
1687281778,cd2038640f1816160674142d433e4cea,PennController,7,0,experiment,NULL,PennController,6,_Trial_,End,1687281748142,5d7d41e8ab1788001a3dcb4f,5d7d41e8ab1788001a3dcb4f,4,candy,critical,B,50,candy40.jpg,candy60.jpg,nogoal,NULL
1687281778,cd2038640f1816160674142d433e4cea,PennController,6,0,experiment,NULL,PennController,5,_Trial_,Start,1687281748142,5d7d41e8ab1788001a3dcb4f,5d7d41e8ab1788001a3dcb4f,3,clean,critical,B,25,clean15.jpg,clean35.jpg,nogoal,NULL
1687281778,cd2038640f1816160674142d433e4cea,PennController,6,0,experiment,NULL,PennController,5,_Header_,Start,1687281748142,5d7d41e8ab1788001a3dcb4f,5d7d41e8ab1788001a3dcb4f,3,clean,critical,B,25,clean15.jpg,clean35.jpg,nogoal,NULL
1687281778,cd2038640f1816160674142d433e4cea,PennController,6,0,experiment,NULL,PennController,5,_Header_,End,1687281748142,5d7d41e8ab1788001a3dcb4f,5d7d41e8ab1788001a3dcb4f,3,clean,critical,B,25,clean15.jpg,clean35.jpg,nogoal,NULL
1687281778,cd2038640f1816160674142d433e4cea,PennController,6,0,experiment,NULL,Video,progression,buffer,0,1687281749657,5d7d41e8ab1788001a3dcb4f,5d7d41e8ab1788001a3dcb4f,3,clean,critical,B,25,clean15.jpg,clean35.jpg,nogoal,NULL
1687281778,cd2038640f1816160674142d433e4cea,PennController,6,0,experiment,NULL,Canvas,canvas6,Print,NA,1687281751908,5d7d41e8ab1788001a3dcb4f,5d7d41e8ab1788001a3dcb4f,3,clean,critical,B,25,clean15.jpg,clean35.jpg,nogoal,NULL
1687281778,cd2038640f1816160674142d433e4cea,PennController,6,0,experiment,NULL,Selector,choice,Selection,option2,1687281756149,5d7d41e8ab1788001a3dcb4f,5d7d41e8ab1788001a3dcb4f,3,clean,critical,B,25,clean15.jpg,clean35.jpg,nogoal,option2;option1
1687281778,cd2038640f1816160674142d433e4cea,PennController,6,0,experiment,NULL,PennController,5,_Trial_,End,1687281756150,5d7d41e8ab1788001a3dcb4f,5d7d41e8ab1788001a3dcb4f,3,clean,critical,B,25,clean15.jpg,clean35.jpg,nogoal,NULL
1687281778,cd2038640f1816160674142d433e4cea,PennController,31,0,experiment,NULL,PennController,30,_Trial_,Start,1687281756150,5d7d41e8ab1788001a3dcb4f,5d7d41e8ab1788001a3dcb4f,28,sort,filler,B,50,sort40.jpg,sort60.jpg,nogoal,NULL
1687281778,cd2038640f1816160674142d433e4cea,PennController,31,0,experiment,NULL,PennController,30,_Header_,Start,1687281756150,5d7d41e8ab1788001a3dcb4f,5d7d41e8ab1788001a3dcb4f,28,sort,filler,B,50,sort40.jpg,sort60.jpg,nogoal,NULL
1687281778,cd2038640f1816160674142d433e4cea,PennController,31,0,experiment,NULL,PennController,30,_Header_,End,1687281756150,5d7d41e8ab1788001a3dcb4f,5d7d41e8ab1788001a3dcb4f,28,sort,filler,B,50,sort40.jpg,sort60.jpg,nogoal,NULL
1687281778,cd2038640f1816160674142d433e4cea,PennController,31,0,experiment,NULL,Video,progression,buffer,0,1687281757663,5d7d41e8ab1788001a3dcb4f,5d7d41e8ab1788001a3dcb4f,28,sort,filler,B,50,sort40.jpg,sort60.jpg,nogoal,NULL
1687281778,cd2038640f1816160674142d433e4cea,PennController,31,0,experiment,NULL,Canvas,canvas6,Print,NA,1687281760912,5d7d41e8ab1788001a3dcb4f,5d7d41e8ab1788001a3dcb4f,28,sort,filler,B,50,sort40.jpg,sort60.jpg,nogoal,NULL
1687281778,cd2038640f1816160674142d433e4cea,PennController,31,0,experiment,NULL,Selector,choice,Selection,option2,1687281768725,5d7d41e8ab1788001a3dcb4f,5d7d41e8ab1788001a3dcb4f,28,sort,filler,B,50,sort40.jpg,sort60.jpg,nogoal,option1;option2
1687281778,cd2038640f1816160674142d433e4cea,PennController,31,0,experiment,NULL,PennController,30,_Trial_,End,1687281768725,5d7d41e8ab1788001a3dcb4f,5d7d41e8ab1788001a3dcb4f,28,sort,filler,B,50,sort40.jpg,sort60.jpg,nogoal,NULL
1687281778,cd2038640f1816160674142d433e4cea,PennController,28,0,experiment,NULL,PennController,27,_Trial_,Start,1687281768726,5d7d41e8ab1788001a3dcb4f,5d7d41e8ab1788001a3dcb4f,25,house,filler,B,50,house40.jpg,house60.jpg,nogoal,NULL
1687281778,cd2038640f1816160674142d433e4cea,PennController,28,0,experiment,NULL,PennController,27,_Header_,Start,1687281768726,5d7d41e8ab1788001a3dcb4f,5d7d41e8ab1788001a3dcb4f,25,house,filler,B,50,house40.jpg,house60.jpg,nogoal,NULL
1687281778,cd2038640f1816160674142d433e4cea,PennController,28,0,experiment,NULL,PennController,27,_Header_,End,1687281768726,5d7d41e8ab1788001a3dcb4f,5d7d41e8ab1788001a3dcb4f,25,house,filler,B,50,house40.jpg,house60.jpg,nogoal,NULL
1687281778,cd2038640f1816160674142d433e4cea,PennController,28,0,experiment,NULL,Video,progression,buffer,0,1687281770253,5d7d41e8ab1788001a3dcb4f,5d7d41e8ab1788001a3dcb4f,25,house,filler,B,50,house40.jpg,house60.jpg,nogoal,NULL
1687281778,cd2038640f1816160674142d433e4cea,PennController,28,0,experiment,NULL,Canvas,canvas6,Print,NA,1687281773491,5d7d41e8ab1788001a3dcb4f,5d7d41e8ab1788001a3dcb4f,25,house,filler,B,50,house40.jpg,house60.jpg,nogoal,NULL
1687281778,cd2038640f1816160674142d433e4cea,PennController,28,0,experiment,NULL,Selector,choice,Selection,option1,1687281777557,5d7d41e8ab1788001a3dcb4f,5d7d41e8ab1788001a3dcb4f,25,house,filler,B,50,house40.jpg,house60.jpg,nogoal,option2;option1
1687281778,cd2038640f1816160674142d433e4cea,PennController,28,0,experiment,NULL,PennController,27,_Trial_,End,1687281777557,5d7d41e8ab1788001a3dcb4f,5d7d41e8ab1788001a3dcb4f,25,house,filler,B,50,house40.jpg,house60.jpg,nogoal,NULL
