#
# Results on Tuesday June 20 2023 17:18:13 UTC
# USER AGENT: Mozilla/5.0 (Windows NT 10.0; Win64; x64) AppleWebKit/537.36 (KHTML, like Gecko) Chrome/113.0.0.0 Safari/537.36 OPR/99.0.0.0
# Design number was non-random = 4
#
# Columns below this comment are as follows:
# 1. Results reception time.
# 2. MD5 hash of participant's IP address.
# 3. Controller name.
# 4. Order number of item.
# 5. Inner element number.
# 6. Label.
# 7. Latin Square Group.
# 8. PennElementType.
# 9. PennElementName.
# 10. Parameter.
# 11. Value.
# 12. EventTime.
# 13. PROLIFIC_ID.
# 14. Comments.
1687281493,619581bb564330beb502be24d7c242d0,PennController,2,0,consent,NULL,PennController,0,_Trial_,Start,1687284847176,6107b85a1f75367afc533648,NULL
1687281493,619581bb564330beb502be24d7c242d0,PennController,2,0,consent,NULL,PennController,0,_Header_,Start,1687284847176,6107b85a1f75367afc533648,NULL
1687281493,619581bb564330beb502be24d7c242d0,PennController,2,0,consent,NULL,PennController,0,_Header_,End,1687284847176,6107b85a1f75367afc533648,NULL
1687281493,619581bb564330beb502be24d7c242d0,PennController,2,0,consent,NULL,PennController,0,_Trial_,End,1687284855072,6107b85a1f75367afc533648,NULL
# Columns below this comment are as follows:
# 14. ID.
# 15. Comments.
1687281493,619581bb564330beb502be24d7c242d0,PennController,3,0,intro,NULL,PennController,1,_Trial_,Start,1687284855074,6107b85a1f75367afc533648,6107b85a1f75367afc533648,NULL
1687281493,619581bb564330beb502be24d7c242d0,PennController,3,0,intro,NULL,PennController,1,_Header_,Start,1687284855074,6107b85a1f75367afc533648,6107b85a1f75367afc533648,NULL
1687281493,619581bb564330beb502be24d7c242d0,PennController,3,0,intro,NULL,PennController,1,_Header_,End,1687284855074,6107b85a1f75367afc533648,6107b85a1f75367afc533648,NULL
1687281493,619581bb564330beb502be24d7c242d0,PennController,3,0,intro,NULL,PennController,1,_Trial_,End,1687284860901,6107b85a1f75367afc533648,6107b85a1f75367afc533648,NULL
# Columns below this comment are as follows:
# 15. item_number.
# 16. item.
# 17. type.
# 18. Group.
# 19. prog.
# 20. prev_image.
# 21. next_image.
# 22. height.
# 23. Comments.
1687281493,619581bb564330beb502be24d7c242d0,PennController,6,0,experiment,NULL,PennController,5,_Trial_,Start,1687284860903,6107b85a1f75367afc533648,6107b85a1f75367afc533648,3,clean,critical,B,25,clean15.jpg,clean35.jpg,nogoal,NULL
1687281493,619581bb564330beb502be24d7c242d0,PennController,6,0,experiment,NULL,PennController,5,_Header_,Start,1687284860903,6107b85a1f75367afc533648,6107b85a1f75367afc533648,3,clean,critical,B,25,clean15.jpg,clean35.jpg,nogoal,NULL
1687281493,619581bb564330beb502be24d7c242d0,PennController,6,0,experiment,NULL,PennController,5,_Header_,End,1687284860903,6107b85a1f75367afc533648,6107b85a1f75367afc533648,3,clean,critical,B,25,clean15.jpg,clean35.jpg,nogoal,NULL
1687281493,619581bb564330beb502be24d7c242d0,PennController,6,0,experiment,NULL,Canvas,canvas6,Print,NA,1687284864579,6107b85a1f75367afc533648,6107b85a1f75367afc533648,3,clean,critical,B,25,clean15.jpg,clean35.jpg,nogoal,NULL
1687281493,619581bb564330beb502be24d7c242d0,PennController,6,0,experiment,NULL,Video,progression,buffer,0.003097,1687284862419,6107b85a1f75367afc533648,6107b85a1f75367afc533648,3,clean,critical,B,25,clean15.jpg,clean35.jpg,nogoal,NULL
1687281493,619581bb564330beb502be24d7c242d0,PennController,6,0,experiment,NULL,Selector,choice,Selection,option2,1687284868219,6107b85a1f75367afc533648,6107b85a1f75367afc533648,3,clean,critical,B,25,clean15.jpg,clean35.jpg,nogoal,option2;option1
1687281493,619581bb564330beb502be24d7c242d0,PennController,6,0,experiment,NULL,PennController,5,_Trial_,End,1687284868220,6107b85a1f75367afc533648,6107b85a1f75367afc533648,3,clean,critical,B,25,clean15.jpg,clean35.jpg,nogoal,NULL
1687281493,619581bb564330beb502be24d7c242d0,PennController,17,0,experiment,NULL,PennController,16,_Trial_,Start,1687284868221,6107b85a1f75367afc533648,6107b85a1f75367afc533648,14,cover,critical,B,75,cover66.jpg,cover84.jpg,nogoal,NULL
1687281493,619581bb564330beb502be24d7c242d0,PennController,17,0,experiment,NULL,PennController,16,_Header_,Start,1687284868221,6107b85a1f75367afc533648,6107b85a1f75367afc533648,14,cover,critical,B,75,cover66.jpg,cover84.jpg,nogoal,NULL
1687281493,619581bb564330beb502be24d7c242d0,PennController,17,0,experiment,NULL,PennController,16,_Header_,End,1687284868221,6107b85a1f75367afc533648,6107b85a1f75367afc533648,14,cover,critical,B,75,cover66.jpg,cover84.jpg,nogoal,NULL
1687281493,619581bb564330beb502be24d7c242d0,PennController,17,0,experiment,NULL,Canvas,canvas6,Print,NA,1687284875898,6107b85a1f75367afc533648,6107b85a1f75367afc533648,14,cover,critical,B,75,cover66.jpg,cover84.jpg,nogoal,NULL
1687281493,619581bb564330beb502be24d7c242d0,PennController,17,0,experiment,NULL,Video,progression,buffer,0.001854,1687284869732,6107b85a1f75367afc533648,6107b85a1f75367afc533648,14,cover,critical,B,75,cover66.jpg,cover84.jpg,nogoal,NULL
1687281493,619581bb564330beb502be24d7c242d0,PennController,17,0,experiment,NULL,Selector,choice,Selection,option2,1687284877667,6107b85a1f75367afc533648,6107b85a1f75367afc533648,14,cover,critical,B,75,cover66.jpg,cover84.jpg,nogoal,option1;option2
1687281493,619581bb564330beb502be24d7c242d0,PennController,17,0,experiment,NULL,PennController,16,_Trial_,End,1687284877668,6107b85a1f75367afc533648,6107b85a1f75367afc533648,14,cover,critical,B,75,cover66.jpg,cover84.jpg,nogoal,NULL
1687281493,619581bb564330beb502be24d7c242d0,PennController,29,0,experiment,NULL,PennController,28,_Trial_,Start,1687284877669,6107b85a1f75367afc533648,6107b85a1f75367afc533648,26,sandwich,filler,B,75,sandwich65.jpg,sandwich85.jpg,nogoal,NULL
1687281493,619581bb564330beb502be24d7c242d0,PennController,29,0,experiment,NULL,PennController,28,_Header_,Start,1687284877669,6107b85a1f75367afc533648,6107b85a1f75367afc533648,26,sandwich,filler,B,75,sandwich65.jpg,sandwich85.jpg,nogoal,NULL
1687281493,619581bb564330beb502be24d7c242d0,PennController,29,0,experiment,NULL,PennController,28,_Header_,End,1687284877669,6107b85a1f75367afc533648,6107b85a1f75367afc533648,26,sandwich,filler,B,75,sandwich65.jpg,sandwich85.jpg,nogoal,NULL
1687281493,619581bb564330beb502be24d7c242d0,PennController,29,0,experiment,NULL,Canvas,canvas6,Print,NA,1687284883343,6107b85a1f75367afc533648,6107b85a1f75367afc533648,26,sandwich,filler,B,75,sandwich65.jpg,sandwich85.jpg,nogoal,NULL
1687281493,619581bb564330beb502be24d7c242d0,PennController,29,0,experiment,NULL,Video,progression,buffer,0.001855,1687284879182,6107b85a1f75367afc533648,6107b85a1f75367afc533648,26,sandwich,filler,B,75,sandwich65.jpg,sandwich85.jpg,nogoal,NULL
1687281493,619581bb564330beb502be24d7c242d0,PennController,29,0,experiment,NULL,Selector,choice,Selection,option2,1687284888859,6107b85a1f75367afc533648,6107b85a1f75367afc533648,26,sandwich,filler,B,75,sandwich65.jpg,sandwich85.jpg,nogoal,option2;option1
1687281493,619581bb564330beb502be24d7c242d0,PennController,29,0,experiment,NULL,PennController,28,_Trial_,End,1687284888860,6107b85a1f75367afc533648,6107b85a1f75367afc533648,26,sandwich,filler,B,75,sandwich65.jpg,sandwich85.jpg,nogoal,NULL
1687281493,619581bb564330beb502be24d7c242d0,PennController,32,0,experiment,NULL,PennController,31,_Trial_,Start,1687284888860,6107b85a1f75367afc533648,6107b85a1f75367afc533648,29,frog,filler,B,75,frog65.jpg,frog85.jpg,nogoal,NULL
1687281493,619581bb564330beb502be24d7c242d0,PennController,32,0,experiment,NULL,PennController,31,_Header_,Start,1687284888860,6107b85a1f75367afc533648,6107b85a1f75367afc533648,29,frog,filler,B,75,frog65.jpg,frog85.jpg,nogoal,NULL
1687281493,619581bb564330beb502be24d7c242d0,PennController,32,0,experiment,NULL,PennController,31,_Header_,End,1687284888860,6107b85a1f75367afc533648,6107b85a1f75367afc533648,29,frog,filler,B,75,frog65.jpg,frog85.jpg,nogoal,NULL
1687281493,619581bb564330beb502be24d7c242d0,PennController,32,0,experiment,NULL,Canvas,canvas6,Print,NA,1687284894540,6107b85a1f75367afc533648,6107b85a1f75367afc533648,29,frog,filler,B,75,frog65.jpg,frog85.jpg,nogoal,NULL
1687281493,619581bb564330beb502be24d7c242d0,PennController,32,0,experiment,NULL,Video,progression,buffer,0.002477,1687284890375,6107b85a1f75367afc533648,6107b85a1f75367afc533648,29,frog,filler,B,75,frog65.jpg,frog85.jpg,nogoal,NULL
1687281493,619581bb564330beb502be24d7c242d0,PennController,32,0,experiment,NULL,Selector,choice,Selection,option1,1687284895804,6107b85a1f75367afc533648,6107b85a1f75367afc533648,29,frog,filler,B,75,frog65.jpg,frog85.jpg,nogoal,option1;option2
1687281493,619581bb564330beb502be24d7c242d0,PennController,32,0,experiment,NULL,PennController,31,_Trial_,End,1687284895804,6107b85a1f75367afc533648,6107b85a1f75367afc533648,29,frog,filler,B,75,frog65.jpg,frog85.jpg,nogoal,NULL
1687281493,619581bb564330beb502be24d7c242d0,PennController,7,0,experiment,NULL,PennController,6,_Trial_,Start,1687284895805,6107b85a1f75367afc533648,6107b85a1f75367afc533648,4,candy,critical,B,50,candy40.jpg,candy60.jpg,nogoal,NULL
1687281493,619581bb564330beb502be24d7c242d0,PennController,7,0,experiment,NULL,PennController,6,_Header_,Start,1687284895805,6107b85a1f75367afc533648,6107b85a1f75367afc533648,4,candy,critical,B,50,candy40.jpg,candy60.jpg,nogoal,NULL
1687281493,619581bb564330beb502be24d7c242d0,PennController,7,0,experiment,NULL,PennController,6,_Header_,End,1687284895805,6107b85a1f75367afc533648,6107b85a1f75367afc533648,4,candy,critical,B,50,candy40.jpg,candy60.jpg,nogoal,NULL
1687281493,619581bb564330beb502be24d7c242d0,PennController,7,0,experiment,NULL,Canvas,canvas6,Print,NA,1687284900474,6107b85a1f75367afc533648,6107b85a1f75367afc533648,4,candy,critical,B,50,candy40.jpg,candy60.jpg,nogoal,NULL
1687281493,619581bb564330beb502be24d7c242d0,PennController,7,0,experiment,NULL,Video,progression,buffer,0.001815,1687284897312,6107b85a1f75367afc533648,6107b85a1f75367afc533648,4,candy,critical,B,50,candy40.jpg,candy60.jpg,nogoal,NULL
1687281493,619581bb564330beb502be24d7c242d0,PennController,7,0,experiment,NULL,Selector,choice,Selection,option1,1687284901879,6107b85a1f75367afc533648,6107b85a1f75367afc533648,4,candy,critical,B,50,candy40.jpg,candy60.jpg,nogoal,option1;option2
1687281493,619581bb564330beb502be24d7c242d0,PennController,7,0,experiment,NULL,PennController,6,_Trial_,End,1687284901880,6107b85a1f75367afc533648,6107b85a1f75367afc533648,4,candy,critical,B,50,candy40.jpg,candy60.jpg,nogoal,NULL
1687281493,619581bb564330beb502be24d7c242d0,PennController,20,0,experiment,NULL,PennController,19,_Trial_,Start,1687284901881,6107b85a1f75367afc533648,6107b85a1f75367afc533648,17,roll,critical,B,75,roll65.jpg,roll85.jpg,nogoal,NULL
1687281493,619581bb564330beb502be24d7c242d0,PennController,20,0,experiment,NULL,PennController,19,_Header_,Start,1687284901881,6107b85a1f75367afc533648,6107b85a1f75367afc533648,17,roll,critical,B,75,roll65.jpg,roll85.jpg,nogoal,NULL
1687281493,619581bb564330beb502be24d7c242d0,PennController,20,0,experiment,NULL,PennController,19,_Header_,End,1687284901881,6107b85a1f75367afc533648,6107b85a1f75367afc533648,17,roll,critical,B,75,roll65.jpg,roll85.jpg,nogoal,NULL
1687281493,619581bb564330beb502be24d7c242d0,PennController,20,0,experiment,NULL,Canvas,canvas6,Print,NA,1687284907553,6107b85a1f75367afc533648,6107b85a1f75367afc533648,17,roll,critical,B,75,roll65.jpg,roll85.jpg,nogoal,NULL
1687281493,619581bb564330beb502be24d7c242d0,PennController,20,0,experiment,NULL,Video,progression,buffer,0.001789,1687284903391,6107b85a1f75367afc533648,6107b85a1f75367afc533648,17,roll,critical,B,75,roll65.jpg,roll85.jpg,nogoal,NULL
1687281493,619581bb564330beb502be24d7c242d0,PennController,20,0,experiment,NULL,Selector,choice,Selection,option1,1687284908995,6107b85a1f75367afc533648,6107b85a1f75367afc533648,17,roll,critical,B,75,roll65.jpg,roll85.jpg,nogoal,option1;option2
1687281493,619581bb564330beb502be24d7c242d0,PennController,20,0,experiment,NULL,PennController,19,_Trial_,End,1687284908995,6107b85a1f75367afc533648,6107b85a1f75367afc533648,17,roll,critical,B,75,roll65.jpg,roll85.jpg,nogoal,NULL
1687281493,619581bb564330beb502be24d7c242d0,PennController,22,0,experiment,NULL,PennController,21,_Trial_,Start,1687284908996,6107b85a1f75367afc533648,6107b85a1f75367afc533648,19,cup,filler,B,50,cup40.jpg,cup60.jpg,nogoal,NULL
1687281493,619581bb564330beb502be24d7c242d0,PennController,22,0,experiment,NULL,PennController,21,_Header_,Start,1687284908996,6107b85a1f75367afc533648,6107b85a1f75367afc533648,19,cup,filler,B,50,cup40.jpg,cup60.jpg,nogoal,NULL
1687281493,619581bb564330beb502be24d7c242d0,PennController,22,0,experiment,NULL,PennController,21,_Header_,End,1687284908996,6107b85a1f75367afc533648,6107b85a1f75367afc533648,19,cup,filler,B,50,cup40.jpg,cup60.jpg,nogoal,NULL
1687281493,619581bb564330beb502be24d7c242d0,PennController,22,0,experiment,NULL,Canvas,canvas6,Print,NA,1687284913671,6107b85a1f75367afc533648,6107b85a1f75367afc533648,19,cup,filler,B,50,cup40.jpg,cup60.jpg,nogoal,NULL
1687281493,619581bb564330beb502be24d7c242d0,PennController,22,0,experiment,NULL,Video,progression,buffer,0.001906,1687284910510,6107b85a1f75367afc533648,6107b85a1f75367afc533648,19,cup,filler,B,50,cup40.jpg,cup60.jpg,nogoal,NULL
1687281493,619581bb564330beb502be24d7c242d0,PennController,22,0,experiment,NULL,Selector,choice,Selection,option2,1687284917261,6107b85a1f75367afc533648,6107b85a1f75367afc533648,19,cup,filler,B,50,cup40.jpg,cup60.jpg,nogoal,option2;option1
1687281493,619581bb564330beb502be24d7c242d0,PennController,22,0,experiment,NULL,PennController,21,_Trial_,End,1687284917262,6107b85a1f75367afc533648,6107b85a1f75367afc533648,19,cup,filler,B,50,cup40.jpg,cup60.jpg,nogoal,NULL
1687281493,619581bb564330beb502be24d7c242d0,PennController,21,0,experiment,NULL,PennController,20,_Trial_,Start,1687284917262,6107b85a1f75367afc533648,6107b85a1f75367afc533648,18,ball,critical,B,25,ball15.jpg,ball35.jpg,nogoal,NULL
1687281493,619581bb564330beb502be24d7c242d0,PennController,21,0,experiment,NULL,PennController,20,_Header_,Start,1687284917262,6107b85a1f75367afc533648,6107b85a1f75367afc533648,18,ball,critical,B,25,ball15.jpg,ball35.jpg,nogoal,NULL
1687281493,619581bb564330beb502be24d7c242d0,PennController,21,0,experiment,NULL,PennController,20,_Header_,End,1687284917262,6107b85a1f75367afc533648,6107b85a1f75367afc533648,18,ball,critical,B,25,ball15.jpg,ball35.jpg,nogoal,NULL
1687281493,619581bb564330beb502be24d7c242d0,PennController,21,0,experiment,NULL,Canvas,canvas6,Print,NA,1687284920934,6107b85a1f75367afc533648,6107b85a1f75367afc533648,18,ball,critical,B,25,ball15.jpg,ball35.jpg,nogoal,NULL
1687281493,619581bb564330beb502be24d7c242d0,PennController,21,0,experiment,NULL,Video,progression,buffer,0.001602,1687284918775,6107b85a1f75367afc533648,6107b85a1f75367afc533648,18,ball,critical,B,25,ball15.jpg,ball35.jpg,nogoal,NULL
1687281493,619581bb564330beb502be24d7c242d0,PennController,21,0,experiment,NULL,Selector,choice,Selection,option2,1687284925081,6107b85a1f75367afc533648,6107b85a1f75367afc533648,18,ball,critical,B,25,ball15.jpg,ball35.jpg,nogoal,option1;option2
1687281493,619581bb564330beb502be24d7c242d0,PennController,21,0,experiment,NULL,PennController,20,_Trial_,End,1687284925081,6107b85a1f75367afc533648,6107b85a1f75367afc533648,18,ball,critical,B,25,ball15.jpg,ball35.jpg,nogoal,NULL
1687281493,619581bb564330beb502be24d7c242d0,PennController,24,0,experiment,NULL,PennController,23,_Trial_,Start,1687284925082,6107b85a1f75367afc533648,6107b85a1f75367afc533648,21,visit,filler,B,25,visit15.jpg,visit35.jpg,nogoal,NULL
1687281493,619581bb564330beb502be24d7c242d0,PennController,24,0,experiment,NULL,PennController,23,_Header_,Start,1687284925082,6107b85a1f75367afc533648,6107b85a1f75367afc533648,21,visit,filler,B,25,visit15.jpg,visit35.jpg,nogoal,NULL
1687281493,619581bb564330beb502be24d7c242d0,PennController,24,0,experiment,NULL,PennController,23,_Header_,End,1687284925082,6107b85a1f75367afc533648,6107b85a1f75367afc533648,21,visit,filler,B,25,visit15.jpg,visit35.jpg,nogoal,NULL
1687281493,619581bb564330beb502be24d7c242d0,PennController,24,0,experiment,NULL,Canvas,canvas6,Print,NA,1687284928751,6107b85a1f75367afc533648,6107b85a1f75367afc533648,21,visit,filler,B,25,visit15.jpg,visit35.jpg,nogoal,NULL
1687281493,619581bb564330beb502be24d7c242d0,PennController,24,0,experiment,NULL,Video,progression,buffer,0.001571,1687284926593,6107b85a1f75367afc533648,6107b85a1f75367afc533648,21,visit,filler,B,25,visit15.jpg,visit35.jpg,nogoal,NULL
1687281493,619581bb564330beb502be24d7c242d0,PennController,24,0,experiment,NULL,Selector,choice,Selection,option2,1687284930608,6107b85a1f75367afc533648,6107b85a1f75367afc533648,21,visit,filler,B,25,visit15.jpg,visit35.jpg,nogoal,option2;option1
1687281493,619581bb564330beb502be24d7c242d0,PennController,24,0,experiment,NULL,PennController,23,_Trial_,End,1687284930609,6107b85a1f75367afc533648,6107b85a1f75367afc533648,21,visit,filler,B,25,visit15.jpg,visit35.jpg,nogoal,NULL
1687281493,619581bb564330beb502be24d7c242d0,PennController,31,0,experiment,NULL,PennController,30,_Trial_,Start,1687284930610,6107b85a1f75367afc533648,6107b85a1f75367afc533648,28,sort,filler,B,50,sort40.jpg,sort60.jpg,nogoal,NULL
1687281493,619581bb564330beb502be24d7c242d0,PennController,31,0,experiment,NULL,PennController,30,_Header_,Start,1687284930610,6107b85a1f75367afc533648,6107b85a1f75367afc533648,28,sort,filler,B,50,sort40.jpg,sort60.jpg,nogoal,NULL
1687281493,619581bb564330beb502be24d7c242d0,PennController,31,0,experiment,NULL,PennController,30,_Header_,End,1687284930610,6107b85a1f75367afc533648,6107b85a1f75367afc533648,28,sort,filler,B,50,sort40.jpg,sort60.jpg,nogoal,NULL
1687281493,619581bb564330beb502be24d7c242d0,PennController,31,0,experiment,NULL,Canvas,canvas6,Print,NA,1687284935281,6107b85a1f75367afc533648,6107b85a1f75367afc533648,28,sort,filler,B,50,sort40.jpg,sort60.jpg,nogoal,NULL
1687281493,619581bb564330beb502be24d7c242d0,PennController,31,0,experiment,NULL,Video,progression,buffer,0.001834,1687284932121,6107b85a1f75367afc533648,6107b85a1f75367afc533648,28,sort,filler,B,50,sort40.jpg,sort60.jpg,nogoal,NULL
1687281493,619581bb564330beb502be24d7c242d0,PennController,31,0,experiment,NULL,Selector,choice,Selection,option2,1687284936512,6107b85a1f75367afc533648,6107b85a1f75367afc533648,28,sort,filler,B,50,sort40.jpg,sort60.jpg,nogoal,option1;option2
1687281493,619581bb564330beb502be24d7c242d0,PennController,31,0,experiment,NULL,PennController,30,_Trial_,End,1687284936513,6107b85a1f75367afc533648,6107b85a1f75367afc533648,28,sort,filler,B,50,sort40.jpg,sort60.jpg,nogoal,NULL
1687281493,619581bb564330beb502be24d7c242d0,PennController,11,0,experiment,NULL,PennController,10,_Trial_,Start,1687284936513,6107b85a1f75367afc533648,6107b85a1f75367afc533648,8,cucumber,critical,B,75,cucumber66.jpg,cucumber84.jpg,nogoal,NULL
1687281493,619581bb564330beb502be24d7c242d0,PennController,11,0,experiment,NULL,PennController,10,_Header_,Start,1687284936513,6107b85a1f75367afc533648,6107b85a1f75367afc533648,8,cucumber,critical,B,75,cucumber66.jpg,cucumber84.jpg,nogoal,NULL
1687281493,619581bb564330beb502be24d7c242d0,PennController,11,0,experiment,NULL,PennController,10,_Header_,End,1687284936513,6107b85a1f75367afc533648,6107b85a1f75367afc533648,8,cucumber,critical,B,75,cucumber66.jpg,cucumber84.jpg,nogoal,NULL
1687281493,619581bb564330beb502be24d7c242d0,PennController,11,0,experiment,NULL,Canvas,canvas6,Print,NA,1687284944181,6107b85a1f75367afc533648,6107b85a1f75367afc533648,8,cucumber,critical,B,75,cucumber66.jpg,cucumber84.jpg,nogoal,NULL
1687281493,619581bb564330beb502be24d7c242d0,PennController,11,0,experiment,NULL,Video,progression,buffer,0.002392,1687284938026,6107b85a1f75367afc533648,6107b85a1f75367afc533648,8,cucumber,critical,B,75,cucumber66.jpg,cucumber84.jpg,nogoal,NULL
1687281493,619581bb564330beb502be24d7c242d0,PennController,11,0,experiment,NULL,Selector,choice,Selection,option1,1687284946866,6107b85a1f75367afc533648,6107b85a1f75367afc533648,8,cucumber,critical,B,75,cucumber66.jpg,cucumber84.jpg,nogoal,option2;option1
1687281493,619581bb564330beb502be24d7c242d0,PennController,11,0,experiment,NULL,PennController,10,_Trial_,End,1687284946867,6107b85a1f75367afc533648,6107b85a1f75367afc533648,8,cucumber,critical,B,75,cucumber66.jpg,cucumber84.jpg,nogoal,NULL
1687281493,619581bb564330beb502be24d7c242d0,PennController,8,0,experiment,NULL,PennController,7,_Trial_,Start,1687284946868,6107b85a1f75367afc533648,6107b85a1f75367afc533648,5,book,critical,B,75,book65.jpg,book85.jpg,nogoal,NULL
1687281493,619581bb564330beb502be24d7c242d0,PennController,8,0,experiment,NULL,PennController,7,_Header_,Start,1687284946868,6107b85a1f75367afc533648,6107b85a1f75367afc533648,5,book,critical,B,75,book65.jpg,book85.jpg,nogoal,NULL
1687281493,619581bb564330beb502be24d7c242d0,PennController,8,0,experiment,NULL,PennController,7,_Header_,End,1687284946868,6107b85a1f75367afc533648,6107b85a1f75367afc533648,5,book,critical,B,75,book65.jpg,book85.jpg,nogoal,NULL
1687281493,619581bb564330beb502be24d7c242d0,PennController,8,0,experiment,NULL,Canvas,canvas6,Print,NA,1687284952547,6107b85a1f75367afc533648,6107b85a1f75367afc533648,5,book,critical,B,75,book65.jpg,book85.jpg,nogoal,NULL
1687281493,619581bb564330beb502be24d7c242d0,PennController,8,0,experiment,NULL,Video,progression,buffer,0.002238,1687284948380,6107b85a1f75367afc533648,6107b85a1f75367afc533648,5,book,critical,B,75,book65.jpg,book85.jpg,nogoal,NULL
1687281493,619581bb564330beb502be24d7c242d0,PennController,8,0,experiment,NULL,Selector,choice,Selection,option1,1687284954056,6107b85a1f75367afc533648,6107b85a1f75367afc533648,5,book,critical,B,75,book65.jpg,book85.jpg,nogoal,option1;option2
1687281493,619581bb564330beb502be24d7c242d0,PennController,8,0,experiment,NULL,PennController,7,_Trial_,End,1687284954057,6107b85a1f75367afc533648,6107b85a1f75367afc533648,5,book,critical,B,75,book65.jpg,book85.jpg,nogoal,NULL
1687281493,619581bb564330beb502be24d7c242d0,PennController,9,0,experiment,NULL,PennController,8,_Trial_,Start,1687284954058,6107b85a1f75367afc533648,6107b85a1f75367afc533648,6,flower,critical,B,25,flower15.jpg,flower35.jpg,nogoal,NULL
1687281493,619581bb564330beb502be24d7c242d0,PennController,9,0,experiment,NULL,PennController,8,_Header_,Start,1687284954058,6107b85a1f75367afc533648,6107b85a1f75367afc533648,6,flower,critical,B,25,flower15.jpg,flower35.jpg,nogoal,NULL
1687281493,619581bb564330beb502be24d7c242d0,PennController,9,0,experiment,NULL,PennController,8,_Header_,End,1687284954058,6107b85a1f75367afc533648,6107b85a1f75367afc533648,6,flower,critical,B,25,flower15.jpg,flower35.jpg,nogoal,NULL
1687281493,619581bb564330beb502be24d7c242d0,PennController,9,0,experiment,NULL,Canvas,canvas6,Print,NA,1687284957728,6107b85a1f75367afc533648,6107b85a1f75367afc533648,6,flower,critical,B,25,flower15.jpg,flower35.jpg,nogoal,NULL
1687281493,619581bb564330beb502be24d7c242d0,PennController,9,0,experiment,NULL,Video,progression,buffer,0.001858,1687284955573,6107b85a1f75367afc533648,6107b85a1f75367afc533648,6,flower,critical,B,25,flower15.jpg,flower35.jpg,nogoal,NULL
1687281493,619581bb564330beb502be24d7c242d0,PennController,9,0,experiment,NULL,Selector,choice,Selection,option1,1687284961496,6107b85a1f75367afc533648,6107b85a1f75367afc533648,6,flower,critical,B,25,flower15.jpg,flower35.jpg,nogoal,option1;option2
1687281493,619581bb564330beb502be24d7c242d0,PennController,9,0,experiment,NULL,PennController,8,_Trial_,End,1687284961497,6107b85a1f75367afc533648,6107b85a1f75367afc533648,6,flower,critical,B,25,flower15.jpg,flower35.jpg,nogoal,NULL
1687281493,619581bb564330beb502be24d7c242d0,PennController,25,0,experiment,NULL,PennController,24,_Trial_,Start,1687284961498,6107b85a1f75367afc533648,6107b85a1f75367afc533648,22,wall,filler,B,50,wall40.jpg,wall60.jpg,nogoal,NULL
1687281493,619581bb564330beb502be24d7c242d0,PennController,25,0,experiment,NULL,PennController,24,_Header_,Start,1687284961498,6107b85a1f75367afc533648,6107b85a1f75367afc533648,22,wall,filler,B,50,wall40.jpg,wall60.jpg,nogoal,NULL
1687281493,619581bb564330beb502be24d7c242d0,PennController,25,0,experiment,NULL,PennController,24,_Header_,End,1687284961498,6107b85a1f75367afc533648,6107b85a1f75367afc533648,22,wall,filler,B,50,wall40.jpg,wall60.jpg,nogoal,NULL
1687281493,619581bb564330beb502be24d7c242d0,PennController,25,0,experiment,NULL,Canvas,canvas6,Print,NA,1687284966176,6107b85a1f75367afc533648,6107b85a1f75367afc533648,22,wall,filler,B,50,wall40.jpg,wall60.jpg,nogoal,NULL
1687281493,619581bb564330beb502be24d7c242d0,PennController,25,0,experiment,NULL,Video,progression,buffer,0.001727,1687284963010,6107b85a1f75367afc533648,6107b85a1f75367afc533648,22,wall,filler,B,50,wall40.jpg,wall60.jpg,nogoal,NULL
1687281493,619581bb564330beb502be24d7c242d0,PennController,25,0,experiment,NULL,Selector,choice,Selection,option2,1687284969102,6107b85a1f75367afc533648,6107b85a1f75367afc533648,22,wall,filler,B,50,wall40.jpg,wall60.jpg,nogoal,option1;option2
1687281493,619581bb564330beb502be24d7c242d0,PennController,25,0,experiment,NULL,PennController,24,_Trial_,End,1687284969103,6107b85a1f75367afc533648,6107b85a1f75367afc533648,22,wall,filler,B,50,wall40.jpg,wall60.jpg,nogoal,NULL
1687281493,619581bb564330beb502be24d7c242d0,PennController,28,0,experiment,NULL,PennController,27,_Trial_,Start,1687284969104,6107b85a1f75367afc533648,6107b85a1f75367afc533648,25,house,filler,B,50,house40.jpg,house60.jpg,nogoal,NULL
1687281493,619581bb564330beb502be24d7c242d0,PennController,28,0,experiment,NULL,PennController,27,_Header_,Start,1687284969104,6107b85a1f75367afc533648,6107b85a1f75367afc533648,25,house,filler,B,50,house40.jpg,house60.jpg,nogoal,NULL
1687281493,619581bb564330beb502be24d7c242d0,PennController,28,0,experiment,NULL,PennController,27,_Header_,End,1687284969104,6107b85a1f75367afc533648,6107b85a1f75367afc533648,25,house,filler,B,50,house40.jpg,house60.jpg,nogoal,NULL
1687281493,619581bb564330beb502be24d7c242d0,PennController,28,0,experiment,NULL,Canvas,canvas6,Print,NA,1687284973774,6107b85a1f75367afc533648,6107b85a1f75367afc533648,25,house,filler,B,50,house40.jpg,house60.jpg,nogoal,NULL
1687281493,619581bb564330beb502be24d7c242d0,PennController,28,0,experiment,NULL,Video,progression,buffer,0.001749,1687284970617,6107b85a1f75367afc533648,6107b85a1f75367afc533648,25,house,filler,B,50,house40.jpg,house60.jpg,nogoal,NULL
1687281493,619581bb564330beb502be24d7c242d0,PennController,28,0,experiment,NULL,Selector,choice,Selection,option1,1687284978187,6107b85a1f75367afc533648,6107b85a1f75367afc533648,25,house,filler,B,50,house40.jpg,house60.jpg,nogoal,option2;option1
1687281493,619581bb564330beb502be24d7c242d0,PennController,28,0,experiment,NULL,PennController,27,_Trial_,End,1687284978188,6107b85a1f75367afc533648,6107b85a1f75367afc533648,25,house,filler,B,50,house40.jpg,house60.jpg,nogoal,NULL
1687281493,619581bb564330beb502be24d7c242d0,PennController,18,0,experiment,NULL,PennController,17,_Trial_,Start,1687284978189,6107b85a1f75367afc533648,6107b85a1f75367afc533648,15,zip,critical,B,25,zip15.jpg,zip35.jpg,nogoal,NULL
1687281493,619581bb564330beb502be24d7c242d0,PennController,18,0,experiment,NULL,PennController,17,_Header_,Start,1687284978189,6107b85a1f75367afc533648,6107b85a1f75367afc533648,15,zip,critical,B,25,zip15.jpg,zip35.jpg,nogoal,NULL
1687281493,619581bb564330beb502be24d7c242d0,PennController,18,0,experiment,NULL,PennController,17,_Header_,End,1687284978189,6107b85a1f75367afc533648,6107b85a1f75367afc533648,15,zip,critical,B,25,zip15.jpg,zip35.jpg,nogoal,NULL
1687281493,619581bb564330beb502be24d7c242d0,PennController,18,0,experiment,NULL,Canvas,canvas6,Print,NA,1687284981858,6107b85a1f75367afc533648,6107b85a1f75367afc533648,15,zip,critical,B,25,zip15.jpg,zip35.jpg,nogoal,NULL
1687281493,619581bb564330beb502be24d7c242d0,PennController,18,0,experiment,NULL,Video,progression,buffer,0.001707,1687284979700,6107b85a1f75367afc533648,6107b85a1f75367afc533648,15,zip,critical,B,25,zip15.jpg,zip35.jpg,nogoal,NULL
1687281493,619581bb564330beb502be24d7c242d0,PennController,18,0,experiment,NULL,Selector,choice,Selection,option1,1687284984071,6107b85a1f75367afc533648,6107b85a1f75367afc533648,15,zip,critical,B,25,zip15.jpg,zip35.jpg,nogoal,option2;option1
1687281493,619581bb564330beb502be24d7c242d0,PennController,18,0,experiment,NULL,PennController,17,_Trial_,End,1687284984071,6107b85a1f75367afc533648,6107b85a1f75367afc533648,15,zip,critical,B,25,zip15.jpg,zip35.jpg,nogoal,NULL
1687281493,619581bb564330beb502be24d7c242d0,PennController,4,0,experiment,NULL,PennController,3,_Trial_,Start,1687284984072,6107b85a1f75367afc533648,6107b85a1f75367afc533648,1,vase,critical,B,50,vase40.jpg,vase60.jpg,nogoal,NULL
1687281493,619581bb564330beb502be24d7c242d0,PennController,4,0,experiment,NULL,PennController,3,_Header_,Start,1687284984072,6107b85a1f75367afc533648,6107b85a1f75367afc533648,1,vase,critical,B,50,vase40.jpg,vase60.jpg,nogoal,NULL
1687281493,619581bb564330beb502be24d7c242d0,PennController,4,0,experiment,NULL,PennController,3,_Header_,End,1687284984072,6107b85a1f75367afc533648,6107b85a1f75367afc533648,1,vase,critical,B,50,vase40.jpg,vase60.jpg,nogoal,NULL
1687281493,619581bb564330beb502be24d7c242d0,PennController,4,0,experiment,NULL,Canvas,canvas6,Print,NA,1687284988741,6107b85a1f75367afc533648,6107b85a1f75367afc533648,1,vase,critical,B,50,vase40.jpg,vase60.jpg,nogoal,NULL
1687281493,619581bb564330beb502be24d7c242d0,PennController,4,0,experiment,NULL,Video,progression,buffer,0.001825,1687284985580,6107b85a1f75367afc533648,6107b85a1f75367afc533648,1,vase,critical,B,50,vase40.jpg,vase60.jpg,nogoal,NULL
1687281493,619581bb564330beb502be24d7c242d0,PennController,4,0,experiment,NULL,Selector,choice,Selection,option2,1687284991114,6107b85a1f75367afc533648,6107b85a1f75367afc533648,1,vase,critical,B,50,vase40.jpg,vase60.jpg,nogoal,option1;option2
1687281493,619581bb564330beb502be24d7c242d0,PennController,4,0,experiment,NULL,PennController,3,_Trial_,End,1687284991115,6107b85a1f75367afc533648,6107b85a1f75367afc533648,1,vase,critical,B,50,vase40.jpg,vase60.jpg,nogoal,NULL
1687281493,619581bb564330beb502be24d7c242d0,PennController,30,0,experiment,NULL,PennController,29,_Trial_,Start,1687284991116,6107b85a1f75367afc533648,6107b85a1f75367afc533648,27,square,filler,B,25,square15.jpg,square35.jpg,nogoal,NULL
1687281493,619581bb564330beb502be24d7c242d0,PennController,30,0,experiment,NULL,PennController,29,_Header_,Start,1687284991116,6107b85a1f75367afc533648,6107b85a1f75367afc533648,27,square,filler,B,25,square15.jpg,square35.jpg,nogoal,NULL
1687281493,619581bb564330beb502be24d7c242d0,PennController,30,0,experiment,NULL,PennController,29,_Header_,End,1687284991116,6107b85a1f75367afc533648,6107b85a1f75367afc533648,27,square,filler,B,25,square15.jpg,square35.jpg,nogoal,NULL
1687281493,619581bb564330beb502be24d7c242d0,PennController,30,0,experiment,NULL,Canvas,canvas6,Print,NA,1687284994787,6107b85a1f75367afc533648,6107b85a1f75367afc533648,27,square,filler,B,25,square15.jpg,square35.jpg,nogoal,NULL
1687281493,619581bb564330beb502be24d7c242d0,PennController,30,0,experiment,NULL,Video,progression,buffer,0.001638,1687284992627,6107b85a1f75367afc533648,6107b85a1f75367afc533648,27,square,filler,B,25,square15.jpg,square35.jpg,nogoal,NULL
1687281493,619581bb564330beb502be24d7c242d0,PennController,30,0,experiment,NULL,Selector,choice,Selection,option1,1687284997446,6107b85a1f75367afc533648,6107b85a1f75367afc533648,27,square,filler,B,25,square15.jpg,square35.jpg,nogoal,option2;option1
1687281493,619581bb564330beb502be24d7c242d0,PennController,30,0,experiment,NULL,PennController,29,_Trial_,End,1687284997447,6107b85a1f75367afc533648,6107b85a1f75367afc533648,27,square,filler,B,25,square15.jpg,square35.jpg,nogoal,NULL
1687281493,619581bb564330beb502be24d7c242d0,PennController,19,0,experiment,NULL,PennController,18,_Trial_,Start,1687284997447,6107b85a1f75367afc533648,6107b85a1f75367afc533648,16,blinds,critical,B,50,blinds42.jpg,blinds60.jpg,nogoal,NULL
1687281493,619581bb564330beb502be24d7c242d0,PennController,19,0,experiment,NULL,PennController,18,_Header_,Start,1687284997447,6107b85a1f75367afc533648,6107b85a1f75367afc533648,16,blinds,critical,B,50,blinds42.jpg,blinds60.jpg,nogoal,NULL
1687281493,619581bb564330beb502be24d7c242d0,PennController,19,0,experiment,NULL,PennController,18,_Header_,End,1687284997447,6107b85a1f75367afc533648,6107b85a1f75367afc533648,16,blinds,critical,B,50,blinds42.jpg,blinds60.jpg,nogoal,NULL
1687281493,619581bb564330beb502be24d7c242d0,PennController,19,0,experiment,NULL,Canvas,canvas6,Print,NA,1687285003522,6107b85a1f75367afc533648,6107b85a1f75367afc533648,16,blinds,critical,B,50,blinds42.jpg,blinds60.jpg,nogoal,NULL
1687281493,619581bb564330beb502be24d7c242d0,PennController,19,0,experiment,NULL,Video,progression,buffer,0.001556,1687284998961,6107b85a1f75367afc533648,6107b85a1f75367afc533648,16,blinds,critical,B,50,blinds42.jpg,blinds60.jpg,nogoal,NULL
1687281493,619581bb564330beb502be24d7c242d0,PennController,19,0,experiment,NULL,Selector,choice,Selection,option1,1687285006189,6107b85a1f75367afc533648,6107b85a1f75367afc533648,16,blinds,critical,B,50,blinds42.jpg,blinds60.jpg,nogoal,option2;option1
1687281493,619581bb564330beb502be24d7c242d0,PennController,19,0,experiment,NULL,PennController,18,_Trial_,End,1687285006190,6107b85a1f75367afc533648,6107b85a1f75367afc533648,16,blinds,critical,B,50,blinds42.jpg,blinds60.jpg,nogoal,NULL
1687281493,619581bb564330beb502be24d7c242d0,PennController,13,0,experiment,NULL,PennController,12,_Trial_,Start,1687285006191,6107b85a1f75367afc533648,6107b85a1f75367afc533648,10,train,critical,B,50,train40.jpg,train60.jpg,nogoal,NULL
1687281493,619581bb564330beb502be24d7c242d0,PennController,13,0,experiment,NULL,PennController,12,_Header_,Start,1687285006191,6107b85a1f75367afc533648,6107b85a1f75367afc533648,10,train,critical,B,50,train40.jpg,train60.jpg,nogoal,NULL
1687281493,619581bb564330beb502be24d7c242d0,PennController,13,0,experiment,NULL,PennController,12,_Header_,End,1687285006191,6107b85a1f75367afc533648,6107b85a1f75367afc533648,10,train,critical,B,50,train40.jpg,train60.jpg,nogoal,NULL
1687281493,619581bb564330beb502be24d7c242d0,PennController,13,0,experiment,NULL,Canvas,canvas6,Print,NA,1687285010871,6107b85a1f75367afc533648,6107b85a1f75367afc533648,10,train,critical,B,50,train40.jpg,train60.jpg,nogoal,NULL
1687281493,619581bb564330beb502be24d7c242d0,PennController,13,0,experiment,NULL,Video,progression,buffer,0.001556,1687285007702,6107b85a1f75367afc533648,6107b85a1f75367afc533648,10,train,critical,B,50,train40.jpg,train60.jpg,nogoal,NULL
1687281493,619581bb564330beb502be24d7c242d0,PennController,13,0,experiment,NULL,Selector,choice,Selection,option1,1687285012372,6107b85a1f75367afc533648,6107b85a1f75367afc533648,10,train,critical,B,50,train40.jpg,train60.jpg,nogoal,option1;option2
1687281493,619581bb564330beb502be24d7c242d0,PennController,13,0,experiment,NULL,PennController,12,_Trial_,End,1687285012372,6107b85a1f75367afc533648,6107b85a1f75367afc533648,10,train,critical,B,50,train40.jpg,train60.jpg,nogoal,NULL
1687281493,619581bb564330beb502be24d7c242d0,PennController,10,0,experiment,NULL,PennController,9,_Trial_,Start,1687285012373,6107b85a1f75367afc533648,6107b85a1f75367afc533648,7,stack,critical,B,50,stack40.jpg,stack60.jpg,nogoal,NULL
1687281493,619581bb564330beb502be24d7c242d0,PennController,10,0,experiment,NULL,PennController,9,_Header_,Start,1687285012373,6107b85a1f75367afc533648,6107b85a1f75367afc533648,7,stack,critical,B,50,stack40.jpg,stack60.jpg,nogoal,NULL
1687281493,619581bb564330beb502be24d7c242d0,PennController,10,0,experiment,NULL,PennController,9,_Header_,End,1687285012373,6107b85a1f75367afc533648,6107b85a1f75367afc533648,7,stack,critical,B,50,stack40.jpg,stack60.jpg,nogoal,NULL
1687281493,619581bb564330beb502be24d7c242d0,PennController,10,0,experiment,NULL,Canvas,canvas6,Print,NA,1687285017050,6107b85a1f75367afc533648,6107b85a1f75367afc533648,7,stack,critical,B,50,stack40.jpg,stack60.jpg,nogoal,NULL
1687281493,619581bb564330beb502be24d7c242d0,PennController,10,0,experiment,NULL,Video,progression,buffer,0.001642,1687285013886,6107b85a1f75367afc533648,6107b85a1f75367afc533648,7,stack,critical,B,50,stack40.jpg,stack60.jpg,nogoal,NULL
1687281493,619581bb564330beb502be24d7c242d0,PennController,10,0,experiment,NULL,Selector,choice,Selection,option1,1687285020553,6107b85a1f75367afc533648,6107b85a1f75367afc533648,7,stack,critical,B,50,stack40.jpg,stack60.jpg,nogoal,option2;option1
1687281493,619581bb564330beb502be24d7c242d0,PennController,10,0,experiment,NULL,PennController,9,_Trial_,End,1687285020553,6107b85a1f75367afc533648,6107b85a1f75367afc533648,7,stack,critical,B,50,stack40.jpg,stack60.jpg,nogoal,NULL
1687281493,619581bb564330beb502be24d7c242d0,PennController,27,0,experiment,NULL,PennController,26,_Trial_,Start,1687285020554,6107b85a1f75367afc533648,6107b85a1f75367afc533648,24,match,filler,B,25,match15.jpg,match35.jpg,nogoal,NULL
1687281493,619581bb564330beb502be24d7c242d0,PennController,27,0,experiment,NULL,PennController,26,_Header_,Start,1687285020554,6107b85a1f75367afc533648,6107b85a1f75367afc533648,24,match,filler,B,25,match15.jpg,match35.jpg,nogoal,NULL
1687281493,619581bb564330beb502be24d7c242d0,PennController,27,0,experiment,NULL,PennController,26,_Header_,End,1687285020554,6107b85a1f75367afc533648,6107b85a1f75367afc533648,24,match,filler,B,25,match15.jpg,match35.jpg,nogoal,NULL
1687281493,619581bb564330beb502be24d7c242d0,PennController,27,0,experiment,NULL,Canvas,canvas6,Print,NA,1687285024232,6107b85a1f75367afc533648,6107b85a1f75367afc533648,24,match,filler,B,25,match15.jpg,match35.jpg,nogoal,NULL
1687281493,619581bb564330beb502be24d7c242d0,PennController,27,0,experiment,NULL,Video,progression,buffer,0.002233,1687285022066,6107b85a1f75367afc533648,6107b85a1f75367afc533648,24,match,filler,B,25,match15.jpg,match35.jpg,nogoal,NULL
1687281493,619581bb564330beb502be24d7c242d0,PennController,27,0,experiment,NULL,Selector,choice,Selection,option1,1687285025704,6107b85a1f75367afc533648,6107b85a1f75367afc533648,24,match,filler,B,25,match15.jpg,match35.jpg,nogoal,option2;option1
1687281493,619581bb564330beb502be24d7c242d0,PennController,27,0,experiment,NULL,PennController,26,_Trial_,End,1687285025705,6107b85a1f75367afc533648,6107b85a1f75367afc533648,24,match,filler,B,25,match15.jpg,match35.jpg,nogoal,NULL
1687281493,619581bb564330beb502be24d7c242d0,PennController,23,0,experiment,NULL,PennController,22,_Trial_,Start,1687285025705,6107b85a1f75367afc533648,6107b85a1f75367afc533648,20,cat,filler,B,75,cat65.jpg,cat85.jpg,nogoal,NULL
1687281493,619581bb564330beb502be24d7c242d0,PennController,23,0,experiment,NULL,PennController,22,_Header_,Start,1687285025705,6107b85a1f75367afc533648,6107b85a1f75367afc533648,20,cat,filler,B,75,cat65.jpg,cat85.jpg,nogoal,NULL
1687281493,619581bb564330beb502be24d7c242d0,PennController,23,0,experiment,NULL,PennController,22,_Header_,End,1687285025705,6107b85a1f75367afc533648,6107b85a1f75367afc533648,20,cat,filler,B,75,cat65.jpg,cat85.jpg,nogoal,NULL
1687281493,619581bb564330beb502be24d7c242d0,PennController,23,0,experiment,NULL,Canvas,canvas6,Print,NA,1687285031381,6107b85a1f75367afc533648,6107b85a1f75367afc533648,20,cat,filler,B,75,cat65.jpg,cat85.jpg,nogoal,NULL
1687281493,619581bb564330beb502be24d7c242d0,PennController,23,0,experiment,NULL,Video,progression,buffer,0.001634,1687285027216,6107b85a1f75367afc533648,6107b85a1f75367afc533648,20,cat,filler,B,75,cat65.jpg,cat85.jpg,nogoal,NULL
1687281493,619581bb564330beb502be24d7c242d0,PennController,23,0,experiment,NULL,Selector,choice,Selection,option1,1687285033203,6107b85a1f75367afc533648,6107b85a1f75367afc533648,20,cat,filler,B,75,cat65.jpg,cat85.jpg,nogoal,option1;option2
1687281493,619581bb564330beb502be24d7c242d0,PennController,23,0,experiment,NULL,PennController,22,_Trial_,End,1687285033204,6107b85a1f75367afc533648,6107b85a1f75367afc533648,20,cat,filler,B,75,cat65.jpg,cat85.jpg,nogoal,NULL
1687281493,619581bb564330beb502be24d7c242d0,PennController,12,0,experiment,NULL,PennController,11,_Trial_,Start,1687285033204,6107b85a1f75367afc533648,6107b85a1f75367afc533648,9,cake,critical,B,25,cake15.jpg,cake33.jpg,nogoal,NULL
1687281493,619581bb564330beb502be24d7c242d0,PennController,12,0,experiment,NULL,PennController,11,_Header_,Start,1687285033204,6107b85a1f75367afc533648,6107b85a1f75367afc533648,9,cake,critical,B,25,cake15.jpg,cake33.jpg,nogoal,NULL
1687281493,619581bb564330beb502be24d7c242d0,PennController,12,0,experiment,NULL,PennController,11,_Header_,End,1687285033204,6107b85a1f75367afc533648,6107b85a1f75367afc533648,9,cake,critical,B,25,cake15.jpg,cake33.jpg,nogoal,NULL
1687281493,619581bb564330beb502be24d7c242d0,PennController,12,0,experiment,NULL,Canvas,canvas6,Print,NA,1687285037479,6107b85a1f75367afc533648,6107b85a1f75367afc533648,9,cake,critical,B,25,cake15.jpg,cake33.jpg,nogoal,NULL
1687281493,619581bb564330beb502be24d7c242d0,PennController,12,0,experiment,NULL,Video,progression,buffer,0.001667,1687285034717,6107b85a1f75367afc533648,6107b85a1f75367afc533648,9,cake,critical,B,25,cake15.jpg,cake33.jpg,nogoal,NULL
1687281493,619581bb564330beb502be24d7c242d0,PennController,12,0,experiment,NULL,Selector,choice,Selection,option1,1687285040246,6107b85a1f75367afc533648,6107b85a1f75367afc533648,9,cake,critical,B,25,cake15.jpg,cake33.jpg,nogoal,option1;option2
1687281493,619581bb564330beb502be24d7c242d0,PennController,12,0,experiment,NULL,PennController,11,_Trial_,End,1687285040246,6107b85a1f75367afc533648,6107b85a1f75367afc533648,9,cake,critical,B,25,cake15.jpg,cake33.jpg,nogoal,NULL
1687281493,619581bb564330beb502be24d7c242d0,PennController,5,0,experiment,NULL,PennController,4,_Trial_,Start,1687285040247,6107b85a1f75367afc533648,6107b85a1f75367afc533648,2,door,critical,B,75,door65.jpg,door85.jpg,nogoal,NULL
1687281493,619581bb564330beb502be24d7c242d0,PennController,5,0,experiment,NULL,PennController,4,_Header_,Start,1687285040247,6107b85a1f75367afc533648,6107b85a1f75367afc533648,2,door,critical,B,75,door65.jpg,door85.jpg,nogoal,NULL
1687281493,619581bb564330beb502be24d7c242d0,PennController,5,0,experiment,NULL,PennController,4,_Header_,End,1687285040247,6107b85a1f75367afc533648,6107b85a1f75367afc533648,2,door,critical,B,75,door65.jpg,door85.jpg,nogoal,NULL
1687281493,619581bb564330beb502be24d7c242d0,PennController,5,0,experiment,NULL,Canvas,canvas6,Print,NA,1687285045930,6107b85a1f75367afc533648,6107b85a1f75367afc533648,2,door,critical,B,75,door65.jpg,door85.jpg,nogoal,NULL
1687281493,619581bb564330beb502be24d7c242d0,PennController,5,0,experiment,NULL,Video,progression,buffer,0.001776,1687285041760,6107b85a1f75367afc533648,6107b85a1f75367afc533648,2,door,critical,B,75,door65.jpg,door85.jpg,nogoal,NULL
1687281493,619581bb564330beb502be24d7c242d0,PennController,5,0,experiment,NULL,Selector,choice,Selection,option1,1687285047937,6107b85a1f75367afc533648,6107b85a1f75367afc533648,2,door,critical,B,75,door65.jpg,door85.jpg,nogoal,option2;option1
1687281493,619581bb564330beb502be24d7c242d0,PennController,5,0,experiment,NULL,PennController,4,_Trial_,End,1687285047939,6107b85a1f75367afc533648,6107b85a1f75367afc533648,2,door,critical,B,75,door65.jpg,door85.jpg,nogoal,NULL
1687281493,619581bb564330beb502be24d7c242d0,PennController,15,0,experiment,NULL,PennController,14,_Trial_,Start,1687285047940,6107b85a1f75367afc533648,6107b85a1f75367afc533648,12,erase,critical,B,25,erase15.jpg,erase33.jpg,nogoal,NULL
1687281493,619581bb564330beb502be24d7c242d0,PennController,15,0,experiment,NULL,PennController,14,_Header_,Start,1687285047940,6107b85a1f75367afc533648,6107b85a1f75367afc533648,12,erase,critical,B,25,erase15.jpg,erase33.jpg,nogoal,NULL
1687281493,619581bb564330beb502be24d7c242d0,PennController,15,0,experiment,NULL,PennController,14,_Header_,End,1687285047940,6107b85a1f75367afc533648,6107b85a1f75367afc533648,12,erase,critical,B,25,erase15.jpg,erase33.jpg,nogoal,NULL
1687281493,619581bb564330beb502be24d7c242d0,PennController,15,0,experiment,NULL,Canvas,canvas6,Print,NA,1687285052213,6107b85a1f75367afc533648,6107b85a1f75367afc533648,12,erase,critical,B,25,erase15.jpg,erase33.jpg,nogoal,NULL
1687281493,619581bb564330beb502be24d7c242d0,PennController,15,0,experiment,NULL,Video,progression,buffer,0.001535,1687285049450,6107b85a1f75367afc533648,6107b85a1f75367afc533648,12,erase,critical,B,25,erase15.jpg,erase33.jpg,nogoal,NULL
1687281493,619581bb564330beb502be24d7c242d0,PennController,15,0,experiment,NULL,Selector,choice,Selection,option2,1687285054868,6107b85a1f75367afc533648,6107b85a1f75367afc533648,12,erase,critical,B,25,erase15.jpg,erase33.jpg,nogoal,option2;option1
1687281493,619581bb564330beb502be24d7c242d0,PennController,15,0,experiment,NULL,PennController,14,_Trial_,End,1687285054868,6107b85a1f75367afc533648,6107b85a1f75367afc533648,12,erase,critical,B,25,erase15.jpg,erase33.jpg,nogoal,NULL
1687281493,619581bb564330beb502be24d7c242d0,PennController,26,0,experiment,NULL,PennController,25,_Trial_,Start,1687285054869,6107b85a1f75367afc533648,6107b85a1f75367afc533648,23,color,filler,B,75,color65.jpg,color85.jpg,nogoal,NULL
1687281493,619581bb564330beb502be24d7c242d0,PennController,26,0,experiment,NULL,PennController,25,_Header_,Start,1687285054869,6107b85a1f75367afc533648,6107b85a1f75367afc533648,23,color,filler,B,75,color65.jpg,color85.jpg,nogoal,NULL
1687281493,619581bb564330beb502be24d7c242d0,PennController,26,0,experiment,NULL,PennController,25,_Header_,End,1687285054869,6107b85a1f75367afc533648,6107b85a1f75367afc533648,23,color,filler,B,75,color65.jpg,color85.jpg,nogoal,NULL
1687281493,619581bb564330beb502be24d7c242d0,PennController,26,0,experiment,NULL,Canvas,canvas6,Print,NA,1687285060543,6107b85a1f75367afc533648,6107b85a1f75367afc533648,23,color,filler,B,75,color65.jpg,color85.jpg,nogoal,NULL
1687281493,619581bb564330beb502be24d7c242d0,PennController,26,0,experiment,NULL,Video,progression,buffer,0.001795,1687285056382,6107b85a1f75367afc533648,6107b85a1f75367afc533648,23,color,filler,B,75,color65.jpg,color85.jpg,nogoal,NULL
1687281493,619581bb564330beb502be24d7c242d0,PennController,26,0,experiment,NULL,Selector,choice,Selection,option2,1687285066884,6107b85a1f75367afc533648,6107b85a1f75367afc533648,23,color,filler,B,75,color65.jpg,color85.jpg,nogoal,option2;option1
1687281493,619581bb564330beb502be24d7c242d0,PennController,26,0,experiment,NULL,PennController,25,_Trial_,End,1687285066884,6107b85a1f75367afc533648,6107b85a1f75367afc533648,23,color,filler,B,75,color65.jpg,color85.jpg,nogoal,NULL
1687281493,619581bb564330beb502be24d7c242d0,PennController,16,0,experiment,NULL,PennController,15,_Trial_,Start,1687285066886,6107b85a1f75367afc533648,6107b85a1f75367afc533648,13,mix,critical,B,50,mix40.jpg,mix60.jpg,nogoal,NULL
1687281493,619581bb564330beb502be24d7c242d0,PennController,16,0,experiment,NULL,PennController,15,_Header_,Start,1687285066886,6107b85a1f75367afc533648,6107b85a1f75367afc533648,13,mix,critical,B,50,mix40.jpg,mix60.jpg,nogoal,NULL
1687281493,619581bb564330beb502be24d7c242d0,PennController,16,0,experiment,NULL,PennController,15,_Header_,End,1687285066886,6107b85a1f75367afc533648,6107b85a1f75367afc533648,13,mix,critical,B,50,mix40.jpg,mix60.jpg,nogoal,NULL
1687281493,619581bb564330beb502be24d7c242d0,PennController,16,0,experiment,NULL,Canvas,canvas6,Print,NA,1687285071558,6107b85a1f75367afc533648,6107b85a1f75367afc533648,13,mix,critical,B,50,mix40.jpg,mix60.jpg,nogoal,NULL
1687281493,619581bb564330beb502be24d7c242d0,PennController,16,0,experiment,NULL,Video,progression,buffer,0.002732,1687285068394,6107b85a1f75367afc533648,6107b85a1f75367afc533648,13,mix,critical,B,50,mix40.jpg,mix60.jpg,nogoal,NULL
1687281493,619581bb564330beb502be24d7c242d0,PennController,16,0,experiment,NULL,Selector,choice,Selection,option1,1687285073229,6107b85a1f75367afc533648,6107b85a1f75367afc533648,13,mix,critical,B,50,mix40.jpg,mix60.jpg,nogoal,option2;option1
1687281493,619581bb564330beb502be24d7c242d0,PennController,16,0,experiment,NULL,PennController,15,_Trial_,End,1687285073230,6107b85a1f75367afc533648,6107b85a1f75367afc533648,13,mix,critical,B,50,mix40.jpg,mix60.jpg,nogoal,NULL
1687281493,619581bb564330beb502be24d7c242d0,PennController,14,0,experiment,NULL,PennController,13,_Trial_,Start,1687285073231,6107b85a1f75367afc533648,6107b85a1f75367afc533648,11,beads,critical,B,75,beads65.jpg,beads85.jpg,nogoal,NULL
1687281493,619581bb564330beb502be24d7c242d0,PennController,14,0,experiment,NULL,PennController,13,_Header_,Start,1687285073231,6107b85a1f75367afc533648,6107b85a1f75367afc533648,11,beads,critical,B,75,beads65.jpg,beads85.jpg,nogoal,NULL
1687281493,619581bb564330beb502be24d7c242d0,PennController,14,0,experiment,NULL,PennController,13,_Header_,End,1687285073231,6107b85a1f75367afc533648,6107b85a1f75367afc533648,11,beads,critical,B,75,beads65.jpg,beads85.jpg,nogoal,NULL
1687281493,619581bb564330beb502be24d7c242d0,PennController,14,0,experiment,NULL,Canvas,canvas6,Print,NA,1687285078905,6107b85a1f75367afc533648,6107b85a1f75367afc533648,11,beads,critical,B,75,beads65.jpg,beads85.jpg,nogoal,NULL
1687281493,619581bb564330beb502be24d7c242d0,PennController,14,0,experiment,NULL,Video,progression,buffer,0.002576,1687285074741,6107b85a1f75367afc533648,6107b85a1f75367afc533648,11,beads,critical,B,75,beads65.jpg,beads85.jpg,nogoal,NULL
1687281493,619581bb564330beb502be24d7c242d0,PennController,14,0,experiment,NULL,Selector,choice,Selection,option2,1687285080493,6107b85a1f75367afc533648,6107b85a1f75367afc533648,11,beads,critical,B,75,beads65.jpg,beads85.jpg,nogoal,option2;option1
1687281493,619581bb564330beb502be24d7c242d0,PennController,14,0,experiment,NULL,PennController,13,_Trial_,End,1687285080493,6107b85a1f75367afc533648,6107b85a1f75367afc533648,11,beads,critical,B,75,beads65.jpg,beads85.jpg,nogoal,NULL
