#
# Results on Thursday June 22 2023 17:05:12 UTC
# USER AGENT: Mozilla/5.0 (Windows NT 10.0; Win64; x64) AppleWebKit/537.36 (KHTML, like Gecko) Chrome/114.0.0.0 Safari/537.36
# Design number was non-random = 90
#
# Columns below this comment are as follows:
# 1. Results reception time.
# 2. MD5 hash of participant's IP address.
# 3. Controller name.
# 4. Order number of item.
# 5. Inner element number.
# 6. Label.
# 7. Latin Square Group.
# 8. PennElementType.
# 9. PennElementName.
# 10. Parameter.
# 11. Value.
# 12. EventTime.
# 13. ProlificID.
# 14. Comments.
1687453512,81078ea3e4e27289b2ccbd31cb27f81c,PennController,2,0,consent,NULL,PennController,0,_Trial_,Start,1687452876159,61290c984835b674072fc6ac,NULL
1687453512,81078ea3e4e27289b2ccbd31cb27f81c,PennController,2,0,consent,NULL,PennController,0,_Header_,Start,1687452876159,61290c984835b674072fc6ac,NULL
1687453512,81078ea3e4e27289b2ccbd31cb27f81c,PennController,2,0,consent,NULL,PennController,0,_Header_,End,1687452876188,61290c984835b674072fc6ac,NULL
1687453512,81078ea3e4e27289b2ccbd31cb27f81c,PennController,2,0,consent,NULL,PennController,0,_Trial_,End,1687452929549,61290c984835b674072fc6ac,NULL
# Columns below this comment are as follows:
# 14. ID.
# 15. Comments.
1687453512,81078ea3e4e27289b2ccbd31cb27f81c,PennController,3,0,intro,NULL,PennController,1,_Trial_,Start,1687452929553,61290c984835b674072fc6ac,61290c984835b674072fc6ac,NULL
1687453512,81078ea3e4e27289b2ccbd31cb27f81c,PennController,3,0,intro,NULL,PennController,1,_Header_,Start,1687452929553,61290c984835b674072fc6ac,61290c984835b674072fc6ac,NULL
1687453512,81078ea3e4e27289b2ccbd31cb27f81c,PennController,3,0,intro,NULL,PennController,1,_Header_,End,1687452929554,61290c984835b674072fc6ac,61290c984835b674072fc6ac,NULL
1687453512,81078ea3e4e27289b2ccbd31cb27f81c,PennController,3,0,intro,NULL,PennController,1,_Trial_,End,1687453018858,61290c984835b674072fc6ac,61290c984835b674072fc6ac,NULL
# Columns below this comment are as follows:
# 15. item_number.
# 16. item.
# 17. type.
# 18. Group.
# 19. prog.
# 20. condition.
# 21. height.
# 22. exp2trials.
# 23. Comments.
1687453512,81078ea3e4e27289b2ccbd31cb27f81c,PennController,24,0,experiment,NULL,PennController,23,_Trial_,Start,1687453018860,61290c984835b674072fc6ac,61290c984835b674072fc6ac,21,visit,filler,A,75,goal,GoalA,exp2trials,NULL
1687453512,81078ea3e4e27289b2ccbd31cb27f81c,PennController,24,0,experiment,NULL,PennController,23,_Header_,Start,1687453018860,61290c984835b674072fc6ac,61290c984835b674072fc6ac,21,visit,filler,A,75,goal,GoalA,exp2trials,NULL
1687453512,81078ea3e4e27289b2ccbd31cb27f81c,PennController,24,0,experiment,NULL,PennController,23,_Header_,End,1687453018861,61290c984835b674072fc6ac,61290c984835b674072fc6ac,21,visit,filler,A,75,goal,GoalA,exp2trials,NULL
1687453512,81078ea3e4e27289b2ccbd31cb27f81c,PennController,24,0,experiment,NULL,Video,progression,buffer,0.005578,1687453022415,61290c984835b674072fc6ac,61290c984835b674072fc6ac,21,visit,filler,A,75,goal,GoalA,exp2trials,NULL
1687453512,81078ea3e4e27289b2ccbd31cb27f81c,PennController,24,0,experiment,NULL,VideoScrubber,slider-input,SelectedFrame,95,1687453026608,61290c984835b674072fc6ac,61290c984835b674072fc6ac,21,visit,filler,A,75,goal,GoalA,exp2trials,NULL
1687453512,81078ea3e4e27289b2ccbd31cb27f81c,PennController,24,0,experiment,NULL,PennController,23,_Trial_,End,1687453059891,61290c984835b674072fc6ac,61290c984835b674072fc6ac,21,visit,filler,A,75,goal,GoalA,exp2trials,NULL
1687453512,81078ea3e4e27289b2ccbd31cb27f81c,PennController,26,0,experiment,NULL,PennController,25,_Trial_,Start,1687453059893,61290c984835b674072fc6ac,61290c984835b674072fc6ac,23,color,filler,A,50,goal,GoalA,exp2trials,NULL
1687453512,81078ea3e4e27289b2ccbd31cb27f81c,PennController,26,0,experiment,NULL,PennController,25,_Header_,Start,1687453059893,61290c984835b674072fc6ac,61290c984835b674072fc6ac,23,color,filler,A,50,goal,GoalA,exp2trials,NULL
1687453512,81078ea3e4e27289b2ccbd31cb27f81c,PennController,26,0,experiment,NULL,PennController,25,_Header_,End,1687453059893,61290c984835b674072fc6ac,61290c984835b674072fc6ac,23,color,filler,A,50,goal,GoalA,exp2trials,NULL
1687453512,81078ea3e4e27289b2ccbd31cb27f81c,PennController,26,0,experiment,NULL,Video,progression,buffer,0.00529,1687453063427,61290c984835b674072fc6ac,61290c984835b674072fc6ac,23,color,filler,A,50,goal,GoalA,exp2trials,NULL
1687453512,81078ea3e4e27289b2ccbd31cb27f81c,PennController,26,0,experiment,NULL,VideoScrubber,slider-input,SelectedFrame,55,1687453066585,61290c984835b674072fc6ac,61290c984835b674072fc6ac,23,color,filler,A,50,goal,GoalA,exp2trials,NULL
1687453512,81078ea3e4e27289b2ccbd31cb27f81c,PennController,26,0,experiment,NULL,PennController,25,_Trial_,End,1687453085578,61290c984835b674072fc6ac,61290c984835b674072fc6ac,23,color,filler,A,50,goal,GoalA,exp2trials,NULL
1687453512,81078ea3e4e27289b2ccbd31cb27f81c,PennController,7,0,experiment,NULL,PennController,6,_Trial_,Start,1687453085580,61290c984835b674072fc6ac,61290c984835b674072fc6ac,4,candy,critical,A,25,goal,low,exp2trials,NULL
1687453512,81078ea3e4e27289b2ccbd31cb27f81c,PennController,7,0,experiment,NULL,PennController,6,_Header_,Start,1687453085580,61290c984835b674072fc6ac,61290c984835b674072fc6ac,4,candy,critical,A,25,goal,low,exp2trials,NULL
1687453512,81078ea3e4e27289b2ccbd31cb27f81c,PennController,7,0,experiment,NULL,PennController,6,_Header_,End,1687453085580,61290c984835b674072fc6ac,61290c984835b674072fc6ac,4,candy,critical,A,25,goal,low,exp2trials,NULL
1687453512,81078ea3e4e27289b2ccbd31cb27f81c,PennController,7,0,experiment,NULL,Video,progression,buffer,0.003294,1687453089100,61290c984835b674072fc6ac,61290c984835b674072fc6ac,4,candy,critical,A,25,goal,low,exp2trials,NULL
1687453512,81078ea3e4e27289b2ccbd31cb27f81c,PennController,7,0,experiment,NULL,VideoScrubber,slider-input,SelectedFrame,40,1687453091268,61290c984835b674072fc6ac,61290c984835b674072fc6ac,4,candy,critical,A,25,goal,low,exp2trials,NULL
1687453512,81078ea3e4e27289b2ccbd31cb27f81c,PennController,7,0,experiment,NULL,PennController,6,_Trial_,End,1687453104779,61290c984835b674072fc6ac,61290c984835b674072fc6ac,4,candy,critical,A,25,goal,low,exp2trials,NULL
1687453512,81078ea3e4e27289b2ccbd31cb27f81c,PennController,8,0,experiment,NULL,PennController,7,_Trial_,Start,1687453104780,61290c984835b674072fc6ac,61290c984835b674072fc6ac,5,book,critical,A,50,goal,low,exp2trials,NULL
1687453512,81078ea3e4e27289b2ccbd31cb27f81c,PennController,8,0,experiment,NULL,PennController,7,_Header_,Start,1687453104780,61290c984835b674072fc6ac,61290c984835b674072fc6ac,5,book,critical,A,50,goal,low,exp2trials,NULL
1687453512,81078ea3e4e27289b2ccbd31cb27f81c,PennController,8,0,experiment,NULL,PennController,7,_Header_,End,1687453104780,61290c984835b674072fc6ac,61290c984835b674072fc6ac,5,book,critical,A,50,goal,low,exp2trials,NULL
1687453512,81078ea3e4e27289b2ccbd31cb27f81c,PennController,8,0,experiment,NULL,Video,progression,buffer,0.002407,1687453108298,61290c984835b674072fc6ac,61290c984835b674072fc6ac,5,book,critical,A,50,goal,low,exp2trials,NULL
1687453512,81078ea3e4e27289b2ccbd31cb27f81c,PennController,8,0,experiment,NULL,VideoScrubber,slider-input,SelectedFrame,35,1687453111468,61290c984835b674072fc6ac,61290c984835b674072fc6ac,5,book,critical,A,50,goal,low,exp2trials,NULL
1687453512,81078ea3e4e27289b2ccbd31cb27f81c,PennController,8,0,experiment,NULL,PennController,7,_Trial_,End,1687453124449,61290c984835b674072fc6ac,61290c984835b674072fc6ac,5,book,critical,A,50,goal,low,exp2trials,NULL
1687453512,81078ea3e4e27289b2ccbd31cb27f81c,PennController,27,0,experiment,NULL,PennController,26,_Trial_,Start,1687453124450,61290c984835b674072fc6ac,61290c984835b674072fc6ac,24,match,filler,A,75,goal,GoalB,exp2trials,NULL
1687453512,81078ea3e4e27289b2ccbd31cb27f81c,PennController,27,0,experiment,NULL,PennController,26,_Header_,Start,1687453124450,61290c984835b674072fc6ac,61290c984835b674072fc6ac,24,match,filler,A,75,goal,GoalB,exp2trials,NULL
1687453512,81078ea3e4e27289b2ccbd31cb27f81c,PennController,27,0,experiment,NULL,PennController,26,_Header_,End,1687453124451,61290c984835b674072fc6ac,61290c984835b674072fc6ac,24,match,filler,A,75,goal,GoalB,exp2trials,NULL
1687453512,81078ea3e4e27289b2ccbd31cb27f81c,PennController,27,0,experiment,NULL,Video,progression,buffer,0.003669,1687453127971,61290c984835b674072fc6ac,61290c984835b674072fc6ac,24,match,filler,A,75,goal,GoalB,exp2trials,NULL
1687453512,81078ea3e4e27289b2ccbd31cb27f81c,PennController,27,0,experiment,NULL,VideoScrubber,slider-input,SelectedFrame,50,1687453132132,61290c984835b674072fc6ac,61290c984835b674072fc6ac,24,match,filler,A,75,goal,GoalB,exp2trials,NULL
1687453512,81078ea3e4e27289b2ccbd31cb27f81c,PennController,27,0,experiment,NULL,PennController,26,_Trial_,End,1687453141934,61290c984835b674072fc6ac,61290c984835b674072fc6ac,24,match,filler,A,75,goal,GoalB,exp2trials,NULL
1687453512,81078ea3e4e27289b2ccbd31cb27f81c,PennController,21,0,experiment,NULL,PennController,20,_Trial_,Start,1687453141935,61290c984835b674072fc6ac,61290c984835b674072fc6ac,18,ball,critical,A,75,goal,low,exp2trials,NULL
1687453512,81078ea3e4e27289b2ccbd31cb27f81c,PennController,21,0,experiment,NULL,PennController,20,_Header_,Start,1687453141935,61290c984835b674072fc6ac,61290c984835b674072fc6ac,18,ball,critical,A,75,goal,low,exp2trials,NULL
1687453512,81078ea3e4e27289b2ccbd31cb27f81c,PennController,21,0,experiment,NULL,PennController,20,_Header_,End,1687453141935,61290c984835b674072fc6ac,61290c984835b674072fc6ac,18,ball,critical,A,75,goal,low,exp2trials,NULL
1687453512,81078ea3e4e27289b2ccbd31cb27f81c,PennController,21,0,experiment,NULL,Video,progression,buffer,0.002334,1687453145454,61290c984835b674072fc6ac,61290c984835b674072fc6ac,18,ball,critical,A,75,goal,low,exp2trials,NULL
1687453512,81078ea3e4e27289b2ccbd31cb27f81c,PennController,21,0,experiment,NULL,VideoScrubber,slider-input,SelectedFrame,75,1687453149613,61290c984835b674072fc6ac,61290c984835b674072fc6ac,18,ball,critical,A,75,goal,low,exp2trials,NULL
1687453512,81078ea3e4e27289b2ccbd31cb27f81c,PennController,21,0,experiment,NULL,PennController,20,_Trial_,End,1687453159385,61290c984835b674072fc6ac,61290c984835b674072fc6ac,18,ball,critical,A,75,goal,low,exp2trials,NULL
1687453512,81078ea3e4e27289b2ccbd31cb27f81c,PennController,32,0,experiment,NULL,PennController,31,_Trial_,Start,1687453159387,61290c984835b674072fc6ac,61290c984835b674072fc6ac,29,frog,filler,A,50,goal,GoalA,exp2trials,NULL
1687453512,81078ea3e4e27289b2ccbd31cb27f81c,PennController,32,0,experiment,NULL,PennController,31,_Header_,Start,1687453159387,61290c984835b674072fc6ac,61290c984835b674072fc6ac,29,frog,filler,A,50,goal,GoalA,exp2trials,NULL
1687453512,81078ea3e4e27289b2ccbd31cb27f81c,PennController,32,0,experiment,NULL,PennController,31,_Header_,End,1687453159387,61290c984835b674072fc6ac,61290c984835b674072fc6ac,29,frog,filler,A,50,goal,GoalA,exp2trials,NULL
1687453512,81078ea3e4e27289b2ccbd31cb27f81c,PennController,32,0,experiment,NULL,Video,progression,buffer,0.002445,1687453162903,61290c984835b674072fc6ac,61290c984835b674072fc6ac,29,frog,filler,A,50,goal,GoalA,exp2trials,NULL
1687453512,81078ea3e4e27289b2ccbd31cb27f81c,PennController,32,0,experiment,NULL,VideoScrubber,slider-input,SelectedFrame,50,1687453166066,61290c984835b674072fc6ac,61290c984835b674072fc6ac,29,frog,filler,A,50,goal,GoalA,exp2trials,NULL
1687453512,81078ea3e4e27289b2ccbd31cb27f81c,PennController,32,0,experiment,NULL,PennController,31,_Trial_,End,1687453176197,61290c984835b674072fc6ac,61290c984835b674072fc6ac,29,frog,filler,A,50,goal,GoalA,exp2trials,NULL
1687453512,81078ea3e4e27289b2ccbd31cb27f81c,PennController,29,0,experiment,NULL,PennController,28,_Trial_,Start,1687453176198,61290c984835b674072fc6ac,61290c984835b674072fc6ac,26,sandwich,filler,A,50,goal,GoalB,exp2trials,NULL
1687453512,81078ea3e4e27289b2ccbd31cb27f81c,PennController,29,0,experiment,NULL,PennController,28,_Header_,Start,1687453176198,61290c984835b674072fc6ac,61290c984835b674072fc6ac,26,sandwich,filler,A,50,goal,GoalB,exp2trials,NULL
1687453512,81078ea3e4e27289b2ccbd31cb27f81c,PennController,29,0,experiment,NULL,PennController,28,_Header_,End,1687453176198,61290c984835b674072fc6ac,61290c984835b674072fc6ac,26,sandwich,filler,A,50,goal,GoalB,exp2trials,NULL
1687453512,81078ea3e4e27289b2ccbd31cb27f81c,PennController,29,0,experiment,NULL,Video,progression,buffer,0.003555,1687453179717,61290c984835b674072fc6ac,61290c984835b674072fc6ac,26,sandwich,filler,A,50,goal,GoalB,exp2trials,NULL
1687453512,81078ea3e4e27289b2ccbd31cb27f81c,PennController,29,0,experiment,NULL,VideoScrubber,slider-input,SelectedFrame,40,1687453182879,61290c984835b674072fc6ac,61290c984835b674072fc6ac,26,sandwich,filler,A,50,goal,GoalB,exp2trials,NULL
1687453512,81078ea3e4e27289b2ccbd31cb27f81c,PennController,29,0,experiment,NULL,PennController,28,_Trial_,End,1687453194335,61290c984835b674072fc6ac,61290c984835b674072fc6ac,26,sandwich,filler,A,50,goal,GoalB,exp2trials,NULL
1687453512,81078ea3e4e27289b2ccbd31cb27f81c,PennController,11,0,experiment,NULL,PennController,10,_Trial_,Start,1687453194337,61290c984835b674072fc6ac,61290c984835b674072fc6ac,8,cucumber,critical,A,50,goal,low,exp2trials,NULL
1687453512,81078ea3e4e27289b2ccbd31cb27f81c,PennController,11,0,experiment,NULL,PennController,10,_Header_,Start,1687453194337,61290c984835b674072fc6ac,61290c984835b674072fc6ac,8,cucumber,critical,A,50,goal,low,exp2trials,NULL
1687453512,81078ea3e4e27289b2ccbd31cb27f81c,PennController,11,0,experiment,NULL,PennController,10,_Header_,End,1687453194337,61290c984835b674072fc6ac,61290c984835b674072fc6ac,8,cucumber,critical,A,50,goal,low,exp2trials,NULL
1687453512,81078ea3e4e27289b2ccbd31cb27f81c,PennController,11,0,experiment,NULL,Video,progression,buffer,0.004391,1687453197855,61290c984835b674072fc6ac,61290c984835b674072fc6ac,8,cucumber,critical,A,50,goal,low,exp2trials,NULL
1687453512,81078ea3e4e27289b2ccbd31cb27f81c,PennController,11,0,experiment,NULL,VideoScrubber,slider-input,SelectedFrame,54,1687453202413,61290c984835b674072fc6ac,61290c984835b674072fc6ac,8,cucumber,critical,A,50,goal,low,exp2trials,NULL
1687453512,81078ea3e4e27289b2ccbd31cb27f81c,PennController,11,0,experiment,NULL,PennController,10,_Trial_,End,1687453210350,61290c984835b674072fc6ac,61290c984835b674072fc6ac,8,cucumber,critical,A,50,goal,low,exp2trials,NULL
1687453512,81078ea3e4e27289b2ccbd31cb27f81c,PennController,9,0,experiment,NULL,PennController,8,_Trial_,Start,1687453210352,61290c984835b674072fc6ac,61290c984835b674072fc6ac,6,flower,critical,A,75,goal,low,exp2trials,NULL
1687453512,81078ea3e4e27289b2ccbd31cb27f81c,PennController,9,0,experiment,NULL,PennController,8,_Header_,Start,1687453210352,61290c984835b674072fc6ac,61290c984835b674072fc6ac,6,flower,critical,A,75,goal,low,exp2trials,NULL
1687453512,81078ea3e4e27289b2ccbd31cb27f81c,PennController,9,0,experiment,NULL,PennController,8,_Header_,End,1687453210352,61290c984835b674072fc6ac,61290c984835b674072fc6ac,6,flower,critical,A,75,goal,low,exp2trials,NULL
1687453512,81078ea3e4e27289b2ccbd31cb27f81c,PennController,9,0,experiment,NULL,Video,progression,buffer,0.004624,1687453213874,61290c984835b674072fc6ac,61290c984835b674072fc6ac,6,flower,critical,A,75,goal,low,exp2trials,NULL
1687453512,81078ea3e4e27289b2ccbd31cb27f81c,PennController,9,0,experiment,NULL,VideoScrubber,slider-input,SelectedFrame,80,1687453218045,61290c984835b674072fc6ac,61290c984835b674072fc6ac,6,flower,critical,A,75,goal,low,exp2trials,NULL
1687453512,81078ea3e4e27289b2ccbd31cb27f81c,PennController,9,0,experiment,NULL,PennController,8,_Trial_,End,1687453227326,61290c984835b674072fc6ac,61290c984835b674072fc6ac,6,flower,critical,A,75,goal,low,exp2trials,NULL
1687453512,81078ea3e4e27289b2ccbd31cb27f81c,PennController,19,0,experiment,NULL,PennController,18,_Trial_,Start,1687453227328,61290c984835b674072fc6ac,61290c984835b674072fc6ac,16,blinds,critical,A,25,goal,low,exp2trials,NULL
1687453512,81078ea3e4e27289b2ccbd31cb27f81c,PennController,19,0,experiment,NULL,PennController,18,_Header_,Start,1687453227328,61290c984835b674072fc6ac,61290c984835b674072fc6ac,16,blinds,critical,A,25,goal,low,exp2trials,NULL
1687453512,81078ea3e4e27289b2ccbd31cb27f81c,PennController,19,0,experiment,NULL,PennController,18,_Header_,End,1687453227328,61290c984835b674072fc6ac,61290c984835b674072fc6ac,16,blinds,critical,A,25,goal,low,exp2trials,NULL
1687453512,81078ea3e4e27289b2ccbd31cb27f81c,PennController,19,0,experiment,NULL,Video,progression,buffer,0.003123,1687453230849,61290c984835b674072fc6ac,61290c984835b674072fc6ac,16,blinds,critical,A,25,goal,low,exp2trials,NULL
1687453512,81078ea3e4e27289b2ccbd31cb27f81c,PennController,19,0,experiment,NULL,VideoScrubber,slider-input,SelectedFrame,33,1687453233612,61290c984835b674072fc6ac,61290c984835b674072fc6ac,16,blinds,critical,A,25,goal,low,exp2trials,NULL
1687453512,81078ea3e4e27289b2ccbd31cb27f81c,PennController,19,0,experiment,NULL,PennController,18,_Trial_,End,1687453243354,61290c984835b674072fc6ac,61290c984835b674072fc6ac,16,blinds,critical,A,25,goal,low,exp2trials,NULL
1687453512,81078ea3e4e27289b2ccbd31cb27f81c,PennController,22,0,experiment,NULL,PennController,21,_Trial_,Start,1687453243356,61290c984835b674072fc6ac,61290c984835b674072fc6ac,19,cup,filler,A,25,goal,GoalA,exp2trials,NULL
1687453512,81078ea3e4e27289b2ccbd31cb27f81c,PennController,22,0,experiment,NULL,PennController,21,_Header_,Start,1687453243356,61290c984835b674072fc6ac,61290c984835b674072fc6ac,19,cup,filler,A,25,goal,GoalA,exp2trials,NULL
1687453512,81078ea3e4e27289b2ccbd31cb27f81c,PennController,22,0,experiment,NULL,PennController,21,_Header_,End,1687453243356,61290c984835b674072fc6ac,61290c984835b674072fc6ac,19,cup,filler,A,25,goal,GoalA,exp2trials,NULL
1687453512,81078ea3e4e27289b2ccbd31cb27f81c,PennController,22,0,experiment,NULL,Video,progression,buffer,0.002127,1687453246881,61290c984835b674072fc6ac,61290c984835b674072fc6ac,19,cup,filler,A,25,goal,GoalA,exp2trials,NULL
1687453512,81078ea3e4e27289b2ccbd31cb27f81c,PennController,22,0,experiment,NULL,VideoScrubber,slider-input,SelectedFrame,25,1687453249053,61290c984835b674072fc6ac,61290c984835b674072fc6ac,19,cup,filler,A,25,goal,GoalA,exp2trials,NULL
1687453512,81078ea3e4e27289b2ccbd31cb27f81c,PennController,22,0,experiment,NULL,PennController,21,_Trial_,End,1687453255521,61290c984835b674072fc6ac,61290c984835b674072fc6ac,19,cup,filler,A,25,goal,GoalA,exp2trials,NULL
1687453512,81078ea3e4e27289b2ccbd31cb27f81c,PennController,5,0,experiment,NULL,PennController,4,_Trial_,Start,1687453255522,61290c984835b674072fc6ac,61290c984835b674072fc6ac,2,door,critical,A,50,goal,low,exp2trials,NULL
1687453512,81078ea3e4e27289b2ccbd31cb27f81c,PennController,5,0,experiment,NULL,PennController,4,_Header_,Start,1687453255522,61290c984835b674072fc6ac,61290c984835b674072fc6ac,2,door,critical,A,50,goal,low,exp2trials,NULL
1687453512,81078ea3e4e27289b2ccbd31cb27f81c,PennController,5,0,experiment,NULL,PennController,4,_Header_,End,1687453255522,61290c984835b674072fc6ac,61290c984835b674072fc6ac,2,door,critical,A,50,goal,low,exp2trials,NULL
1687453512,81078ea3e4e27289b2ccbd31cb27f81c,PennController,5,0,experiment,NULL,Video,progression,buffer,0.002234,1687453259040,61290c984835b674072fc6ac,61290c984835b674072fc6ac,2,door,critical,A,50,goal,low,exp2trials,NULL
1687453512,81078ea3e4e27289b2ccbd31cb27f81c,PennController,5,0,experiment,NULL,VideoScrubber,slider-input,SelectedFrame,45,1687453262220,61290c984835b674072fc6ac,61290c984835b674072fc6ac,2,door,critical,A,50,goal,low,exp2trials,NULL
1687453512,81078ea3e4e27289b2ccbd31cb27f81c,PennController,5,0,experiment,NULL,PennController,4,_Trial_,End,1687453266566,61290c984835b674072fc6ac,61290c984835b674072fc6ac,2,door,critical,A,50,goal,low,exp2trials,NULL
1687453512,81078ea3e4e27289b2ccbd31cb27f81c,PennController,23,0,experiment,NULL,PennController,22,_Trial_,Start,1687453266568,61290c984835b674072fc6ac,61290c984835b674072fc6ac,20,cat,filler,A,50,goal,GoalB,exp2trials,NULL
1687453512,81078ea3e4e27289b2ccbd31cb27f81c,PennController,23,0,experiment,NULL,PennController,22,_Header_,Start,1687453266568,61290c984835b674072fc6ac,61290c984835b674072fc6ac,20,cat,filler,A,50,goal,GoalB,exp2trials,NULL
1687453512,81078ea3e4e27289b2ccbd31cb27f81c,PennController,23,0,experiment,NULL,PennController,22,_Header_,End,1687453266568,61290c984835b674072fc6ac,61290c984835b674072fc6ac,20,cat,filler,A,50,goal,GoalB,exp2trials,NULL
1687453512,81078ea3e4e27289b2ccbd31cb27f81c,PennController,23,0,experiment,NULL,Video,progression,buffer,0.003473,1687453270085,61290c984835b674072fc6ac,61290c984835b674072fc6ac,20,cat,filler,A,50,goal,GoalB,exp2trials,NULL
1687453512,81078ea3e4e27289b2ccbd31cb27f81c,PennController,23,0,experiment,NULL,VideoScrubber,slider-input,SelectedFrame,50,1687453273241,61290c984835b674072fc6ac,61290c984835b674072fc6ac,20,cat,filler,A,50,goal,GoalB,exp2trials,NULL
1687453512,81078ea3e4e27289b2ccbd31cb27f81c,PennController,23,0,experiment,NULL,PennController,22,_Trial_,End,1687453277344,61290c984835b674072fc6ac,61290c984835b674072fc6ac,20,cat,filler,A,50,goal,GoalB,exp2trials,NULL
1687453512,81078ea3e4e27289b2ccbd31cb27f81c,PennController,6,0,experiment,NULL,PennController,5,_Trial_,Start,1687453277345,61290c984835b674072fc6ac,61290c984835b674072fc6ac,3,clean,critical,A,75,goal,low,exp2trials,NULL
1687453512,81078ea3e4e27289b2ccbd31cb27f81c,PennController,6,0,experiment,NULL,PennController,5,_Header_,Start,1687453277345,61290c984835b674072fc6ac,61290c984835b674072fc6ac,3,clean,critical,A,75,goal,low,exp2trials,NULL
1687453512,81078ea3e4e27289b2ccbd31cb27f81c,PennController,6,0,experiment,NULL,PennController,5,_Header_,End,1687453277345,61290c984835b674072fc6ac,61290c984835b674072fc6ac,3,clean,critical,A,75,goal,low,exp2trials,NULL
1687453512,81078ea3e4e27289b2ccbd31cb27f81c,PennController,6,0,experiment,NULL,Video,progression,buffer,0.002075,1687453280865,61290c984835b674072fc6ac,61290c984835b674072fc6ac,3,clean,critical,A,75,goal,low,exp2trials,NULL
1687453512,81078ea3e4e27289b2ccbd31cb27f81c,PennController,6,0,experiment,NULL,VideoScrubber,slider-input,SelectedFrame,70,1687453285024,61290c984835b674072fc6ac,61290c984835b674072fc6ac,3,clean,critical,A,75,goal,low,exp2trials,NULL
1687453512,81078ea3e4e27289b2ccbd31cb27f81c,PennController,6,0,experiment,NULL,PennController,5,_Trial_,End,1687453293920,61290c984835b674072fc6ac,61290c984835b674072fc6ac,3,clean,critical,A,75,goal,low,exp2trials,NULL
1687453512,81078ea3e4e27289b2ccbd31cb27f81c,PennController,4,0,experiment,NULL,PennController,3,_Trial_,Start,1687453293921,61290c984835b674072fc6ac,61290c984835b674072fc6ac,1,vase,critical,A,25,goal,low,exp2trials,NULL
1687453512,81078ea3e4e27289b2ccbd31cb27f81c,PennController,4,0,experiment,NULL,PennController,3,_Header_,Start,1687453293921,61290c984835b674072fc6ac,61290c984835b674072fc6ac,1,vase,critical,A,25,goal,low,exp2trials,NULL
1687453512,81078ea3e4e27289b2ccbd31cb27f81c,PennController,4,0,experiment,NULL,PennController,3,_Header_,End,1687453293921,61290c984835b674072fc6ac,61290c984835b674072fc6ac,1,vase,critical,A,25,goal,low,exp2trials,NULL
1687453512,81078ea3e4e27289b2ccbd31cb27f81c,PennController,4,0,experiment,NULL,Video,progression,buffer,0.002222,1687453297437,61290c984835b674072fc6ac,61290c984835b674072fc6ac,1,vase,critical,A,25,goal,low,exp2trials,NULL
1687453512,81078ea3e4e27289b2ccbd31cb27f81c,PennController,4,0,experiment,NULL,VideoScrubber,slider-input,SelectedFrame,40,1687453299607,61290c984835b674072fc6ac,61290c984835b674072fc6ac,1,vase,critical,A,25,goal,low,exp2trials,NULL
1687453512,81078ea3e4e27289b2ccbd31cb27f81c,PennController,4,0,experiment,NULL,PennController,3,_Trial_,End,1687453308410,61290c984835b674072fc6ac,61290c984835b674072fc6ac,1,vase,critical,A,25,goal,low,exp2trials,NULL
1687453512,81078ea3e4e27289b2ccbd31cb27f81c,PennController,25,0,experiment,NULL,PennController,24,_Trial_,Start,1687453308411,61290c984835b674072fc6ac,61290c984835b674072fc6ac,22,wall,filler,A,25,goal,GoalB,exp2trials,NULL
1687453512,81078ea3e4e27289b2ccbd31cb27f81c,PennController,25,0,experiment,NULL,PennController,24,_Header_,Start,1687453308411,61290c984835b674072fc6ac,61290c984835b674072fc6ac,22,wall,filler,A,25,goal,GoalB,exp2trials,NULL
1687453512,81078ea3e4e27289b2ccbd31cb27f81c,PennController,25,0,experiment,NULL,PennController,24,_Header_,End,1687453308412,61290c984835b674072fc6ac,61290c984835b674072fc6ac,22,wall,filler,A,25,goal,GoalB,exp2trials,NULL
1687453512,81078ea3e4e27289b2ccbd31cb27f81c,PennController,25,0,experiment,NULL,Video,progression,buffer,0.00305,1687453311940,61290c984835b674072fc6ac,61290c984835b674072fc6ac,22,wall,filler,A,25,goal,GoalB,exp2trials,NULL
1687453512,81078ea3e4e27289b2ccbd31cb27f81c,PennController,25,0,experiment,NULL,VideoScrubber,slider-input,SelectedFrame,25,1687453314106,61290c984835b674072fc6ac,61290c984835b674072fc6ac,22,wall,filler,A,25,goal,GoalB,exp2trials,NULL
1687453512,81078ea3e4e27289b2ccbd31cb27f81c,PennController,25,0,experiment,NULL,PennController,24,_Trial_,End,1687453319681,61290c984835b674072fc6ac,61290c984835b674072fc6ac,22,wall,filler,A,25,goal,GoalB,exp2trials,NULL
1687453512,81078ea3e4e27289b2ccbd31cb27f81c,PennController,17,0,experiment,NULL,PennController,16,_Trial_,Start,1687453319681,61290c984835b674072fc6ac,61290c984835b674072fc6ac,14,cover,critical,A,50,goal,low,exp2trials,NULL
1687453512,81078ea3e4e27289b2ccbd31cb27f81c,PennController,17,0,experiment,NULL,PennController,16,_Header_,Start,1687453319681,61290c984835b674072fc6ac,61290c984835b674072fc6ac,14,cover,critical,A,50,goal,low,exp2trials,NULL
1687453512,81078ea3e4e27289b2ccbd31cb27f81c,PennController,17,0,experiment,NULL,PennController,16,_Header_,End,1687453319682,61290c984835b674072fc6ac,61290c984835b674072fc6ac,14,cover,critical,A,50,goal,low,exp2trials,NULL
1687453512,81078ea3e4e27289b2ccbd31cb27f81c,PennController,17,0,experiment,NULL,Video,progression,buffer,0.003092,1687453323225,61290c984835b674072fc6ac,61290c984835b674072fc6ac,14,cover,critical,A,50,goal,low,exp2trials,NULL
1687453512,81078ea3e4e27289b2ccbd31cb27f81c,PennController,17,0,experiment,NULL,VideoScrubber,slider-input,SelectedFrame,51,1687453327794,61290c984835b674072fc6ac,61290c984835b674072fc6ac,14,cover,critical,A,50,goal,low,exp2trials,NULL
1687453512,81078ea3e4e27289b2ccbd31cb27f81c,PennController,17,0,experiment,NULL,PennController,16,_Trial_,End,1687453332673,61290c984835b674072fc6ac,61290c984835b674072fc6ac,14,cover,critical,A,50,goal,low,exp2trials,NULL
1687453512,81078ea3e4e27289b2ccbd31cb27f81c,PennController,14,0,experiment,NULL,PennController,13,_Trial_,Start,1687453332674,61290c984835b674072fc6ac,61290c984835b674072fc6ac,11,beads,critical,A,50,goal,low,exp2trials,NULL
1687453512,81078ea3e4e27289b2ccbd31cb27f81c,PennController,14,0,experiment,NULL,PennController,13,_Header_,Start,1687453332674,61290c984835b674072fc6ac,61290c984835b674072fc6ac,11,beads,critical,A,50,goal,low,exp2trials,NULL
1687453512,81078ea3e4e27289b2ccbd31cb27f81c,PennController,14,0,experiment,NULL,PennController,13,_Header_,End,1687453332674,61290c984835b674072fc6ac,61290c984835b674072fc6ac,11,beads,critical,A,50,goal,low,exp2trials,NULL
1687453512,81078ea3e4e27289b2ccbd31cb27f81c,PennController,14,0,experiment,NULL,Video,progression,buffer,0.002101,1687453336193,61290c984835b674072fc6ac,61290c984835b674072fc6ac,11,beads,critical,A,50,goal,low,exp2trials,NULL
1687453512,81078ea3e4e27289b2ccbd31cb27f81c,PennController,14,0,experiment,NULL,VideoScrubber,slider-input,SelectedFrame,55,1687453339353,61290c984835b674072fc6ac,61290c984835b674072fc6ac,11,beads,critical,A,50,goal,low,exp2trials,NULL
1687453512,81078ea3e4e27289b2ccbd31cb27f81c,PennController,14,0,experiment,NULL,PennController,13,_Trial_,End,1687453345290,61290c984835b674072fc6ac,61290c984835b674072fc6ac,11,beads,critical,A,50,goal,low,exp2trials,NULL
1687453512,81078ea3e4e27289b2ccbd31cb27f81c,PennController,15,0,experiment,NULL,PennController,14,_Trial_,Start,1687453345291,61290c984835b674072fc6ac,61290c984835b674072fc6ac,12,erase,critical,A,75,goal,low,exp2trials,NULL
1687453512,81078ea3e4e27289b2ccbd31cb27f81c,PennController,15,0,experiment,NULL,PennController,14,_Header_,Start,1687453345291,61290c984835b674072fc6ac,61290c984835b674072fc6ac,12,erase,critical,A,75,goal,low,exp2trials,NULL
1687453512,81078ea3e4e27289b2ccbd31cb27f81c,PennController,15,0,experiment,NULL,PennController,14,_Header_,End,1687453345291,61290c984835b674072fc6ac,61290c984835b674072fc6ac,12,erase,critical,A,75,goal,low,exp2trials,NULL
1687453512,81078ea3e4e27289b2ccbd31cb27f81c,PennController,15,0,experiment,NULL,Video,progression,buffer,0.003045,1687453348814,61290c984835b674072fc6ac,61290c984835b674072fc6ac,12,erase,critical,A,75,goal,low,exp2trials,NULL
1687453512,81078ea3e4e27289b2ccbd31cb27f81c,PennController,15,0,experiment,NULL,VideoScrubber,slider-input,SelectedFrame,75,1687453354992,61290c984835b674072fc6ac,61290c984835b674072fc6ac,12,erase,critical,A,75,goal,low,exp2trials,NULL
1687453512,81078ea3e4e27289b2ccbd31cb27f81c,PennController,15,0,experiment,NULL,PennController,14,_Trial_,End,1687453362971,61290c984835b674072fc6ac,61290c984835b674072fc6ac,12,erase,critical,A,75,goal,low,exp2trials,NULL
1687453512,81078ea3e4e27289b2ccbd31cb27f81c,PennController,30,0,experiment,NULL,PennController,29,_Trial_,Start,1687453362972,61290c984835b674072fc6ac,61290c984835b674072fc6ac,27,square,filler,A,75,goal,GoalA,exp2trials,NULL
1687453512,81078ea3e4e27289b2ccbd31cb27f81c,PennController,30,0,experiment,NULL,PennController,29,_Header_,Start,1687453362972,61290c984835b674072fc6ac,61290c984835b674072fc6ac,27,square,filler,A,75,goal,GoalA,exp2trials,NULL
1687453512,81078ea3e4e27289b2ccbd31cb27f81c,PennController,30,0,experiment,NULL,PennController,29,_Header_,End,1687453362972,61290c984835b674072fc6ac,61290c984835b674072fc6ac,27,square,filler,A,75,goal,GoalA,exp2trials,NULL
1687453512,81078ea3e4e27289b2ccbd31cb27f81c,PennController,30,0,experiment,NULL,Video,progression,buffer,0.002519,1687453366493,61290c984835b674072fc6ac,61290c984835b674072fc6ac,27,square,filler,A,75,goal,GoalA,exp2trials,NULL
1687453512,81078ea3e4e27289b2ccbd31cb27f81c,PennController,30,0,experiment,NULL,VideoScrubber,slider-input,SelectedFrame,80,1687453370655,61290c984835b674072fc6ac,61290c984835b674072fc6ac,27,square,filler,A,75,goal,GoalA,exp2trials,NULL
1687453512,81078ea3e4e27289b2ccbd31cb27f81c,PennController,30,0,experiment,NULL,PennController,29,_Trial_,End,1687453382150,61290c984835b674072fc6ac,61290c984835b674072fc6ac,27,square,filler,A,75,goal,GoalA,exp2trials,NULL
1687453512,81078ea3e4e27289b2ccbd31cb27f81c,PennController,18,0,experiment,NULL,PennController,17,_Trial_,Start,1687453382151,61290c984835b674072fc6ac,61290c984835b674072fc6ac,15,zip,critical,A,75,goal,low,exp2trials,NULL
1687453512,81078ea3e4e27289b2ccbd31cb27f81c,PennController,18,0,experiment,NULL,PennController,17,_Header_,Start,1687453382151,61290c984835b674072fc6ac,61290c984835b674072fc6ac,15,zip,critical,A,75,goal,low,exp2trials,NULL
1687453512,81078ea3e4e27289b2ccbd31cb27f81c,PennController,18,0,experiment,NULL,PennController,17,_Header_,End,1687453382152,61290c984835b674072fc6ac,61290c984835b674072fc6ac,15,zip,critical,A,75,goal,low,exp2trials,NULL
1687453512,81078ea3e4e27289b2ccbd31cb27f81c,PennController,18,0,experiment,NULL,Video,progression,buffer,0.002101,1687453385672,61290c984835b674072fc6ac,61290c984835b674072fc6ac,15,zip,critical,A,75,goal,low,exp2trials,NULL
1687453512,81078ea3e4e27289b2ccbd31cb27f81c,PennController,18,0,experiment,NULL,VideoScrubber,slider-input,SelectedFrame,75,1687453389037,61290c984835b674072fc6ac,61290c984835b674072fc6ac,15,zip,critical,A,75,goal,low,exp2trials,NULL
1687453512,81078ea3e4e27289b2ccbd31cb27f81c,PennController,18,0,experiment,NULL,PennController,17,_Trial_,End,1687453404501,61290c984835b674072fc6ac,61290c984835b674072fc6ac,15,zip,critical,A,75,goal,low,exp2trials,NULL
1687453512,81078ea3e4e27289b2ccbd31cb27f81c,PennController,28,0,experiment,NULL,PennController,27,_Trial_,Start,1687453404504,61290c984835b674072fc6ac,61290c984835b674072fc6ac,25,house,filler,A,25,goal,GoalA,exp2trials,NULL
1687453512,81078ea3e4e27289b2ccbd31cb27f81c,PennController,28,0,experiment,NULL,PennController,27,_Header_,Start,1687453404504,61290c984835b674072fc6ac,61290c984835b674072fc6ac,25,house,filler,A,25,goal,GoalA,exp2trials,NULL
1687453512,81078ea3e4e27289b2ccbd31cb27f81c,PennController,28,0,experiment,NULL,PennController,27,_Header_,End,1687453404504,61290c984835b674072fc6ac,61290c984835b674072fc6ac,25,house,filler,A,25,goal,GoalA,exp2trials,NULL
1687453512,81078ea3e4e27289b2ccbd31cb27f81c,PennController,28,0,experiment,NULL,Video,progression,buffer,0.00467,1687453408028,61290c984835b674072fc6ac,61290c984835b674072fc6ac,25,house,filler,A,25,goal,GoalA,exp2trials,NULL
1687453512,81078ea3e4e27289b2ccbd31cb27f81c,PennController,28,0,experiment,NULL,VideoScrubber,slider-input,SelectedFrame,50,1687453410187,61290c984835b674072fc6ac,61290c984835b674072fc6ac,25,house,filler,A,25,goal,GoalA,exp2trials,NULL
1687453512,81078ea3e4e27289b2ccbd31cb27f81c,PennController,28,0,experiment,NULL,PennController,27,_Trial_,End,1687453430457,61290c984835b674072fc6ac,61290c984835b674072fc6ac,25,house,filler,A,25,goal,GoalA,exp2trials,NULL
1687453512,81078ea3e4e27289b2ccbd31cb27f81c,PennController,20,0,experiment,NULL,PennController,19,_Trial_,Start,1687453430458,61290c984835b674072fc6ac,61290c984835b674072fc6ac,17,roll,critical,A,50,goal,low,exp2trials,NULL
1687453512,81078ea3e4e27289b2ccbd31cb27f81c,PennController,20,0,experiment,NULL,PennController,19,_Header_,Start,1687453430458,61290c984835b674072fc6ac,61290c984835b674072fc6ac,17,roll,critical,A,50,goal,low,exp2trials,NULL
1687453512,81078ea3e4e27289b2ccbd31cb27f81c,PennController,20,0,experiment,NULL,PennController,19,_Header_,End,1687453430458,61290c984835b674072fc6ac,61290c984835b674072fc6ac,17,roll,critical,A,50,goal,low,exp2trials,NULL
1687453512,81078ea3e4e27289b2ccbd31cb27f81c,PennController,20,0,experiment,NULL,Video,progression,buffer,0,1687453433981,61290c984835b674072fc6ac,61290c984835b674072fc6ac,17,roll,critical,A,50,goal,low,exp2trials,NULL
1687453512,81078ea3e4e27289b2ccbd31cb27f81c,PennController,20,0,experiment,NULL,VideoScrubber,slider-input,SelectedFrame,45,1687453437183,61290c984835b674072fc6ac,61290c984835b674072fc6ac,17,roll,critical,A,50,goal,low,exp2trials,NULL
1687453512,81078ea3e4e27289b2ccbd31cb27f81c,PennController,20,0,experiment,NULL,PennController,19,_Trial_,End,1687453440981,61290c984835b674072fc6ac,61290c984835b674072fc6ac,17,roll,critical,A,50,goal,low,exp2trials,NULL
1687453512,81078ea3e4e27289b2ccbd31cb27f81c,PennController,31,0,experiment,NULL,PennController,30,_Trial_,Start,1687453440982,61290c984835b674072fc6ac,61290c984835b674072fc6ac,28,sort,filler,A,25,goal,GoalB,exp2trials,NULL
1687453512,81078ea3e4e27289b2ccbd31cb27f81c,PennController,31,0,experiment,NULL,PennController,30,_Header_,Start,1687453440982,61290c984835b674072fc6ac,61290c984835b674072fc6ac,28,sort,filler,A,25,goal,GoalB,exp2trials,NULL
1687453512,81078ea3e4e27289b2ccbd31cb27f81c,PennController,31,0,experiment,NULL,PennController,30,_Header_,End,1687453440982,61290c984835b674072fc6ac,61290c984835b674072fc6ac,28,sort,filler,A,25,goal,GoalB,exp2trials,NULL
1687453512,81078ea3e4e27289b2ccbd31cb27f81c,PennController,31,0,experiment,NULL,Video,progression,buffer,0.002435,1687453444501,61290c984835b674072fc6ac,61290c984835b674072fc6ac,28,sort,filler,A,25,goal,GoalB,exp2trials,NULL
1687453512,81078ea3e4e27289b2ccbd31cb27f81c,PennController,31,0,experiment,NULL,VideoScrubber,slider-input,SelectedFrame,60,1687453446666,61290c984835b674072fc6ac,61290c984835b674072fc6ac,28,sort,filler,A,25,goal,GoalB,exp2trials,NULL
1687453512,81078ea3e4e27289b2ccbd31cb27f81c,PennController,31,0,experiment,NULL,PennController,30,_Trial_,End,1687453455109,61290c984835b674072fc6ac,61290c984835b674072fc6ac,28,sort,filler,A,25,goal,GoalB,exp2trials,NULL
1687453512,81078ea3e4e27289b2ccbd31cb27f81c,PennController,16,0,experiment,NULL,PennController,15,_Trial_,Start,1687453455110,61290c984835b674072fc6ac,61290c984835b674072fc6ac,13,mix,critical,A,25,goal,low,exp2trials,NULL
1687453512,81078ea3e4e27289b2ccbd31cb27f81c,PennController,16,0,experiment,NULL,PennController,15,_Header_,Start,1687453455110,61290c984835b674072fc6ac,61290c984835b674072fc6ac,13,mix,critical,A,25,goal,low,exp2trials,NULL
1687453512,81078ea3e4e27289b2ccbd31cb27f81c,PennController,16,0,experiment,NULL,PennController,15,_Header_,End,1687453455110,61290c984835b674072fc6ac,61290c984835b674072fc6ac,13,mix,critical,A,25,goal,low,exp2trials,NULL
1687453512,81078ea3e4e27289b2ccbd31cb27f81c,PennController,16,0,experiment,NULL,Video,progression,buffer,0.004193,1687453458629,61290c984835b674072fc6ac,61290c984835b674072fc6ac,13,mix,critical,A,25,goal,low,exp2trials,NULL
1687453512,81078ea3e4e27289b2ccbd31cb27f81c,PennController,16,0,experiment,NULL,VideoScrubber,slider-input,SelectedFrame,15,1687453460796,61290c984835b674072fc6ac,61290c984835b674072fc6ac,13,mix,critical,A,25,goal,low,exp2trials,NULL
1687453512,81078ea3e4e27289b2ccbd31cb27f81c,PennController,16,0,experiment,NULL,PennController,15,_Trial_,End,1687453468753,61290c984835b674072fc6ac,61290c984835b674072fc6ac,13,mix,critical,A,25,goal,low,exp2trials,NULL
1687453512,81078ea3e4e27289b2ccbd31cb27f81c,PennController,13,0,experiment,NULL,PennController,12,_Trial_,Start,1687453468754,61290c984835b674072fc6ac,61290c984835b674072fc6ac,10,train,critical,A,25,goal,low,exp2trials,NULL
1687453512,81078ea3e4e27289b2ccbd31cb27f81c,PennController,13,0,experiment,NULL,PennController,12,_Header_,Start,1687453468754,61290c984835b674072fc6ac,61290c984835b674072fc6ac,10,train,critical,A,25,goal,low,exp2trials,NULL
1687453512,81078ea3e4e27289b2ccbd31cb27f81c,PennController,13,0,experiment,NULL,PennController,12,_Header_,End,1687453468754,61290c984835b674072fc6ac,61290c984835b674072fc6ac,10,train,critical,A,25,goal,low,exp2trials,NULL
1687453512,81078ea3e4e27289b2ccbd31cb27f81c,PennController,13,0,experiment,NULL,Video,progression,buffer,0.00511,1687453472280,61290c984835b674072fc6ac,61290c984835b674072fc6ac,10,train,critical,A,25,goal,low,exp2trials,NULL
1687453512,81078ea3e4e27289b2ccbd31cb27f81c,PennController,13,0,experiment,NULL,VideoScrubber,slider-input,SelectedFrame,25,1687453474449,61290c984835b674072fc6ac,61290c984835b674072fc6ac,10,train,critical,A,25,goal,low,exp2trials,NULL
1687453512,81078ea3e4e27289b2ccbd31cb27f81c,PennController,13,0,experiment,NULL,PennController,12,_Trial_,End,1687453479470,61290c984835b674072fc6ac,61290c984835b674072fc6ac,10,train,critical,A,25,goal,low,exp2trials,NULL
1687453512,81078ea3e4e27289b2ccbd31cb27f81c,PennController,12,0,experiment,NULL,PennController,11,_Trial_,Start,1687453479471,61290c984835b674072fc6ac,61290c984835b674072fc6ac,9,cake,critical,A,75,goal,low,exp2trials,NULL
1687453512,81078ea3e4e27289b2ccbd31cb27f81c,PennController,12,0,experiment,NULL,PennController,11,_Header_,Start,1687453479471,61290c984835b674072fc6ac,61290c984835b674072fc6ac,9,cake,critical,A,75,goal,low,exp2trials,NULL
1687453512,81078ea3e4e27289b2ccbd31cb27f81c,PennController,12,0,experiment,NULL,PennController,11,_Header_,End,1687453479471,61290c984835b674072fc6ac,61290c984835b674072fc6ac,9,cake,critical,A,75,goal,low,exp2trials,NULL
1687453512,81078ea3e4e27289b2ccbd31cb27f81c,PennController,12,0,experiment,NULL,Video,progression,buffer,0.00338,1687453482989,61290c984835b674072fc6ac,61290c984835b674072fc6ac,9,cake,critical,A,75,goal,low,exp2trials,NULL
1687453512,81078ea3e4e27289b2ccbd31cb27f81c,PennController,12,0,experiment,NULL,VideoScrubber,slider-input,SelectedFrame,81,1687453489149,61290c984835b674072fc6ac,61290c984835b674072fc6ac,9,cake,critical,A,75,goal,low,exp2trials,NULL
1687453512,81078ea3e4e27289b2ccbd31cb27f81c,PennController,12,0,experiment,NULL,PennController,11,_Trial_,End,1687453499096,61290c984835b674072fc6ac,61290c984835b674072fc6ac,9,cake,critical,A,75,goal,low,exp2trials,NULL
1687453512,81078ea3e4e27289b2ccbd31cb27f81c,PennController,10,0,experiment,NULL,PennController,9,_Trial_,Start,1687453499097,61290c984835b674072fc6ac,61290c984835b674072fc6ac,7,stack,critical,A,25,goal,low,exp2trials,NULL
1687453512,81078ea3e4e27289b2ccbd31cb27f81c,PennController,10,0,experiment,NULL,PennController,9,_Header_,Start,1687453499097,61290c984835b674072fc6ac,61290c984835b674072fc6ac,7,stack,critical,A,25,goal,low,exp2trials,NULL
1687453512,81078ea3e4e27289b2ccbd31cb27f81c,PennController,10,0,experiment,NULL,PennController,9,_Header_,End,1687453499097,61290c984835b674072fc6ac,61290c984835b674072fc6ac,7,stack,critical,A,25,goal,low,exp2trials,NULL
1687453512,81078ea3e4e27289b2ccbd31cb27f81c,PennController,10,0,experiment,NULL,Video,progression,buffer,0.003654,1687453502617,61290c984835b674072fc6ac,61290c984835b674072fc6ac,7,stack,critical,A,25,goal,low,exp2trials,NULL
1687453512,81078ea3e4e27289b2ccbd31cb27f81c,PennController,10,0,experiment,NULL,VideoScrubber,slider-input,SelectedFrame,25,1687453504781,61290c984835b674072fc6ac,61290c984835b674072fc6ac,7,stack,critical,A,25,goal,low,exp2trials,NULL
1687453512,81078ea3e4e27289b2ccbd31cb27f81c,PennController,10,0,experiment,NULL,PennController,9,_Trial_,End,1687453509944,61290c984835b674072fc6ac,61290c984835b674072fc6ac,7,stack,critical,A,25,goal,low,exp2trials,NULL
