#
# Results on Thursday June 22 2023 17:02:20 UTC
# USER AGENT: Mozilla/5.0 (Windows NT 10.0; Win64; x64) AppleWebKit/537.36 (KHTML, like Gecko) Chrome/114.0.0.0 Safari/537.36
# Design number was non-random = 65
#
# Columns below this comment are as follows:
# 1. Results reception time.
# 2. MD5 hash of participant's IP address.
# 3. Controller name.
# 4. Order number of item.
# 5. Inner element number.
# 6. Label.
# 7. Latin Square Group.
# 8. PennElementType.
# 9. PennElementName.
# 10. Parameter.
# 11. Value.
# 12. EventTime.
# 13. ProlificID.
# 14. Comments.
1687453340,b80ef68fe18f4cb7f26636579c886c48,PennController,2,0,consent,NULL,PennController,0,_Trial_,Start,1687452820232,5f49307513281f0f247a175a,NULL
1687453340,b80ef68fe18f4cb7f26636579c886c48,PennController,2,0,consent,NULL,PennController,0,_Header_,Start,1687452820232,5f49307513281f0f247a175a,NULL
1687453340,b80ef68fe18f4cb7f26636579c886c48,PennController,2,0,consent,NULL,PennController,0,_Header_,End,1687452820319,5f49307513281f0f247a175a,NULL
1687453340,b80ef68fe18f4cb7f26636579c886c48,PennController,2,0,consent,NULL,PennController,0,_Trial_,End,1687452893348,5f49307513281f0f247a175a,NULL
# Columns below this comment are as follows:
# 14. ID.
# 15. Comments.
1687453340,b80ef68fe18f4cb7f26636579c886c48,PennController,3,0,intro,NULL,PennController,1,_Trial_,Start,1687452893352,5f49307513281f0f247a175a,5f49307513281f0f247a175a,NULL
1687453340,b80ef68fe18f4cb7f26636579c886c48,PennController,3,0,intro,NULL,PennController,1,_Header_,Start,1687452893352,5f49307513281f0f247a175a,5f49307513281f0f247a175a,NULL
1687453340,b80ef68fe18f4cb7f26636579c886c48,PennController,3,0,intro,NULL,PennController,1,_Header_,End,1687452893352,5f49307513281f0f247a175a,5f49307513281f0f247a175a,NULL
1687453340,b80ef68fe18f4cb7f26636579c886c48,PennController,3,0,intro,NULL,PennController,1,_Trial_,End,1687452902697,5f49307513281f0f247a175a,5f49307513281f0f247a175a,NULL
# Columns below this comment are as follows:
# 15. item_number.
# 16. item.
# 17. type.
# 18. Group.
# 19. prog.
# 20. condition.
# 21. height.
# 22. exp2trials.
# 23. Comments.
1687453340,b80ef68fe18f4cb7f26636579c886c48,PennController,12,0,experiment,NULL,PennController,11,_Trial_,Start,1687452902703,5f49307513281f0f247a175a,5f49307513281f0f247a175a,9,cake,critical,C,50,goal,low,exp2trials,NULL
1687453340,b80ef68fe18f4cb7f26636579c886c48,PennController,12,0,experiment,NULL,PennController,11,_Header_,Start,1687452902703,5f49307513281f0f247a175a,5f49307513281f0f247a175a,9,cake,critical,C,50,goal,low,exp2trials,NULL
1687453340,b80ef68fe18f4cb7f26636579c886c48,PennController,12,0,experiment,NULL,PennController,11,_Header_,End,1687452902704,5f49307513281f0f247a175a,5f49307513281f0f247a175a,9,cake,critical,C,50,goal,low,exp2trials,NULL
1687453340,b80ef68fe18f4cb7f26636579c886c48,PennController,12,0,experiment,NULL,Video,progression,buffer,0.007623,1687452906267,5f49307513281f0f247a175a,5f49307513281f0f247a175a,9,cake,critical,C,50,goal,low,exp2trials,NULL
1687453340,b80ef68fe18f4cb7f26636579c886c48,PennController,12,0,experiment,NULL,VideoScrubber,slider-input,SelectedFrame,57,1687452910863,5f49307513281f0f247a175a,5f49307513281f0f247a175a,9,cake,critical,C,50,goal,low,exp2trials,NULL
1687453340,b80ef68fe18f4cb7f26636579c886c48,PennController,12,0,experiment,NULL,PennController,11,_Trial_,End,1687452930515,5f49307513281f0f247a175a,5f49307513281f0f247a175a,9,cake,critical,C,50,goal,low,exp2trials,NULL
1687453340,b80ef68fe18f4cb7f26636579c886c48,PennController,21,0,experiment,NULL,PennController,20,_Trial_,Start,1687452930518,5f49307513281f0f247a175a,5f49307513281f0f247a175a,18,ball,critical,C,50,goal,low,exp2trials,NULL
1687453340,b80ef68fe18f4cb7f26636579c886c48,PennController,21,0,experiment,NULL,PennController,20,_Header_,Start,1687452930518,5f49307513281f0f247a175a,5f49307513281f0f247a175a,18,ball,critical,C,50,goal,low,exp2trials,NULL
1687453340,b80ef68fe18f4cb7f26636579c886c48,PennController,21,0,experiment,NULL,PennController,20,_Header_,End,1687452930519,5f49307513281f0f247a175a,5f49307513281f0f247a175a,18,ball,critical,C,50,goal,low,exp2trials,NULL
1687453340,b80ef68fe18f4cb7f26636579c886c48,PennController,21,0,experiment,NULL,Video,progression,buffer,0.004814,1687452934050,5f49307513281f0f247a175a,5f49307513281f0f247a175a,18,ball,critical,C,50,goal,low,exp2trials,NULL
1687453340,b80ef68fe18f4cb7f26636579c886c48,PennController,21,0,experiment,NULL,VideoScrubber,slider-input,SelectedFrame,50,1687452937220,5f49307513281f0f247a175a,5f49307513281f0f247a175a,18,ball,critical,C,50,goal,low,exp2trials,NULL
1687453340,b80ef68fe18f4cb7f26636579c886c48,PennController,21,0,experiment,NULL,PennController,20,_Trial_,End,1687452944579,5f49307513281f0f247a175a,5f49307513281f0f247a175a,18,ball,critical,C,50,goal,low,exp2trials,NULL
1687453340,b80ef68fe18f4cb7f26636579c886c48,PennController,11,0,experiment,NULL,PennController,10,_Trial_,Start,1687452944582,5f49307513281f0f247a175a,5f49307513281f0f247a175a,8,cucumber,critical,C,25,goal,low,exp2trials,NULL
1687453340,b80ef68fe18f4cb7f26636579c886c48,PennController,11,0,experiment,NULL,PennController,10,_Header_,Start,1687452944582,5f49307513281f0f247a175a,5f49307513281f0f247a175a,8,cucumber,critical,C,25,goal,low,exp2trials,NULL
1687453340,b80ef68fe18f4cb7f26636579c886c48,PennController,11,0,experiment,NULL,PennController,10,_Header_,End,1687452944582,5f49307513281f0f247a175a,5f49307513281f0f247a175a,8,cucumber,critical,C,25,goal,low,exp2trials,NULL
1687453340,b80ef68fe18f4cb7f26636579c886c48,PennController,11,0,experiment,NULL,Video,progression,buffer,0.007196,1687452948116,5f49307513281f0f247a175a,5f49307513281f0f247a175a,8,cucumber,critical,C,25,goal,low,exp2trials,NULL
1687453340,b80ef68fe18f4cb7f26636579c886c48,PennController,11,0,experiment,NULL,VideoScrubber,slider-input,SelectedFrame,24,1687452950887,5f49307513281f0f247a175a,5f49307513281f0f247a175a,8,cucumber,critical,C,25,goal,low,exp2trials,NULL
1687453340,b80ef68fe18f4cb7f26636579c886c48,PennController,11,0,experiment,NULL,PennController,10,_Trial_,End,1687452963617,5f49307513281f0f247a175a,5f49307513281f0f247a175a,8,cucumber,critical,C,25,goal,low,exp2trials,NULL
1687453340,b80ef68fe18f4cb7f26636579c886c48,PennController,18,0,experiment,NULL,PennController,17,_Trial_,Start,1687452963619,5f49307513281f0f247a175a,5f49307513281f0f247a175a,15,zip,critical,C,50,goal,low,exp2trials,NULL
1687453340,b80ef68fe18f4cb7f26636579c886c48,PennController,18,0,experiment,NULL,PennController,17,_Header_,Start,1687452963619,5f49307513281f0f247a175a,5f49307513281f0f247a175a,15,zip,critical,C,50,goal,low,exp2trials,NULL
1687453340,b80ef68fe18f4cb7f26636579c886c48,PennController,18,0,experiment,NULL,PennController,17,_Header_,End,1687452963619,5f49307513281f0f247a175a,5f49307513281f0f247a175a,15,zip,critical,C,50,goal,low,exp2trials,NULL
1687453340,b80ef68fe18f4cb7f26636579c886c48,PennController,18,0,experiment,NULL,Video,progression,buffer,0.004896,1687452967150,5f49307513281f0f247a175a,5f49307513281f0f247a175a,15,zip,critical,C,50,goal,low,exp2trials,NULL
1687453340,b80ef68fe18f4cb7f26636579c886c48,PennController,18,0,experiment,NULL,VideoScrubber,slider-input,SelectedFrame,60,1687452970317,5f49307513281f0f247a175a,5f49307513281f0f247a175a,15,zip,critical,C,50,goal,low,exp2trials,NULL
1687453340,b80ef68fe18f4cb7f26636579c886c48,PennController,18,0,experiment,NULL,PennController,17,_Trial_,End,1687452979797,5f49307513281f0f247a175a,5f49307513281f0f247a175a,15,zip,critical,C,50,goal,low,exp2trials,NULL
1687453340,b80ef68fe18f4cb7f26636579c886c48,PennController,17,0,experiment,NULL,PennController,16,_Trial_,Start,1687452979799,5f49307513281f0f247a175a,5f49307513281f0f247a175a,14,cover,critical,C,25,goal,low,exp2trials,NULL
1687453340,b80ef68fe18f4cb7f26636579c886c48,PennController,17,0,experiment,NULL,PennController,16,_Header_,Start,1687452979799,5f49307513281f0f247a175a,5f49307513281f0f247a175a,14,cover,critical,C,25,goal,low,exp2trials,NULL
1687453340,b80ef68fe18f4cb7f26636579c886c48,PennController,17,0,experiment,NULL,PennController,16,_Header_,End,1687452979799,5f49307513281f0f247a175a,5f49307513281f0f247a175a,14,cover,critical,C,25,goal,low,exp2trials,NULL
1687453340,b80ef68fe18f4cb7f26636579c886c48,PennController,17,0,experiment,NULL,Video,progression,buffer,0.006809,1687452983332,5f49307513281f0f247a175a,5f49307513281f0f247a175a,14,cover,critical,C,25,goal,low,exp2trials,NULL
1687453340,b80ef68fe18f4cb7f26636579c886c48,PennController,17,0,experiment,NULL,VideoScrubber,slider-input,SelectedFrame,27,1687452986101,5f49307513281f0f247a175a,5f49307513281f0f247a175a,14,cover,critical,C,25,goal,low,exp2trials,NULL
1687453340,b80ef68fe18f4cb7f26636579c886c48,PennController,17,0,experiment,NULL,PennController,16,_Trial_,End,1687452996808,5f49307513281f0f247a175a,5f49307513281f0f247a175a,14,cover,critical,C,25,goal,low,exp2trials,NULL
1687453340,b80ef68fe18f4cb7f26636579c886c48,PennController,19,0,experiment,NULL,PennController,18,_Trial_,Start,1687452996810,5f49307513281f0f247a175a,5f49307513281f0f247a175a,16,blinds,critical,C,75,goal,low,exp2trials,NULL
1687453340,b80ef68fe18f4cb7f26636579c886c48,PennController,19,0,experiment,NULL,PennController,18,_Header_,Start,1687452996810,5f49307513281f0f247a175a,5f49307513281f0f247a175a,16,blinds,critical,C,75,goal,low,exp2trials,NULL
1687453340,b80ef68fe18f4cb7f26636579c886c48,PennController,19,0,experiment,NULL,PennController,18,_Header_,End,1687452996810,5f49307513281f0f247a175a,5f49307513281f0f247a175a,16,blinds,critical,C,75,goal,low,exp2trials,NULL
1687453340,b80ef68fe18f4cb7f26636579c886c48,PennController,19,0,experiment,NULL,Video,progression,buffer,0.00727,1687453000343,5f49307513281f0f247a175a,5f49307513281f0f247a175a,16,blinds,critical,C,75,goal,low,exp2trials,NULL
1687453340,b80ef68fe18f4cb7f26636579c886c48,PennController,19,0,experiment,NULL,VideoScrubber,slider-input,SelectedFrame,78,1687453006515,5f49307513281f0f247a175a,5f49307513281f0f247a175a,16,blinds,critical,C,75,goal,low,exp2trials,NULL
1687453340,b80ef68fe18f4cb7f26636579c886c48,PennController,19,0,experiment,NULL,PennController,18,_Trial_,End,1687453016269,5f49307513281f0f247a175a,5f49307513281f0f247a175a,16,blinds,critical,C,75,goal,low,exp2trials,NULL
1687453340,b80ef68fe18f4cb7f26636579c886c48,PennController,24,0,experiment,NULL,PennController,23,_Trial_,Start,1687453016271,5f49307513281f0f247a175a,5f49307513281f0f247a175a,21,visit,filler,C,50,goal,GoalA,exp2trials,NULL
1687453340,b80ef68fe18f4cb7f26636579c886c48,PennController,24,0,experiment,NULL,PennController,23,_Header_,Start,1687453016271,5f49307513281f0f247a175a,5f49307513281f0f247a175a,21,visit,filler,C,50,goal,GoalA,exp2trials,NULL
1687453340,b80ef68fe18f4cb7f26636579c886c48,PennController,24,0,experiment,NULL,PennController,23,_Header_,End,1687453016271,5f49307513281f0f247a175a,5f49307513281f0f247a175a,21,visit,filler,C,50,goal,GoalA,exp2trials,NULL
1687453340,b80ef68fe18f4cb7f26636579c886c48,PennController,24,0,experiment,NULL,Video,progression,buffer,0.005251,1687453019800,5f49307513281f0f247a175a,5f49307513281f0f247a175a,21,visit,filler,C,50,goal,GoalA,exp2trials,NULL
1687453340,b80ef68fe18f4cb7f26636579c886c48,PennController,24,0,experiment,NULL,VideoScrubber,slider-input,SelectedFrame,55,1687453022965,5f49307513281f0f247a175a,5f49307513281f0f247a175a,21,visit,filler,C,50,goal,GoalA,exp2trials,NULL
1687453340,b80ef68fe18f4cb7f26636579c886c48,PennController,24,0,experiment,NULL,PennController,23,_Trial_,End,1687453029026,5f49307513281f0f247a175a,5f49307513281f0f247a175a,21,visit,filler,C,50,goal,GoalA,exp2trials,NULL
1687453340,b80ef68fe18f4cb7f26636579c886c48,PennController,4,0,experiment,NULL,PennController,3,_Trial_,Start,1687453029028,5f49307513281f0f247a175a,5f49307513281f0f247a175a,1,vase,critical,C,75,goal,low,exp2trials,NULL
1687453340,b80ef68fe18f4cb7f26636579c886c48,PennController,4,0,experiment,NULL,PennController,3,_Header_,Start,1687453029028,5f49307513281f0f247a175a,5f49307513281f0f247a175a,1,vase,critical,C,75,goal,low,exp2trials,NULL
1687453340,b80ef68fe18f4cb7f26636579c886c48,PennController,4,0,experiment,NULL,PennController,3,_Header_,End,1687453029028,5f49307513281f0f247a175a,5f49307513281f0f247a175a,1,vase,critical,C,75,goal,low,exp2trials,NULL
1687453340,b80ef68fe18f4cb7f26636579c886c48,PennController,4,0,experiment,NULL,Video,progression,buffer,0.006289,1687453032557,5f49307513281f0f247a175a,5f49307513281f0f247a175a,1,vase,critical,C,75,goal,low,exp2trials,NULL
1687453340,b80ef68fe18f4cb7f26636579c886c48,PennController,4,0,experiment,NULL,VideoScrubber,slider-input,SelectedFrame,75,1687453036729,5f49307513281f0f247a175a,5f49307513281f0f247a175a,1,vase,critical,C,75,goal,low,exp2trials,NULL
1687453340,b80ef68fe18f4cb7f26636579c886c48,PennController,4,0,experiment,NULL,PennController,3,_Trial_,End,1687453045153,5f49307513281f0f247a175a,5f49307513281f0f247a175a,1,vase,critical,C,75,goal,low,exp2trials,NULL
1687453340,b80ef68fe18f4cb7f26636579c886c48,PennController,31,0,experiment,NULL,PennController,30,_Trial_,Start,1687453045154,5f49307513281f0f247a175a,5f49307513281f0f247a175a,28,sort,filler,C,75,goal,GoalB,exp2trials,NULL
1687453340,b80ef68fe18f4cb7f26636579c886c48,PennController,31,0,experiment,NULL,PennController,30,_Header_,Start,1687453045154,5f49307513281f0f247a175a,5f49307513281f0f247a175a,28,sort,filler,C,75,goal,GoalB,exp2trials,NULL
1687453340,b80ef68fe18f4cb7f26636579c886c48,PennController,31,0,experiment,NULL,PennController,30,_Header_,End,1687453045154,5f49307513281f0f247a175a,5f49307513281f0f247a175a,28,sort,filler,C,75,goal,GoalB,exp2trials,NULL
1687453340,b80ef68fe18f4cb7f26636579c886c48,PennController,31,0,experiment,NULL,Video,progression,buffer,0.00503,1687453048679,5f49307513281f0f247a175a,5f49307513281f0f247a175a,28,sort,filler,C,75,goal,GoalB,exp2trials,NULL
1687453340,b80ef68fe18f4cb7f26636579c886c48,PennController,31,0,experiment,NULL,VideoScrubber,slider-input,SelectedFrame,85,1687453052844,5f49307513281f0f247a175a,5f49307513281f0f247a175a,28,sort,filler,C,75,goal,GoalB,exp2trials,NULL
1687453340,b80ef68fe18f4cb7f26636579c886c48,PennController,31,0,experiment,NULL,PennController,30,_Trial_,End,1687453063793,5f49307513281f0f247a175a,5f49307513281f0f247a175a,28,sort,filler,C,75,goal,GoalB,exp2trials,NULL
1687453340,b80ef68fe18f4cb7f26636579c886c48,PennController,27,0,experiment,NULL,PennController,26,_Trial_,Start,1687453063795,5f49307513281f0f247a175a,5f49307513281f0f247a175a,24,match,filler,C,50,goal,GoalB,exp2trials,NULL
1687453340,b80ef68fe18f4cb7f26636579c886c48,PennController,27,0,experiment,NULL,PennController,26,_Header_,Start,1687453063795,5f49307513281f0f247a175a,5f49307513281f0f247a175a,24,match,filler,C,50,goal,GoalB,exp2trials,NULL
1687453340,b80ef68fe18f4cb7f26636579c886c48,PennController,27,0,experiment,NULL,PennController,26,_Header_,End,1687453063795,5f49307513281f0f247a175a,5f49307513281f0f247a175a,24,match,filler,C,50,goal,GoalB,exp2trials,NULL
1687453340,b80ef68fe18f4cb7f26636579c886c48,PennController,27,0,experiment,NULL,Video,progression,buffer,0.0071,1687453067325,5f49307513281f0f247a175a,5f49307513281f0f247a175a,24,match,filler,C,50,goal,GoalB,exp2trials,NULL
1687453340,b80ef68fe18f4cb7f26636579c886c48,PennController,27,0,experiment,NULL,VideoScrubber,slider-input,SelectedFrame,50,1687453070493,5f49307513281f0f247a175a,5f49307513281f0f247a175a,24,match,filler,C,50,goal,GoalB,exp2trials,NULL
1687453340,b80ef68fe18f4cb7f26636579c886c48,PennController,27,0,experiment,NULL,PennController,26,_Trial_,End,1687453079537,5f49307513281f0f247a175a,5f49307513281f0f247a175a,24,match,filler,C,50,goal,GoalB,exp2trials,NULL
1687453340,b80ef68fe18f4cb7f26636579c886c48,PennController,30,0,experiment,NULL,PennController,29,_Trial_,Start,1687453079539,5f49307513281f0f247a175a,5f49307513281f0f247a175a,27,square,filler,C,50,goal,GoalA,exp2trials,NULL
1687453340,b80ef68fe18f4cb7f26636579c886c48,PennController,30,0,experiment,NULL,PennController,29,_Header_,Start,1687453079539,5f49307513281f0f247a175a,5f49307513281f0f247a175a,27,square,filler,C,50,goal,GoalA,exp2trials,NULL
1687453340,b80ef68fe18f4cb7f26636579c886c48,PennController,30,0,experiment,NULL,PennController,29,_Header_,End,1687453079539,5f49307513281f0f247a175a,5f49307513281f0f247a175a,27,square,filler,C,50,goal,GoalA,exp2trials,NULL
1687453340,b80ef68fe18f4cb7f26636579c886c48,PennController,30,0,experiment,NULL,Video,progression,buffer,0.006408,1687453083071,5f49307513281f0f247a175a,5f49307513281f0f247a175a,27,square,filler,C,50,goal,GoalA,exp2trials,NULL
1687453340,b80ef68fe18f4cb7f26636579c886c48,PennController,30,0,experiment,NULL,VideoScrubber,slider-input,SelectedFrame,45,1687453086243,5f49307513281f0f247a175a,5f49307513281f0f247a175a,27,square,filler,C,50,goal,GoalA,exp2trials,NULL
1687453340,b80ef68fe18f4cb7f26636579c886c48,PennController,30,0,experiment,NULL,PennController,29,_Trial_,End,1687453096833,5f49307513281f0f247a175a,5f49307513281f0f247a175a,27,square,filler,C,50,goal,GoalA,exp2trials,NULL
1687453340,b80ef68fe18f4cb7f26636579c886c48,PennController,5,0,experiment,NULL,PennController,4,_Trial_,Start,1687453096835,5f49307513281f0f247a175a,5f49307513281f0f247a175a,2,door,critical,C,25,goal,low,exp2trials,NULL
1687453340,b80ef68fe18f4cb7f26636579c886c48,PennController,5,0,experiment,NULL,PennController,4,_Header_,Start,1687453096835,5f49307513281f0f247a175a,5f49307513281f0f247a175a,2,door,critical,C,25,goal,low,exp2trials,NULL
1687453340,b80ef68fe18f4cb7f26636579c886c48,PennController,5,0,experiment,NULL,PennController,4,_Header_,End,1687453096835,5f49307513281f0f247a175a,5f49307513281f0f247a175a,2,door,critical,C,25,goal,low,exp2trials,NULL
1687453340,b80ef68fe18f4cb7f26636579c886c48,PennController,5,0,experiment,NULL,Video,progression,buffer,0.005815,1687453100368,5f49307513281f0f247a175a,5f49307513281f0f247a175a,2,door,critical,C,25,goal,low,exp2trials,NULL
1687453340,b80ef68fe18f4cb7f26636579c886c48,PennController,5,0,experiment,NULL,VideoScrubber,slider-input,SelectedFrame,30,1687453102528,5f49307513281f0f247a175a,5f49307513281f0f247a175a,2,door,critical,C,25,goal,low,exp2trials,NULL
1687453340,b80ef68fe18f4cb7f26636579c886c48,PennController,5,0,experiment,NULL,PennController,4,_Trial_,End,1687453109029,5f49307513281f0f247a175a,5f49307513281f0f247a175a,2,door,critical,C,25,goal,low,exp2trials,NULL
1687453340,b80ef68fe18f4cb7f26636579c886c48,PennController,29,0,experiment,NULL,PennController,28,_Trial_,Start,1687453109031,5f49307513281f0f247a175a,5f49307513281f0f247a175a,26,sandwich,filler,C,25,goal,GoalB,exp2trials,NULL
1687453340,b80ef68fe18f4cb7f26636579c886c48,PennController,29,0,experiment,NULL,PennController,28,_Header_,Start,1687453109031,5f49307513281f0f247a175a,5f49307513281f0f247a175a,26,sandwich,filler,C,25,goal,GoalB,exp2trials,NULL
1687453340,b80ef68fe18f4cb7f26636579c886c48,PennController,29,0,experiment,NULL,PennController,28,_Header_,End,1687453109031,5f49307513281f0f247a175a,5f49307513281f0f247a175a,26,sandwich,filler,C,25,goal,GoalB,exp2trials,NULL
1687453340,b80ef68fe18f4cb7f26636579c886c48,PennController,29,0,experiment,NULL,Video,progression,buffer,0.004917,1687453112564,5f49307513281f0f247a175a,5f49307513281f0f247a175a,26,sandwich,filler,C,25,goal,GoalB,exp2trials,NULL
1687453340,b80ef68fe18f4cb7f26636579c886c48,PennController,29,0,experiment,NULL,VideoScrubber,slider-input,SelectedFrame,20,1687453114730,5f49307513281f0f247a175a,5f49307513281f0f247a175a,26,sandwich,filler,C,25,goal,GoalB,exp2trials,NULL
1687453340,b80ef68fe18f4cb7f26636579c886c48,PennController,29,0,experiment,NULL,PennController,28,_Trial_,End,1687453119584,5f49307513281f0f247a175a,5f49307513281f0f247a175a,26,sandwich,filler,C,25,goal,GoalB,exp2trials,NULL
1687453340,b80ef68fe18f4cb7f26636579c886c48,PennController,6,0,experiment,NULL,PennController,5,_Trial_,Start,1687453119586,5f49307513281f0f247a175a,5f49307513281f0f247a175a,3,clean,critical,C,50,goal,low,exp2trials,NULL
1687453340,b80ef68fe18f4cb7f26636579c886c48,PennController,6,0,experiment,NULL,PennController,5,_Header_,Start,1687453119586,5f49307513281f0f247a175a,5f49307513281f0f247a175a,3,clean,critical,C,50,goal,low,exp2trials,NULL
1687453340,b80ef68fe18f4cb7f26636579c886c48,PennController,6,0,experiment,NULL,PennController,5,_Header_,End,1687453119586,5f49307513281f0f247a175a,5f49307513281f0f247a175a,3,clean,critical,C,50,goal,low,exp2trials,NULL
1687453340,b80ef68fe18f4cb7f26636579c886c48,PennController,6,0,experiment,NULL,Video,progression,buffer,0.007119,1687453123113,5f49307513281f0f247a175a,5f49307513281f0f247a175a,3,clean,critical,C,50,goal,low,exp2trials,NULL
1687453340,b80ef68fe18f4cb7f26636579c886c48,PennController,6,0,experiment,NULL,VideoScrubber,slider-input,SelectedFrame,45,1687453126280,5f49307513281f0f247a175a,5f49307513281f0f247a175a,3,clean,critical,C,50,goal,low,exp2trials,NULL
1687453340,b80ef68fe18f4cb7f26636579c886c48,PennController,6,0,experiment,NULL,PennController,5,_Trial_,End,1687453133908,5f49307513281f0f247a175a,5f49307513281f0f247a175a,3,clean,critical,C,50,goal,low,exp2trials,NULL
1687453340,b80ef68fe18f4cb7f26636579c886c48,PennController,10,0,experiment,NULL,PennController,9,_Trial_,Start,1687453133911,5f49307513281f0f247a175a,5f49307513281f0f247a175a,7,stack,critical,C,75,goal,low,exp2trials,NULL
1687453340,b80ef68fe18f4cb7f26636579c886c48,PennController,10,0,experiment,NULL,PennController,9,_Header_,Start,1687453133911,5f49307513281f0f247a175a,5f49307513281f0f247a175a,7,stack,critical,C,75,goal,low,exp2trials,NULL
1687453340,b80ef68fe18f4cb7f26636579c886c48,PennController,10,0,experiment,NULL,PennController,9,_Header_,End,1687453133911,5f49307513281f0f247a175a,5f49307513281f0f247a175a,7,stack,critical,C,75,goal,low,exp2trials,NULL
1687453340,b80ef68fe18f4cb7f26636579c886c48,PennController,10,0,experiment,NULL,Video,progression,buffer,0.00644,1687453137438,5f49307513281f0f247a175a,5f49307513281f0f247a175a,7,stack,critical,C,75,goal,low,exp2trials,NULL
1687453340,b80ef68fe18f4cb7f26636579c886c48,PennController,10,0,experiment,NULL,VideoScrubber,slider-input,SelectedFrame,75,1687453141609,5f49307513281f0f247a175a,5f49307513281f0f247a175a,7,stack,critical,C,75,goal,low,exp2trials,NULL
1687453340,b80ef68fe18f4cb7f26636579c886c48,PennController,10,0,experiment,NULL,PennController,9,_Trial_,End,1687453150641,5f49307513281f0f247a175a,5f49307513281f0f247a175a,7,stack,critical,C,75,goal,low,exp2trials,NULL
1687453340,b80ef68fe18f4cb7f26636579c886c48,PennController,23,0,experiment,NULL,PennController,22,_Trial_,Start,1687453150643,5f49307513281f0f247a175a,5f49307513281f0f247a175a,20,cat,filler,C,25,goal,GoalB,exp2trials,NULL
1687453340,b80ef68fe18f4cb7f26636579c886c48,PennController,23,0,experiment,NULL,PennController,22,_Header_,Start,1687453150643,5f49307513281f0f247a175a,5f49307513281f0f247a175a,20,cat,filler,C,25,goal,GoalB,exp2trials,NULL
1687453340,b80ef68fe18f4cb7f26636579c886c48,PennController,23,0,experiment,NULL,PennController,22,_Header_,End,1687453150643,5f49307513281f0f247a175a,5f49307513281f0f247a175a,20,cat,filler,C,25,goal,GoalB,exp2trials,NULL
1687453340,b80ef68fe18f4cb7f26636579c886c48,PennController,23,0,experiment,NULL,Video,progression,buffer,0.004732,1687453154177,5f49307513281f0f247a175a,5f49307513281f0f247a175a,20,cat,filler,C,25,goal,GoalB,exp2trials,NULL
1687453340,b80ef68fe18f4cb7f26636579c886c48,PennController,23,0,experiment,NULL,VideoScrubber,slider-input,SelectedFrame,25,1687453156340,5f49307513281f0f247a175a,5f49307513281f0f247a175a,20,cat,filler,C,25,goal,GoalB,exp2trials,NULL
1687453340,b80ef68fe18f4cb7f26636579c886c48,PennController,23,0,experiment,NULL,PennController,22,_Trial_,End,1687453162102,5f49307513281f0f247a175a,5f49307513281f0f247a175a,20,cat,filler,C,25,goal,GoalB,exp2trials,NULL
1687453340,b80ef68fe18f4cb7f26636579c886c48,PennController,7,0,experiment,NULL,PennController,6,_Trial_,Start,1687453162104,5f49307513281f0f247a175a,5f49307513281f0f247a175a,4,candy,critical,C,75,goal,low,exp2trials,NULL
1687453340,b80ef68fe18f4cb7f26636579c886c48,PennController,7,0,experiment,NULL,PennController,6,_Header_,Start,1687453162104,5f49307513281f0f247a175a,5f49307513281f0f247a175a,4,candy,critical,C,75,goal,low,exp2trials,NULL
1687453340,b80ef68fe18f4cb7f26636579c886c48,PennController,7,0,experiment,NULL,PennController,6,_Header_,End,1687453162104,5f49307513281f0f247a175a,5f49307513281f0f247a175a,4,candy,critical,C,75,goal,low,exp2trials,NULL
1687453340,b80ef68fe18f4cb7f26636579c886c48,PennController,7,0,experiment,NULL,Video,progression,buffer,0.009859,1687453165638,5f49307513281f0f247a175a,5f49307513281f0f247a175a,4,candy,critical,C,75,goal,low,exp2trials,NULL
1687453340,b80ef68fe18f4cb7f26636579c886c48,PennController,7,0,experiment,NULL,VideoScrubber,slider-input,SelectedFrame,70,1687453169807,5f49307513281f0f247a175a,5f49307513281f0f247a175a,4,candy,critical,C,75,goal,low,exp2trials,NULL
1687453340,b80ef68fe18f4cb7f26636579c886c48,PennController,7,0,experiment,NULL,PennController,6,_Trial_,End,1687453177616,5f49307513281f0f247a175a,5f49307513281f0f247a175a,4,candy,critical,C,75,goal,low,exp2trials,NULL
1687453340,b80ef68fe18f4cb7f26636579c886c48,PennController,13,0,experiment,NULL,PennController,12,_Trial_,Start,1687453177618,5f49307513281f0f247a175a,5f49307513281f0f247a175a,10,train,critical,C,75,goal,low,exp2trials,NULL
1687453340,b80ef68fe18f4cb7f26636579c886c48,PennController,13,0,experiment,NULL,PennController,12,_Header_,Start,1687453177618,5f49307513281f0f247a175a,5f49307513281f0f247a175a,10,train,critical,C,75,goal,low,exp2trials,NULL
1687453340,b80ef68fe18f4cb7f26636579c886c48,PennController,13,0,experiment,NULL,PennController,12,_Header_,End,1687453177618,5f49307513281f0f247a175a,5f49307513281f0f247a175a,10,train,critical,C,75,goal,low,exp2trials,NULL
1687453340,b80ef68fe18f4cb7f26636579c886c48,PennController,13,0,experiment,NULL,Video,progression,buffer,0.004646,1687453181143,5f49307513281f0f247a175a,5f49307513281f0f247a175a,10,train,critical,C,75,goal,low,exp2trials,NULL
1687453340,b80ef68fe18f4cb7f26636579c886c48,PennController,13,0,experiment,NULL,VideoScrubber,slider-input,SelectedFrame,85,1687453185306,5f49307513281f0f247a175a,5f49307513281f0f247a175a,10,train,critical,C,75,goal,low,exp2trials,NULL
1687453340,b80ef68fe18f4cb7f26636579c886c48,PennController,13,0,experiment,NULL,PennController,12,_Trial_,End,1687453189564,5f49307513281f0f247a175a,5f49307513281f0f247a175a,10,train,critical,C,75,goal,low,exp2trials,NULL
1687453340,b80ef68fe18f4cb7f26636579c886c48,PennController,28,0,experiment,NULL,PennController,27,_Trial_,Start,1687453189566,5f49307513281f0f247a175a,5f49307513281f0f247a175a,25,house,filler,C,75,goal,GoalA,exp2trials,NULL
1687453340,b80ef68fe18f4cb7f26636579c886c48,PennController,28,0,experiment,NULL,PennController,27,_Header_,Start,1687453189566,5f49307513281f0f247a175a,5f49307513281f0f247a175a,25,house,filler,C,75,goal,GoalA,exp2trials,NULL
1687453340,b80ef68fe18f4cb7f26636579c886c48,PennController,28,0,experiment,NULL,PennController,27,_Header_,End,1687453189566,5f49307513281f0f247a175a,5f49307513281f0f247a175a,25,house,filler,C,75,goal,GoalA,exp2trials,NULL
1687453340,b80ef68fe18f4cb7f26636579c886c48,PennController,28,0,experiment,NULL,Video,progression,buffer,0.006006,1687453193093,5f49307513281f0f247a175a,5f49307513281f0f247a175a,25,house,filler,C,75,goal,GoalA,exp2trials,NULL
1687453340,b80ef68fe18f4cb7f26636579c886c48,PennController,28,0,experiment,NULL,VideoScrubber,slider-input,SelectedFrame,75,1687453197251,5f49307513281f0f247a175a,5f49307513281f0f247a175a,25,house,filler,C,75,goal,GoalA,exp2trials,NULL
1687453340,b80ef68fe18f4cb7f26636579c886c48,PennController,28,0,experiment,NULL,PennController,27,_Trial_,End,1687453202181,5f49307513281f0f247a175a,5f49307513281f0f247a175a,25,house,filler,C,75,goal,GoalA,exp2trials,NULL
1687453340,b80ef68fe18f4cb7f26636579c886c48,PennController,15,0,experiment,NULL,PennController,14,_Trial_,Start,1687453202183,5f49307513281f0f247a175a,5f49307513281f0f247a175a,12,erase,critical,C,50,goal,low,exp2trials,NULL
1687453340,b80ef68fe18f4cb7f26636579c886c48,PennController,15,0,experiment,NULL,PennController,14,_Header_,Start,1687453202183,5f49307513281f0f247a175a,5f49307513281f0f247a175a,12,erase,critical,C,50,goal,low,exp2trials,NULL
1687453340,b80ef68fe18f4cb7f26636579c886c48,PennController,15,0,experiment,NULL,PennController,14,_Header_,End,1687453202183,5f49307513281f0f247a175a,5f49307513281f0f247a175a,12,erase,critical,C,50,goal,low,exp2trials,NULL
1687453340,b80ef68fe18f4cb7f26636579c886c48,PennController,15,0,experiment,NULL,Video,progression,buffer,0.006036,1687453205714,5f49307513281f0f247a175a,5f49307513281f0f247a175a,12,erase,critical,C,50,goal,low,exp2trials,NULL
1687453340,b80ef68fe18f4cb7f26636579c886c48,PennController,15,0,experiment,NULL,VideoScrubber,slider-input,SelectedFrame,51,1687453210284,5f49307513281f0f247a175a,5f49307513281f0f247a175a,12,erase,critical,C,50,goal,low,exp2trials,NULL
1687453340,b80ef68fe18f4cb7f26636579c886c48,PennController,15,0,experiment,NULL,PennController,14,_Trial_,End,1687453213021,5f49307513281f0f247a175a,5f49307513281f0f247a175a,12,erase,critical,C,50,goal,low,exp2trials,NULL
1687453340,b80ef68fe18f4cb7f26636579c886c48,PennController,22,0,experiment,NULL,PennController,21,_Trial_,Start,1687453213023,5f49307513281f0f247a175a,5f49307513281f0f247a175a,19,cup,filler,C,75,goal,GoalA,exp2trials,NULL
1687453340,b80ef68fe18f4cb7f26636579c886c48,PennController,22,0,experiment,NULL,PennController,21,_Header_,Start,1687453213023,5f49307513281f0f247a175a,5f49307513281f0f247a175a,19,cup,filler,C,75,goal,GoalA,exp2trials,NULL
1687453340,b80ef68fe18f4cb7f26636579c886c48,PennController,22,0,experiment,NULL,PennController,21,_Header_,End,1687453213023,5f49307513281f0f247a175a,5f49307513281f0f247a175a,19,cup,filler,C,75,goal,GoalA,exp2trials,NULL
1687453340,b80ef68fe18f4cb7f26636579c886c48,PennController,22,0,experiment,NULL,Video,progression,buffer,0.006362,1687453216550,5f49307513281f0f247a175a,5f49307513281f0f247a175a,19,cup,filler,C,75,goal,GoalA,exp2trials,NULL
1687453340,b80ef68fe18f4cb7f26636579c886c48,PennController,22,0,experiment,NULL,VideoScrubber,slider-input,SelectedFrame,35,1687453220718,5f49307513281f0f247a175a,5f49307513281f0f247a175a,19,cup,filler,C,75,goal,GoalA,exp2trials,NULL
1687453340,b80ef68fe18f4cb7f26636579c886c48,PennController,22,0,experiment,NULL,PennController,21,_Trial_,End,1687453227305,5f49307513281f0f247a175a,5f49307513281f0f247a175a,19,cup,filler,C,75,goal,GoalA,exp2trials,NULL
1687453340,b80ef68fe18f4cb7f26636579c886c48,PennController,16,0,experiment,NULL,PennController,15,_Trial_,Start,1687453227307,5f49307513281f0f247a175a,5f49307513281f0f247a175a,13,mix,critical,C,75,goal,low,exp2trials,NULL
1687453340,b80ef68fe18f4cb7f26636579c886c48,PennController,16,0,experiment,NULL,PennController,15,_Header_,Start,1687453227307,5f49307513281f0f247a175a,5f49307513281f0f247a175a,13,mix,critical,C,75,goal,low,exp2trials,NULL
1687453340,b80ef68fe18f4cb7f26636579c886c48,PennController,16,0,experiment,NULL,PennController,15,_Header_,End,1687453227307,5f49307513281f0f247a175a,5f49307513281f0f247a175a,13,mix,critical,C,75,goal,low,exp2trials,NULL
1687453340,b80ef68fe18f4cb7f26636579c886c48,PennController,16,0,experiment,NULL,Video,progression,buffer,0.004506,1687453230835,5f49307513281f0f247a175a,5f49307513281f0f247a175a,13,mix,critical,C,75,goal,low,exp2trials,NULL
1687453340,b80ef68fe18f4cb7f26636579c886c48,PennController,16,0,experiment,NULL,VideoScrubber,slider-input,SelectedFrame,35,1687453234999,5f49307513281f0f247a175a,5f49307513281f0f247a175a,13,mix,critical,C,75,goal,low,exp2trials,NULL
1687453340,b80ef68fe18f4cb7f26636579c886c48,PennController,16,0,experiment,NULL,PennController,15,_Trial_,End,1687453246036,5f49307513281f0f247a175a,5f49307513281f0f247a175a,13,mix,critical,C,75,goal,low,exp2trials,NULL
1687453340,b80ef68fe18f4cb7f26636579c886c48,PennController,32,0,experiment,NULL,PennController,31,_Trial_,Start,1687453246038,5f49307513281f0f247a175a,5f49307513281f0f247a175a,29,frog,filler,C,25,goal,GoalA,exp2trials,NULL
1687453340,b80ef68fe18f4cb7f26636579c886c48,PennController,32,0,experiment,NULL,PennController,31,_Header_,Start,1687453246038,5f49307513281f0f247a175a,5f49307513281f0f247a175a,29,frog,filler,C,25,goal,GoalA,exp2trials,NULL
1687453340,b80ef68fe18f4cb7f26636579c886c48,PennController,32,0,experiment,NULL,PennController,31,_Header_,End,1687453246038,5f49307513281f0f247a175a,5f49307513281f0f247a175a,29,frog,filler,C,25,goal,GoalA,exp2trials,NULL
1687453340,b80ef68fe18f4cb7f26636579c886c48,PennController,32,0,experiment,NULL,Video,progression,buffer,0.004708,1687453249564,5f49307513281f0f247a175a,5f49307513281f0f247a175a,29,frog,filler,C,25,goal,GoalA,exp2trials,NULL
1687453340,b80ef68fe18f4cb7f26636579c886c48,PennController,32,0,experiment,NULL,VideoScrubber,slider-input,SelectedFrame,35,1687453251735,5f49307513281f0f247a175a,5f49307513281f0f247a175a,29,frog,filler,C,25,goal,GoalA,exp2trials,NULL
1687453340,b80ef68fe18f4cb7f26636579c886c48,PennController,32,0,experiment,NULL,PennController,31,_Trial_,End,1687453259611,5f49307513281f0f247a175a,5f49307513281f0f247a175a,29,frog,filler,C,25,goal,GoalA,exp2trials,NULL
1687453340,b80ef68fe18f4cb7f26636579c886c48,PennController,8,0,experiment,NULL,PennController,7,_Trial_,Start,1687453259613,5f49307513281f0f247a175a,5f49307513281f0f247a175a,5,book,critical,C,25,goal,low,exp2trials,NULL
1687453340,b80ef68fe18f4cb7f26636579c886c48,PennController,8,0,experiment,NULL,PennController,7,_Header_,Start,1687453259613,5f49307513281f0f247a175a,5f49307513281f0f247a175a,5,book,critical,C,25,goal,low,exp2trials,NULL
1687453340,b80ef68fe18f4cb7f26636579c886c48,PennController,8,0,experiment,NULL,PennController,7,_Header_,End,1687453259613,5f49307513281f0f247a175a,5f49307513281f0f247a175a,5,book,critical,C,25,goal,low,exp2trials,NULL
1687453340,b80ef68fe18f4cb7f26636579c886c48,PennController,8,0,experiment,NULL,Video,progression,buffer,0.006904,1687453263145,5f49307513281f0f247a175a,5f49307513281f0f247a175a,5,book,critical,C,25,goal,low,exp2trials,NULL
1687453340,b80ef68fe18f4cb7f26636579c886c48,PennController,8,0,experiment,NULL,VideoScrubber,slider-input,SelectedFrame,40,1687453265317,5f49307513281f0f247a175a,5f49307513281f0f247a175a,5,book,critical,C,25,goal,low,exp2trials,NULL
1687453340,b80ef68fe18f4cb7f26636579c886c48,PennController,8,0,experiment,NULL,PennController,7,_Trial_,End,1687453277480,5f49307513281f0f247a175a,5f49307513281f0f247a175a,5,book,critical,C,25,goal,low,exp2trials,NULL
1687453340,b80ef68fe18f4cb7f26636579c886c48,PennController,25,0,experiment,NULL,PennController,24,_Trial_,Start,1687453277482,5f49307513281f0f247a175a,5f49307513281f0f247a175a,22,wall,filler,C,75,goal,GoalB,exp2trials,NULL
1687453340,b80ef68fe18f4cb7f26636579c886c48,PennController,25,0,experiment,NULL,PennController,24,_Header_,Start,1687453277482,5f49307513281f0f247a175a,5f49307513281f0f247a175a,22,wall,filler,C,75,goal,GoalB,exp2trials,NULL
1687453340,b80ef68fe18f4cb7f26636579c886c48,PennController,25,0,experiment,NULL,PennController,24,_Header_,End,1687453277482,5f49307513281f0f247a175a,5f49307513281f0f247a175a,22,wall,filler,C,75,goal,GoalB,exp2trials,NULL
1687453340,b80ef68fe18f4cb7f26636579c886c48,PennController,25,0,experiment,NULL,Video,progression,buffer,0.004386,1687453281015,5f49307513281f0f247a175a,5f49307513281f0f247a175a,22,wall,filler,C,75,goal,GoalB,exp2trials,NULL
1687453340,b80ef68fe18f4cb7f26636579c886c48,PennController,25,0,experiment,NULL,VideoScrubber,slider-input,SelectedFrame,70,1687453285182,5f49307513281f0f247a175a,5f49307513281f0f247a175a,22,wall,filler,C,75,goal,GoalB,exp2trials,NULL
1687453340,b80ef68fe18f4cb7f26636579c886c48,PennController,25,0,experiment,NULL,PennController,24,_Trial_,End,1687453295593,5f49307513281f0f247a175a,5f49307513281f0f247a175a,22,wall,filler,C,75,goal,GoalB,exp2trials,NULL
1687453340,b80ef68fe18f4cb7f26636579c886c48,PennController,14,0,experiment,NULL,PennController,13,_Trial_,Start,1687453295595,5f49307513281f0f247a175a,5f49307513281f0f247a175a,11,beads,critical,C,25,goal,low,exp2trials,NULL
1687453340,b80ef68fe18f4cb7f26636579c886c48,PennController,14,0,experiment,NULL,PennController,13,_Header_,Start,1687453295595,5f49307513281f0f247a175a,5f49307513281f0f247a175a,11,beads,critical,C,25,goal,low,exp2trials,NULL
1687453340,b80ef68fe18f4cb7f26636579c886c48,PennController,14,0,experiment,NULL,PennController,13,_Header_,End,1687453295595,5f49307513281f0f247a175a,5f49307513281f0f247a175a,11,beads,critical,C,25,goal,low,exp2trials,NULL
1687453340,b80ef68fe18f4cb7f26636579c886c48,PennController,14,0,experiment,NULL,Video,progression,buffer,0.006374,1687453299122,5f49307513281f0f247a175a,5f49307513281f0f247a175a,11,beads,critical,C,25,goal,low,exp2trials,NULL
1687453340,b80ef68fe18f4cb7f26636579c886c48,PennController,14,0,experiment,NULL,VideoScrubber,slider-input,SelectedFrame,25,1687453301299,5f49307513281f0f247a175a,5f49307513281f0f247a175a,11,beads,critical,C,25,goal,low,exp2trials,NULL
1687453340,b80ef68fe18f4cb7f26636579c886c48,PennController,14,0,experiment,NULL,PennController,13,_Trial_,End,1687453305499,5f49307513281f0f247a175a,5f49307513281f0f247a175a,11,beads,critical,C,25,goal,low,exp2trials,NULL
1687453340,b80ef68fe18f4cb7f26636579c886c48,PennController,20,0,experiment,NULL,PennController,19,_Trial_,Start,1687453305501,5f49307513281f0f247a175a,5f49307513281f0f247a175a,17,roll,critical,C,25,goal,low,exp2trials,NULL
1687453340,b80ef68fe18f4cb7f26636579c886c48,PennController,20,0,experiment,NULL,PennController,19,_Header_,Start,1687453305501,5f49307513281f0f247a175a,5f49307513281f0f247a175a,17,roll,critical,C,25,goal,low,exp2trials,NULL
1687453340,b80ef68fe18f4cb7f26636579c886c48,PennController,20,0,experiment,NULL,PennController,19,_Header_,End,1687453305501,5f49307513281f0f247a175a,5f49307513281f0f247a175a,17,roll,critical,C,25,goal,low,exp2trials,NULL
1687453340,b80ef68fe18f4cb7f26636579c886c48,PennController,20,0,experiment,NULL,Video,progression,buffer,0.005278,1687453309031,5f49307513281f0f247a175a,5f49307513281f0f247a175a,17,roll,critical,C,25,goal,low,exp2trials,NULL
1687453340,b80ef68fe18f4cb7f26636579c886c48,PennController,20,0,experiment,NULL,VideoScrubber,slider-input,SelectedFrame,20,1687453311197,5f49307513281f0f247a175a,5f49307513281f0f247a175a,17,roll,critical,C,25,goal,low,exp2trials,NULL
1687453340,b80ef68fe18f4cb7f26636579c886c48,PennController,20,0,experiment,NULL,PennController,19,_Trial_,End,1687453314198,5f49307513281f0f247a175a,5f49307513281f0f247a175a,17,roll,critical,C,25,goal,low,exp2trials,NULL
1687453340,b80ef68fe18f4cb7f26636579c886c48,PennController,26,0,experiment,NULL,PennController,25,_Trial_,Start,1687453314200,5f49307513281f0f247a175a,5f49307513281f0f247a175a,23,color,filler,C,25,goal,GoalA,exp2trials,NULL
1687453340,b80ef68fe18f4cb7f26636579c886c48,PennController,26,0,experiment,NULL,PennController,25,_Header_,Start,1687453314200,5f49307513281f0f247a175a,5f49307513281f0f247a175a,23,color,filler,C,25,goal,GoalA,exp2trials,NULL
1687453340,b80ef68fe18f4cb7f26636579c886c48,PennController,26,0,experiment,NULL,PennController,25,_Header_,End,1687453314200,5f49307513281f0f247a175a,5f49307513281f0f247a175a,23,color,filler,C,25,goal,GoalA,exp2trials,NULL
1687453340,b80ef68fe18f4cb7f26636579c886c48,PennController,26,0,experiment,NULL,Video,progression,buffer,0.004796,1687453317731,5f49307513281f0f247a175a,5f49307513281f0f247a175a,23,color,filler,C,25,goal,GoalA,exp2trials,NULL
1687453340,b80ef68fe18f4cb7f26636579c886c48,PennController,26,0,experiment,NULL,VideoScrubber,slider-input,SelectedFrame,25,1687453319892,5f49307513281f0f247a175a,5f49307513281f0f247a175a,23,color,filler,C,25,goal,GoalA,exp2trials,NULL
1687453340,b80ef68fe18f4cb7f26636579c886c48,PennController,26,0,experiment,NULL,PennController,25,_Trial_,End,1687453326062,5f49307513281f0f247a175a,5f49307513281f0f247a175a,23,color,filler,C,25,goal,GoalA,exp2trials,NULL
1687453340,b80ef68fe18f4cb7f26636579c886c48,PennController,9,0,experiment,NULL,PennController,8,_Trial_,Start,1687453326064,5f49307513281f0f247a175a,5f49307513281f0f247a175a,6,flower,critical,C,50,goal,low,exp2trials,NULL
1687453340,b80ef68fe18f4cb7f26636579c886c48,PennController,9,0,experiment,NULL,PennController,8,_Header_,Start,1687453326064,5f49307513281f0f247a175a,5f49307513281f0f247a175a,6,flower,critical,C,50,goal,low,exp2trials,NULL
1687453340,b80ef68fe18f4cb7f26636579c886c48,PennController,9,0,experiment,NULL,PennController,8,_Header_,End,1687453326064,5f49307513281f0f247a175a,5f49307513281f0f247a175a,6,flower,critical,C,50,goal,low,exp2trials,NULL
1687453340,b80ef68fe18f4cb7f26636579c886c48,PennController,9,0,experiment,NULL,Video,progression,buffer,0.004503,1687453329592,5f49307513281f0f247a175a,5f49307513281f0f247a175a,6,flower,critical,C,50,goal,low,exp2trials,NULL
1687453340,b80ef68fe18f4cb7f26636579c886c48,PennController,9,0,experiment,NULL,VideoScrubber,slider-input,SelectedFrame,50,1687453332764,5f49307513281f0f247a175a,5f49307513281f0f247a175a,6,flower,critical,C,50,goal,low,exp2trials,NULL
1687453340,b80ef68fe18f4cb7f26636579c886c48,PennController,9,0,experiment,NULL,PennController,8,_Trial_,End,1687453337326,5f49307513281f0f247a175a,5f49307513281f0f247a175a,6,flower,critical,C,50,goal,low,exp2trials,NULL
