#
# Results on Sunday July 30 2023 17:32:27 UTC
# USER AGENT: Mozilla/5.0 (Windows NT 6.1; Win64; x64; rv:109.0) Gecko/20100101 Firefox/115.0
# Design number was non-random = 163
#
# Columns below this comment are as follows:
# 1. Results reception time.
# 2. MD5 hash of participant's IP address.
# 3. Controller name.
# 4. Order number of item.
# 5. Inner element number.
# 6. Label.
# 7. Latin Square Group.
# 8. PennElementType.
# 9. PennElementName.
# 10. Parameter.
# 11. Value.
# 12. EventTime.
# 13. ProlificID.
# 14. Comments.
1690738347,b34a289a1f92f546cdc016db743a293a,PennController,2,0,consent,NULL,PennController,0,_Trial_,Start,1690737615256,5d00bb3b51669b000136a986,NULL
1690738347,b34a289a1f92f546cdc016db743a293a,PennController,2,0,consent,NULL,PennController,0,_Header_,Start,1690737615256,5d00bb3b51669b000136a986,NULL
1690738347,b34a289a1f92f546cdc016db743a293a,PennController,2,0,consent,NULL,PennController,0,_Header_,End,1690737615256,5d00bb3b51669b000136a986,NULL
1690738347,b34a289a1f92f546cdc016db743a293a,PennController,2,0,consent,NULL,PennController,0,_Trial_,End,1690737855134,5d00bb3b51669b000136a986,NULL
# Columns below this comment are as follows:
# 14. ID.
# 15. Comments.
1690738347,b34a289a1f92f546cdc016db743a293a,PennController,3,0,intro,NULL,PennController,1,_Trial_,Start,1690737855147,5d00bb3b51669b000136a986,5d00bb3b51669b000136a986,NULL
1690738347,b34a289a1f92f546cdc016db743a293a,PennController,3,0,intro,NULL,PennController,1,_Header_,Start,1690737855147,5d00bb3b51669b000136a986,5d00bb3b51669b000136a986,NULL
1690738347,b34a289a1f92f546cdc016db743a293a,PennController,3,0,intro,NULL,PennController,1,_Header_,End,1690737855147,5d00bb3b51669b000136a986,5d00bb3b51669b000136a986,NULL
1690738347,b34a289a1f92f546cdc016db743a293a,PennController,3,0,intro,NULL,PennController,1,_Trial_,End,1690737899532,5d00bb3b51669b000136a986,5d00bb3b51669b000136a986,NULL
# Columns below this comment are as follows:
# 15. item_number.
# 16. item.
# 17. type.
# 18. Group.
# 19. prog.
# 20. condition.
# 21. height.
# 22. exp2trials.
# 23. Comments.
1690738347,b34a289a1f92f546cdc016db743a293a,PennController,21,0,experiment,NULL,PennController,20,_Trial_,Start,1690737899541,5d00bb3b51669b000136a986,5d00bb3b51669b000136a986,18,ball,critical,I,50,nogoal,none,exp2trials,NULL
1690738347,b34a289a1f92f546cdc016db743a293a,PennController,21,0,experiment,NULL,PennController,20,_Header_,Start,1690737899541,5d00bb3b51669b000136a986,5d00bb3b51669b000136a986,18,ball,critical,I,50,nogoal,none,exp2trials,NULL
1690738347,b34a289a1f92f546cdc016db743a293a,PennController,21,0,experiment,NULL,PennController,20,_Header_,End,1690737899542,5d00bb3b51669b000136a986,5d00bb3b51669b000136a986,18,ball,critical,I,50,nogoal,none,exp2trials,NULL
1690738347,b34a289a1f92f546cdc016db743a293a,PennController,21,0,experiment,NULL,Video,progression,buffer,0,1690737903228,5d00bb3b51669b000136a986,5d00bb3b51669b000136a986,18,ball,critical,I,50,nogoal,none,exp2trials,NULL
1690738347,b34a289a1f92f546cdc016db743a293a,PennController,21,0,experiment,NULL,VideoScrubber,slider-input,SelectedFrame,70,1690737906581,5d00bb3b51669b000136a986,5d00bb3b51669b000136a986,18,ball,critical,I,50,nogoal,none,exp2trials,NULL
1690738347,b34a289a1f92f546cdc016db743a293a,PennController,21,0,experiment,NULL,PennController,20,_Trial_,End,1690737920371,5d00bb3b51669b000136a986,5d00bb3b51669b000136a986,18,ball,critical,I,50,nogoal,none,exp2trials,NULL
1690738347,b34a289a1f92f546cdc016db743a293a,PennController,25,0,experiment,NULL,PennController,24,_Trial_,Start,1690737920380,5d00bb3b51669b000136a986,5d00bb3b51669b000136a986,22,wall,filler,I,75,nogoal,none,exp2trials,NULL
1690738347,b34a289a1f92f546cdc016db743a293a,PennController,25,0,experiment,NULL,PennController,24,_Header_,Start,1690737920380,5d00bb3b51669b000136a986,5d00bb3b51669b000136a986,22,wall,filler,I,75,nogoal,none,exp2trials,NULL
1690738347,b34a289a1f92f546cdc016db743a293a,PennController,25,0,experiment,NULL,PennController,24,_Header_,End,1690737920380,5d00bb3b51669b000136a986,5d00bb3b51669b000136a986,22,wall,filler,I,75,nogoal,none,exp2trials,NULL
1690738347,b34a289a1f92f546cdc016db743a293a,PennController,25,0,experiment,NULL,Video,progression,buffer,0,1690737923956,5d00bb3b51669b000136a986,5d00bb3b51669b000136a986,22,wall,filler,I,75,nogoal,none,exp2trials,NULL
1690738347,b34a289a1f92f546cdc016db743a293a,PennController,25,0,experiment,NULL,VideoScrubber,slider-input,SelectedFrame,75,1690737928253,5d00bb3b51669b000136a986,5d00bb3b51669b000136a986,22,wall,filler,I,75,nogoal,none,exp2trials,NULL
1690738347,b34a289a1f92f546cdc016db743a293a,PennController,25,0,experiment,NULL,PennController,24,_Trial_,End,1690737935237,5d00bb3b51669b000136a986,5d00bb3b51669b000136a986,22,wall,filler,I,75,nogoal,none,exp2trials,NULL
1690738347,b34a289a1f92f546cdc016db743a293a,PennController,11,0,experiment,NULL,PennController,10,_Trial_,Start,1690737935247,5d00bb3b51669b000136a986,5d00bb3b51669b000136a986,8,cucumber,critical,I,25,nogoal,none,exp2trials,NULL
1690738347,b34a289a1f92f546cdc016db743a293a,PennController,11,0,experiment,NULL,PennController,10,_Header_,Start,1690737935247,5d00bb3b51669b000136a986,5d00bb3b51669b000136a986,8,cucumber,critical,I,25,nogoal,none,exp2trials,NULL
1690738347,b34a289a1f92f546cdc016db743a293a,PennController,11,0,experiment,NULL,PennController,10,_Header_,End,1690737935247,5d00bb3b51669b000136a986,5d00bb3b51669b000136a986,8,cucumber,critical,I,25,nogoal,none,exp2trials,NULL
1690738347,b34a289a1f92f546cdc016db743a293a,PennController,11,0,experiment,NULL,Video,progression,buffer,0,1690737938828,5d00bb3b51669b000136a986,5d00bb3b51669b000136a986,8,cucumber,critical,I,25,nogoal,none,exp2trials,NULL
1690738347,b34a289a1f92f546cdc016db743a293a,PennController,11,0,experiment,NULL,VideoScrubber,slider-input,SelectedFrame,21,1690737941716,5d00bb3b51669b000136a986,5d00bb3b51669b000136a986,8,cucumber,critical,I,25,nogoal,none,exp2trials,NULL
1690738347,b34a289a1f92f546cdc016db743a293a,PennController,11,0,experiment,NULL,PennController,10,_Trial_,End,1690737947693,5d00bb3b51669b000136a986,5d00bb3b51669b000136a986,8,cucumber,critical,I,25,nogoal,none,exp2trials,NULL
1690738347,b34a289a1f92f546cdc016db743a293a,PennController,6,0,experiment,NULL,PennController,5,_Trial_,Start,1690737947700,5d00bb3b51669b000136a986,5d00bb3b51669b000136a986,3,clean,critical,I,50,nogoal,none,exp2trials,NULL
1690738347,b34a289a1f92f546cdc016db743a293a,PennController,6,0,experiment,NULL,PennController,5,_Header_,Start,1690737947700,5d00bb3b51669b000136a986,5d00bb3b51669b000136a986,3,clean,critical,I,50,nogoal,none,exp2trials,NULL
1690738347,b34a289a1f92f546cdc016db743a293a,PennController,6,0,experiment,NULL,PennController,5,_Header_,End,1690737947700,5d00bb3b51669b000136a986,5d00bb3b51669b000136a986,3,clean,critical,I,50,nogoal,none,exp2trials,NULL
1690738347,b34a289a1f92f546cdc016db743a293a,PennController,6,0,experiment,NULL,Video,progression,buffer,0,1690737951280,5d00bb3b51669b000136a986,5d00bb3b51669b000136a986,3,clean,critical,I,50,nogoal,none,exp2trials,NULL
1690738347,b34a289a1f92f546cdc016db743a293a,PennController,6,0,experiment,NULL,VideoScrubber,slider-input,SelectedFrame,35,1690737954567,5d00bb3b51669b000136a986,5d00bb3b51669b000136a986,3,clean,critical,I,50,nogoal,none,exp2trials,NULL
1690738347,b34a289a1f92f546cdc016db743a293a,PennController,6,0,experiment,NULL,PennController,5,_Trial_,End,1690737963944,5d00bb3b51669b000136a986,5d00bb3b51669b000136a986,3,clean,critical,I,50,nogoal,none,exp2trials,NULL
1690738347,b34a289a1f92f546cdc016db743a293a,PennController,15,0,experiment,NULL,PennController,14,_Trial_,Start,1690737963949,5d00bb3b51669b000136a986,5d00bb3b51669b000136a986,12,erase,critical,I,50,nogoal,none,exp2trials,NULL
1690738347,b34a289a1f92f546cdc016db743a293a,PennController,15,0,experiment,NULL,PennController,14,_Header_,Start,1690737963949,5d00bb3b51669b000136a986,5d00bb3b51669b000136a986,12,erase,critical,I,50,nogoal,none,exp2trials,NULL
1690738347,b34a289a1f92f546cdc016db743a293a,PennController,15,0,experiment,NULL,PennController,14,_Header_,End,1690737963949,5d00bb3b51669b000136a986,5d00bb3b51669b000136a986,12,erase,critical,I,50,nogoal,none,exp2trials,NULL
1690738347,b34a289a1f92f546cdc016db743a293a,PennController,15,0,experiment,NULL,Video,progression,buffer,0,1690737967525,5d00bb3b51669b000136a986,5d00bb3b51669b000136a986,12,erase,critical,I,50,nogoal,none,exp2trials,NULL
1690738347,b34a289a1f92f546cdc016db743a293a,PennController,15,0,experiment,NULL,VideoScrubber,slider-input,SelectedFrame,51,1690737972227,5d00bb3b51669b000136a986,5d00bb3b51669b000136a986,12,erase,critical,I,50,nogoal,none,exp2trials,NULL
1690738347,b34a289a1f92f546cdc016db743a293a,PennController,15,0,experiment,NULL,PennController,14,_Trial_,End,1690737983758,5d00bb3b51669b000136a986,5d00bb3b51669b000136a986,12,erase,critical,I,50,nogoal,none,exp2trials,NULL
1690738347,b34a289a1f92f546cdc016db743a293a,PennController,8,0,experiment,NULL,PennController,7,_Trial_,Start,1690737983763,5d00bb3b51669b000136a986,5d00bb3b51669b000136a986,5,book,critical,I,25,nogoal,none,exp2trials,NULL
1690738347,b34a289a1f92f546cdc016db743a293a,PennController,8,0,experiment,NULL,PennController,7,_Header_,Start,1690737983763,5d00bb3b51669b000136a986,5d00bb3b51669b000136a986,5,book,critical,I,25,nogoal,none,exp2trials,NULL
1690738347,b34a289a1f92f546cdc016db743a293a,PennController,8,0,experiment,NULL,PennController,7,_Header_,End,1690737983763,5d00bb3b51669b000136a986,5d00bb3b51669b000136a986,5,book,critical,I,25,nogoal,none,exp2trials,NULL
1690738347,b34a289a1f92f546cdc016db743a293a,PennController,8,0,experiment,NULL,Video,progression,buffer,0,1690737987337,5d00bb3b51669b000136a986,5d00bb3b51669b000136a986,5,book,critical,I,25,nogoal,none,exp2trials,NULL
1690738347,b34a289a1f92f546cdc016db743a293a,PennController,8,0,experiment,NULL,VideoScrubber,slider-input,SelectedFrame,25,1690737989621,5d00bb3b51669b000136a986,5d00bb3b51669b000136a986,5,book,critical,I,25,nogoal,none,exp2trials,NULL
1690738347,b34a289a1f92f546cdc016db743a293a,PennController,8,0,experiment,NULL,PennController,7,_Trial_,End,1690737996159,5d00bb3b51669b000136a986,5d00bb3b51669b000136a986,5,book,critical,I,25,nogoal,none,exp2trials,NULL
1690738347,b34a289a1f92f546cdc016db743a293a,PennController,22,0,experiment,NULL,PennController,21,_Trial_,Start,1690737996168,5d00bb3b51669b000136a986,5d00bb3b51669b000136a986,19,cup,filler,I,75,nogoal,none,exp2trials,NULL
1690738347,b34a289a1f92f546cdc016db743a293a,PennController,22,0,experiment,NULL,PennController,21,_Header_,Start,1690737996168,5d00bb3b51669b000136a986,5d00bb3b51669b000136a986,19,cup,filler,I,75,nogoal,none,exp2trials,NULL
1690738347,b34a289a1f92f546cdc016db743a293a,PennController,22,0,experiment,NULL,PennController,21,_Header_,End,1690737996168,5d00bb3b51669b000136a986,5d00bb3b51669b000136a986,19,cup,filler,I,75,nogoal,none,exp2trials,NULL
1690738347,b34a289a1f92f546cdc016db743a293a,PennController,22,0,experiment,NULL,Video,progression,buffer,0,1690737999741,5d00bb3b51669b000136a986,5d00bb3b51669b000136a986,19,cup,filler,I,75,nogoal,none,exp2trials,NULL
1690738347,b34a289a1f92f546cdc016db743a293a,PennController,22,0,experiment,NULL,VideoScrubber,slider-input,SelectedFrame,70,1690738004050,5d00bb3b51669b000136a986,5d00bb3b51669b000136a986,19,cup,filler,I,75,nogoal,none,exp2trials,NULL
1690738347,b34a289a1f92f546cdc016db743a293a,PennController,22,0,experiment,NULL,PennController,21,_Trial_,End,1690738016038,5d00bb3b51669b000136a986,5d00bb3b51669b000136a986,19,cup,filler,I,75,nogoal,none,exp2trials,NULL
1690738347,b34a289a1f92f546cdc016db743a293a,PennController,17,0,experiment,NULL,PennController,16,_Trial_,Start,1690738016045,5d00bb3b51669b000136a986,5d00bb3b51669b000136a986,14,cover,critical,I,25,nogoal,none,exp2trials,NULL
1690738347,b34a289a1f92f546cdc016db743a293a,PennController,17,0,experiment,NULL,PennController,16,_Header_,Start,1690738016045,5d00bb3b51669b000136a986,5d00bb3b51669b000136a986,14,cover,critical,I,25,nogoal,none,exp2trials,NULL
1690738347,b34a289a1f92f546cdc016db743a293a,PennController,17,0,experiment,NULL,PennController,16,_Header_,End,1690738016045,5d00bb3b51669b000136a986,5d00bb3b51669b000136a986,14,cover,critical,I,25,nogoal,none,exp2trials,NULL
1690738347,b34a289a1f92f546cdc016db743a293a,PennController,17,0,experiment,NULL,Video,progression,buffer,0,1690738019613,5d00bb3b51669b000136a986,5d00bb3b51669b000136a986,14,cover,critical,I,25,nogoal,none,exp2trials,NULL
1690738347,b34a289a1f92f546cdc016db743a293a,PennController,17,0,experiment,NULL,VideoScrubber,slider-input,SelectedFrame,24,1690738022513,5d00bb3b51669b000136a986,5d00bb3b51669b000136a986,14,cover,critical,I,25,nogoal,none,exp2trials,NULL
1690738347,b34a289a1f92f546cdc016db743a293a,PennController,17,0,experiment,NULL,PennController,16,_Trial_,End,1690738030707,5d00bb3b51669b000136a986,5d00bb3b51669b000136a986,14,cover,critical,I,25,nogoal,none,exp2trials,NULL
1690738347,b34a289a1f92f546cdc016db743a293a,PennController,13,0,experiment,NULL,PennController,12,_Trial_,Start,1690738030716,5d00bb3b51669b000136a986,5d00bb3b51669b000136a986,10,train,critical,I,75,nogoal,none,exp2trials,NULL
1690738347,b34a289a1f92f546cdc016db743a293a,PennController,13,0,experiment,NULL,PennController,12,_Header_,Start,1690738030716,5d00bb3b51669b000136a986,5d00bb3b51669b000136a986,10,train,critical,I,75,nogoal,none,exp2trials,NULL
1690738347,b34a289a1f92f546cdc016db743a293a,PennController,13,0,experiment,NULL,PennController,12,_Header_,End,1690738030716,5d00bb3b51669b000136a986,5d00bb3b51669b000136a986,10,train,critical,I,75,nogoal,none,exp2trials,NULL
1690738347,b34a289a1f92f546cdc016db743a293a,PennController,13,0,experiment,NULL,Video,progression,buffer,0,1690738034286,5d00bb3b51669b000136a986,5d00bb3b51669b000136a986,10,train,critical,I,75,nogoal,none,exp2trials,NULL
1690738347,b34a289a1f92f546cdc016db743a293a,PennController,13,0,experiment,NULL,VideoScrubber,slider-input,SelectedFrame,80,1690738038581,5d00bb3b51669b000136a986,5d00bb3b51669b000136a986,10,train,critical,I,75,nogoal,none,exp2trials,NULL
1690738347,b34a289a1f92f546cdc016db743a293a,PennController,13,0,experiment,NULL,PennController,12,_Trial_,End,1690738046638,5d00bb3b51669b000136a986,5d00bb3b51669b000136a986,10,train,critical,I,75,nogoal,none,exp2trials,NULL
1690738347,b34a289a1f92f546cdc016db743a293a,PennController,24,0,experiment,NULL,PennController,23,_Trial_,Start,1690738046644,5d00bb3b51669b000136a986,5d00bb3b51669b000136a986,21,visit,filler,I,50,nogoal,none,exp2trials,NULL
1690738347,b34a289a1f92f546cdc016db743a293a,PennController,24,0,experiment,NULL,PennController,23,_Header_,Start,1690738046644,5d00bb3b51669b000136a986,5d00bb3b51669b000136a986,21,visit,filler,I,50,nogoal,none,exp2trials,NULL
1690738347,b34a289a1f92f546cdc016db743a293a,PennController,24,0,experiment,NULL,PennController,23,_Header_,End,1690738046644,5d00bb3b51669b000136a986,5d00bb3b51669b000136a986,21,visit,filler,I,50,nogoal,none,exp2trials,NULL
1690738347,b34a289a1f92f546cdc016db743a293a,PennController,24,0,experiment,NULL,Video,progression,buffer,0,1690738050218,5d00bb3b51669b000136a986,5d00bb3b51669b000136a986,21,visit,filler,I,50,nogoal,none,exp2trials,NULL
1690738347,b34a289a1f92f546cdc016db743a293a,PennController,24,0,experiment,NULL,VideoScrubber,slider-input,SelectedFrame,60,1690738053506,5d00bb3b51669b000136a986,5d00bb3b51669b000136a986,21,visit,filler,I,50,nogoal,none,exp2trials,NULL
1690738347,b34a289a1f92f546cdc016db743a293a,PennController,24,0,experiment,NULL,PennController,23,_Trial_,End,1690738061549,5d00bb3b51669b000136a986,5d00bb3b51669b000136a986,21,visit,filler,I,50,nogoal,none,exp2trials,NULL
1690738347,b34a289a1f92f546cdc016db743a293a,PennController,7,0,experiment,NULL,PennController,6,_Trial_,Start,1690738061556,5d00bb3b51669b000136a986,5d00bb3b51669b000136a986,4,candy,critical,I,75,nogoal,none,exp2trials,NULL
1690738347,b34a289a1f92f546cdc016db743a293a,PennController,7,0,experiment,NULL,PennController,6,_Header_,Start,1690738061556,5d00bb3b51669b000136a986,5d00bb3b51669b000136a986,4,candy,critical,I,75,nogoal,none,exp2trials,NULL
1690738347,b34a289a1f92f546cdc016db743a293a,PennController,7,0,experiment,NULL,PennController,6,_Header_,End,1690738061556,5d00bb3b51669b000136a986,5d00bb3b51669b000136a986,4,candy,critical,I,75,nogoal,none,exp2trials,NULL
1690738347,b34a289a1f92f546cdc016db743a293a,PennController,7,0,experiment,NULL,Video,progression,buffer,0,1690738065131,5d00bb3b51669b000136a986,5d00bb3b51669b000136a986,4,candy,critical,I,75,nogoal,none,exp2trials,NULL
1690738347,b34a289a1f92f546cdc016db743a293a,PennController,7,0,experiment,NULL,VideoScrubber,slider-input,SelectedFrame,80,1690738069429,5d00bb3b51669b000136a986,5d00bb3b51669b000136a986,4,candy,critical,I,75,nogoal,none,exp2trials,NULL
1690738347,b34a289a1f92f546cdc016db743a293a,PennController,7,0,experiment,NULL,PennController,6,_Trial_,End,1690738081805,5d00bb3b51669b000136a986,5d00bb3b51669b000136a986,4,candy,critical,I,75,nogoal,none,exp2trials,NULL
1690738347,b34a289a1f92f546cdc016db743a293a,PennController,4,0,experiment,NULL,PennController,3,_Trial_,Start,1690738081811,5d00bb3b51669b000136a986,5d00bb3b51669b000136a986,1,vase,critical,I,75,nogoal,none,exp2trials,NULL
1690738347,b34a289a1f92f546cdc016db743a293a,PennController,4,0,experiment,NULL,PennController,3,_Header_,Start,1690738081811,5d00bb3b51669b000136a986,5d00bb3b51669b000136a986,1,vase,critical,I,75,nogoal,none,exp2trials,NULL
1690738347,b34a289a1f92f546cdc016db743a293a,PennController,4,0,experiment,NULL,PennController,3,_Header_,End,1690738081811,5d00bb3b51669b000136a986,5d00bb3b51669b000136a986,1,vase,critical,I,75,nogoal,none,exp2trials,NULL
1690738347,b34a289a1f92f546cdc016db743a293a,PennController,4,0,experiment,NULL,Video,progression,buffer,0,1690738085378,5d00bb3b51669b000136a986,5d00bb3b51669b000136a986,1,vase,critical,I,75,nogoal,none,exp2trials,NULL
1690738347,b34a289a1f92f546cdc016db743a293a,PennController,4,0,experiment,NULL,VideoScrubber,slider-input,SelectedFrame,85,1690738089667,5d00bb3b51669b000136a986,5d00bb3b51669b000136a986,1,vase,critical,I,75,nogoal,none,exp2trials,NULL
1690738347,b34a289a1f92f546cdc016db743a293a,PennController,4,0,experiment,NULL,PennController,3,_Trial_,End,1690738098879,5d00bb3b51669b000136a986,5d00bb3b51669b000136a986,1,vase,critical,I,75,nogoal,none,exp2trials,NULL
1690738347,b34a289a1f92f546cdc016db743a293a,PennController,18,0,experiment,NULL,PennController,17,_Trial_,Start,1690738098882,5d00bb3b51669b000136a986,5d00bb3b51669b000136a986,15,zip,critical,I,50,nogoal,none,exp2trials,NULL
1690738347,b34a289a1f92f546cdc016db743a293a,PennController,18,0,experiment,NULL,PennController,17,_Header_,Start,1690738098882,5d00bb3b51669b000136a986,5d00bb3b51669b000136a986,15,zip,critical,I,50,nogoal,none,exp2trials,NULL
1690738347,b34a289a1f92f546cdc016db743a293a,PennController,18,0,experiment,NULL,PennController,17,_Header_,End,1690738098882,5d00bb3b51669b000136a986,5d00bb3b51669b000136a986,15,zip,critical,I,50,nogoal,none,exp2trials,NULL
1690738347,b34a289a1f92f546cdc016db743a293a,PennController,18,0,experiment,NULL,Video,progression,buffer,0,1690738102457,5d00bb3b51669b000136a986,5d00bb3b51669b000136a986,15,zip,critical,I,50,nogoal,none,exp2trials,NULL
1690738347,b34a289a1f92f546cdc016db743a293a,PennController,18,0,experiment,NULL,VideoScrubber,slider-input,SelectedFrame,50,1690738105746,5d00bb3b51669b000136a986,5d00bb3b51669b000136a986,15,zip,critical,I,50,nogoal,none,exp2trials,NULL
1690738347,b34a289a1f92f546cdc016db743a293a,PennController,18,0,experiment,NULL,PennController,17,_Trial_,End,1690738112696,5d00bb3b51669b000136a986,5d00bb3b51669b000136a986,15,zip,critical,I,50,nogoal,none,exp2trials,NULL
1690738347,b34a289a1f92f546cdc016db743a293a,PennController,31,0,experiment,NULL,PennController,30,_Trial_,Start,1690738112701,5d00bb3b51669b000136a986,5d00bb3b51669b000136a986,28,sort,filler,I,75,nogoal,none,exp2trials,NULL
1690738347,b34a289a1f92f546cdc016db743a293a,PennController,31,0,experiment,NULL,PennController,30,_Header_,Start,1690738112701,5d00bb3b51669b000136a986,5d00bb3b51669b000136a986,28,sort,filler,I,75,nogoal,none,exp2trials,NULL
1690738347,b34a289a1f92f546cdc016db743a293a,PennController,31,0,experiment,NULL,PennController,30,_Header_,End,1690738112701,5d00bb3b51669b000136a986,5d00bb3b51669b000136a986,28,sort,filler,I,75,nogoal,none,exp2trials,NULL
1690738347,b34a289a1f92f546cdc016db743a293a,PennController,31,0,experiment,NULL,Video,progression,buffer,0,1690738116274,5d00bb3b51669b000136a986,5d00bb3b51669b000136a986,28,sort,filler,I,75,nogoal,none,exp2trials,NULL
1690738347,b34a289a1f92f546cdc016db743a293a,PennController,31,0,experiment,NULL,VideoScrubber,slider-input,SelectedFrame,75,1690738120560,5d00bb3b51669b000136a986,5d00bb3b51669b000136a986,28,sort,filler,I,75,nogoal,none,exp2trials,NULL
1690738347,b34a289a1f92f546cdc016db743a293a,PennController,31,0,experiment,NULL,PennController,30,_Trial_,End,1690738131667,5d00bb3b51669b000136a986,5d00bb3b51669b000136a986,28,sort,filler,I,75,nogoal,none,exp2trials,NULL
1690738347,b34a289a1f92f546cdc016db743a293a,PennController,16,0,experiment,NULL,PennController,15,_Trial_,Start,1690738131672,5d00bb3b51669b000136a986,5d00bb3b51669b000136a986,13,mix,critical,I,75,nogoal,none,exp2trials,NULL
1690738347,b34a289a1f92f546cdc016db743a293a,PennController,16,0,experiment,NULL,PennController,15,_Header_,Start,1690738131672,5d00bb3b51669b000136a986,5d00bb3b51669b000136a986,13,mix,critical,I,75,nogoal,none,exp2trials,NULL
1690738347,b34a289a1f92f546cdc016db743a293a,PennController,16,0,experiment,NULL,PennController,15,_Header_,End,1690738131673,5d00bb3b51669b000136a986,5d00bb3b51669b000136a986,13,mix,critical,I,75,nogoal,none,exp2trials,NULL
1690738347,b34a289a1f92f546cdc016db743a293a,PennController,16,0,experiment,NULL,Video,progression,buffer,0,1690738135251,5d00bb3b51669b000136a986,5d00bb3b51669b000136a986,13,mix,critical,I,75,nogoal,none,exp2trials,NULL
1690738347,b34a289a1f92f546cdc016db743a293a,PennController,16,0,experiment,NULL,VideoScrubber,slider-input,SelectedFrame,85,1690738139549,5d00bb3b51669b000136a986,5d00bb3b51669b000136a986,13,mix,critical,I,75,nogoal,none,exp2trials,NULL
1690738347,b34a289a1f92f546cdc016db743a293a,PennController,16,0,experiment,NULL,PennController,15,_Trial_,End,1690738146429,5d00bb3b51669b000136a986,5d00bb3b51669b000136a986,13,mix,critical,I,75,nogoal,none,exp2trials,NULL
1690738347,b34a289a1f92f546cdc016db743a293a,PennController,26,0,experiment,NULL,PennController,25,_Trial_,Start,1690738146435,5d00bb3b51669b000136a986,5d00bb3b51669b000136a986,23,color,filler,I,25,nogoal,none,exp2trials,NULL
1690738347,b34a289a1f92f546cdc016db743a293a,PennController,26,0,experiment,NULL,PennController,25,_Header_,Start,1690738146435,5d00bb3b51669b000136a986,5d00bb3b51669b000136a986,23,color,filler,I,25,nogoal,none,exp2trials,NULL
1690738347,b34a289a1f92f546cdc016db743a293a,PennController,26,0,experiment,NULL,PennController,25,_Header_,End,1690738146435,5d00bb3b51669b000136a986,5d00bb3b51669b000136a986,23,color,filler,I,25,nogoal,none,exp2trials,NULL
1690738347,b34a289a1f92f546cdc016db743a293a,PennController,26,0,experiment,NULL,Video,progression,buffer,0,1690738149995,5d00bb3b51669b000136a986,5d00bb3b51669b000136a986,23,color,filler,I,25,nogoal,none,exp2trials,NULL
1690738347,b34a289a1f92f546cdc016db743a293a,PennController,26,0,experiment,NULL,VideoScrubber,slider-input,SelectedFrame,25,1690738152279,5d00bb3b51669b000136a986,5d00bb3b51669b000136a986,23,color,filler,I,25,nogoal,none,exp2trials,NULL
1690738347,b34a289a1f92f546cdc016db743a293a,PennController,26,0,experiment,NULL,PennController,25,_Trial_,End,1690738161091,5d00bb3b51669b000136a986,5d00bb3b51669b000136a986,23,color,filler,I,25,nogoal,none,exp2trials,NULL
1690738347,b34a289a1f92f546cdc016db743a293a,PennController,9,0,experiment,NULL,PennController,8,_Trial_,Start,1690738161095,5d00bb3b51669b000136a986,5d00bb3b51669b000136a986,6,flower,critical,I,50,nogoal,none,exp2trials,NULL
1690738347,b34a289a1f92f546cdc016db743a293a,PennController,9,0,experiment,NULL,PennController,8,_Header_,Start,1690738161095,5d00bb3b51669b000136a986,5d00bb3b51669b000136a986,6,flower,critical,I,50,nogoal,none,exp2trials,NULL
1690738347,b34a289a1f92f546cdc016db743a293a,PennController,9,0,experiment,NULL,PennController,8,_Header_,End,1690738161095,5d00bb3b51669b000136a986,5d00bb3b51669b000136a986,6,flower,critical,I,50,nogoal,none,exp2trials,NULL
1690738347,b34a289a1f92f546cdc016db743a293a,PennController,9,0,experiment,NULL,Video,progression,buffer,0,1690738164668,5d00bb3b51669b000136a986,5d00bb3b51669b000136a986,6,flower,critical,I,50,nogoal,none,exp2trials,NULL
1690738347,b34a289a1f92f546cdc016db743a293a,PennController,9,0,experiment,NULL,VideoScrubber,slider-input,SelectedFrame,50,1690738167943,5d00bb3b51669b000136a986,5d00bb3b51669b000136a986,6,flower,critical,I,50,nogoal,none,exp2trials,NULL
1690738347,b34a289a1f92f546cdc016db743a293a,PennController,9,0,experiment,NULL,PennController,8,_Trial_,End,1690738172535,5d00bb3b51669b000136a986,5d00bb3b51669b000136a986,6,flower,critical,I,50,nogoal,none,exp2trials,NULL
1690738347,b34a289a1f92f546cdc016db743a293a,PennController,23,0,experiment,NULL,PennController,22,_Trial_,Start,1690738172540,5d00bb3b51669b000136a986,5d00bb3b51669b000136a986,20,cat,filler,I,25,nogoal,none,exp2trials,NULL
1690738347,b34a289a1f92f546cdc016db743a293a,PennController,23,0,experiment,NULL,PennController,22,_Header_,Start,1690738172540,5d00bb3b51669b000136a986,5d00bb3b51669b000136a986,20,cat,filler,I,25,nogoal,none,exp2trials,NULL
1690738347,b34a289a1f92f546cdc016db743a293a,PennController,23,0,experiment,NULL,PennController,22,_Header_,End,1690738172540,5d00bb3b51669b000136a986,5d00bb3b51669b000136a986,20,cat,filler,I,25,nogoal,none,exp2trials,NULL
1690738347,b34a289a1f92f546cdc016db743a293a,PennController,23,0,experiment,NULL,Video,progression,buffer,0,1690738176114,5d00bb3b51669b000136a986,5d00bb3b51669b000136a986,20,cat,filler,I,25,nogoal,none,exp2trials,NULL
1690738347,b34a289a1f92f546cdc016db743a293a,PennController,23,0,experiment,NULL,VideoScrubber,slider-input,SelectedFrame,25,1690738178395,5d00bb3b51669b000136a986,5d00bb3b51669b000136a986,20,cat,filler,I,25,nogoal,none,exp2trials,NULL
1690738347,b34a289a1f92f546cdc016db743a293a,PennController,23,0,experiment,NULL,PennController,22,_Trial_,End,1690738183176,5d00bb3b51669b000136a986,5d00bb3b51669b000136a986,20,cat,filler,I,25,nogoal,none,exp2trials,NULL
1690738347,b34a289a1f92f546cdc016db743a293a,PennController,10,0,experiment,NULL,PennController,9,_Trial_,Start,1690738183181,5d00bb3b51669b000136a986,5d00bb3b51669b000136a986,7,stack,critical,I,75,nogoal,none,exp2trials,NULL
1690738347,b34a289a1f92f546cdc016db743a293a,PennController,10,0,experiment,NULL,PennController,9,_Header_,Start,1690738183181,5d00bb3b51669b000136a986,5d00bb3b51669b000136a986,7,stack,critical,I,75,nogoal,none,exp2trials,NULL
1690738347,b34a289a1f92f546cdc016db743a293a,PennController,10,0,experiment,NULL,PennController,9,_Header_,End,1690738183181,5d00bb3b51669b000136a986,5d00bb3b51669b000136a986,7,stack,critical,I,75,nogoal,none,exp2trials,NULL
1690738347,b34a289a1f92f546cdc016db743a293a,PennController,10,0,experiment,NULL,Video,progression,buffer,0,1690738186753,5d00bb3b51669b000136a986,5d00bb3b51669b000136a986,7,stack,critical,I,75,nogoal,none,exp2trials,NULL
1690738347,b34a289a1f92f546cdc016db743a293a,PennController,10,0,experiment,NULL,VideoScrubber,slider-input,SelectedFrame,75,1690738191051,5d00bb3b51669b000136a986,5d00bb3b51669b000136a986,7,stack,critical,I,75,nogoal,none,exp2trials,NULL
1690738347,b34a289a1f92f546cdc016db743a293a,PennController,10,0,experiment,NULL,PennController,9,_Trial_,End,1690738198129,5d00bb3b51669b000136a986,5d00bb3b51669b000136a986,7,stack,critical,I,75,nogoal,none,exp2trials,NULL
1690738347,b34a289a1f92f546cdc016db743a293a,PennController,30,0,experiment,NULL,PennController,29,_Trial_,Start,1690738198133,5d00bb3b51669b000136a986,5d00bb3b51669b000136a986,27,square,filler,I,50,nogoal,none,exp2trials,NULL
1690738347,b34a289a1f92f546cdc016db743a293a,PennController,30,0,experiment,NULL,PennController,29,_Header_,Start,1690738198133,5d00bb3b51669b000136a986,5d00bb3b51669b000136a986,27,square,filler,I,50,nogoal,none,exp2trials,NULL
1690738347,b34a289a1f92f546cdc016db743a293a,PennController,30,0,experiment,NULL,PennController,29,_Header_,End,1690738198133,5d00bb3b51669b000136a986,5d00bb3b51669b000136a986,27,square,filler,I,50,nogoal,none,exp2trials,NULL
1690738347,b34a289a1f92f546cdc016db743a293a,PennController,30,0,experiment,NULL,Video,progression,buffer,0,1690738201709,5d00bb3b51669b000136a986,5d00bb3b51669b000136a986,27,square,filler,I,50,nogoal,none,exp2trials,NULL
1690738347,b34a289a1f92f546cdc016db743a293a,PennController,30,0,experiment,NULL,VideoScrubber,slider-input,SelectedFrame,50,1690738204991,5d00bb3b51669b000136a986,5d00bb3b51669b000136a986,27,square,filler,I,50,nogoal,none,exp2trials,NULL
1690738347,b34a289a1f92f546cdc016db743a293a,PennController,30,0,experiment,NULL,PennController,29,_Trial_,End,1690738218880,5d00bb3b51669b000136a986,5d00bb3b51669b000136a986,27,square,filler,I,50,nogoal,none,exp2trials,NULL
1690738347,b34a289a1f92f546cdc016db743a293a,PennController,19,0,experiment,NULL,PennController,18,_Trial_,Start,1690738218884,5d00bb3b51669b000136a986,5d00bb3b51669b000136a986,16,blinds,critical,I,75,nogoal,none,exp2trials,NULL
1690738347,b34a289a1f92f546cdc016db743a293a,PennController,19,0,experiment,NULL,PennController,18,_Header_,Start,1690738218884,5d00bb3b51669b000136a986,5d00bb3b51669b000136a986,16,blinds,critical,I,75,nogoal,none,exp2trials,NULL
1690738347,b34a289a1f92f546cdc016db743a293a,PennController,19,0,experiment,NULL,PennController,18,_Header_,End,1690738218885,5d00bb3b51669b000136a986,5d00bb3b51669b000136a986,16,blinds,critical,I,75,nogoal,none,exp2trials,NULL
1690738347,b34a289a1f92f546cdc016db743a293a,PennController,19,0,experiment,NULL,Video,progression,buffer,0,1690738222456,5d00bb3b51669b000136a986,5d00bb3b51669b000136a986,16,blinds,critical,I,75,nogoal,none,exp2trials,NULL
1690738347,b34a289a1f92f546cdc016db743a293a,PennController,19,0,experiment,NULL,VideoScrubber,slider-input,SelectedFrame,78,1690738228765,5d00bb3b51669b000136a986,5d00bb3b51669b000136a986,16,blinds,critical,I,75,nogoal,none,exp2trials,NULL
1690738347,b34a289a1f92f546cdc016db743a293a,PennController,19,0,experiment,NULL,PennController,18,_Trial_,End,1690738233913,5d00bb3b51669b000136a986,5d00bb3b51669b000136a986,16,blinds,critical,I,75,nogoal,none,exp2trials,NULL
1690738347,b34a289a1f92f546cdc016db743a293a,PennController,27,0,experiment,NULL,PennController,26,_Trial_,Start,1690738233917,5d00bb3b51669b000136a986,5d00bb3b51669b000136a986,24,match,filler,I,50,nogoal,none,exp2trials,NULL
1690738347,b34a289a1f92f546cdc016db743a293a,PennController,27,0,experiment,NULL,PennController,26,_Header_,Start,1690738233917,5d00bb3b51669b000136a986,5d00bb3b51669b000136a986,24,match,filler,I,50,nogoal,none,exp2trials,NULL
1690738347,b34a289a1f92f546cdc016db743a293a,PennController,27,0,experiment,NULL,PennController,26,_Header_,End,1690738233918,5d00bb3b51669b000136a986,5d00bb3b51669b000136a986,24,match,filler,I,50,nogoal,none,exp2trials,NULL
1690738347,b34a289a1f92f546cdc016db743a293a,PennController,27,0,experiment,NULL,Video,progression,buffer,0,1690738237486,5d00bb3b51669b000136a986,5d00bb3b51669b000136a986,24,match,filler,I,50,nogoal,none,exp2trials,NULL
1690738347,b34a289a1f92f546cdc016db743a293a,PennController,27,0,experiment,NULL,VideoScrubber,slider-input,SelectedFrame,50,1690738240813,5d00bb3b51669b000136a986,5d00bb3b51669b000136a986,24,match,filler,I,50,nogoal,none,exp2trials,NULL
1690738347,b34a289a1f92f546cdc016db743a293a,PennController,27,0,experiment,NULL,PennController,26,_Trial_,End,1690738246150,5d00bb3b51669b000136a986,5d00bb3b51669b000136a986,24,match,filler,I,50,nogoal,none,exp2trials,NULL
1690738347,b34a289a1f92f546cdc016db743a293a,PennController,32,0,experiment,NULL,PennController,31,_Trial_,Start,1690738246154,5d00bb3b51669b000136a986,5d00bb3b51669b000136a986,29,frog,filler,I,25,nogoal,none,exp2trials,NULL
1690738347,b34a289a1f92f546cdc016db743a293a,PennController,32,0,experiment,NULL,PennController,31,_Header_,Start,1690738246154,5d00bb3b51669b000136a986,5d00bb3b51669b000136a986,29,frog,filler,I,25,nogoal,none,exp2trials,NULL
1690738347,b34a289a1f92f546cdc016db743a293a,PennController,32,0,experiment,NULL,PennController,31,_Header_,End,1690738246155,5d00bb3b51669b000136a986,5d00bb3b51669b000136a986,29,frog,filler,I,25,nogoal,none,exp2trials,NULL
1690738347,b34a289a1f92f546cdc016db743a293a,PennController,32,0,experiment,NULL,Video,progression,buffer,0,1690738249724,5d00bb3b51669b000136a986,5d00bb3b51669b000136a986,29,frog,filler,I,25,nogoal,none,exp2trials,NULL
1690738347,b34a289a1f92f546cdc016db743a293a,PennController,32,0,experiment,NULL,VideoScrubber,slider-input,SelectedFrame,25,1690738252013,5d00bb3b51669b000136a986,5d00bb3b51669b000136a986,29,frog,filler,I,25,nogoal,none,exp2trials,NULL
1690738347,b34a289a1f92f546cdc016db743a293a,PennController,32,0,experiment,NULL,PennController,31,_Trial_,End,1690738257914,5d00bb3b51669b000136a986,5d00bb3b51669b000136a986,29,frog,filler,I,25,nogoal,none,exp2trials,NULL
1690738347,b34a289a1f92f546cdc016db743a293a,PennController,14,0,experiment,NULL,PennController,13,_Trial_,Start,1690738257918,5d00bb3b51669b000136a986,5d00bb3b51669b000136a986,11,beads,critical,I,25,nogoal,none,exp2trials,NULL
1690738347,b34a289a1f92f546cdc016db743a293a,PennController,14,0,experiment,NULL,PennController,13,_Header_,Start,1690738257918,5d00bb3b51669b000136a986,5d00bb3b51669b000136a986,11,beads,critical,I,25,nogoal,none,exp2trials,NULL
1690738347,b34a289a1f92f546cdc016db743a293a,PennController,14,0,experiment,NULL,PennController,13,_Header_,End,1690738257919,5d00bb3b51669b000136a986,5d00bb3b51669b000136a986,11,beads,critical,I,25,nogoal,none,exp2trials,NULL
1690738347,b34a289a1f92f546cdc016db743a293a,PennController,14,0,experiment,NULL,Video,progression,buffer,0,1690738261489,5d00bb3b51669b000136a986,5d00bb3b51669b000136a986,11,beads,critical,I,25,nogoal,none,exp2trials,NULL
1690738347,b34a289a1f92f546cdc016db743a293a,PennController,14,0,experiment,NULL,VideoScrubber,slider-input,SelectedFrame,30,1690738263771,5d00bb3b51669b000136a986,5d00bb3b51669b000136a986,11,beads,critical,I,25,nogoal,none,exp2trials,NULL
1690738347,b34a289a1f92f546cdc016db743a293a,PennController,14,0,experiment,NULL,PennController,13,_Trial_,End,1690738268287,5d00bb3b51669b000136a986,5d00bb3b51669b000136a986,11,beads,critical,I,25,nogoal,none,exp2trials,NULL
1690738347,b34a289a1f92f546cdc016db743a293a,PennController,28,0,experiment,NULL,PennController,27,_Trial_,Start,1690738268291,5d00bb3b51669b000136a986,5d00bb3b51669b000136a986,25,house,filler,I,75,nogoal,none,exp2trials,NULL
1690738347,b34a289a1f92f546cdc016db743a293a,PennController,28,0,experiment,NULL,PennController,27,_Header_,Start,1690738268291,5d00bb3b51669b000136a986,5d00bb3b51669b000136a986,25,house,filler,I,75,nogoal,none,exp2trials,NULL
1690738347,b34a289a1f92f546cdc016db743a293a,PennController,28,0,experiment,NULL,PennController,27,_Header_,End,1690738268291,5d00bb3b51669b000136a986,5d00bb3b51669b000136a986,25,house,filler,I,75,nogoal,none,exp2trials,NULL
1690738347,b34a289a1f92f546cdc016db743a293a,PennController,28,0,experiment,NULL,Video,progression,buffer,0,1690738271860,5d00bb3b51669b000136a986,5d00bb3b51669b000136a986,25,house,filler,I,75,nogoal,none,exp2trials,NULL
1690738347,b34a289a1f92f546cdc016db743a293a,PennController,28,0,experiment,NULL,VideoScrubber,slider-input,SelectedFrame,80,1690738276157,5d00bb3b51669b000136a986,5d00bb3b51669b000136a986,25,house,filler,I,75,nogoal,none,exp2trials,NULL
1690738347,b34a289a1f92f546cdc016db743a293a,PennController,28,0,experiment,NULL,PennController,27,_Trial_,End,1690738287053,5d00bb3b51669b000136a986,5d00bb3b51669b000136a986,25,house,filler,I,75,nogoal,none,exp2trials,NULL
1690738347,b34a289a1f92f546cdc016db743a293a,PennController,29,0,experiment,NULL,PennController,28,_Trial_,Start,1690738287057,5d00bb3b51669b000136a986,5d00bb3b51669b000136a986,26,sandwich,filler,I,25,nogoal,none,exp2trials,NULL
1690738347,b34a289a1f92f546cdc016db743a293a,PennController,29,0,experiment,NULL,PennController,28,_Header_,Start,1690738287057,5d00bb3b51669b000136a986,5d00bb3b51669b000136a986,26,sandwich,filler,I,25,nogoal,none,exp2trials,NULL
1690738347,b34a289a1f92f546cdc016db743a293a,PennController,29,0,experiment,NULL,PennController,28,_Header_,End,1690738287057,5d00bb3b51669b000136a986,5d00bb3b51669b000136a986,26,sandwich,filler,I,25,nogoal,none,exp2trials,NULL
1690738347,b34a289a1f92f546cdc016db743a293a,PennController,29,0,experiment,NULL,Video,progression,buffer,0,1690738290631,5d00bb3b51669b000136a986,5d00bb3b51669b000136a986,26,sandwich,filler,I,25,nogoal,none,exp2trials,NULL
1690738347,b34a289a1f92f546cdc016db743a293a,PennController,29,0,experiment,NULL,VideoScrubber,slider-input,SelectedFrame,15,1690738292912,5d00bb3b51669b000136a986,5d00bb3b51669b000136a986,26,sandwich,filler,I,25,nogoal,none,exp2trials,NULL
1690738347,b34a289a1f92f546cdc016db743a293a,PennController,29,0,experiment,NULL,PennController,28,_Trial_,End,1690738300326,5d00bb3b51669b000136a986,5d00bb3b51669b000136a986,26,sandwich,filler,I,25,nogoal,none,exp2trials,NULL
1690738347,b34a289a1f92f546cdc016db743a293a,PennController,20,0,experiment,NULL,PennController,19,_Trial_,Start,1690738300331,5d00bb3b51669b000136a986,5d00bb3b51669b000136a986,17,roll,critical,I,25,nogoal,none,exp2trials,NULL
1690738347,b34a289a1f92f546cdc016db743a293a,PennController,20,0,experiment,NULL,PennController,19,_Header_,Start,1690738300331,5d00bb3b51669b000136a986,5d00bb3b51669b000136a986,17,roll,critical,I,25,nogoal,none,exp2trials,NULL
1690738347,b34a289a1f92f546cdc016db743a293a,PennController,20,0,experiment,NULL,PennController,19,_Header_,End,1690738300331,5d00bb3b51669b000136a986,5d00bb3b51669b000136a986,17,roll,critical,I,25,nogoal,none,exp2trials,NULL
1690738347,b34a289a1f92f546cdc016db743a293a,PennController,20,0,experiment,NULL,Video,progression,buffer,0,1690738303903,5d00bb3b51669b000136a986,5d00bb3b51669b000136a986,17,roll,critical,I,25,nogoal,none,exp2trials,NULL
1690738347,b34a289a1f92f546cdc016db743a293a,PennController,20,0,experiment,NULL,VideoScrubber,slider-input,SelectedFrame,20,1690738306270,5d00bb3b51669b000136a986,5d00bb3b51669b000136a986,17,roll,critical,I,25,nogoal,none,exp2trials,NULL
1690738347,b34a289a1f92f546cdc016db743a293a,PennController,20,0,experiment,NULL,PennController,19,_Trial_,End,1690738314842,5d00bb3b51669b000136a986,5d00bb3b51669b000136a986,17,roll,critical,I,25,nogoal,none,exp2trials,NULL
1690738347,b34a289a1f92f546cdc016db743a293a,PennController,12,0,experiment,NULL,PennController,11,_Trial_,Start,1690738314846,5d00bb3b51669b000136a986,5d00bb3b51669b000136a986,9,cake,critical,I,50,nogoal,none,exp2trials,NULL
1690738347,b34a289a1f92f546cdc016db743a293a,PennController,12,0,experiment,NULL,PennController,11,_Header_,Start,1690738314846,5d00bb3b51669b000136a986,5d00bb3b51669b000136a986,9,cake,critical,I,50,nogoal,none,exp2trials,NULL
1690738347,b34a289a1f92f546cdc016db743a293a,PennController,12,0,experiment,NULL,PennController,11,_Header_,End,1690738314846,5d00bb3b51669b000136a986,5d00bb3b51669b000136a986,9,cake,critical,I,50,nogoal,none,exp2trials,NULL
1690738347,b34a289a1f92f546cdc016db743a293a,PennController,12,0,experiment,NULL,Video,progression,buffer,0,1690738318420,5d00bb3b51669b000136a986,5d00bb3b51669b000136a986,9,cake,critical,I,50,nogoal,none,exp2trials,NULL
1690738347,b34a289a1f92f546cdc016db743a293a,PennController,12,0,experiment,NULL,VideoScrubber,slider-input,SelectedFrame,69,1690738323111,5d00bb3b51669b000136a986,5d00bb3b51669b000136a986,9,cake,critical,I,50,nogoal,none,exp2trials,NULL
1690738347,b34a289a1f92f546cdc016db743a293a,PennController,12,0,experiment,NULL,PennController,11,_Trial_,End,1690738330383,5d00bb3b51669b000136a986,5d00bb3b51669b000136a986,9,cake,critical,I,50,nogoal,none,exp2trials,NULL
1690738347,b34a289a1f92f546cdc016db743a293a,PennController,5,0,experiment,NULL,PennController,4,_Trial_,Start,1690738330387,5d00bb3b51669b000136a986,5d00bb3b51669b000136a986,2,door,critical,I,25,nogoal,none,exp2trials,NULL
1690738347,b34a289a1f92f546cdc016db743a293a,PennController,5,0,experiment,NULL,PennController,4,_Header_,Start,1690738330387,5d00bb3b51669b000136a986,5d00bb3b51669b000136a986,2,door,critical,I,25,nogoal,none,exp2trials,NULL
1690738347,b34a289a1f92f546cdc016db743a293a,PennController,5,0,experiment,NULL,PennController,4,_Header_,End,1690738330387,5d00bb3b51669b000136a986,5d00bb3b51669b000136a986,2,door,critical,I,25,nogoal,none,exp2trials,NULL
1690738347,b34a289a1f92f546cdc016db743a293a,PennController,5,0,experiment,NULL,Video,progression,buffer,0,1690738333956,5d00bb3b51669b000136a986,5d00bb3b51669b000136a986,2,door,critical,I,25,nogoal,none,exp2trials,NULL
1690738347,b34a289a1f92f546cdc016db743a293a,PennController,5,0,experiment,NULL,VideoScrubber,slider-input,SelectedFrame,30,1690738336238,5d00bb3b51669b000136a986,5d00bb3b51669b000136a986,2,door,critical,I,25,nogoal,none,exp2trials,NULL
1690738347,b34a289a1f92f546cdc016db743a293a,PennController,5,0,experiment,NULL,PennController,4,_Trial_,End,1690738342085,5d00bb3b51669b000136a986,5d00bb3b51669b000136a986,2,door,critical,I,25,nogoal,none,exp2trials,NULL
