#
# Results on Thursday June 22 2023 16:57:16 UTC
# USER AGENT: Mozilla/5.0 (Windows NT 10.0; Win64; x64) AppleWebKit/537.36 (KHTML, like Gecko) Chrome/114.0.0.0 Safari/537.36
# Design number was non-random = 29
#
# Columns below this comment are as follows:
# 1. Results reception time.
# 2. MD5 hash of participant's IP address.
# 3. Controller name.
# 4. Order number of item.
# 5. Inner element number.
# 6. Label.
# 7. Latin Square Group.
# 8. PennElementType.
# 9. PennElementName.
# 10. Parameter.
# 11. Value.
# 12. EventTime.
# 13. ProlificID.
# 14. Comments.
1687453036,3480ad8a9044199f00236188c5b31ea1,PennController,2,0,consent,NULL,PennController,0,_Trial_,Start,1687452719721,5f90c1832cf6481b25307b46,NULL
1687453036,3480ad8a9044199f00236188c5b31ea1,PennController,2,0,consent,NULL,PennController,0,_Header_,Start,1687452719721,5f90c1832cf6481b25307b46,NULL
1687453036,3480ad8a9044199f00236188c5b31ea1,PennController,2,0,consent,NULL,PennController,0,_Header_,End,1687452719961,5f90c1832cf6481b25307b46,NULL
1687453036,3480ad8a9044199f00236188c5b31ea1,PennController,2,0,consent,NULL,PennController,0,_Trial_,End,1687452727330,5f90c1832cf6481b25307b46,NULL
# Columns below this comment are as follows:
# 14. ID.
# 15. Comments.
1687453036,3480ad8a9044199f00236188c5b31ea1,PennController,3,0,intro,NULL,PennController,1,_Trial_,Start,1687452727333,5f90c1832cf6481b25307b46,5f90c1832cf6481b25307b46,NULL
1687453036,3480ad8a9044199f00236188c5b31ea1,PennController,3,0,intro,NULL,PennController,1,_Header_,Start,1687452727333,5f90c1832cf6481b25307b46,5f90c1832cf6481b25307b46,NULL
1687453036,3480ad8a9044199f00236188c5b31ea1,PennController,3,0,intro,NULL,PennController,1,_Header_,End,1687452727333,5f90c1832cf6481b25307b46,5f90c1832cf6481b25307b46,NULL
1687453036,3480ad8a9044199f00236188c5b31ea1,PennController,3,0,intro,NULL,PennController,1,_Trial_,End,1687452742199,5f90c1832cf6481b25307b46,5f90c1832cf6481b25307b46,NULL
# Columns below this comment are as follows:
# 15. item_number.
# 16. item.
# 17. type.
# 18. Group.
# 19. prog.
# 20. condition.
# 21. height.
# 22. exp2trials.
# 23. Comments.
1687453036,3480ad8a9044199f00236188c5b31ea1,PennController,16,0,experiment,NULL,PennController,15,_Trial_,Start,1687452742202,5f90c1832cf6481b25307b46,5f90c1832cf6481b25307b46,13,mix,critical,C,75,goal,low,exp2trials,NULL
1687453036,3480ad8a9044199f00236188c5b31ea1,PennController,16,0,experiment,NULL,PennController,15,_Header_,Start,1687452742202,5f90c1832cf6481b25307b46,5f90c1832cf6481b25307b46,13,mix,critical,C,75,goal,low,exp2trials,NULL
1687453036,3480ad8a9044199f00236188c5b31ea1,PennController,16,0,experiment,NULL,PennController,15,_Header_,End,1687452742202,5f90c1832cf6481b25307b46,5f90c1832cf6481b25307b46,13,mix,critical,C,75,goal,low,exp2trials,NULL
1687453036,3480ad8a9044199f00236188c5b31ea1,PennController,16,0,experiment,NULL,Video,progression,buffer,0.004708,1687452745737,5f90c1832cf6481b25307b46,5f90c1832cf6481b25307b46,13,mix,critical,C,75,goal,low,exp2trials,NULL
1687453036,3480ad8a9044199f00236188c5b31ea1,PennController,16,0,experiment,NULL,VideoScrubber,slider-input,SelectedFrame,85,1687452749899,5f90c1832cf6481b25307b46,5f90c1832cf6481b25307b46,13,mix,critical,C,75,goal,low,exp2trials,NULL
1687453036,3480ad8a9044199f00236188c5b31ea1,PennController,16,0,experiment,NULL,PennController,15,_Trial_,End,1687452754313,5f90c1832cf6481b25307b46,5f90c1832cf6481b25307b46,13,mix,critical,C,75,goal,low,exp2trials,NULL
1687453036,3480ad8a9044199f00236188c5b31ea1,PennController,8,0,experiment,NULL,PennController,7,_Trial_,Start,1687452754315,5f90c1832cf6481b25307b46,5f90c1832cf6481b25307b46,5,book,critical,C,25,goal,low,exp2trials,NULL
1687453036,3480ad8a9044199f00236188c5b31ea1,PennController,8,0,experiment,NULL,PennController,7,_Header_,Start,1687452754315,5f90c1832cf6481b25307b46,5f90c1832cf6481b25307b46,5,book,critical,C,25,goal,low,exp2trials,NULL
1687453036,3480ad8a9044199f00236188c5b31ea1,PennController,8,0,experiment,NULL,PennController,7,_Header_,End,1687452754315,5f90c1832cf6481b25307b46,5f90c1832cf6481b25307b46,5,book,critical,C,25,goal,low,exp2trials,NULL
1687453036,3480ad8a9044199f00236188c5b31ea1,PennController,8,0,experiment,NULL,Video,progression,buffer,0.003212,1687452757834,5f90c1832cf6481b25307b46,5f90c1832cf6481b25307b46,5,book,critical,C,25,goal,low,exp2trials,NULL
1687453036,3480ad8a9044199f00236188c5b31ea1,PennController,8,0,experiment,NULL,VideoScrubber,slider-input,SelectedFrame,15,1687452759995,5f90c1832cf6481b25307b46,5f90c1832cf6481b25307b46,5,book,critical,C,25,goal,low,exp2trials,NULL
1687453036,3480ad8a9044199f00236188c5b31ea1,PennController,8,0,experiment,NULL,PennController,7,_Trial_,End,1687452764993,5f90c1832cf6481b25307b46,5f90c1832cf6481b25307b46,5,book,critical,C,25,goal,low,exp2trials,NULL
1687453036,3480ad8a9044199f00236188c5b31ea1,PennController,17,0,experiment,NULL,PennController,16,_Trial_,Start,1687452764995,5f90c1832cf6481b25307b46,5f90c1832cf6481b25307b46,14,cover,critical,C,25,goal,low,exp2trials,NULL
1687453036,3480ad8a9044199f00236188c5b31ea1,PennController,17,0,experiment,NULL,PennController,16,_Header_,Start,1687452764995,5f90c1832cf6481b25307b46,5f90c1832cf6481b25307b46,14,cover,critical,C,25,goal,low,exp2trials,NULL
1687453036,3480ad8a9044199f00236188c5b31ea1,PennController,17,0,experiment,NULL,PennController,16,_Header_,End,1687452764995,5f90c1832cf6481b25307b46,5f90c1832cf6481b25307b46,14,cover,critical,C,25,goal,low,exp2trials,NULL
1687453036,3480ad8a9044199f00236188c5b31ea1,PennController,17,0,experiment,NULL,Video,progression,buffer,0.002843,1687452768523,5f90c1832cf6481b25307b46,5f90c1832cf6481b25307b46,14,cover,critical,C,25,goal,low,exp2trials,NULL
1687453036,3480ad8a9044199f00236188c5b31ea1,PennController,17,0,experiment,NULL,VideoScrubber,slider-input,SelectedFrame,24,1687452771295,5f90c1832cf6481b25307b46,5f90c1832cf6481b25307b46,14,cover,critical,C,25,goal,low,exp2trials,NULL
1687453036,3480ad8a9044199f00236188c5b31ea1,PennController,17,0,experiment,NULL,PennController,16,_Trial_,End,1687452775082,5f90c1832cf6481b25307b46,5f90c1832cf6481b25307b46,14,cover,critical,C,25,goal,low,exp2trials,NULL
1687453036,3480ad8a9044199f00236188c5b31ea1,PennController,19,0,experiment,NULL,PennController,18,_Trial_,Start,1687452775084,5f90c1832cf6481b25307b46,5f90c1832cf6481b25307b46,16,blinds,critical,C,75,goal,low,exp2trials,NULL
1687453036,3480ad8a9044199f00236188c5b31ea1,PennController,19,0,experiment,NULL,PennController,18,_Header_,Start,1687452775084,5f90c1832cf6481b25307b46,5f90c1832cf6481b25307b46,16,blinds,critical,C,75,goal,low,exp2trials,NULL
1687453036,3480ad8a9044199f00236188c5b31ea1,PennController,19,0,experiment,NULL,PennController,18,_Header_,End,1687452775084,5f90c1832cf6481b25307b46,5f90c1832cf6481b25307b46,16,blinds,critical,C,75,goal,low,exp2trials,NULL
1687453036,3480ad8a9044199f00236188c5b31ea1,PennController,19,0,experiment,NULL,Video,progression,buffer,0.004264,1687452778617,5f90c1832cf6481b25307b46,5f90c1832cf6481b25307b46,16,blinds,critical,C,75,goal,low,exp2trials,NULL
1687453036,3480ad8a9044199f00236188c5b31ea1,PennController,19,0,experiment,NULL,VideoScrubber,slider-input,SelectedFrame,78,1687452784783,5f90c1832cf6481b25307b46,5f90c1832cf6481b25307b46,16,blinds,critical,C,75,goal,low,exp2trials,NULL
1687453036,3480ad8a9044199f00236188c5b31ea1,PennController,19,0,experiment,NULL,PennController,18,_Trial_,End,1687452787707,5f90c1832cf6481b25307b46,5f90c1832cf6481b25307b46,16,blinds,critical,C,75,goal,low,exp2trials,NULL
1687453036,3480ad8a9044199f00236188c5b31ea1,PennController,24,0,experiment,NULL,PennController,23,_Trial_,Start,1687452787709,5f90c1832cf6481b25307b46,5f90c1832cf6481b25307b46,21,visit,filler,C,50,goal,GoalA,exp2trials,NULL
1687453036,3480ad8a9044199f00236188c5b31ea1,PennController,24,0,experiment,NULL,PennController,23,_Header_,Start,1687452787709,5f90c1832cf6481b25307b46,5f90c1832cf6481b25307b46,21,visit,filler,C,50,goal,GoalA,exp2trials,NULL
1687453036,3480ad8a9044199f00236188c5b31ea1,PennController,24,0,experiment,NULL,PennController,23,_Header_,End,1687452787709,5f90c1832cf6481b25307b46,5f90c1832cf6481b25307b46,21,visit,filler,C,50,goal,GoalA,exp2trials,NULL
1687453036,3480ad8a9044199f00236188c5b31ea1,PennController,24,0,experiment,NULL,Video,progression,buffer,0.006043,1687452791240,5f90c1832cf6481b25307b46,5f90c1832cf6481b25307b46,21,visit,filler,C,50,goal,GoalA,exp2trials,NULL
1687453036,3480ad8a9044199f00236188c5b31ea1,PennController,24,0,experiment,NULL,VideoScrubber,slider-input,SelectedFrame,55,1687452794419,5f90c1832cf6481b25307b46,5f90c1832cf6481b25307b46,21,visit,filler,C,50,goal,GoalA,exp2trials,NULL
1687453036,3480ad8a9044199f00236188c5b31ea1,PennController,24,0,experiment,NULL,PennController,23,_Trial_,End,1687452800470,5f90c1832cf6481b25307b46,5f90c1832cf6481b25307b46,21,visit,filler,C,50,goal,GoalA,exp2trials,NULL
1687453036,3480ad8a9044199f00236188c5b31ea1,PennController,29,0,experiment,NULL,PennController,28,_Trial_,Start,1687452800471,5f90c1832cf6481b25307b46,5f90c1832cf6481b25307b46,26,sandwich,filler,C,25,goal,GoalB,exp2trials,NULL
1687453036,3480ad8a9044199f00236188c5b31ea1,PennController,29,0,experiment,NULL,PennController,28,_Header_,Start,1687452800471,5f90c1832cf6481b25307b46,5f90c1832cf6481b25307b46,26,sandwich,filler,C,25,goal,GoalB,exp2trials,NULL
1687453036,3480ad8a9044199f00236188c5b31ea1,PennController,29,0,experiment,NULL,PennController,28,_Header_,End,1687452800471,5f90c1832cf6481b25307b46,5f90c1832cf6481b25307b46,26,sandwich,filler,C,25,goal,GoalB,exp2trials,NULL
1687453036,3480ad8a9044199f00236188c5b31ea1,PennController,29,0,experiment,NULL,Video,progression,buffer,0.004239,1687452803996,5f90c1832cf6481b25307b46,5f90c1832cf6481b25307b46,26,sandwich,filler,C,25,goal,GoalB,exp2trials,NULL
1687453036,3480ad8a9044199f00236188c5b31ea1,PennController,29,0,experiment,NULL,VideoScrubber,slider-input,SelectedFrame,20,1687452806161,5f90c1832cf6481b25307b46,5f90c1832cf6481b25307b46,26,sandwich,filler,C,25,goal,GoalB,exp2trials,NULL
1687453036,3480ad8a9044199f00236188c5b31ea1,PennController,29,0,experiment,NULL,PennController,28,_Trial_,End,1687452808863,5f90c1832cf6481b25307b46,5f90c1832cf6481b25307b46,26,sandwich,filler,C,25,goal,GoalB,exp2trials,NULL
1687453036,3480ad8a9044199f00236188c5b31ea1,PennController,32,0,experiment,NULL,PennController,31,_Trial_,Start,1687452808865,5f90c1832cf6481b25307b46,5f90c1832cf6481b25307b46,29,frog,filler,C,25,goal,GoalA,exp2trials,NULL
1687453036,3480ad8a9044199f00236188c5b31ea1,PennController,32,0,experiment,NULL,PennController,31,_Header_,Start,1687452808865,5f90c1832cf6481b25307b46,5f90c1832cf6481b25307b46,29,frog,filler,C,25,goal,GoalA,exp2trials,NULL
1687453036,3480ad8a9044199f00236188c5b31ea1,PennController,32,0,experiment,NULL,PennController,31,_Header_,End,1687452808865,5f90c1832cf6481b25307b46,5f90c1832cf6481b25307b46,29,frog,filler,C,25,goal,GoalA,exp2trials,NULL
1687453036,3480ad8a9044199f00236188c5b31ea1,PennController,32,0,experiment,NULL,Video,progression,buffer,0.002951,1687452812387,5f90c1832cf6481b25307b46,5f90c1832cf6481b25307b46,29,frog,filler,C,25,goal,GoalA,exp2trials,NULL
1687453036,3480ad8a9044199f00236188c5b31ea1,PennController,32,0,experiment,NULL,VideoScrubber,slider-input,SelectedFrame,25,1687452814557,5f90c1832cf6481b25307b46,5f90c1832cf6481b25307b46,29,frog,filler,C,25,goal,GoalA,exp2trials,NULL
1687453036,3480ad8a9044199f00236188c5b31ea1,PennController,32,0,experiment,NULL,PennController,31,_Trial_,End,1687452817130,5f90c1832cf6481b25307b46,5f90c1832cf6481b25307b46,29,frog,filler,C,25,goal,GoalA,exp2trials,NULL
1687453036,3480ad8a9044199f00236188c5b31ea1,PennController,21,0,experiment,NULL,PennController,20,_Trial_,Start,1687452817131,5f90c1832cf6481b25307b46,5f90c1832cf6481b25307b46,18,ball,critical,C,50,goal,low,exp2trials,NULL
1687453036,3480ad8a9044199f00236188c5b31ea1,PennController,21,0,experiment,NULL,PennController,20,_Header_,Start,1687452817131,5f90c1832cf6481b25307b46,5f90c1832cf6481b25307b46,18,ball,critical,C,50,goal,low,exp2trials,NULL
1687453036,3480ad8a9044199f00236188c5b31ea1,PennController,21,0,experiment,NULL,PennController,20,_Header_,End,1687452817132,5f90c1832cf6481b25307b46,5f90c1832cf6481b25307b46,18,ball,critical,C,50,goal,low,exp2trials,NULL
1687453036,3480ad8a9044199f00236188c5b31ea1,PennController,21,0,experiment,NULL,Video,progression,buffer,0.003589,1687452820659,5f90c1832cf6481b25307b46,5f90c1832cf6481b25307b46,18,ball,critical,C,50,goal,low,exp2trials,NULL
1687453036,3480ad8a9044199f00236188c5b31ea1,PennController,21,0,experiment,NULL,VideoScrubber,slider-input,SelectedFrame,55,1687452823826,5f90c1832cf6481b25307b46,5f90c1832cf6481b25307b46,18,ball,critical,C,50,goal,low,exp2trials,NULL
1687453036,3480ad8a9044199f00236188c5b31ea1,PennController,21,0,experiment,NULL,PennController,20,_Trial_,End,1687452827141,5f90c1832cf6481b25307b46,5f90c1832cf6481b25307b46,18,ball,critical,C,50,goal,low,exp2trials,NULL
1687453036,3480ad8a9044199f00236188c5b31ea1,PennController,9,0,experiment,NULL,PennController,8,_Trial_,Start,1687452827142,5f90c1832cf6481b25307b46,5f90c1832cf6481b25307b46,6,flower,critical,C,50,goal,low,exp2trials,NULL
1687453036,3480ad8a9044199f00236188c5b31ea1,PennController,9,0,experiment,NULL,PennController,8,_Header_,Start,1687452827142,5f90c1832cf6481b25307b46,5f90c1832cf6481b25307b46,6,flower,critical,C,50,goal,low,exp2trials,NULL
1687453036,3480ad8a9044199f00236188c5b31ea1,PennController,9,0,experiment,NULL,PennController,8,_Header_,End,1687452827142,5f90c1832cf6481b25307b46,5f90c1832cf6481b25307b46,6,flower,critical,C,50,goal,low,exp2trials,NULL
1687453036,3480ad8a9044199f00236188c5b31ea1,PennController,9,0,experiment,NULL,Video,progression,buffer,0.004354,1687452830665,5f90c1832cf6481b25307b46,5f90c1832cf6481b25307b46,6,flower,critical,C,50,goal,low,exp2trials,NULL
1687453036,3480ad8a9044199f00236188c5b31ea1,PennController,9,0,experiment,NULL,VideoScrubber,slider-input,SelectedFrame,45,1687452833826,5f90c1832cf6481b25307b46,5f90c1832cf6481b25307b46,6,flower,critical,C,50,goal,low,exp2trials,NULL
1687453036,3480ad8a9044199f00236188c5b31ea1,PennController,9,0,experiment,NULL,PennController,8,_Trial_,End,1687452835700,5f90c1832cf6481b25307b46,5f90c1832cf6481b25307b46,6,flower,critical,C,50,goal,low,exp2trials,NULL
1687453036,3480ad8a9044199f00236188c5b31ea1,PennController,30,0,experiment,NULL,PennController,29,_Trial_,Start,1687452835701,5f90c1832cf6481b25307b46,5f90c1832cf6481b25307b46,27,square,filler,C,50,goal,GoalA,exp2trials,NULL
1687453036,3480ad8a9044199f00236188c5b31ea1,PennController,30,0,experiment,NULL,PennController,29,_Header_,Start,1687452835701,5f90c1832cf6481b25307b46,5f90c1832cf6481b25307b46,27,square,filler,C,50,goal,GoalA,exp2trials,NULL
1687453036,3480ad8a9044199f00236188c5b31ea1,PennController,30,0,experiment,NULL,PennController,29,_Header_,End,1687452835701,5f90c1832cf6481b25307b46,5f90c1832cf6481b25307b46,27,square,filler,C,50,goal,GoalA,exp2trials,NULL
1687453036,3480ad8a9044199f00236188c5b31ea1,PennController,30,0,experiment,NULL,Video,progression,buffer,0.003479,1687452839225,5f90c1832cf6481b25307b46,5f90c1832cf6481b25307b46,27,square,filler,C,50,goal,GoalA,exp2trials,NULL
1687453036,3480ad8a9044199f00236188c5b31ea1,PennController,30,0,experiment,NULL,VideoScrubber,slider-input,SelectedFrame,50,1687452842391,5f90c1832cf6481b25307b46,5f90c1832cf6481b25307b46,27,square,filler,C,50,goal,GoalA,exp2trials,NULL
1687453036,3480ad8a9044199f00236188c5b31ea1,PennController,30,0,experiment,NULL,PennController,29,_Trial_,End,1687452849764,5f90c1832cf6481b25307b46,5f90c1832cf6481b25307b46,27,square,filler,C,50,goal,GoalA,exp2trials,NULL
1687453036,3480ad8a9044199f00236188c5b31ea1,PennController,28,0,experiment,NULL,PennController,27,_Trial_,Start,1687452849765,5f90c1832cf6481b25307b46,5f90c1832cf6481b25307b46,25,house,filler,C,75,goal,GoalA,exp2trials,NULL
1687453036,3480ad8a9044199f00236188c5b31ea1,PennController,28,0,experiment,NULL,PennController,27,_Header_,Start,1687452849765,5f90c1832cf6481b25307b46,5f90c1832cf6481b25307b46,25,house,filler,C,75,goal,GoalA,exp2trials,NULL
1687453036,3480ad8a9044199f00236188c5b31ea1,PennController,28,0,experiment,NULL,PennController,27,_Header_,End,1687452849765,5f90c1832cf6481b25307b46,5f90c1832cf6481b25307b46,25,house,filler,C,75,goal,GoalA,exp2trials,NULL
1687453036,3480ad8a9044199f00236188c5b31ea1,PennController,28,0,experiment,NULL,Video,progression,buffer,0.003432,1687452853288,5f90c1832cf6481b25307b46,5f90c1832cf6481b25307b46,25,house,filler,C,75,goal,GoalA,exp2trials,NULL
1687453036,3480ad8a9044199f00236188c5b31ea1,PennController,28,0,experiment,NULL,VideoScrubber,slider-input,SelectedFrame,75,1687452857460,5f90c1832cf6481b25307b46,5f90c1832cf6481b25307b46,25,house,filler,C,75,goal,GoalA,exp2trials,NULL
1687453036,3480ad8a9044199f00236188c5b31ea1,PennController,28,0,experiment,NULL,PennController,27,_Trial_,End,1687452858822,5f90c1832cf6481b25307b46,5f90c1832cf6481b25307b46,25,house,filler,C,75,goal,GoalA,exp2trials,NULL
1687453036,3480ad8a9044199f00236188c5b31ea1,PennController,13,0,experiment,NULL,PennController,12,_Trial_,Start,1687452858824,5f90c1832cf6481b25307b46,5f90c1832cf6481b25307b46,10,train,critical,C,75,goal,low,exp2trials,NULL
1687453036,3480ad8a9044199f00236188c5b31ea1,PennController,13,0,experiment,NULL,PennController,12,_Header_,Start,1687452858824,5f90c1832cf6481b25307b46,5f90c1832cf6481b25307b46,10,train,critical,C,75,goal,low,exp2trials,NULL
1687453036,3480ad8a9044199f00236188c5b31ea1,PennController,13,0,experiment,NULL,PennController,12,_Header_,End,1687452858824,5f90c1832cf6481b25307b46,5f90c1832cf6481b25307b46,10,train,critical,C,75,goal,low,exp2trials,NULL
1687453036,3480ad8a9044199f00236188c5b31ea1,PennController,13,0,experiment,NULL,Video,progression,buffer,0.002544,1687452862343,5f90c1832cf6481b25307b46,5f90c1832cf6481b25307b46,10,train,critical,C,75,goal,low,exp2trials,NULL
1687453036,3480ad8a9044199f00236188c5b31ea1,PennController,13,0,experiment,NULL,VideoScrubber,slider-input,SelectedFrame,65,1687452866508,5f90c1832cf6481b25307b46,5f90c1832cf6481b25307b46,10,train,critical,C,75,goal,low,exp2trials,NULL
1687453036,3480ad8a9044199f00236188c5b31ea1,PennController,13,0,experiment,NULL,PennController,12,_Trial_,End,1687452868275,5f90c1832cf6481b25307b46,5f90c1832cf6481b25307b46,10,train,critical,C,75,goal,low,exp2trials,NULL
1687453036,3480ad8a9044199f00236188c5b31ea1,PennController,20,0,experiment,NULL,PennController,19,_Trial_,Start,1687452868276,5f90c1832cf6481b25307b46,5f90c1832cf6481b25307b46,17,roll,critical,C,25,goal,low,exp2trials,NULL
1687453036,3480ad8a9044199f00236188c5b31ea1,PennController,20,0,experiment,NULL,PennController,19,_Header_,Start,1687452868276,5f90c1832cf6481b25307b46,5f90c1832cf6481b25307b46,17,roll,critical,C,25,goal,low,exp2trials,NULL
1687453036,3480ad8a9044199f00236188c5b31ea1,PennController,20,0,experiment,NULL,PennController,19,_Header_,End,1687452868276,5f90c1832cf6481b25307b46,5f90c1832cf6481b25307b46,17,roll,critical,C,25,goal,low,exp2trials,NULL
1687453036,3480ad8a9044199f00236188c5b31ea1,PennController,20,0,experiment,NULL,Video,progression,buffer,0.002532,1687452871794,5f90c1832cf6481b25307b46,5f90c1832cf6481b25307b46,17,roll,critical,C,25,goal,low,exp2trials,NULL
1687453036,3480ad8a9044199f00236188c5b31ea1,PennController,20,0,experiment,NULL,VideoScrubber,slider-input,SelectedFrame,30,1687452873957,5f90c1832cf6481b25307b46,5f90c1832cf6481b25307b46,17,roll,critical,C,25,goal,low,exp2trials,NULL
1687453036,3480ad8a9044199f00236188c5b31ea1,PennController,20,0,experiment,NULL,PennController,19,_Trial_,End,1687452877495,5f90c1832cf6481b25307b46,5f90c1832cf6481b25307b46,17,roll,critical,C,25,goal,low,exp2trials,NULL
1687453036,3480ad8a9044199f00236188c5b31ea1,PennController,6,0,experiment,NULL,PennController,5,_Trial_,Start,1687452877496,5f90c1832cf6481b25307b46,5f90c1832cf6481b25307b46,3,clean,critical,C,50,goal,low,exp2trials,NULL
1687453036,3480ad8a9044199f00236188c5b31ea1,PennController,6,0,experiment,NULL,PennController,5,_Header_,Start,1687452877496,5f90c1832cf6481b25307b46,5f90c1832cf6481b25307b46,3,clean,critical,C,50,goal,low,exp2trials,NULL
1687453036,3480ad8a9044199f00236188c5b31ea1,PennController,6,0,experiment,NULL,PennController,5,_Header_,End,1687452877496,5f90c1832cf6481b25307b46,5f90c1832cf6481b25307b46,3,clean,critical,C,50,goal,low,exp2trials,NULL
1687453036,3480ad8a9044199f00236188c5b31ea1,PennController,6,0,experiment,NULL,Video,progression,buffer,0.003379,1687452881012,5f90c1832cf6481b25307b46,5f90c1832cf6481b25307b46,3,clean,critical,C,50,goal,low,exp2trials,NULL
1687453036,3480ad8a9044199f00236188c5b31ea1,PennController,6,0,experiment,NULL,VideoScrubber,slider-input,SelectedFrame,65,1687452884174,5f90c1832cf6481b25307b46,5f90c1832cf6481b25307b46,3,clean,critical,C,50,goal,low,exp2trials,NULL
1687453036,3480ad8a9044199f00236188c5b31ea1,PennController,6,0,experiment,NULL,PennController,5,_Trial_,End,1687452886044,5f90c1832cf6481b25307b46,5f90c1832cf6481b25307b46,3,clean,critical,C,50,goal,low,exp2trials,NULL
1687453036,3480ad8a9044199f00236188c5b31ea1,PennController,14,0,experiment,NULL,PennController,13,_Trial_,Start,1687452886045,5f90c1832cf6481b25307b46,5f90c1832cf6481b25307b46,11,beads,critical,C,25,goal,low,exp2trials,NULL
1687453036,3480ad8a9044199f00236188c5b31ea1,PennController,14,0,experiment,NULL,PennController,13,_Header_,Start,1687452886045,5f90c1832cf6481b25307b46,5f90c1832cf6481b25307b46,11,beads,critical,C,25,goal,low,exp2trials,NULL
1687453036,3480ad8a9044199f00236188c5b31ea1,PennController,14,0,experiment,NULL,PennController,13,_Header_,End,1687452886045,5f90c1832cf6481b25307b46,5f90c1832cf6481b25307b46,11,beads,critical,C,25,goal,low,exp2trials,NULL
1687453036,3480ad8a9044199f00236188c5b31ea1,PennController,14,0,experiment,NULL,Video,progression,buffer,0.00714,1687452889571,5f90c1832cf6481b25307b46,5f90c1832cf6481b25307b46,11,beads,critical,C,25,goal,low,exp2trials,NULL
1687453036,3480ad8a9044199f00236188c5b31ea1,PennController,14,0,experiment,NULL,VideoScrubber,slider-input,SelectedFrame,25,1687452891740,5f90c1832cf6481b25307b46,5f90c1832cf6481b25307b46,11,beads,critical,C,25,goal,low,exp2trials,NULL
1687453036,3480ad8a9044199f00236188c5b31ea1,PennController,14,0,experiment,NULL,PennController,13,_Trial_,End,1687452893950,5f90c1832cf6481b25307b46,5f90c1832cf6481b25307b46,11,beads,critical,C,25,goal,low,exp2trials,NULL
1687453036,3480ad8a9044199f00236188c5b31ea1,PennController,26,0,experiment,NULL,PennController,25,_Trial_,Start,1687452893951,5f90c1832cf6481b25307b46,5f90c1832cf6481b25307b46,23,color,filler,C,25,goal,GoalA,exp2trials,NULL
1687453036,3480ad8a9044199f00236188c5b31ea1,PennController,26,0,experiment,NULL,PennController,25,_Header_,Start,1687452893951,5f90c1832cf6481b25307b46,5f90c1832cf6481b25307b46,23,color,filler,C,25,goal,GoalA,exp2trials,NULL
1687453036,3480ad8a9044199f00236188c5b31ea1,PennController,26,0,experiment,NULL,PennController,25,_Header_,End,1687452893951,5f90c1832cf6481b25307b46,5f90c1832cf6481b25307b46,23,color,filler,C,25,goal,GoalA,exp2trials,NULL
1687453036,3480ad8a9044199f00236188c5b31ea1,PennController,26,0,experiment,NULL,Video,progression,buffer,0.002205,1687452897469,5f90c1832cf6481b25307b46,5f90c1832cf6481b25307b46,23,color,filler,C,25,goal,GoalA,exp2trials,NULL
1687453036,3480ad8a9044199f00236188c5b31ea1,PennController,26,0,experiment,NULL,VideoScrubber,slider-input,SelectedFrame,35,1687452899635,5f90c1832cf6481b25307b46,5f90c1832cf6481b25307b46,23,color,filler,C,25,goal,GoalA,exp2trials,NULL
1687453036,3480ad8a9044199f00236188c5b31ea1,PennController,26,0,experiment,NULL,PennController,25,_Trial_,End,1687452901105,5f90c1832cf6481b25307b46,5f90c1832cf6481b25307b46,23,color,filler,C,25,goal,GoalA,exp2trials,NULL
1687453036,3480ad8a9044199f00236188c5b31ea1,PennController,15,0,experiment,NULL,PennController,14,_Trial_,Start,1687452901106,5f90c1832cf6481b25307b46,5f90c1832cf6481b25307b46,12,erase,critical,C,50,goal,low,exp2trials,NULL
1687453036,3480ad8a9044199f00236188c5b31ea1,PennController,15,0,experiment,NULL,PennController,14,_Header_,Start,1687452901106,5f90c1832cf6481b25307b46,5f90c1832cf6481b25307b46,12,erase,critical,C,50,goal,low,exp2trials,NULL
1687453036,3480ad8a9044199f00236188c5b31ea1,PennController,15,0,experiment,NULL,PennController,14,_Header_,End,1687452901106,5f90c1832cf6481b25307b46,5f90c1832cf6481b25307b46,12,erase,critical,C,50,goal,low,exp2trials,NULL
1687453036,3480ad8a9044199f00236188c5b31ea1,PennController,15,0,experiment,NULL,Video,progression,buffer,0.002252,1687452904623,5f90c1832cf6481b25307b46,5f90c1832cf6481b25307b46,12,erase,critical,C,50,goal,low,exp2trials,NULL
1687453036,3480ad8a9044199f00236188c5b31ea1,PennController,15,0,experiment,NULL,VideoScrubber,slider-input,SelectedFrame,51,1687452909194,5f90c1832cf6481b25307b46,5f90c1832cf6481b25307b46,12,erase,critical,C,50,goal,low,exp2trials,NULL
1687453036,3480ad8a9044199f00236188c5b31ea1,PennController,15,0,experiment,NULL,PennController,14,_Trial_,End,1687452913136,5f90c1832cf6481b25307b46,5f90c1832cf6481b25307b46,12,erase,critical,C,50,goal,low,exp2trials,NULL
1687453036,3480ad8a9044199f00236188c5b31ea1,PennController,11,0,experiment,NULL,PennController,10,_Trial_,Start,1687452913137,5f90c1832cf6481b25307b46,5f90c1832cf6481b25307b46,8,cucumber,critical,C,25,goal,low,exp2trials,NULL
1687453036,3480ad8a9044199f00236188c5b31ea1,PennController,11,0,experiment,NULL,PennController,10,_Header_,Start,1687452913137,5f90c1832cf6481b25307b46,5f90c1832cf6481b25307b46,8,cucumber,critical,C,25,goal,low,exp2trials,NULL
1687453036,3480ad8a9044199f00236188c5b31ea1,PennController,11,0,experiment,NULL,PennController,10,_Header_,End,1687452913137,5f90c1832cf6481b25307b46,5f90c1832cf6481b25307b46,8,cucumber,critical,C,25,goal,low,exp2trials,NULL
1687453036,3480ad8a9044199f00236188c5b31ea1,PennController,11,0,experiment,NULL,Video,progression,buffer,0.004187,1687452916664,5f90c1832cf6481b25307b46,5f90c1832cf6481b25307b46,8,cucumber,critical,C,25,goal,low,exp2trials,NULL
1687453036,3480ad8a9044199f00236188c5b31ea1,PennController,11,0,experiment,NULL,VideoScrubber,slider-input,SelectedFrame,18,1687452919436,5f90c1832cf6481b25307b46,5f90c1832cf6481b25307b46,8,cucumber,critical,C,25,goal,low,exp2trials,NULL
1687453036,3480ad8a9044199f00236188c5b31ea1,PennController,11,0,experiment,NULL,PennController,10,_Trial_,End,1687452921271,5f90c1832cf6481b25307b46,5f90c1832cf6481b25307b46,8,cucumber,critical,C,25,goal,low,exp2trials,NULL
1687453036,3480ad8a9044199f00236188c5b31ea1,PennController,23,0,experiment,NULL,PennController,22,_Trial_,Start,1687452921272,5f90c1832cf6481b25307b46,5f90c1832cf6481b25307b46,20,cat,filler,C,25,goal,GoalB,exp2trials,NULL
1687453036,3480ad8a9044199f00236188c5b31ea1,PennController,23,0,experiment,NULL,PennController,22,_Header_,Start,1687452921272,5f90c1832cf6481b25307b46,5f90c1832cf6481b25307b46,20,cat,filler,C,25,goal,GoalB,exp2trials,NULL
1687453036,3480ad8a9044199f00236188c5b31ea1,PennController,23,0,experiment,NULL,PennController,22,_Header_,End,1687452921272,5f90c1832cf6481b25307b46,5f90c1832cf6481b25307b46,20,cat,filler,C,25,goal,GoalB,exp2trials,NULL
1687453036,3480ad8a9044199f00236188c5b31ea1,PennController,23,0,experiment,NULL,Video,progression,buffer,0.007127,1687452924797,5f90c1832cf6481b25307b46,5f90c1832cf6481b25307b46,20,cat,filler,C,25,goal,GoalB,exp2trials,NULL
1687453036,3480ad8a9044199f00236188c5b31ea1,PennController,23,0,experiment,NULL,VideoScrubber,slider-input,SelectedFrame,25,1687452926950,5f90c1832cf6481b25307b46,5f90c1832cf6481b25307b46,20,cat,filler,C,25,goal,GoalB,exp2trials,NULL
1687453036,3480ad8a9044199f00236188c5b31ea1,PennController,23,0,experiment,NULL,PennController,22,_Trial_,End,1687452929686,5f90c1832cf6481b25307b46,5f90c1832cf6481b25307b46,20,cat,filler,C,25,goal,GoalB,exp2trials,NULL
1687453036,3480ad8a9044199f00236188c5b31ea1,PennController,5,0,experiment,NULL,PennController,4,_Trial_,Start,1687452929688,5f90c1832cf6481b25307b46,5f90c1832cf6481b25307b46,2,door,critical,C,25,goal,low,exp2trials,NULL
1687453036,3480ad8a9044199f00236188c5b31ea1,PennController,5,0,experiment,NULL,PennController,4,_Header_,Start,1687452929688,5f90c1832cf6481b25307b46,5f90c1832cf6481b25307b46,2,door,critical,C,25,goal,low,exp2trials,NULL
1687453036,3480ad8a9044199f00236188c5b31ea1,PennController,5,0,experiment,NULL,PennController,4,_Header_,End,1687452929688,5f90c1832cf6481b25307b46,5f90c1832cf6481b25307b46,2,door,critical,C,25,goal,low,exp2trials,NULL
1687453036,3480ad8a9044199f00236188c5b31ea1,PennController,5,0,experiment,NULL,Video,progression,buffer,0.002588,1687452933204,5f90c1832cf6481b25307b46,5f90c1832cf6481b25307b46,2,door,critical,C,25,goal,low,exp2trials,NULL
1687453036,3480ad8a9044199f00236188c5b31ea1,PennController,5,0,experiment,NULL,VideoScrubber,slider-input,SelectedFrame,25,1687452935370,5f90c1832cf6481b25307b46,5f90c1832cf6481b25307b46,2,door,critical,C,25,goal,low,exp2trials,NULL
1687453036,3480ad8a9044199f00236188c5b31ea1,PennController,5,0,experiment,NULL,PennController,4,_Trial_,End,1687452938032,5f90c1832cf6481b25307b46,5f90c1832cf6481b25307b46,2,door,critical,C,25,goal,low,exp2trials,NULL
1687453036,3480ad8a9044199f00236188c5b31ea1,PennController,18,0,experiment,NULL,PennController,17,_Trial_,Start,1687452938033,5f90c1832cf6481b25307b46,5f90c1832cf6481b25307b46,15,zip,critical,C,50,goal,low,exp2trials,NULL
1687453036,3480ad8a9044199f00236188c5b31ea1,PennController,18,0,experiment,NULL,PennController,17,_Header_,Start,1687452938033,5f90c1832cf6481b25307b46,5f90c1832cf6481b25307b46,15,zip,critical,C,50,goal,low,exp2trials,NULL
1687453036,3480ad8a9044199f00236188c5b31ea1,PennController,18,0,experiment,NULL,PennController,17,_Header_,End,1687452938033,5f90c1832cf6481b25307b46,5f90c1832cf6481b25307b46,15,zip,critical,C,50,goal,low,exp2trials,NULL
1687453036,3480ad8a9044199f00236188c5b31ea1,PennController,18,0,experiment,NULL,Video,progression,buffer,0.007337,1687452941569,5f90c1832cf6481b25307b46,5f90c1832cf6481b25307b46,15,zip,critical,C,50,goal,low,exp2trials,NULL
1687453036,3480ad8a9044199f00236188c5b31ea1,PennController,18,0,experiment,NULL,VideoScrubber,slider-input,SelectedFrame,55,1687452944731,5f90c1832cf6481b25307b46,5f90c1832cf6481b25307b46,15,zip,critical,C,50,goal,low,exp2trials,NULL
1687453036,3480ad8a9044199f00236188c5b31ea1,PennController,18,0,experiment,NULL,PennController,17,_Trial_,End,1687452947852,5f90c1832cf6481b25307b46,5f90c1832cf6481b25307b46,15,zip,critical,C,50,goal,low,exp2trials,NULL
1687453036,3480ad8a9044199f00236188c5b31ea1,PennController,22,0,experiment,NULL,PennController,21,_Trial_,Start,1687452947853,5f90c1832cf6481b25307b46,5f90c1832cf6481b25307b46,19,cup,filler,C,75,goal,GoalA,exp2trials,NULL
1687453036,3480ad8a9044199f00236188c5b31ea1,PennController,22,0,experiment,NULL,PennController,21,_Header_,Start,1687452947853,5f90c1832cf6481b25307b46,5f90c1832cf6481b25307b46,19,cup,filler,C,75,goal,GoalA,exp2trials,NULL
1687453036,3480ad8a9044199f00236188c5b31ea1,PennController,22,0,experiment,NULL,PennController,21,_Header_,End,1687452947853,5f90c1832cf6481b25307b46,5f90c1832cf6481b25307b46,19,cup,filler,C,75,goal,GoalA,exp2trials,NULL
1687453036,3480ad8a9044199f00236188c5b31ea1,PennController,22,0,experiment,NULL,Video,progression,buffer,0.002475,1687452951371,5f90c1832cf6481b25307b46,5f90c1832cf6481b25307b46,19,cup,filler,C,75,goal,GoalA,exp2trials,NULL
1687453036,3480ad8a9044199f00236188c5b31ea1,PennController,22,0,experiment,NULL,VideoScrubber,slider-input,SelectedFrame,70,1687452955538,5f90c1832cf6481b25307b46,5f90c1832cf6481b25307b46,19,cup,filler,C,75,goal,GoalA,exp2trials,NULL
1687453036,3480ad8a9044199f00236188c5b31ea1,PennController,22,0,experiment,NULL,PennController,21,_Trial_,End,1687452960893,5f90c1832cf6481b25307b46,5f90c1832cf6481b25307b46,19,cup,filler,C,75,goal,GoalA,exp2trials,NULL
1687453036,3480ad8a9044199f00236188c5b31ea1,PennController,31,0,experiment,NULL,PennController,30,_Trial_,Start,1687452960895,5f90c1832cf6481b25307b46,5f90c1832cf6481b25307b46,28,sort,filler,C,75,goal,GoalB,exp2trials,NULL
1687453036,3480ad8a9044199f00236188c5b31ea1,PennController,31,0,experiment,NULL,PennController,30,_Header_,Start,1687452960895,5f90c1832cf6481b25307b46,5f90c1832cf6481b25307b46,28,sort,filler,C,75,goal,GoalB,exp2trials,NULL
1687453036,3480ad8a9044199f00236188c5b31ea1,PennController,31,0,experiment,NULL,PennController,30,_Header_,End,1687452960896,5f90c1832cf6481b25307b46,5f90c1832cf6481b25307b46,28,sort,filler,C,75,goal,GoalB,exp2trials,NULL
1687453036,3480ad8a9044199f00236188c5b31ea1,PennController,31,0,experiment,NULL,Video,progression,buffer,0.002185,1687452964413,5f90c1832cf6481b25307b46,5f90c1832cf6481b25307b46,28,sort,filler,C,75,goal,GoalB,exp2trials,NULL
1687453036,3480ad8a9044199f00236188c5b31ea1,PennController,31,0,experiment,NULL,VideoScrubber,slider-input,SelectedFrame,75,1687452968590,5f90c1832cf6481b25307b46,5f90c1832cf6481b25307b46,28,sort,filler,C,75,goal,GoalB,exp2trials,NULL
1687453036,3480ad8a9044199f00236188c5b31ea1,PennController,31,0,experiment,NULL,PennController,30,_Trial_,End,1687452970399,5f90c1832cf6481b25307b46,5f90c1832cf6481b25307b46,28,sort,filler,C,75,goal,GoalB,exp2trials,NULL
1687453036,3480ad8a9044199f00236188c5b31ea1,PennController,4,0,experiment,NULL,PennController,3,_Trial_,Start,1687452970400,5f90c1832cf6481b25307b46,5f90c1832cf6481b25307b46,1,vase,critical,C,75,goal,low,exp2trials,NULL
1687453036,3480ad8a9044199f00236188c5b31ea1,PennController,4,0,experiment,NULL,PennController,3,_Header_,Start,1687452970400,5f90c1832cf6481b25307b46,5f90c1832cf6481b25307b46,1,vase,critical,C,75,goal,low,exp2trials,NULL
1687453036,3480ad8a9044199f00236188c5b31ea1,PennController,4,0,experiment,NULL,PennController,3,_Header_,End,1687452970400,5f90c1832cf6481b25307b46,5f90c1832cf6481b25307b46,1,vase,critical,C,75,goal,low,exp2trials,NULL
1687453036,3480ad8a9044199f00236188c5b31ea1,PennController,4,0,experiment,NULL,Video,progression,buffer,0.004844,1687452973929,5f90c1832cf6481b25307b46,5f90c1832cf6481b25307b46,1,vase,critical,C,75,goal,low,exp2trials,NULL
1687453036,3480ad8a9044199f00236188c5b31ea1,PennController,4,0,experiment,NULL,VideoScrubber,slider-input,SelectedFrame,80,1687452978098,5f90c1832cf6481b25307b46,5f90c1832cf6481b25307b46,1,vase,critical,C,75,goal,low,exp2trials,NULL
1687453036,3480ad8a9044199f00236188c5b31ea1,PennController,4,0,experiment,NULL,PennController,3,_Trial_,End,1687452981001,5f90c1832cf6481b25307b46,5f90c1832cf6481b25307b46,1,vase,critical,C,75,goal,low,exp2trials,NULL
1687453036,3480ad8a9044199f00236188c5b31ea1,PennController,7,0,experiment,NULL,PennController,6,_Trial_,Start,1687452981002,5f90c1832cf6481b25307b46,5f90c1832cf6481b25307b46,4,candy,critical,C,75,goal,low,exp2trials,NULL
1687453036,3480ad8a9044199f00236188c5b31ea1,PennController,7,0,experiment,NULL,PennController,6,_Header_,Start,1687452981002,5f90c1832cf6481b25307b46,5f90c1832cf6481b25307b46,4,candy,critical,C,75,goal,low,exp2trials,NULL
1687453036,3480ad8a9044199f00236188c5b31ea1,PennController,7,0,experiment,NULL,PennController,6,_Header_,End,1687452981002,5f90c1832cf6481b25307b46,5f90c1832cf6481b25307b46,4,candy,critical,C,75,goal,low,exp2trials,NULL
1687453036,3480ad8a9044199f00236188c5b31ea1,PennController,7,0,experiment,NULL,Video,progression,buffer,0.003837,1687452984524,5f90c1832cf6481b25307b46,5f90c1832cf6481b25307b46,4,candy,critical,C,75,goal,low,exp2trials,NULL
1687453036,3480ad8a9044199f00236188c5b31ea1,PennController,7,0,experiment,NULL,VideoScrubber,slider-input,SelectedFrame,75,1687452988683,5f90c1832cf6481b25307b46,5f90c1832cf6481b25307b46,4,candy,critical,C,75,goal,low,exp2trials,NULL
1687453036,3480ad8a9044199f00236188c5b31ea1,PennController,7,0,experiment,NULL,PennController,6,_Trial_,End,1687452993301,5f90c1832cf6481b25307b46,5f90c1832cf6481b25307b46,4,candy,critical,C,75,goal,low,exp2trials,NULL
1687453036,3480ad8a9044199f00236188c5b31ea1,PennController,25,0,experiment,NULL,PennController,24,_Trial_,Start,1687452993303,5f90c1832cf6481b25307b46,5f90c1832cf6481b25307b46,22,wall,filler,C,75,goal,GoalB,exp2trials,NULL
1687453036,3480ad8a9044199f00236188c5b31ea1,PennController,25,0,experiment,NULL,PennController,24,_Header_,Start,1687452993303,5f90c1832cf6481b25307b46,5f90c1832cf6481b25307b46,22,wall,filler,C,75,goal,GoalB,exp2trials,NULL
1687453036,3480ad8a9044199f00236188c5b31ea1,PennController,25,0,experiment,NULL,PennController,24,_Header_,End,1687452993303,5f90c1832cf6481b25307b46,5f90c1832cf6481b25307b46,22,wall,filler,C,75,goal,GoalB,exp2trials,NULL
1687453036,3480ad8a9044199f00236188c5b31ea1,PennController,25,0,experiment,NULL,Video,progression,buffer,0.005154,1687452996829,5f90c1832cf6481b25307b46,5f90c1832cf6481b25307b46,22,wall,filler,C,75,goal,GoalB,exp2trials,NULL
1687453036,3480ad8a9044199f00236188c5b31ea1,PennController,25,0,experiment,NULL,VideoScrubber,slider-input,SelectedFrame,80,1687453001000,5f90c1832cf6481b25307b46,5f90c1832cf6481b25307b46,22,wall,filler,C,75,goal,GoalB,exp2trials,NULL
1687453036,3480ad8a9044199f00236188c5b31ea1,PennController,25,0,experiment,NULL,PennController,24,_Trial_,End,1687453004063,5f90c1832cf6481b25307b46,5f90c1832cf6481b25307b46,22,wall,filler,C,75,goal,GoalB,exp2trials,NULL
1687453036,3480ad8a9044199f00236188c5b31ea1,PennController,12,0,experiment,NULL,PennController,11,_Trial_,Start,1687453004064,5f90c1832cf6481b25307b46,5f90c1832cf6481b25307b46,9,cake,critical,C,50,goal,low,exp2trials,NULL
1687453036,3480ad8a9044199f00236188c5b31ea1,PennController,12,0,experiment,NULL,PennController,11,_Header_,Start,1687453004064,5f90c1832cf6481b25307b46,5f90c1832cf6481b25307b46,9,cake,critical,C,50,goal,low,exp2trials,NULL
1687453036,3480ad8a9044199f00236188c5b31ea1,PennController,12,0,experiment,NULL,PennController,11,_Header_,End,1687453004064,5f90c1832cf6481b25307b46,5f90c1832cf6481b25307b46,9,cake,critical,C,50,goal,low,exp2trials,NULL
1687453036,3480ad8a9044199f00236188c5b31ea1,PennController,12,0,experiment,NULL,Video,progression,buffer,0.003008,1687453007582,5f90c1832cf6481b25307b46,5f90c1832cf6481b25307b46,9,cake,critical,C,50,goal,low,exp2trials,NULL
1687453036,3480ad8a9044199f00236188c5b31ea1,PennController,12,0,experiment,NULL,VideoScrubber,slider-input,SelectedFrame,60,1687453012151,5f90c1832cf6481b25307b46,5f90c1832cf6481b25307b46,9,cake,critical,C,50,goal,low,exp2trials,NULL
1687453036,3480ad8a9044199f00236188c5b31ea1,PennController,12,0,experiment,NULL,PennController,11,_Trial_,End,1687453014874,5f90c1832cf6481b25307b46,5f90c1832cf6481b25307b46,9,cake,critical,C,50,goal,low,exp2trials,NULL
1687453036,3480ad8a9044199f00236188c5b31ea1,PennController,10,0,experiment,NULL,PennController,9,_Trial_,Start,1687453014875,5f90c1832cf6481b25307b46,5f90c1832cf6481b25307b46,7,stack,critical,C,75,goal,low,exp2trials,NULL
1687453036,3480ad8a9044199f00236188c5b31ea1,PennController,10,0,experiment,NULL,PennController,9,_Header_,Start,1687453014875,5f90c1832cf6481b25307b46,5f90c1832cf6481b25307b46,7,stack,critical,C,75,goal,low,exp2trials,NULL
1687453036,3480ad8a9044199f00236188c5b31ea1,PennController,10,0,experiment,NULL,PennController,9,_Header_,End,1687453014875,5f90c1832cf6481b25307b46,5f90c1832cf6481b25307b46,7,stack,critical,C,75,goal,low,exp2trials,NULL
1687453036,3480ad8a9044199f00236188c5b31ea1,PennController,10,0,experiment,NULL,Video,progression,buffer,0.00332,1687453018398,5f90c1832cf6481b25307b46,5f90c1832cf6481b25307b46,7,stack,critical,C,75,goal,low,exp2trials,NULL
1687453036,3480ad8a9044199f00236188c5b31ea1,PennController,10,0,experiment,NULL,VideoScrubber,slider-input,SelectedFrame,75,1687453022568,5f90c1832cf6481b25307b46,5f90c1832cf6481b25307b46,7,stack,critical,C,75,goal,low,exp2trials,NULL
1687453036,3480ad8a9044199f00236188c5b31ea1,PennController,10,0,experiment,NULL,PennController,9,_Trial_,End,1687453025066,5f90c1832cf6481b25307b46,5f90c1832cf6481b25307b46,7,stack,critical,C,75,goal,low,exp2trials,NULL
1687453036,3480ad8a9044199f00236188c5b31ea1,PennController,27,0,experiment,NULL,PennController,26,_Trial_,Start,1687453025067,5f90c1832cf6481b25307b46,5f90c1832cf6481b25307b46,24,match,filler,C,50,goal,GoalB,exp2trials,NULL
1687453036,3480ad8a9044199f00236188c5b31ea1,PennController,27,0,experiment,NULL,PennController,26,_Header_,Start,1687453025067,5f90c1832cf6481b25307b46,5f90c1832cf6481b25307b46,24,match,filler,C,50,goal,GoalB,exp2trials,NULL
1687453036,3480ad8a9044199f00236188c5b31ea1,PennController,27,0,experiment,NULL,PennController,26,_Header_,End,1687453025067,5f90c1832cf6481b25307b46,5f90c1832cf6481b25307b46,24,match,filler,C,50,goal,GoalB,exp2trials,NULL
1687453036,3480ad8a9044199f00236188c5b31ea1,PennController,27,0,experiment,NULL,Video,progression,buffer,0.00504,1687453028589,5f90c1832cf6481b25307b46,5f90c1832cf6481b25307b46,24,match,filler,C,50,goal,GoalB,exp2trials,NULL
1687453036,3480ad8a9044199f00236188c5b31ea1,PennController,27,0,experiment,NULL,VideoScrubber,slider-input,SelectedFrame,50,1687453031751,5f90c1832cf6481b25307b46,5f90c1832cf6481b25307b46,24,match,filler,C,50,goal,GoalB,exp2trials,NULL
1687453036,3480ad8a9044199f00236188c5b31ea1,PennController,27,0,experiment,NULL,PennController,26,_Trial_,End,1687453036122,5f90c1832cf6481b25307b46,5f90c1832cf6481b25307b46,24,match,filler,C,50,goal,GoalB,exp2trials,NULL
