#
# Results on Thursday June 22 2023 17:00:17 UTC
# USER AGENT: Mozilla/5.0 (Windows NT 10.0; Win64; x64) AppleWebKit/537.36 (KHTML, like Gecko) Chrome/114.0.0.0 Safari/537.36
# Design number was non-random = 38
#
# Columns below this comment are as follows:
# 1. Results reception time.
# 2. MD5 hash of participant's IP address.
# 3. Controller name.
# 4. Order number of item.
# 5. Inner element number.
# 6. Label.
# 7. Latin Square Group.
# 8. PennElementType.
# 9. PennElementName.
# 10. Parameter.
# 11. Value.
# 12. EventTime.
# 13. ProlificID.
# 14. Comments.
1687453217,d75426cf3af74dd0a15323264cf029e9,PennController,2,0,consent,NULL,PennController,0,_Trial_,Start,1687452752219,5c9ba61bc1d0b7001553e2e4,NULL
1687453217,d75426cf3af74dd0a15323264cf029e9,PennController,2,0,consent,NULL,PennController,0,_Header_,Start,1687452752219,5c9ba61bc1d0b7001553e2e4,NULL
1687453217,d75426cf3af74dd0a15323264cf029e9,PennController,2,0,consent,NULL,PennController,0,_Header_,End,1687452752328,5c9ba61bc1d0b7001553e2e4,NULL
1687453217,d75426cf3af74dd0a15323264cf029e9,PennController,2,0,consent,NULL,PennController,0,_Trial_,End,1687452756909,5c9ba61bc1d0b7001553e2e4,NULL
# Columns below this comment are as follows:
# 14. ID.
# 15. Comments.
1687453217,d75426cf3af74dd0a15323264cf029e9,PennController,3,0,intro,NULL,PennController,1,_Trial_,Start,1687452756911,5c9ba61bc1d0b7001553e2e4,5c9ba61bc1d0b7001553e2e4,NULL
1687453217,d75426cf3af74dd0a15323264cf029e9,PennController,3,0,intro,NULL,PennController,1,_Header_,Start,1687452756911,5c9ba61bc1d0b7001553e2e4,5c9ba61bc1d0b7001553e2e4,NULL
1687453217,d75426cf3af74dd0a15323264cf029e9,PennController,3,0,intro,NULL,PennController,1,_Header_,End,1687452756911,5c9ba61bc1d0b7001553e2e4,5c9ba61bc1d0b7001553e2e4,NULL
1687453217,d75426cf3af74dd0a15323264cf029e9,PennController,3,0,intro,NULL,PennController,1,_Trial_,End,1687452764604,5c9ba61bc1d0b7001553e2e4,5c9ba61bc1d0b7001553e2e4,NULL
# Columns below this comment are as follows:
# 15. item_number.
# 16. item.
# 17. type.
# 18. Group.
# 19. prog.
# 20. condition.
# 21. height.
# 22. exp2trials.
# 23. Comments.
1687453217,d75426cf3af74dd0a15323264cf029e9,PennController,31,0,experiment,NULL,PennController,30,_Trial_,Start,1687452764606,5c9ba61bc1d0b7001553e2e4,5c9ba61bc1d0b7001553e2e4,28,sort,filler,C,75,goal,GoalB,exp2trials,NULL
1687453217,d75426cf3af74dd0a15323264cf029e9,PennController,31,0,experiment,NULL,PennController,30,_Header_,Start,1687452764606,5c9ba61bc1d0b7001553e2e4,5c9ba61bc1d0b7001553e2e4,28,sort,filler,C,75,goal,GoalB,exp2trials,NULL
1687453217,d75426cf3af74dd0a15323264cf029e9,PennController,31,0,experiment,NULL,PennController,30,_Header_,End,1687452764606,5c9ba61bc1d0b7001553e2e4,5c9ba61bc1d0b7001553e2e4,28,sort,filler,C,75,goal,GoalB,exp2trials,NULL
1687453217,d75426cf3af74dd0a15323264cf029e9,PennController,31,0,experiment,NULL,Video,progression,buffer,0.005224,1687452768160,5c9ba61bc1d0b7001553e2e4,5c9ba61bc1d0b7001553e2e4,28,sort,filler,C,75,goal,GoalB,exp2trials,NULL
1687453217,d75426cf3af74dd0a15323264cf029e9,PennController,31,0,experiment,NULL,VideoScrubber,slider-input,SelectedFrame,99,1687452772376,5c9ba61bc1d0b7001553e2e4,5c9ba61bc1d0b7001553e2e4,28,sort,filler,C,75,goal,GoalB,exp2trials,NULL
1687453217,d75426cf3af74dd0a15323264cf029e9,PennController,31,0,experiment,NULL,PennController,30,_Trial_,End,1687452780592,5c9ba61bc1d0b7001553e2e4,5c9ba61bc1d0b7001553e2e4,28,sort,filler,C,75,goal,GoalB,exp2trials,NULL
1687453217,d75426cf3af74dd0a15323264cf029e9,PennController,11,0,experiment,NULL,PennController,10,_Trial_,Start,1687452780594,5c9ba61bc1d0b7001553e2e4,5c9ba61bc1d0b7001553e2e4,8,cucumber,critical,C,25,goal,low,exp2trials,NULL
1687453217,d75426cf3af74dd0a15323264cf029e9,PennController,11,0,experiment,NULL,PennController,10,_Header_,Start,1687452780594,5c9ba61bc1d0b7001553e2e4,5c9ba61bc1d0b7001553e2e4,8,cucumber,critical,C,25,goal,low,exp2trials,NULL
1687453217,d75426cf3af74dd0a15323264cf029e9,PennController,11,0,experiment,NULL,PennController,10,_Header_,End,1687452780594,5c9ba61bc1d0b7001553e2e4,5c9ba61bc1d0b7001553e2e4,8,cucumber,critical,C,25,goal,low,exp2trials,NULL
1687453217,d75426cf3af74dd0a15323264cf029e9,PennController,11,0,experiment,NULL,Video,progression,buffer,0.004351,1687452784139,5c9ba61bc1d0b7001553e2e4,5c9ba61bc1d0b7001553e2e4,8,cucumber,critical,C,25,goal,low,exp2trials,NULL
1687453217,d75426cf3af74dd0a15323264cf029e9,PennController,11,0,experiment,NULL,VideoScrubber,slider-input,SelectedFrame,84,1687452786959,5c9ba61bc1d0b7001553e2e4,5c9ba61bc1d0b7001553e2e4,8,cucumber,critical,C,25,goal,low,exp2trials,NULL
1687453217,d75426cf3af74dd0a15323264cf029e9,PennController,11,0,experiment,NULL,PennController,10,_Trial_,End,1687452804028,5c9ba61bc1d0b7001553e2e4,5c9ba61bc1d0b7001553e2e4,8,cucumber,critical,C,25,goal,low,exp2trials,NULL
1687453217,d75426cf3af74dd0a15323264cf029e9,PennController,29,0,experiment,NULL,PennController,28,_Trial_,Start,1687452804030,5c9ba61bc1d0b7001553e2e4,5c9ba61bc1d0b7001553e2e4,26,sandwich,filler,C,25,goal,GoalB,exp2trials,NULL
1687453217,d75426cf3af74dd0a15323264cf029e9,PennController,29,0,experiment,NULL,PennController,28,_Header_,Start,1687452804030,5c9ba61bc1d0b7001553e2e4,5c9ba61bc1d0b7001553e2e4,26,sandwich,filler,C,25,goal,GoalB,exp2trials,NULL
1687453217,d75426cf3af74dd0a15323264cf029e9,PennController,29,0,experiment,NULL,PennController,28,_Header_,End,1687452804030,5c9ba61bc1d0b7001553e2e4,5c9ba61bc1d0b7001553e2e4,26,sandwich,filler,C,25,goal,GoalB,exp2trials,NULL
1687453217,d75426cf3af74dd0a15323264cf029e9,PennController,29,0,experiment,NULL,Video,progression,buffer,0.006054,1687452807563,5c9ba61bc1d0b7001553e2e4,5c9ba61bc1d0b7001553e2e4,26,sandwich,filler,C,25,goal,GoalB,exp2trials,NULL
1687453217,d75426cf3af74dd0a15323264cf029e9,PennController,29,0,experiment,NULL,VideoScrubber,slider-input,SelectedFrame,35,1687452809771,5c9ba61bc1d0b7001553e2e4,5c9ba61bc1d0b7001553e2e4,26,sandwich,filler,C,25,goal,GoalB,exp2trials,NULL
1687453217,d75426cf3af74dd0a15323264cf029e9,PennController,29,0,experiment,NULL,PennController,28,_Trial_,End,1687452822362,5c9ba61bc1d0b7001553e2e4,5c9ba61bc1d0b7001553e2e4,26,sandwich,filler,C,25,goal,GoalB,exp2trials,NULL
1687453217,d75426cf3af74dd0a15323264cf029e9,PennController,23,0,experiment,NULL,PennController,22,_Trial_,Start,1687452822363,5c9ba61bc1d0b7001553e2e4,5c9ba61bc1d0b7001553e2e4,20,cat,filler,C,25,goal,GoalB,exp2trials,NULL
1687453217,d75426cf3af74dd0a15323264cf029e9,PennController,23,0,experiment,NULL,PennController,22,_Header_,Start,1687452822363,5c9ba61bc1d0b7001553e2e4,5c9ba61bc1d0b7001553e2e4,20,cat,filler,C,25,goal,GoalB,exp2trials,NULL
1687453217,d75426cf3af74dd0a15323264cf029e9,PennController,23,0,experiment,NULL,PennController,22,_Header_,End,1687452822363,5c9ba61bc1d0b7001553e2e4,5c9ba61bc1d0b7001553e2e4,20,cat,filler,C,25,goal,GoalB,exp2trials,NULL
1687453217,d75426cf3af74dd0a15323264cf029e9,PennController,23,0,experiment,NULL,Video,progression,buffer,0.005422,1687452825903,5c9ba61bc1d0b7001553e2e4,5c9ba61bc1d0b7001553e2e4,20,cat,filler,C,25,goal,GoalB,exp2trials,NULL
1687453217,d75426cf3af74dd0a15323264cf029e9,PennController,23,0,experiment,NULL,VideoScrubber,slider-input,SelectedFrame,25,1687452828123,5c9ba61bc1d0b7001553e2e4,5c9ba61bc1d0b7001553e2e4,20,cat,filler,C,25,goal,GoalB,exp2trials,NULL
1687453217,d75426cf3af74dd0a15323264cf029e9,PennController,23,0,experiment,NULL,PennController,22,_Trial_,End,1687452834944,5c9ba61bc1d0b7001553e2e4,5c9ba61bc1d0b7001553e2e4,20,cat,filler,C,25,goal,GoalB,exp2trials,NULL
1687453217,d75426cf3af74dd0a15323264cf029e9,PennController,24,0,experiment,NULL,PennController,23,_Trial_,Start,1687452834945,5c9ba61bc1d0b7001553e2e4,5c9ba61bc1d0b7001553e2e4,21,visit,filler,C,50,goal,GoalA,exp2trials,NULL
1687453217,d75426cf3af74dd0a15323264cf029e9,PennController,24,0,experiment,NULL,PennController,23,_Header_,Start,1687452834945,5c9ba61bc1d0b7001553e2e4,5c9ba61bc1d0b7001553e2e4,21,visit,filler,C,50,goal,GoalA,exp2trials,NULL
1687453217,d75426cf3af74dd0a15323264cf029e9,PennController,24,0,experiment,NULL,PennController,23,_Header_,End,1687452834945,5c9ba61bc1d0b7001553e2e4,5c9ba61bc1d0b7001553e2e4,21,visit,filler,C,50,goal,GoalA,exp2trials,NULL
1687453217,d75426cf3af74dd0a15323264cf029e9,PennController,24,0,experiment,NULL,Video,progression,buffer,0.013193,1687452838492,5c9ba61bc1d0b7001553e2e4,5c9ba61bc1d0b7001553e2e4,21,visit,filler,C,50,goal,GoalA,exp2trials,NULL
1687453217,d75426cf3af74dd0a15323264cf029e9,PennController,24,0,experiment,NULL,VideoScrubber,slider-input,SelectedFrame,50,1687452841701,5c9ba61bc1d0b7001553e2e4,5c9ba61bc1d0b7001553e2e4,21,visit,filler,C,50,goal,GoalA,exp2trials,NULL
1687453217,d75426cf3af74dd0a15323264cf029e9,PennController,24,0,experiment,NULL,PennController,23,_Trial_,End,1687452852040,5c9ba61bc1d0b7001553e2e4,5c9ba61bc1d0b7001553e2e4,21,visit,filler,C,50,goal,GoalA,exp2trials,NULL
1687453217,d75426cf3af74dd0a15323264cf029e9,PennController,7,0,experiment,NULL,PennController,6,_Trial_,Start,1687452852042,5c9ba61bc1d0b7001553e2e4,5c9ba61bc1d0b7001553e2e4,4,candy,critical,C,75,goal,low,exp2trials,NULL
1687453217,d75426cf3af74dd0a15323264cf029e9,PennController,7,0,experiment,NULL,PennController,6,_Header_,Start,1687452852042,5c9ba61bc1d0b7001553e2e4,5c9ba61bc1d0b7001553e2e4,4,candy,critical,C,75,goal,low,exp2trials,NULL
1687453217,d75426cf3af74dd0a15323264cf029e9,PennController,7,0,experiment,NULL,PennController,6,_Header_,End,1687452852042,5c9ba61bc1d0b7001553e2e4,5c9ba61bc1d0b7001553e2e4,4,candy,critical,C,75,goal,low,exp2trials,NULL
1687453217,d75426cf3af74dd0a15323264cf029e9,PennController,7,0,experiment,NULL,Video,progression,buffer,0.001661,1687452855563,5c9ba61bc1d0b7001553e2e4,5c9ba61bc1d0b7001553e2e4,4,candy,critical,C,75,goal,low,exp2trials,NULL
1687453217,d75426cf3af74dd0a15323264cf029e9,PennController,7,0,experiment,NULL,VideoScrubber,slider-input,SelectedFrame,70,1687452859784,5c9ba61bc1d0b7001553e2e4,5c9ba61bc1d0b7001553e2e4,4,candy,critical,C,75,goal,low,exp2trials,NULL
1687453217,d75426cf3af74dd0a15323264cf029e9,PennController,7,0,experiment,NULL,PennController,6,_Trial_,End,1687452873486,5c9ba61bc1d0b7001553e2e4,5c9ba61bc1d0b7001553e2e4,4,candy,critical,C,75,goal,low,exp2trials,NULL
1687453217,d75426cf3af74dd0a15323264cf029e9,PennController,14,0,experiment,NULL,PennController,13,_Trial_,Start,1687452873488,5c9ba61bc1d0b7001553e2e4,5c9ba61bc1d0b7001553e2e4,11,beads,critical,C,25,goal,low,exp2trials,NULL
1687453217,d75426cf3af74dd0a15323264cf029e9,PennController,14,0,experiment,NULL,PennController,13,_Header_,Start,1687452873488,5c9ba61bc1d0b7001553e2e4,5c9ba61bc1d0b7001553e2e4,11,beads,critical,C,25,goal,low,exp2trials,NULL
1687453217,d75426cf3af74dd0a15323264cf029e9,PennController,14,0,experiment,NULL,PennController,13,_Header_,End,1687452873488,5c9ba61bc1d0b7001553e2e4,5c9ba61bc1d0b7001553e2e4,11,beads,critical,C,25,goal,low,exp2trials,NULL
1687453217,d75426cf3af74dd0a15323264cf029e9,PennController,14,0,experiment,NULL,Video,progression,buffer,0.00226,1687452877004,5c9ba61bc1d0b7001553e2e4,5c9ba61bc1d0b7001553e2e4,11,beads,critical,C,25,goal,low,exp2trials,NULL
1687453217,d75426cf3af74dd0a15323264cf029e9,PennController,14,0,experiment,NULL,VideoScrubber,slider-input,SelectedFrame,30,1687452879216,5c9ba61bc1d0b7001553e2e4,5c9ba61bc1d0b7001553e2e4,11,beads,critical,C,25,goal,low,exp2trials,NULL
1687453217,d75426cf3af74dd0a15323264cf029e9,PennController,14,0,experiment,NULL,PennController,13,_Trial_,End,1687452886646,5c9ba61bc1d0b7001553e2e4,5c9ba61bc1d0b7001553e2e4,11,beads,critical,C,25,goal,low,exp2trials,NULL
1687453217,d75426cf3af74dd0a15323264cf029e9,PennController,21,0,experiment,NULL,PennController,20,_Trial_,Start,1687452886647,5c9ba61bc1d0b7001553e2e4,5c9ba61bc1d0b7001553e2e4,18,ball,critical,C,50,goal,low,exp2trials,NULL
1687453217,d75426cf3af74dd0a15323264cf029e9,PennController,21,0,experiment,NULL,PennController,20,_Header_,Start,1687452886647,5c9ba61bc1d0b7001553e2e4,5c9ba61bc1d0b7001553e2e4,18,ball,critical,C,50,goal,low,exp2trials,NULL
1687453217,d75426cf3af74dd0a15323264cf029e9,PennController,21,0,experiment,NULL,PennController,20,_Header_,End,1687452886648,5c9ba61bc1d0b7001553e2e4,5c9ba61bc1d0b7001553e2e4,18,ball,critical,C,50,goal,low,exp2trials,NULL
1687453217,d75426cf3af74dd0a15323264cf029e9,PennController,21,0,experiment,NULL,Video,progression,buffer,0.007056,1687452890187,5c9ba61bc1d0b7001553e2e4,5c9ba61bc1d0b7001553e2e4,18,ball,critical,C,50,goal,low,exp2trials,NULL
1687453217,d75426cf3af74dd0a15323264cf029e9,PennController,21,0,experiment,NULL,VideoScrubber,slider-input,SelectedFrame,45,1687452893406,5c9ba61bc1d0b7001553e2e4,5c9ba61bc1d0b7001553e2e4,18,ball,critical,C,50,goal,low,exp2trials,NULL
1687453217,d75426cf3af74dd0a15323264cf029e9,PennController,21,0,experiment,NULL,PennController,20,_Trial_,End,1687452899876,5c9ba61bc1d0b7001553e2e4,5c9ba61bc1d0b7001553e2e4,18,ball,critical,C,50,goal,low,exp2trials,NULL
1687453217,d75426cf3af74dd0a15323264cf029e9,PennController,16,0,experiment,NULL,PennController,15,_Trial_,Start,1687452899877,5c9ba61bc1d0b7001553e2e4,5c9ba61bc1d0b7001553e2e4,13,mix,critical,C,75,goal,low,exp2trials,NULL
1687453217,d75426cf3af74dd0a15323264cf029e9,PennController,16,0,experiment,NULL,PennController,15,_Header_,Start,1687452899877,5c9ba61bc1d0b7001553e2e4,5c9ba61bc1d0b7001553e2e4,13,mix,critical,C,75,goal,low,exp2trials,NULL
1687453217,d75426cf3af74dd0a15323264cf029e9,PennController,16,0,experiment,NULL,PennController,15,_Header_,End,1687452899877,5c9ba61bc1d0b7001553e2e4,5c9ba61bc1d0b7001553e2e4,13,mix,critical,C,75,goal,low,exp2trials,NULL
1687453217,d75426cf3af74dd0a15323264cf029e9,PennController,16,0,experiment,NULL,Video,progression,buffer,0.006397,1687452903411,5c9ba61bc1d0b7001553e2e4,5c9ba61bc1d0b7001553e2e4,13,mix,critical,C,75,goal,low,exp2trials,NULL
1687453217,d75426cf3af74dd0a15323264cf029e9,PennController,16,0,experiment,NULL,VideoScrubber,slider-input,SelectedFrame,65,1687452907626,5c9ba61bc1d0b7001553e2e4,5c9ba61bc1d0b7001553e2e4,13,mix,critical,C,75,goal,low,exp2trials,NULL
1687453217,d75426cf3af74dd0a15323264cf029e9,PennController,16,0,experiment,NULL,PennController,15,_Trial_,End,1687452917383,5c9ba61bc1d0b7001553e2e4,5c9ba61bc1d0b7001553e2e4,13,mix,critical,C,75,goal,low,exp2trials,NULL
1687453217,d75426cf3af74dd0a15323264cf029e9,PennController,17,0,experiment,NULL,PennController,16,_Trial_,Start,1687452917385,5c9ba61bc1d0b7001553e2e4,5c9ba61bc1d0b7001553e2e4,14,cover,critical,C,25,goal,low,exp2trials,NULL
1687453217,d75426cf3af74dd0a15323264cf029e9,PennController,17,0,experiment,NULL,PennController,16,_Header_,Start,1687452917385,5c9ba61bc1d0b7001553e2e4,5c9ba61bc1d0b7001553e2e4,14,cover,critical,C,25,goal,low,exp2trials,NULL
1687453217,d75426cf3af74dd0a15323264cf029e9,PennController,17,0,experiment,NULL,PennController,16,_Header_,End,1687452917385,5c9ba61bc1d0b7001553e2e4,5c9ba61bc1d0b7001553e2e4,14,cover,critical,C,25,goal,low,exp2trials,NULL
1687453217,d75426cf3af74dd0a15323264cf029e9,PennController,17,0,experiment,NULL,Video,progression,buffer,0.004935,1687452920907,5c9ba61bc1d0b7001553e2e4,5c9ba61bc1d0b7001553e2e4,14,cover,critical,C,25,goal,low,exp2trials,NULL
1687453217,d75426cf3af74dd0a15323264cf029e9,PennController,17,0,experiment,NULL,VideoScrubber,slider-input,SelectedFrame,30,1687452923722,5c9ba61bc1d0b7001553e2e4,5c9ba61bc1d0b7001553e2e4,14,cover,critical,C,25,goal,low,exp2trials,NULL
1687453217,d75426cf3af74dd0a15323264cf029e9,PennController,17,0,experiment,NULL,PennController,16,_Trial_,End,1687452933288,5c9ba61bc1d0b7001553e2e4,5c9ba61bc1d0b7001553e2e4,14,cover,critical,C,25,goal,low,exp2trials,NULL
1687453217,d75426cf3af74dd0a15323264cf029e9,PennController,22,0,experiment,NULL,PennController,21,_Trial_,Start,1687452933290,5c9ba61bc1d0b7001553e2e4,5c9ba61bc1d0b7001553e2e4,19,cup,filler,C,75,goal,GoalA,exp2trials,NULL
1687453217,d75426cf3af74dd0a15323264cf029e9,PennController,22,0,experiment,NULL,PennController,21,_Header_,Start,1687452933290,5c9ba61bc1d0b7001553e2e4,5c9ba61bc1d0b7001553e2e4,19,cup,filler,C,75,goal,GoalA,exp2trials,NULL
1687453217,d75426cf3af74dd0a15323264cf029e9,PennController,22,0,experiment,NULL,PennController,21,_Header_,End,1687452933290,5c9ba61bc1d0b7001553e2e4,5c9ba61bc1d0b7001553e2e4,19,cup,filler,C,75,goal,GoalA,exp2trials,NULL
1687453217,d75426cf3af74dd0a15323264cf029e9,PennController,22,0,experiment,NULL,Video,progression,buffer,0.005276,1687452936827,5c9ba61bc1d0b7001553e2e4,5c9ba61bc1d0b7001553e2e4,19,cup,filler,C,75,goal,GoalA,exp2trials,NULL
1687453217,d75426cf3af74dd0a15323264cf029e9,PennController,22,0,experiment,NULL,VideoScrubber,slider-input,SelectedFrame,65,1687452941031,5c9ba61bc1d0b7001553e2e4,5c9ba61bc1d0b7001553e2e4,19,cup,filler,C,75,goal,GoalA,exp2trials,NULL
1687453217,d75426cf3af74dd0a15323264cf029e9,PennController,22,0,experiment,NULL,PennController,21,_Trial_,End,1687452949445,5c9ba61bc1d0b7001553e2e4,5c9ba61bc1d0b7001553e2e4,19,cup,filler,C,75,goal,GoalA,exp2trials,NULL
1687453217,d75426cf3af74dd0a15323264cf029e9,PennController,6,0,experiment,NULL,PennController,5,_Trial_,Start,1687452949447,5c9ba61bc1d0b7001553e2e4,5c9ba61bc1d0b7001553e2e4,3,clean,critical,C,50,goal,low,exp2trials,NULL
1687453217,d75426cf3af74dd0a15323264cf029e9,PennController,6,0,experiment,NULL,PennController,5,_Header_,Start,1687452949447,5c9ba61bc1d0b7001553e2e4,5c9ba61bc1d0b7001553e2e4,3,clean,critical,C,50,goal,low,exp2trials,NULL
1687453217,d75426cf3af74dd0a15323264cf029e9,PennController,6,0,experiment,NULL,PennController,5,_Header_,End,1687452949447,5c9ba61bc1d0b7001553e2e4,5c9ba61bc1d0b7001553e2e4,3,clean,critical,C,50,goal,low,exp2trials,NULL
1687453217,d75426cf3af74dd0a15323264cf029e9,PennController,6,0,experiment,NULL,Video,progression,buffer,0.010262,1687452952991,5c9ba61bc1d0b7001553e2e4,5c9ba61bc1d0b7001553e2e4,3,clean,critical,C,50,goal,low,exp2trials,NULL
1687453217,d75426cf3af74dd0a15323264cf029e9,PennController,6,0,experiment,NULL,VideoScrubber,slider-input,SelectedFrame,45,1687452956213,5c9ba61bc1d0b7001553e2e4,5c9ba61bc1d0b7001553e2e4,3,clean,critical,C,50,goal,low,exp2trials,NULL
1687453217,d75426cf3af74dd0a15323264cf029e9,PennController,6,0,experiment,NULL,PennController,5,_Trial_,End,1687452965649,5c9ba61bc1d0b7001553e2e4,5c9ba61bc1d0b7001553e2e4,3,clean,critical,C,50,goal,low,exp2trials,NULL
1687453217,d75426cf3af74dd0a15323264cf029e9,PennController,25,0,experiment,NULL,PennController,24,_Trial_,Start,1687452965650,5c9ba61bc1d0b7001553e2e4,5c9ba61bc1d0b7001553e2e4,22,wall,filler,C,75,goal,GoalB,exp2trials,NULL
1687453217,d75426cf3af74dd0a15323264cf029e9,PennController,25,0,experiment,NULL,PennController,24,_Header_,Start,1687452965650,5c9ba61bc1d0b7001553e2e4,5c9ba61bc1d0b7001553e2e4,22,wall,filler,C,75,goal,GoalB,exp2trials,NULL
1687453217,d75426cf3af74dd0a15323264cf029e9,PennController,25,0,experiment,NULL,PennController,24,_Header_,End,1687452965650,5c9ba61bc1d0b7001553e2e4,5c9ba61bc1d0b7001553e2e4,22,wall,filler,C,75,goal,GoalB,exp2trials,NULL
1687453217,d75426cf3af74dd0a15323264cf029e9,PennController,25,0,experiment,NULL,Video,progression,buffer,0.004409,1687452969186,5c9ba61bc1d0b7001553e2e4,5c9ba61bc1d0b7001553e2e4,22,wall,filler,C,75,goal,GoalB,exp2trials,NULL
1687453217,d75426cf3af74dd0a15323264cf029e9,PennController,25,0,experiment,NULL,VideoScrubber,slider-input,SelectedFrame,65,1687452973402,5c9ba61bc1d0b7001553e2e4,5c9ba61bc1d0b7001553e2e4,22,wall,filler,C,75,goal,GoalB,exp2trials,NULL
1687453217,d75426cf3af74dd0a15323264cf029e9,PennController,25,0,experiment,NULL,PennController,24,_Trial_,End,1687452983940,5c9ba61bc1d0b7001553e2e4,5c9ba61bc1d0b7001553e2e4,22,wall,filler,C,75,goal,GoalB,exp2trials,NULL
1687453217,d75426cf3af74dd0a15323264cf029e9,PennController,18,0,experiment,NULL,PennController,17,_Trial_,Start,1687452983942,5c9ba61bc1d0b7001553e2e4,5c9ba61bc1d0b7001553e2e4,15,zip,critical,C,50,goal,low,exp2trials,NULL
1687453217,d75426cf3af74dd0a15323264cf029e9,PennController,18,0,experiment,NULL,PennController,17,_Header_,Start,1687452983942,5c9ba61bc1d0b7001553e2e4,5c9ba61bc1d0b7001553e2e4,15,zip,critical,C,50,goal,low,exp2trials,NULL
1687453217,d75426cf3af74dd0a15323264cf029e9,PennController,18,0,experiment,NULL,PennController,17,_Header_,End,1687452983942,5c9ba61bc1d0b7001553e2e4,5c9ba61bc1d0b7001553e2e4,15,zip,critical,C,50,goal,low,exp2trials,NULL
1687453217,d75426cf3af74dd0a15323264cf029e9,PennController,18,0,experiment,NULL,Video,progression,buffer,0.008362,1687452987481,5c9ba61bc1d0b7001553e2e4,5c9ba61bc1d0b7001553e2e4,15,zip,critical,C,50,goal,low,exp2trials,NULL
1687453217,d75426cf3af74dd0a15323264cf029e9,PennController,18,0,experiment,NULL,VideoScrubber,slider-input,SelectedFrame,45,1687452990688,5c9ba61bc1d0b7001553e2e4,5c9ba61bc1d0b7001553e2e4,15,zip,critical,C,50,goal,low,exp2trials,NULL
1687453217,d75426cf3af74dd0a15323264cf029e9,PennController,18,0,experiment,NULL,PennController,17,_Trial_,End,1687452996276,5c9ba61bc1d0b7001553e2e4,5c9ba61bc1d0b7001553e2e4,15,zip,critical,C,50,goal,low,exp2trials,NULL
1687453217,d75426cf3af74dd0a15323264cf029e9,PennController,12,0,experiment,NULL,PennController,11,_Trial_,Start,1687452996277,5c9ba61bc1d0b7001553e2e4,5c9ba61bc1d0b7001553e2e4,9,cake,critical,C,50,goal,low,exp2trials,NULL
1687453217,d75426cf3af74dd0a15323264cf029e9,PennController,12,0,experiment,NULL,PennController,11,_Header_,Start,1687452996277,5c9ba61bc1d0b7001553e2e4,5c9ba61bc1d0b7001553e2e4,9,cake,critical,C,50,goal,low,exp2trials,NULL
1687453217,d75426cf3af74dd0a15323264cf029e9,PennController,12,0,experiment,NULL,PennController,11,_Header_,End,1687452996277,5c9ba61bc1d0b7001553e2e4,5c9ba61bc1d0b7001553e2e4,9,cake,critical,C,50,goal,low,exp2trials,NULL
1687453217,d75426cf3af74dd0a15323264cf029e9,PennController,12,0,experiment,NULL,Video,progression,buffer,0.003449,1687452999804,5c9ba61bc1d0b7001553e2e4,5c9ba61bc1d0b7001553e2e4,9,cake,critical,C,50,goal,low,exp2trials,NULL
1687453217,d75426cf3af74dd0a15323264cf029e9,PennController,12,0,experiment,NULL,VideoScrubber,slider-input,SelectedFrame,51,1687453004417,5c9ba61bc1d0b7001553e2e4,5c9ba61bc1d0b7001553e2e4,9,cake,critical,C,50,goal,low,exp2trials,NULL
1687453217,d75426cf3af74dd0a15323264cf029e9,PennController,12,0,experiment,NULL,PennController,11,_Trial_,End,1687453014650,5c9ba61bc1d0b7001553e2e4,5c9ba61bc1d0b7001553e2e4,9,cake,critical,C,50,goal,low,exp2trials,NULL
1687453217,d75426cf3af74dd0a15323264cf029e9,PennController,27,0,experiment,NULL,PennController,26,_Trial_,Start,1687453014651,5c9ba61bc1d0b7001553e2e4,5c9ba61bc1d0b7001553e2e4,24,match,filler,C,50,goal,GoalB,exp2trials,NULL
1687453217,d75426cf3af74dd0a15323264cf029e9,PennController,27,0,experiment,NULL,PennController,26,_Header_,Start,1687453014651,5c9ba61bc1d0b7001553e2e4,5c9ba61bc1d0b7001553e2e4,24,match,filler,C,50,goal,GoalB,exp2trials,NULL
1687453217,d75426cf3af74dd0a15323264cf029e9,PennController,27,0,experiment,NULL,PennController,26,_Header_,End,1687453014651,5c9ba61bc1d0b7001553e2e4,5c9ba61bc1d0b7001553e2e4,24,match,filler,C,50,goal,GoalB,exp2trials,NULL
1687453217,d75426cf3af74dd0a15323264cf029e9,PennController,27,0,experiment,NULL,Video,progression,buffer,0.005978,1687453018180,5c9ba61bc1d0b7001553e2e4,5c9ba61bc1d0b7001553e2e4,24,match,filler,C,50,goal,GoalB,exp2trials,NULL
1687453217,d75426cf3af74dd0a15323264cf029e9,PennController,27,0,experiment,NULL,VideoScrubber,slider-input,SelectedFrame,45,1687453021394,5c9ba61bc1d0b7001553e2e4,5c9ba61bc1d0b7001553e2e4,24,match,filler,C,50,goal,GoalB,exp2trials,NULL
1687453217,d75426cf3af74dd0a15323264cf029e9,PennController,27,0,experiment,NULL,PennController,26,_Trial_,End,1687453028432,5c9ba61bc1d0b7001553e2e4,5c9ba61bc1d0b7001553e2e4,24,match,filler,C,50,goal,GoalB,exp2trials,NULL
1687453217,d75426cf3af74dd0a15323264cf029e9,PennController,28,0,experiment,NULL,PennController,27,_Trial_,Start,1687453028433,5c9ba61bc1d0b7001553e2e4,5c9ba61bc1d0b7001553e2e4,25,house,filler,C,75,goal,GoalA,exp2trials,NULL
1687453217,d75426cf3af74dd0a15323264cf029e9,PennController,28,0,experiment,NULL,PennController,27,_Header_,Start,1687453028433,5c9ba61bc1d0b7001553e2e4,5c9ba61bc1d0b7001553e2e4,25,house,filler,C,75,goal,GoalA,exp2trials,NULL
1687453217,d75426cf3af74dd0a15323264cf029e9,PennController,28,0,experiment,NULL,PennController,27,_Header_,End,1687453028433,5c9ba61bc1d0b7001553e2e4,5c9ba61bc1d0b7001553e2e4,25,house,filler,C,75,goal,GoalA,exp2trials,NULL
1687453217,d75426cf3af74dd0a15323264cf029e9,PennController,28,0,experiment,NULL,Video,progression,buffer,0.007042,1687453031977,5c9ba61bc1d0b7001553e2e4,5c9ba61bc1d0b7001553e2e4,25,house,filler,C,75,goal,GoalA,exp2trials,NULL
1687453217,d75426cf3af74dd0a15323264cf029e9,PennController,28,0,experiment,NULL,VideoScrubber,slider-input,SelectedFrame,75,1687453036193,5c9ba61bc1d0b7001553e2e4,5c9ba61bc1d0b7001553e2e4,25,house,filler,C,75,goal,GoalA,exp2trials,NULL
1687453217,d75426cf3af74dd0a15323264cf029e9,PennController,28,0,experiment,NULL,PennController,27,_Trial_,End,1687453045810,5c9ba61bc1d0b7001553e2e4,5c9ba61bc1d0b7001553e2e4,25,house,filler,C,75,goal,GoalA,exp2trials,NULL
1687453217,d75426cf3af74dd0a15323264cf029e9,PennController,30,0,experiment,NULL,PennController,29,_Trial_,Start,1687453045811,5c9ba61bc1d0b7001553e2e4,5c9ba61bc1d0b7001553e2e4,27,square,filler,C,50,goal,GoalA,exp2trials,NULL
1687453217,d75426cf3af74dd0a15323264cf029e9,PennController,30,0,experiment,NULL,PennController,29,_Header_,Start,1687453045811,5c9ba61bc1d0b7001553e2e4,5c9ba61bc1d0b7001553e2e4,27,square,filler,C,50,goal,GoalA,exp2trials,NULL
1687453217,d75426cf3af74dd0a15323264cf029e9,PennController,30,0,experiment,NULL,PennController,29,_Header_,End,1687453045811,5c9ba61bc1d0b7001553e2e4,5c9ba61bc1d0b7001553e2e4,27,square,filler,C,50,goal,GoalA,exp2trials,NULL
1687453217,d75426cf3af74dd0a15323264cf029e9,PennController,30,0,experiment,NULL,Video,progression,buffer,0.008253,1687453049345,5c9ba61bc1d0b7001553e2e4,5c9ba61bc1d0b7001553e2e4,27,square,filler,C,50,goal,GoalA,exp2trials,NULL
1687453217,d75426cf3af74dd0a15323264cf029e9,PennController,30,0,experiment,NULL,VideoScrubber,slider-input,SelectedFrame,50,1687453052546,5c9ba61bc1d0b7001553e2e4,5c9ba61bc1d0b7001553e2e4,27,square,filler,C,50,goal,GoalA,exp2trials,NULL
1687453217,d75426cf3af74dd0a15323264cf029e9,PennController,30,0,experiment,NULL,PennController,29,_Trial_,End,1687453060397,5c9ba61bc1d0b7001553e2e4,5c9ba61bc1d0b7001553e2e4,27,square,filler,C,50,goal,GoalA,exp2trials,NULL
1687453217,d75426cf3af74dd0a15323264cf029e9,PennController,8,0,experiment,NULL,PennController,7,_Trial_,Start,1687453060399,5c9ba61bc1d0b7001553e2e4,5c9ba61bc1d0b7001553e2e4,5,book,critical,C,25,goal,low,exp2trials,NULL
1687453217,d75426cf3af74dd0a15323264cf029e9,PennController,8,0,experiment,NULL,PennController,7,_Header_,Start,1687453060399,5c9ba61bc1d0b7001553e2e4,5c9ba61bc1d0b7001553e2e4,5,book,critical,C,25,goal,low,exp2trials,NULL
1687453217,d75426cf3af74dd0a15323264cf029e9,PennController,8,0,experiment,NULL,PennController,7,_Header_,End,1687453060399,5c9ba61bc1d0b7001553e2e4,5c9ba61bc1d0b7001553e2e4,5,book,critical,C,25,goal,low,exp2trials,NULL
1687453217,d75426cf3af74dd0a15323264cf029e9,PennController,8,0,experiment,NULL,Video,progression,buffer,0.004382,1687453063932,5c9ba61bc1d0b7001553e2e4,5c9ba61bc1d0b7001553e2e4,5,book,critical,C,25,goal,low,exp2trials,NULL
1687453217,d75426cf3af74dd0a15323264cf029e9,PennController,8,0,experiment,NULL,VideoScrubber,slider-input,SelectedFrame,25,1687453066151,5c9ba61bc1d0b7001553e2e4,5c9ba61bc1d0b7001553e2e4,5,book,critical,C,25,goal,low,exp2trials,NULL
1687453217,d75426cf3af74dd0a15323264cf029e9,PennController,8,0,experiment,NULL,PennController,7,_Trial_,End,1687453071734,5c9ba61bc1d0b7001553e2e4,5c9ba61bc1d0b7001553e2e4,5,book,critical,C,25,goal,low,exp2trials,NULL
1687453217,d75426cf3af74dd0a15323264cf029e9,PennController,13,0,experiment,NULL,PennController,12,_Trial_,Start,1687453071735,5c9ba61bc1d0b7001553e2e4,5c9ba61bc1d0b7001553e2e4,10,train,critical,C,75,goal,low,exp2trials,NULL
1687453217,d75426cf3af74dd0a15323264cf029e9,PennController,13,0,experiment,NULL,PennController,12,_Header_,Start,1687453071735,5c9ba61bc1d0b7001553e2e4,5c9ba61bc1d0b7001553e2e4,10,train,critical,C,75,goal,low,exp2trials,NULL
1687453217,d75426cf3af74dd0a15323264cf029e9,PennController,13,0,experiment,NULL,PennController,12,_Header_,End,1687453071735,5c9ba61bc1d0b7001553e2e4,5c9ba61bc1d0b7001553e2e4,10,train,critical,C,75,goal,low,exp2trials,NULL
1687453217,d75426cf3af74dd0a15323264cf029e9,PennController,13,0,experiment,NULL,Video,progression,buffer,0.008806,1687453075273,5c9ba61bc1d0b7001553e2e4,5c9ba61bc1d0b7001553e2e4,10,train,critical,C,75,goal,low,exp2trials,NULL
1687453217,d75426cf3af74dd0a15323264cf029e9,PennController,13,0,experiment,NULL,VideoScrubber,slider-input,SelectedFrame,75,1687453079490,5c9ba61bc1d0b7001553e2e4,5c9ba61bc1d0b7001553e2e4,10,train,critical,C,75,goal,low,exp2trials,NULL
1687453217,d75426cf3af74dd0a15323264cf029e9,PennController,13,0,experiment,NULL,PennController,12,_Trial_,End,1687453088388,5c9ba61bc1d0b7001553e2e4,5c9ba61bc1d0b7001553e2e4,10,train,critical,C,75,goal,low,exp2trials,NULL
1687453217,d75426cf3af74dd0a15323264cf029e9,PennController,20,0,experiment,NULL,PennController,19,_Trial_,Start,1687453088389,5c9ba61bc1d0b7001553e2e4,5c9ba61bc1d0b7001553e2e4,17,roll,critical,C,25,goal,low,exp2trials,NULL
1687453217,d75426cf3af74dd0a15323264cf029e9,PennController,20,0,experiment,NULL,PennController,19,_Header_,Start,1687453088389,5c9ba61bc1d0b7001553e2e4,5c9ba61bc1d0b7001553e2e4,17,roll,critical,C,25,goal,low,exp2trials,NULL
1687453217,d75426cf3af74dd0a15323264cf029e9,PennController,20,0,experiment,NULL,PennController,19,_Header_,End,1687453088389,5c9ba61bc1d0b7001553e2e4,5c9ba61bc1d0b7001553e2e4,17,roll,critical,C,25,goal,low,exp2trials,NULL
1687453217,d75426cf3af74dd0a15323264cf029e9,PennController,20,0,experiment,NULL,Video,progression,buffer,0.00518,1687453091923,5c9ba61bc1d0b7001553e2e4,5c9ba61bc1d0b7001553e2e4,17,roll,critical,C,25,goal,low,exp2trials,NULL
1687453217,d75426cf3af74dd0a15323264cf029e9,PennController,20,0,experiment,NULL,VideoScrubber,slider-input,SelectedFrame,25,1687453094142,5c9ba61bc1d0b7001553e2e4,5c9ba61bc1d0b7001553e2e4,17,roll,critical,C,25,goal,low,exp2trials,NULL
1687453217,d75426cf3af74dd0a15323264cf029e9,PennController,20,0,experiment,NULL,PennController,19,_Trial_,End,1687453099133,5c9ba61bc1d0b7001553e2e4,5c9ba61bc1d0b7001553e2e4,17,roll,critical,C,25,goal,low,exp2trials,NULL
1687453217,d75426cf3af74dd0a15323264cf029e9,PennController,9,0,experiment,NULL,PennController,8,_Trial_,Start,1687453099133,5c9ba61bc1d0b7001553e2e4,5c9ba61bc1d0b7001553e2e4,6,flower,critical,C,50,goal,low,exp2trials,NULL
1687453217,d75426cf3af74dd0a15323264cf029e9,PennController,9,0,experiment,NULL,PennController,8,_Header_,Start,1687453099133,5c9ba61bc1d0b7001553e2e4,5c9ba61bc1d0b7001553e2e4,6,flower,critical,C,50,goal,low,exp2trials,NULL
1687453217,d75426cf3af74dd0a15323264cf029e9,PennController,9,0,experiment,NULL,PennController,8,_Header_,End,1687453099133,5c9ba61bc1d0b7001553e2e4,5c9ba61bc1d0b7001553e2e4,6,flower,critical,C,50,goal,low,exp2trials,NULL
1687453217,d75426cf3af74dd0a15323264cf029e9,PennController,9,0,experiment,NULL,Video,progression,buffer,0.008607,1687453102671,5c9ba61bc1d0b7001553e2e4,5c9ba61bc1d0b7001553e2e4,6,flower,critical,C,50,goal,low,exp2trials,NULL
1687453217,d75426cf3af74dd0a15323264cf029e9,PennController,9,0,experiment,NULL,VideoScrubber,slider-input,SelectedFrame,45,1687453105884,5c9ba61bc1d0b7001553e2e4,5c9ba61bc1d0b7001553e2e4,6,flower,critical,C,50,goal,low,exp2trials,NULL
1687453217,d75426cf3af74dd0a15323264cf029e9,PennController,9,0,experiment,NULL,PennController,8,_Trial_,End,1687453112753,5c9ba61bc1d0b7001553e2e4,5c9ba61bc1d0b7001553e2e4,6,flower,critical,C,50,goal,low,exp2trials,NULL
1687453217,d75426cf3af74dd0a15323264cf029e9,PennController,4,0,experiment,NULL,PennController,3,_Trial_,Start,1687453112754,5c9ba61bc1d0b7001553e2e4,5c9ba61bc1d0b7001553e2e4,1,vase,critical,C,75,goal,low,exp2trials,NULL
1687453217,d75426cf3af74dd0a15323264cf029e9,PennController,4,0,experiment,NULL,PennController,3,_Header_,Start,1687453112754,5c9ba61bc1d0b7001553e2e4,5c9ba61bc1d0b7001553e2e4,1,vase,critical,C,75,goal,low,exp2trials,NULL
1687453217,d75426cf3af74dd0a15323264cf029e9,PennController,4,0,experiment,NULL,PennController,3,_Header_,End,1687453112754,5c9ba61bc1d0b7001553e2e4,5c9ba61bc1d0b7001553e2e4,1,vase,critical,C,75,goal,low,exp2trials,NULL
1687453217,d75426cf3af74dd0a15323264cf029e9,PennController,4,0,experiment,NULL,Video,progression,buffer,0.006459,1687453116283,5c9ba61bc1d0b7001553e2e4,5c9ba61bc1d0b7001553e2e4,1,vase,critical,C,75,goal,low,exp2trials,NULL
1687453217,d75426cf3af74dd0a15323264cf029e9,PennController,4,0,experiment,NULL,VideoScrubber,slider-input,SelectedFrame,65,1687453120491,5c9ba61bc1d0b7001553e2e4,5c9ba61bc1d0b7001553e2e4,1,vase,critical,C,75,goal,low,exp2trials,NULL
1687453217,d75426cf3af74dd0a15323264cf029e9,PennController,4,0,experiment,NULL,PennController,3,_Trial_,End,1687453129196,5c9ba61bc1d0b7001553e2e4,5c9ba61bc1d0b7001553e2e4,1,vase,critical,C,75,goal,low,exp2trials,NULL
1687453217,d75426cf3af74dd0a15323264cf029e9,PennController,10,0,experiment,NULL,PennController,9,_Trial_,Start,1687453129197,5c9ba61bc1d0b7001553e2e4,5c9ba61bc1d0b7001553e2e4,7,stack,critical,C,75,goal,low,exp2trials,NULL
1687453217,d75426cf3af74dd0a15323264cf029e9,PennController,10,0,experiment,NULL,PennController,9,_Header_,Start,1687453129197,5c9ba61bc1d0b7001553e2e4,5c9ba61bc1d0b7001553e2e4,7,stack,critical,C,75,goal,low,exp2trials,NULL
1687453217,d75426cf3af74dd0a15323264cf029e9,PennController,10,0,experiment,NULL,PennController,9,_Header_,End,1687453129198,5c9ba61bc1d0b7001553e2e4,5c9ba61bc1d0b7001553e2e4,7,stack,critical,C,75,goal,low,exp2trials,NULL
1687453217,d75426cf3af74dd0a15323264cf029e9,PennController,10,0,experiment,NULL,Video,progression,buffer,0.006869,1687453132737,5c9ba61bc1d0b7001553e2e4,5c9ba61bc1d0b7001553e2e4,7,stack,critical,C,75,goal,low,exp2trials,NULL
1687453217,d75426cf3af74dd0a15323264cf029e9,PennController,10,0,experiment,NULL,VideoScrubber,slider-input,SelectedFrame,55,1687453136944,5c9ba61bc1d0b7001553e2e4,5c9ba61bc1d0b7001553e2e4,7,stack,critical,C,75,goal,low,exp2trials,NULL
1687453217,d75426cf3af74dd0a15323264cf029e9,PennController,10,0,experiment,NULL,PennController,9,_Trial_,End,1687453144998,5c9ba61bc1d0b7001553e2e4,5c9ba61bc1d0b7001553e2e4,7,stack,critical,C,75,goal,low,exp2trials,NULL
1687453217,d75426cf3af74dd0a15323264cf029e9,PennController,19,0,experiment,NULL,PennController,18,_Trial_,Start,1687453145000,5c9ba61bc1d0b7001553e2e4,5c9ba61bc1d0b7001553e2e4,16,blinds,critical,C,75,goal,low,exp2trials,NULL
1687453217,d75426cf3af74dd0a15323264cf029e9,PennController,19,0,experiment,NULL,PennController,18,_Header_,Start,1687453145000,5c9ba61bc1d0b7001553e2e4,5c9ba61bc1d0b7001553e2e4,16,blinds,critical,C,75,goal,low,exp2trials,NULL
1687453217,d75426cf3af74dd0a15323264cf029e9,PennController,19,0,experiment,NULL,PennController,18,_Header_,End,1687453145000,5c9ba61bc1d0b7001553e2e4,5c9ba61bc1d0b7001553e2e4,16,blinds,critical,C,75,goal,low,exp2trials,NULL
1687453217,d75426cf3af74dd0a15323264cf029e9,PennController,19,0,experiment,NULL,Video,progression,buffer,0.005006,1687453148525,5c9ba61bc1d0b7001553e2e4,5c9ba61bc1d0b7001553e2e4,16,blinds,critical,C,75,goal,low,exp2trials,NULL
1687453217,d75426cf3af74dd0a15323264cf029e9,PennController,19,0,experiment,NULL,VideoScrubber,slider-input,SelectedFrame,66,1687453154742,5c9ba61bc1d0b7001553e2e4,5c9ba61bc1d0b7001553e2e4,16,blinds,critical,C,75,goal,low,exp2trials,NULL
1687453217,d75426cf3af74dd0a15323264cf029e9,PennController,19,0,experiment,NULL,PennController,18,_Trial_,End,1687453165328,5c9ba61bc1d0b7001553e2e4,5c9ba61bc1d0b7001553e2e4,16,blinds,critical,C,75,goal,low,exp2trials,NULL
1687453217,d75426cf3af74dd0a15323264cf029e9,PennController,32,0,experiment,NULL,PennController,31,_Trial_,Start,1687453165330,5c9ba61bc1d0b7001553e2e4,5c9ba61bc1d0b7001553e2e4,29,frog,filler,C,25,goal,GoalA,exp2trials,NULL
1687453217,d75426cf3af74dd0a15323264cf029e9,PennController,32,0,experiment,NULL,PennController,31,_Header_,Start,1687453165330,5c9ba61bc1d0b7001553e2e4,5c9ba61bc1d0b7001553e2e4,29,frog,filler,C,25,goal,GoalA,exp2trials,NULL
1687453217,d75426cf3af74dd0a15323264cf029e9,PennController,32,0,experiment,NULL,PennController,31,_Header_,End,1687453165330,5c9ba61bc1d0b7001553e2e4,5c9ba61bc1d0b7001553e2e4,29,frog,filler,C,25,goal,GoalA,exp2trials,NULL
1687453217,d75426cf3af74dd0a15323264cf029e9,PennController,32,0,experiment,NULL,Video,progression,buffer,0.007164,1687453168870,5c9ba61bc1d0b7001553e2e4,5c9ba61bc1d0b7001553e2e4,29,frog,filler,C,25,goal,GoalA,exp2trials,NULL
1687453217,d75426cf3af74dd0a15323264cf029e9,PennController,32,0,experiment,NULL,VideoScrubber,slider-input,SelectedFrame,25,1687453171076,5c9ba61bc1d0b7001553e2e4,5c9ba61bc1d0b7001553e2e4,29,frog,filler,C,25,goal,GoalA,exp2trials,NULL
1687453217,d75426cf3af74dd0a15323264cf029e9,PennController,32,0,experiment,NULL,PennController,31,_Trial_,End,1687453175702,5c9ba61bc1d0b7001553e2e4,5c9ba61bc1d0b7001553e2e4,29,frog,filler,C,25,goal,GoalA,exp2trials,NULL
1687453217,d75426cf3af74dd0a15323264cf029e9,PennController,15,0,experiment,NULL,PennController,14,_Trial_,Start,1687453175703,5c9ba61bc1d0b7001553e2e4,5c9ba61bc1d0b7001553e2e4,12,erase,critical,C,50,goal,low,exp2trials,NULL
1687453217,d75426cf3af74dd0a15323264cf029e9,PennController,15,0,experiment,NULL,PennController,14,_Header_,Start,1687453175703,5c9ba61bc1d0b7001553e2e4,5c9ba61bc1d0b7001553e2e4,12,erase,critical,C,50,goal,low,exp2trials,NULL
1687453217,d75426cf3af74dd0a15323264cf029e9,PennController,15,0,experiment,NULL,PennController,14,_Header_,End,1687453175703,5c9ba61bc1d0b7001553e2e4,5c9ba61bc1d0b7001553e2e4,12,erase,critical,C,50,goal,low,exp2trials,NULL
1687453217,d75426cf3af74dd0a15323264cf029e9,PennController,15,0,experiment,NULL,Video,progression,buffer,0.008491,1687453179241,5c9ba61bc1d0b7001553e2e4,5c9ba61bc1d0b7001553e2e4,12,erase,critical,C,50,goal,low,exp2trials,NULL
1687453217,d75426cf3af74dd0a15323264cf029e9,PennController,15,0,experiment,NULL,VideoScrubber,slider-input,SelectedFrame,39,1687453183850,5c9ba61bc1d0b7001553e2e4,5c9ba61bc1d0b7001553e2e4,12,erase,critical,C,50,goal,low,exp2trials,NULL
1687453217,d75426cf3af74dd0a15323264cf029e9,PennController,15,0,experiment,NULL,PennController,14,_Trial_,End,1687453194228,5c9ba61bc1d0b7001553e2e4,5c9ba61bc1d0b7001553e2e4,12,erase,critical,C,50,goal,low,exp2trials,NULL
1687453217,d75426cf3af74dd0a15323264cf029e9,PennController,26,0,experiment,NULL,PennController,25,_Trial_,Start,1687453194229,5c9ba61bc1d0b7001553e2e4,5c9ba61bc1d0b7001553e2e4,23,color,filler,C,25,goal,GoalA,exp2trials,NULL
1687453217,d75426cf3af74dd0a15323264cf029e9,PennController,26,0,experiment,NULL,PennController,25,_Header_,Start,1687453194229,5c9ba61bc1d0b7001553e2e4,5c9ba61bc1d0b7001553e2e4,23,color,filler,C,25,goal,GoalA,exp2trials,NULL
1687453217,d75426cf3af74dd0a15323264cf029e9,PennController,26,0,experiment,NULL,PennController,25,_Header_,End,1687453194229,5c9ba61bc1d0b7001553e2e4,5c9ba61bc1d0b7001553e2e4,23,color,filler,C,25,goal,GoalA,exp2trials,NULL
1687453217,d75426cf3af74dd0a15323264cf029e9,PennController,26,0,experiment,NULL,Video,progression,buffer,0.004053,1687453197761,5c9ba61bc1d0b7001553e2e4,5c9ba61bc1d0b7001553e2e4,23,color,filler,C,25,goal,GoalA,exp2trials,NULL
1687453217,d75426cf3af74dd0a15323264cf029e9,PennController,26,0,experiment,NULL,VideoScrubber,slider-input,SelectedFrame,40,1687453199981,5c9ba61bc1d0b7001553e2e4,5c9ba61bc1d0b7001553e2e4,23,color,filler,C,25,goal,GoalA,exp2trials,NULL
1687453217,d75426cf3af74dd0a15323264cf029e9,PennController,26,0,experiment,NULL,PennController,25,_Trial_,End,1687453206094,5c9ba61bc1d0b7001553e2e4,5c9ba61bc1d0b7001553e2e4,23,color,filler,C,25,goal,GoalA,exp2trials,NULL
1687453217,d75426cf3af74dd0a15323264cf029e9,PennController,5,0,experiment,NULL,PennController,4,_Trial_,Start,1687453206095,5c9ba61bc1d0b7001553e2e4,5c9ba61bc1d0b7001553e2e4,2,door,critical,C,25,goal,low,exp2trials,NULL
1687453217,d75426cf3af74dd0a15323264cf029e9,PennController,5,0,experiment,NULL,PennController,4,_Header_,Start,1687453206095,5c9ba61bc1d0b7001553e2e4,5c9ba61bc1d0b7001553e2e4,2,door,critical,C,25,goal,low,exp2trials,NULL
1687453217,d75426cf3af74dd0a15323264cf029e9,PennController,5,0,experiment,NULL,PennController,4,_Header_,End,1687453206095,5c9ba61bc1d0b7001553e2e4,5c9ba61bc1d0b7001553e2e4,2,door,critical,C,25,goal,low,exp2trials,NULL
1687453217,d75426cf3af74dd0a15323264cf029e9,PennController,5,0,experiment,NULL,Video,progression,buffer,0.007774,1687453209635,5c9ba61bc1d0b7001553e2e4,5c9ba61bc1d0b7001553e2e4,2,door,critical,C,25,goal,low,exp2trials,NULL
1687453217,d75426cf3af74dd0a15323264cf029e9,PennController,5,0,experiment,NULL,VideoScrubber,slider-input,SelectedFrame,25,1687453211842,5c9ba61bc1d0b7001553e2e4,5c9ba61bc1d0b7001553e2e4,2,door,critical,C,25,goal,low,exp2trials,NULL
1687453217,d75426cf3af74dd0a15323264cf029e9,PennController,5,0,experiment,NULL,PennController,4,_Trial_,End,1687453217183,5c9ba61bc1d0b7001553e2e4,5c9ba61bc1d0b7001553e2e4,2,door,critical,C,25,goal,low,exp2trials,NULL
