#
# Results on Thursday June 22 2023 17:04:39 UTC
# USER AGENT: Mozilla/5.0 (Windows NT 10.0; Win64; x64) AppleWebKit/537.36 (KHTML, like Gecko) Chrome/114.0.0.0 Safari/537.36
# Design number was non-random = 119
#
# Columns below this comment are as follows:
# 1. Results reception time.
# 2. MD5 hash of participant's IP address.
# 3. Controller name.
# 4. Order number of item.
# 5. Inner element number.
# 6. Label.
# 7. Latin Square Group.
# 8. PennElementType.
# 9. PennElementName.
# 10. Parameter.
# 11. Value.
# 12. EventTime.
# 13. ProlificID.
# 14. Comments.
1687453479,34f516959c8e9a29a75f64220f02f6d8,PennController,2,0,consent,NULL,PennController,0,_Trial_,Start,1687453123111,5f57aaeb5619fa2893adc008,NULL
1687453479,34f516959c8e9a29a75f64220f02f6d8,PennController,2,0,consent,NULL,PennController,0,_Header_,Start,1687453123111,5f57aaeb5619fa2893adc008,NULL
1687453479,34f516959c8e9a29a75f64220f02f6d8,PennController,2,0,consent,NULL,PennController,0,_Header_,End,1687453123190,5f57aaeb5619fa2893adc008,NULL
1687453479,34f516959c8e9a29a75f64220f02f6d8,PennController,2,0,consent,NULL,PennController,0,_Trial_,End,1687453131001,5f57aaeb5619fa2893adc008,NULL
# Columns below this comment are as follows:
# 14. ID.
# 15. Comments.
1687453479,34f516959c8e9a29a75f64220f02f6d8,PennController,3,0,intro,NULL,PennController,1,_Trial_,Start,1687453131004,5f57aaeb5619fa2893adc008,5f57aaeb5619fa2893adc008,NULL
1687453479,34f516959c8e9a29a75f64220f02f6d8,PennController,3,0,intro,NULL,PennController,1,_Header_,Start,1687453131004,5f57aaeb5619fa2893adc008,5f57aaeb5619fa2893adc008,NULL
1687453479,34f516959c8e9a29a75f64220f02f6d8,PennController,3,0,intro,NULL,PennController,1,_Header_,End,1687453131004,5f57aaeb5619fa2893adc008,5f57aaeb5619fa2893adc008,NULL
1687453479,34f516959c8e9a29a75f64220f02f6d8,PennController,3,0,intro,NULL,PennController,1,_Trial_,End,1687453134560,5f57aaeb5619fa2893adc008,5f57aaeb5619fa2893adc008,NULL
# Columns below this comment are as follows:
# 15. item_number.
# 16. item.
# 17. type.
# 18. Group.
# 19. prog.
# 20. condition.
# 21. height.
# 22. exp2trials.
# 23. Comments.
1687453479,34f516959c8e9a29a75f64220f02f6d8,PennController,10,0,experiment,NULL,PennController,9,_Trial_,Start,1687453134563,5f57aaeb5619fa2893adc008,5f57aaeb5619fa2893adc008,7,stack,critical,C,75,goal,low,exp2trials,NULL
1687453479,34f516959c8e9a29a75f64220f02f6d8,PennController,10,0,experiment,NULL,PennController,9,_Header_,Start,1687453134563,5f57aaeb5619fa2893adc008,5f57aaeb5619fa2893adc008,7,stack,critical,C,75,goal,low,exp2trials,NULL
1687453479,34f516959c8e9a29a75f64220f02f6d8,PennController,10,0,experiment,NULL,PennController,9,_Header_,End,1687453134563,5f57aaeb5619fa2893adc008,5f57aaeb5619fa2893adc008,7,stack,critical,C,75,goal,low,exp2trials,NULL
1687453479,34f516959c8e9a29a75f64220f02f6d8,PennController,10,0,experiment,NULL,Video,progression,buffer,0.003654,1687453138110,5f57aaeb5619fa2893adc008,5f57aaeb5619fa2893adc008,7,stack,critical,C,75,goal,low,exp2trials,NULL
1687453479,34f516959c8e9a29a75f64220f02f6d8,PennController,10,0,experiment,NULL,VideoScrubber,slider-input,SelectedFrame,85,1687453142263,5f57aaeb5619fa2893adc008,5f57aaeb5619fa2893adc008,7,stack,critical,C,75,goal,low,exp2trials,NULL
1687453479,34f516959c8e9a29a75f64220f02f6d8,PennController,10,0,experiment,NULL,PennController,9,_Trial_,End,1687453145096,5f57aaeb5619fa2893adc008,5f57aaeb5619fa2893adc008,7,stack,critical,C,75,goal,low,exp2trials,NULL
1687453479,34f516959c8e9a29a75f64220f02f6d8,PennController,7,0,experiment,NULL,PennController,6,_Trial_,Start,1687453145099,5f57aaeb5619fa2893adc008,5f57aaeb5619fa2893adc008,4,candy,critical,C,75,goal,low,exp2trials,NULL
1687453479,34f516959c8e9a29a75f64220f02f6d8,PennController,7,0,experiment,NULL,PennController,6,_Header_,Start,1687453145099,5f57aaeb5619fa2893adc008,5f57aaeb5619fa2893adc008,4,candy,critical,C,75,goal,low,exp2trials,NULL
1687453479,34f516959c8e9a29a75f64220f02f6d8,PennController,7,0,experiment,NULL,PennController,6,_Header_,End,1687453145099,5f57aaeb5619fa2893adc008,5f57aaeb5619fa2893adc008,4,candy,critical,C,75,goal,low,exp2trials,NULL
1687453479,34f516959c8e9a29a75f64220f02f6d8,PennController,7,0,experiment,NULL,Video,progression,buffer,0.003365,1687453148624,5f57aaeb5619fa2893adc008,5f57aaeb5619fa2893adc008,4,candy,critical,C,75,goal,low,exp2trials,NULL
1687453479,34f516959c8e9a29a75f64220f02f6d8,PennController,7,0,experiment,NULL,VideoScrubber,slider-input,SelectedFrame,75,1687453152771,5f57aaeb5619fa2893adc008,5f57aaeb5619fa2893adc008,4,candy,critical,C,75,goal,low,exp2trials,NULL
1687453479,34f516959c8e9a29a75f64220f02f6d8,PennController,7,0,experiment,NULL,PennController,6,_Trial_,End,1687453159842,5f57aaeb5619fa2893adc008,5f57aaeb5619fa2893adc008,4,candy,critical,C,75,goal,low,exp2trials,NULL
1687453479,34f516959c8e9a29a75f64220f02f6d8,PennController,11,0,experiment,NULL,PennController,10,_Trial_,Start,1687453159845,5f57aaeb5619fa2893adc008,5f57aaeb5619fa2893adc008,8,cucumber,critical,C,25,goal,low,exp2trials,NULL
1687453479,34f516959c8e9a29a75f64220f02f6d8,PennController,11,0,experiment,NULL,PennController,10,_Header_,Start,1687453159845,5f57aaeb5619fa2893adc008,5f57aaeb5619fa2893adc008,8,cucumber,critical,C,25,goal,low,exp2trials,NULL
1687453479,34f516959c8e9a29a75f64220f02f6d8,PennController,11,0,experiment,NULL,PennController,10,_Header_,End,1687453159845,5f57aaeb5619fa2893adc008,5f57aaeb5619fa2893adc008,8,cucumber,critical,C,25,goal,low,exp2trials,NULL
1687453479,34f516959c8e9a29a75f64220f02f6d8,PennController,11,0,experiment,NULL,Video,progression,buffer,0.004917,1687453163378,5f57aaeb5619fa2893adc008,5f57aaeb5619fa2893adc008,8,cucumber,critical,C,25,goal,low,exp2trials,NULL
1687453479,34f516959c8e9a29a75f64220f02f6d8,PennController,11,0,experiment,NULL,VideoScrubber,slider-input,SelectedFrame,21,1687453166137,5f57aaeb5619fa2893adc008,5f57aaeb5619fa2893adc008,8,cucumber,critical,C,25,goal,low,exp2trials,NULL
1687453479,34f516959c8e9a29a75f64220f02f6d8,PennController,11,0,experiment,NULL,PennController,10,_Trial_,End,1687453170367,5f57aaeb5619fa2893adc008,5f57aaeb5619fa2893adc008,8,cucumber,critical,C,25,goal,low,exp2trials,NULL
1687453479,34f516959c8e9a29a75f64220f02f6d8,PennController,6,0,experiment,NULL,PennController,5,_Trial_,Start,1687453170370,5f57aaeb5619fa2893adc008,5f57aaeb5619fa2893adc008,3,clean,critical,C,50,goal,low,exp2trials,NULL
1687453479,34f516959c8e9a29a75f64220f02f6d8,PennController,6,0,experiment,NULL,PennController,5,_Header_,Start,1687453170370,5f57aaeb5619fa2893adc008,5f57aaeb5619fa2893adc008,3,clean,critical,C,50,goal,low,exp2trials,NULL
1687453479,34f516959c8e9a29a75f64220f02f6d8,PennController,6,0,experiment,NULL,PennController,5,_Header_,End,1687453170370,5f57aaeb5619fa2893adc008,5f57aaeb5619fa2893adc008,3,clean,critical,C,50,goal,low,exp2trials,NULL
1687453479,34f516959c8e9a29a75f64220f02f6d8,PennController,6,0,experiment,NULL,Video,progression,buffer,0.003093,1687453173892,5f57aaeb5619fa2893adc008,5f57aaeb5619fa2893adc008,3,clean,critical,C,50,goal,low,exp2trials,NULL
1687453479,34f516959c8e9a29a75f64220f02f6d8,PennController,6,0,experiment,NULL,VideoScrubber,slider-input,SelectedFrame,45,1687453177034,5f57aaeb5619fa2893adc008,5f57aaeb5619fa2893adc008,3,clean,critical,C,50,goal,low,exp2trials,NULL
1687453479,34f516959c8e9a29a75f64220f02f6d8,PennController,6,0,experiment,NULL,PennController,5,_Trial_,End,1687453184356,5f57aaeb5619fa2893adc008,5f57aaeb5619fa2893adc008,3,clean,critical,C,50,goal,low,exp2trials,NULL
1687453479,34f516959c8e9a29a75f64220f02f6d8,PennController,16,0,experiment,NULL,PennController,15,_Trial_,Start,1687453184358,5f57aaeb5619fa2893adc008,5f57aaeb5619fa2893adc008,13,mix,critical,C,75,goal,low,exp2trials,NULL
1687453479,34f516959c8e9a29a75f64220f02f6d8,PennController,16,0,experiment,NULL,PennController,15,_Header_,Start,1687453184358,5f57aaeb5619fa2893adc008,5f57aaeb5619fa2893adc008,13,mix,critical,C,75,goal,low,exp2trials,NULL
1687453479,34f516959c8e9a29a75f64220f02f6d8,PennController,16,0,experiment,NULL,PennController,15,_Header_,End,1687453184358,5f57aaeb5619fa2893adc008,5f57aaeb5619fa2893adc008,13,mix,critical,C,75,goal,low,exp2trials,NULL
1687453479,34f516959c8e9a29a75f64220f02f6d8,PennController,16,0,experiment,NULL,Video,progression,buffer,0.003165,1687453187884,5f57aaeb5619fa2893adc008,5f57aaeb5619fa2893adc008,13,mix,critical,C,75,goal,low,exp2trials,NULL
1687453479,34f516959c8e9a29a75f64220f02f6d8,PennController,16,0,experiment,NULL,VideoScrubber,slider-input,SelectedFrame,90,1687453192025,5f57aaeb5619fa2893adc008,5f57aaeb5619fa2893adc008,13,mix,critical,C,75,goal,low,exp2trials,NULL
1687453479,34f516959c8e9a29a75f64220f02f6d8,PennController,16,0,experiment,NULL,PennController,15,_Trial_,End,1687453198264,5f57aaeb5619fa2893adc008,5f57aaeb5619fa2893adc008,13,mix,critical,C,75,goal,low,exp2trials,NULL
1687453479,34f516959c8e9a29a75f64220f02f6d8,PennController,15,0,experiment,NULL,PennController,14,_Trial_,Start,1687453198266,5f57aaeb5619fa2893adc008,5f57aaeb5619fa2893adc008,12,erase,critical,C,50,goal,low,exp2trials,NULL
1687453479,34f516959c8e9a29a75f64220f02f6d8,PennController,15,0,experiment,NULL,PennController,14,_Header_,Start,1687453198266,5f57aaeb5619fa2893adc008,5f57aaeb5619fa2893adc008,12,erase,critical,C,50,goal,low,exp2trials,NULL
1687453479,34f516959c8e9a29a75f64220f02f6d8,PennController,15,0,experiment,NULL,PennController,14,_Header_,End,1687453198266,5f57aaeb5619fa2893adc008,5f57aaeb5619fa2893adc008,12,erase,critical,C,50,goal,low,exp2trials,NULL
1687453479,34f516959c8e9a29a75f64220f02f6d8,PennController,15,0,experiment,NULL,Video,progression,buffer,0.003129,1687453201792,5f57aaeb5619fa2893adc008,5f57aaeb5619fa2893adc008,12,erase,critical,C,50,goal,low,exp2trials,NULL
1687453479,34f516959c8e9a29a75f64220f02f6d8,PennController,15,0,experiment,NULL,VideoScrubber,slider-input,SelectedFrame,45,1687453206338,5f57aaeb5619fa2893adc008,5f57aaeb5619fa2893adc008,12,erase,critical,C,50,goal,low,exp2trials,NULL
1687453479,34f516959c8e9a29a75f64220f02f6d8,PennController,15,0,experiment,NULL,PennController,14,_Trial_,End,1687453211225,5f57aaeb5619fa2893adc008,5f57aaeb5619fa2893adc008,12,erase,critical,C,50,goal,low,exp2trials,NULL
1687453479,34f516959c8e9a29a75f64220f02f6d8,PennController,22,0,experiment,NULL,PennController,21,_Trial_,Start,1687453211228,5f57aaeb5619fa2893adc008,5f57aaeb5619fa2893adc008,19,cup,filler,C,75,goal,GoalA,exp2trials,NULL
1687453479,34f516959c8e9a29a75f64220f02f6d8,PennController,22,0,experiment,NULL,PennController,21,_Header_,Start,1687453211228,5f57aaeb5619fa2893adc008,5f57aaeb5619fa2893adc008,19,cup,filler,C,75,goal,GoalA,exp2trials,NULL
1687453479,34f516959c8e9a29a75f64220f02f6d8,PennController,22,0,experiment,NULL,PennController,21,_Header_,End,1687453211229,5f57aaeb5619fa2893adc008,5f57aaeb5619fa2893adc008,19,cup,filler,C,75,goal,GoalA,exp2trials,NULL
1687453479,34f516959c8e9a29a75f64220f02f6d8,PennController,22,0,experiment,NULL,Video,progression,buffer,0.003227,1687453214754,5f57aaeb5619fa2893adc008,5f57aaeb5619fa2893adc008,19,cup,filler,C,75,goal,GoalA,exp2trials,NULL
1687453479,34f516959c8e9a29a75f64220f02f6d8,PennController,22,0,experiment,NULL,VideoScrubber,slider-input,SelectedFrame,90,1687453218899,5f57aaeb5619fa2893adc008,5f57aaeb5619fa2893adc008,19,cup,filler,C,75,goal,GoalA,exp2trials,NULL
1687453479,34f516959c8e9a29a75f64220f02f6d8,PennController,22,0,experiment,NULL,PennController,21,_Trial_,End,1687453228798,5f57aaeb5619fa2893adc008,5f57aaeb5619fa2893adc008,19,cup,filler,C,75,goal,GoalA,exp2trials,NULL
1687453479,34f516959c8e9a29a75f64220f02f6d8,PennController,14,0,experiment,NULL,PennController,13,_Trial_,Start,1687453228800,5f57aaeb5619fa2893adc008,5f57aaeb5619fa2893adc008,11,beads,critical,C,25,goal,low,exp2trials,NULL
1687453479,34f516959c8e9a29a75f64220f02f6d8,PennController,14,0,experiment,NULL,PennController,13,_Header_,Start,1687453228800,5f57aaeb5619fa2893adc008,5f57aaeb5619fa2893adc008,11,beads,critical,C,25,goal,low,exp2trials,NULL
1687453479,34f516959c8e9a29a75f64220f02f6d8,PennController,14,0,experiment,NULL,PennController,13,_Header_,End,1687453228800,5f57aaeb5619fa2893adc008,5f57aaeb5619fa2893adc008,11,beads,critical,C,25,goal,low,exp2trials,NULL
1687453479,34f516959c8e9a29a75f64220f02f6d8,PennController,14,0,experiment,NULL,Video,progression,buffer,0.004427,1687453232328,5f57aaeb5619fa2893adc008,5f57aaeb5619fa2893adc008,11,beads,critical,C,25,goal,low,exp2trials,NULL
1687453479,34f516959c8e9a29a75f64220f02f6d8,PennController,14,0,experiment,NULL,VideoScrubber,slider-input,SelectedFrame,30,1687453234460,5f57aaeb5619fa2893adc008,5f57aaeb5619fa2893adc008,11,beads,critical,C,25,goal,low,exp2trials,NULL
1687453479,34f516959c8e9a29a75f64220f02f6d8,PennController,14,0,experiment,NULL,PennController,13,_Trial_,End,1687453237464,5f57aaeb5619fa2893adc008,5f57aaeb5619fa2893adc008,11,beads,critical,C,25,goal,low,exp2trials,NULL
1687453479,34f516959c8e9a29a75f64220f02f6d8,PennController,24,0,experiment,NULL,PennController,23,_Trial_,Start,1687453237465,5f57aaeb5619fa2893adc008,5f57aaeb5619fa2893adc008,21,visit,filler,C,50,goal,GoalA,exp2trials,NULL
1687453479,34f516959c8e9a29a75f64220f02f6d8,PennController,24,0,experiment,NULL,PennController,23,_Header_,Start,1687453237465,5f57aaeb5619fa2893adc008,5f57aaeb5619fa2893adc008,21,visit,filler,C,50,goal,GoalA,exp2trials,NULL
1687453479,34f516959c8e9a29a75f64220f02f6d8,PennController,24,0,experiment,NULL,PennController,23,_Header_,End,1687453237465,5f57aaeb5619fa2893adc008,5f57aaeb5619fa2893adc008,21,visit,filler,C,50,goal,GoalA,exp2trials,NULL
1687453479,34f516959c8e9a29a75f64220f02f6d8,PennController,24,0,experiment,NULL,Video,progression,buffer,0.007185,1687453240993,5f57aaeb5619fa2893adc008,5f57aaeb5619fa2893adc008,21,visit,filler,C,50,goal,GoalA,exp2trials,NULL
1687453479,34f516959c8e9a29a75f64220f02f6d8,PennController,24,0,experiment,NULL,VideoScrubber,slider-input,SelectedFrame,65,1687453244144,5f57aaeb5619fa2893adc008,5f57aaeb5619fa2893adc008,21,visit,filler,C,50,goal,GoalA,exp2trials,NULL
1687453479,34f516959c8e9a29a75f64220f02f6d8,PennController,24,0,experiment,NULL,PennController,23,_Trial_,End,1687453253726,5f57aaeb5619fa2893adc008,5f57aaeb5619fa2893adc008,21,visit,filler,C,50,goal,GoalA,exp2trials,NULL
1687453479,34f516959c8e9a29a75f64220f02f6d8,PennController,32,0,experiment,NULL,PennController,31,_Trial_,Start,1687453253728,5f57aaeb5619fa2893adc008,5f57aaeb5619fa2893adc008,29,frog,filler,C,25,goal,GoalA,exp2trials,NULL
1687453479,34f516959c8e9a29a75f64220f02f6d8,PennController,32,0,experiment,NULL,PennController,31,_Header_,Start,1687453253728,5f57aaeb5619fa2893adc008,5f57aaeb5619fa2893adc008,29,frog,filler,C,25,goal,GoalA,exp2trials,NULL
1687453479,34f516959c8e9a29a75f64220f02f6d8,PennController,32,0,experiment,NULL,PennController,31,_Header_,End,1687453253728,5f57aaeb5619fa2893adc008,5f57aaeb5619fa2893adc008,29,frog,filler,C,25,goal,GoalA,exp2trials,NULL
1687453479,34f516959c8e9a29a75f64220f02f6d8,PennController,32,0,experiment,NULL,Video,progression,buffer,0.003185,1687453257253,5f57aaeb5619fa2893adc008,5f57aaeb5619fa2893adc008,29,frog,filler,C,25,goal,GoalA,exp2trials,NULL
1687453479,34f516959c8e9a29a75f64220f02f6d8,PennController,32,0,experiment,NULL,VideoScrubber,slider-input,SelectedFrame,45,1687453259407,5f57aaeb5619fa2893adc008,5f57aaeb5619fa2893adc008,29,frog,filler,C,25,goal,GoalA,exp2trials,NULL
1687453479,34f516959c8e9a29a75f64220f02f6d8,PennController,32,0,experiment,NULL,PennController,31,_Trial_,End,1687453264080,5f57aaeb5619fa2893adc008,5f57aaeb5619fa2893adc008,29,frog,filler,C,25,goal,GoalA,exp2trials,NULL
1687453479,34f516959c8e9a29a75f64220f02f6d8,PennController,29,0,experiment,NULL,PennController,28,_Trial_,Start,1687453264081,5f57aaeb5619fa2893adc008,5f57aaeb5619fa2893adc008,26,sandwich,filler,C,25,goal,GoalB,exp2trials,NULL
1687453479,34f516959c8e9a29a75f64220f02f6d8,PennController,29,0,experiment,NULL,PennController,28,_Header_,Start,1687453264081,5f57aaeb5619fa2893adc008,5f57aaeb5619fa2893adc008,26,sandwich,filler,C,25,goal,GoalB,exp2trials,NULL
1687453479,34f516959c8e9a29a75f64220f02f6d8,PennController,29,0,experiment,NULL,PennController,28,_Header_,End,1687453264081,5f57aaeb5619fa2893adc008,5f57aaeb5619fa2893adc008,26,sandwich,filler,C,25,goal,GoalB,exp2trials,NULL
1687453479,34f516959c8e9a29a75f64220f02f6d8,PennController,29,0,experiment,NULL,Video,progression,buffer,0.004614,1687453267606,5f57aaeb5619fa2893adc008,5f57aaeb5619fa2893adc008,26,sandwich,filler,C,25,goal,GoalB,exp2trials,NULL
1687453479,34f516959c8e9a29a75f64220f02f6d8,PennController,29,0,experiment,NULL,VideoScrubber,slider-input,SelectedFrame,20,1687453269739,5f57aaeb5619fa2893adc008,5f57aaeb5619fa2893adc008,26,sandwich,filler,C,25,goal,GoalB,exp2trials,NULL
1687453479,34f516959c8e9a29a75f64220f02f6d8,PennController,29,0,experiment,NULL,PennController,28,_Trial_,End,1687453274881,5f57aaeb5619fa2893adc008,5f57aaeb5619fa2893adc008,26,sandwich,filler,C,25,goal,GoalB,exp2trials,NULL
1687453479,34f516959c8e9a29a75f64220f02f6d8,PennController,9,0,experiment,NULL,PennController,8,_Trial_,Start,1687453274883,5f57aaeb5619fa2893adc008,5f57aaeb5619fa2893adc008,6,flower,critical,C,50,goal,low,exp2trials,NULL
1687453479,34f516959c8e9a29a75f64220f02f6d8,PennController,9,0,experiment,NULL,PennController,8,_Header_,Start,1687453274883,5f57aaeb5619fa2893adc008,5f57aaeb5619fa2893adc008,6,flower,critical,C,50,goal,low,exp2trials,NULL
1687453479,34f516959c8e9a29a75f64220f02f6d8,PennController,9,0,experiment,NULL,PennController,8,_Header_,End,1687453274883,5f57aaeb5619fa2893adc008,5f57aaeb5619fa2893adc008,6,flower,critical,C,50,goal,low,exp2trials,NULL
1687453479,34f516959c8e9a29a75f64220f02f6d8,PennController,9,0,experiment,NULL,Video,progression,buffer,0.002902,1687453278405,5f57aaeb5619fa2893adc008,5f57aaeb5619fa2893adc008,6,flower,critical,C,50,goal,low,exp2trials,NULL
1687453479,34f516959c8e9a29a75f64220f02f6d8,PennController,9,0,experiment,NULL,VideoScrubber,slider-input,SelectedFrame,50,1687453281551,5f57aaeb5619fa2893adc008,5f57aaeb5619fa2893adc008,6,flower,critical,C,50,goal,low,exp2trials,NULL
1687453479,34f516959c8e9a29a75f64220f02f6d8,PennController,9,0,experiment,NULL,PennController,8,_Trial_,End,1687453285218,5f57aaeb5619fa2893adc008,5f57aaeb5619fa2893adc008,6,flower,critical,C,50,goal,low,exp2trials,NULL
1687453479,34f516959c8e9a29a75f64220f02f6d8,PennController,17,0,experiment,NULL,PennController,16,_Trial_,Start,1687453285219,5f57aaeb5619fa2893adc008,5f57aaeb5619fa2893adc008,14,cover,critical,C,25,goal,low,exp2trials,NULL
1687453479,34f516959c8e9a29a75f64220f02f6d8,PennController,17,0,experiment,NULL,PennController,16,_Header_,Start,1687453285219,5f57aaeb5619fa2893adc008,5f57aaeb5619fa2893adc008,14,cover,critical,C,25,goal,low,exp2trials,NULL
1687453479,34f516959c8e9a29a75f64220f02f6d8,PennController,17,0,experiment,NULL,PennController,16,_Header_,End,1687453285219,5f57aaeb5619fa2893adc008,5f57aaeb5619fa2893adc008,14,cover,critical,C,25,goal,low,exp2trials,NULL
1687453479,34f516959c8e9a29a75f64220f02f6d8,PennController,17,0,experiment,NULL,Video,progression,buffer,0.004377,1687453288748,5f57aaeb5619fa2893adc008,5f57aaeb5619fa2893adc008,14,cover,critical,C,25,goal,low,exp2trials,NULL
1687453479,34f516959c8e9a29a75f64220f02f6d8,PennController,17,0,experiment,NULL,VideoScrubber,slider-input,SelectedFrame,24,1687453291481,5f57aaeb5619fa2893adc008,5f57aaeb5619fa2893adc008,14,cover,critical,C,25,goal,low,exp2trials,NULL
1687453479,34f516959c8e9a29a75f64220f02f6d8,PennController,17,0,experiment,NULL,PennController,16,_Trial_,End,1687453296313,5f57aaeb5619fa2893adc008,5f57aaeb5619fa2893adc008,14,cover,critical,C,25,goal,low,exp2trials,NULL
1687453479,34f516959c8e9a29a75f64220f02f6d8,PennController,8,0,experiment,NULL,PennController,7,_Trial_,Start,1687453296315,5f57aaeb5619fa2893adc008,5f57aaeb5619fa2893adc008,5,book,critical,C,25,goal,low,exp2trials,NULL
1687453479,34f516959c8e9a29a75f64220f02f6d8,PennController,8,0,experiment,NULL,PennController,7,_Header_,Start,1687453296315,5f57aaeb5619fa2893adc008,5f57aaeb5619fa2893adc008,5,book,critical,C,25,goal,low,exp2trials,NULL
1687453479,34f516959c8e9a29a75f64220f02f6d8,PennController,8,0,experiment,NULL,PennController,7,_Header_,End,1687453296315,5f57aaeb5619fa2893adc008,5f57aaeb5619fa2893adc008,5,book,critical,C,25,goal,low,exp2trials,NULL
1687453479,34f516959c8e9a29a75f64220f02f6d8,PennController,8,0,experiment,NULL,Video,progression,buffer,0.003372,1687453299839,5f57aaeb5619fa2893adc008,5f57aaeb5619fa2893adc008,5,book,critical,C,25,goal,low,exp2trials,NULL
1687453479,34f516959c8e9a29a75f64220f02f6d8,PennController,8,0,experiment,NULL,VideoScrubber,slider-input,SelectedFrame,40,1687453301991,5f57aaeb5619fa2893adc008,5f57aaeb5619fa2893adc008,5,book,critical,C,25,goal,low,exp2trials,NULL
1687453479,34f516959c8e9a29a75f64220f02f6d8,PennController,8,0,experiment,NULL,PennController,7,_Trial_,End,1687453307427,5f57aaeb5619fa2893adc008,5f57aaeb5619fa2893adc008,5,book,critical,C,25,goal,low,exp2trials,NULL
1687453479,34f516959c8e9a29a75f64220f02f6d8,PennController,5,0,experiment,NULL,PennController,4,_Trial_,Start,1687453307429,5f57aaeb5619fa2893adc008,5f57aaeb5619fa2893adc008,2,door,critical,C,25,goal,low,exp2trials,NULL
1687453479,34f516959c8e9a29a75f64220f02f6d8,PennController,5,0,experiment,NULL,PennController,4,_Header_,Start,1687453307429,5f57aaeb5619fa2893adc008,5f57aaeb5619fa2893adc008,2,door,critical,C,25,goal,low,exp2trials,NULL
1687453479,34f516959c8e9a29a75f64220f02f6d8,PennController,5,0,experiment,NULL,PennController,4,_Header_,End,1687453307429,5f57aaeb5619fa2893adc008,5f57aaeb5619fa2893adc008,2,door,critical,C,25,goal,low,exp2trials,NULL
1687453479,34f516959c8e9a29a75f64220f02f6d8,PennController,5,0,experiment,NULL,Video,progression,buffer,0.0042,1687453310953,5f57aaeb5619fa2893adc008,5f57aaeb5619fa2893adc008,2,door,critical,C,25,goal,low,exp2trials,NULL
1687453479,34f516959c8e9a29a75f64220f02f6d8,PennController,5,0,experiment,NULL,VideoScrubber,slider-input,SelectedFrame,25,1687453313103,5f57aaeb5619fa2893adc008,5f57aaeb5619fa2893adc008,2,door,critical,C,25,goal,low,exp2trials,NULL
1687453479,34f516959c8e9a29a75f64220f02f6d8,PennController,5,0,experiment,NULL,PennController,4,_Trial_,End,1687453317532,5f57aaeb5619fa2893adc008,5f57aaeb5619fa2893adc008,2,door,critical,C,25,goal,low,exp2trials,NULL
1687453479,34f516959c8e9a29a75f64220f02f6d8,PennController,26,0,experiment,NULL,PennController,25,_Trial_,Start,1687453317534,5f57aaeb5619fa2893adc008,5f57aaeb5619fa2893adc008,23,color,filler,C,25,goal,GoalA,exp2trials,NULL
1687453479,34f516959c8e9a29a75f64220f02f6d8,PennController,26,0,experiment,NULL,PennController,25,_Header_,Start,1687453317534,5f57aaeb5619fa2893adc008,5f57aaeb5619fa2893adc008,23,color,filler,C,25,goal,GoalA,exp2trials,NULL
1687453479,34f516959c8e9a29a75f64220f02f6d8,PennController,26,0,experiment,NULL,PennController,25,_Header_,End,1687453317534,5f57aaeb5619fa2893adc008,5f57aaeb5619fa2893adc008,23,color,filler,C,25,goal,GoalA,exp2trials,NULL
1687453479,34f516959c8e9a29a75f64220f02f6d8,PennController,26,0,experiment,NULL,Video,progression,buffer,0.00347,1687453321055,5f57aaeb5619fa2893adc008,5f57aaeb5619fa2893adc008,23,color,filler,C,25,goal,GoalA,exp2trials,NULL
1687453479,34f516959c8e9a29a75f64220f02f6d8,PennController,26,0,experiment,NULL,VideoScrubber,slider-input,SelectedFrame,35,1687453323208,5f57aaeb5619fa2893adc008,5f57aaeb5619fa2893adc008,23,color,filler,C,25,goal,GoalA,exp2trials,NULL
1687453479,34f516959c8e9a29a75f64220f02f6d8,PennController,26,0,experiment,NULL,PennController,25,_Trial_,End,1687453327614,5f57aaeb5619fa2893adc008,5f57aaeb5619fa2893adc008,23,color,filler,C,25,goal,GoalA,exp2trials,NULL
1687453479,34f516959c8e9a29a75f64220f02f6d8,PennController,21,0,experiment,NULL,PennController,20,_Trial_,Start,1687453327615,5f57aaeb5619fa2893adc008,5f57aaeb5619fa2893adc008,18,ball,critical,C,50,goal,low,exp2trials,NULL
1687453479,34f516959c8e9a29a75f64220f02f6d8,PennController,21,0,experiment,NULL,PennController,20,_Header_,Start,1687453327615,5f57aaeb5619fa2893adc008,5f57aaeb5619fa2893adc008,18,ball,critical,C,50,goal,low,exp2trials,NULL
1687453479,34f516959c8e9a29a75f64220f02f6d8,PennController,21,0,experiment,NULL,PennController,20,_Header_,End,1687453327615,5f57aaeb5619fa2893adc008,5f57aaeb5619fa2893adc008,18,ball,critical,C,50,goal,low,exp2trials,NULL
1687453479,34f516959c8e9a29a75f64220f02f6d8,PennController,21,0,experiment,NULL,Video,progression,buffer,0.002961,1687453331143,5f57aaeb5619fa2893adc008,5f57aaeb5619fa2893adc008,18,ball,critical,C,50,goal,low,exp2trials,NULL
1687453479,34f516959c8e9a29a75f64220f02f6d8,PennController,21,0,experiment,NULL,VideoScrubber,slider-input,SelectedFrame,45,1687453334295,5f57aaeb5619fa2893adc008,5f57aaeb5619fa2893adc008,18,ball,critical,C,50,goal,low,exp2trials,NULL
1687453479,34f516959c8e9a29a75f64220f02f6d8,PennController,21,0,experiment,NULL,PennController,20,_Trial_,End,1687453338538,5f57aaeb5619fa2893adc008,5f57aaeb5619fa2893adc008,18,ball,critical,C,50,goal,low,exp2trials,NULL
1687453479,34f516959c8e9a29a75f64220f02f6d8,PennController,18,0,experiment,NULL,PennController,17,_Trial_,Start,1687453338539,5f57aaeb5619fa2893adc008,5f57aaeb5619fa2893adc008,15,zip,critical,C,50,goal,low,exp2trials,NULL
1687453479,34f516959c8e9a29a75f64220f02f6d8,PennController,18,0,experiment,NULL,PennController,17,_Header_,Start,1687453338539,5f57aaeb5619fa2893adc008,5f57aaeb5619fa2893adc008,15,zip,critical,C,50,goal,low,exp2trials,NULL
1687453479,34f516959c8e9a29a75f64220f02f6d8,PennController,18,0,experiment,NULL,PennController,17,_Header_,End,1687453338539,5f57aaeb5619fa2893adc008,5f57aaeb5619fa2893adc008,15,zip,critical,C,50,goal,low,exp2trials,NULL
1687453479,34f516959c8e9a29a75f64220f02f6d8,PennController,18,0,experiment,NULL,Video,progression,buffer,0.002455,1687453342061,5f57aaeb5619fa2893adc008,5f57aaeb5619fa2893adc008,15,zip,critical,C,50,goal,low,exp2trials,NULL
1687453479,34f516959c8e9a29a75f64220f02f6d8,PennController,18,0,experiment,NULL,VideoScrubber,slider-input,SelectedFrame,70,1687453345201,5f57aaeb5619fa2893adc008,5f57aaeb5619fa2893adc008,15,zip,critical,C,50,goal,low,exp2trials,NULL
1687453479,34f516959c8e9a29a75f64220f02f6d8,PennController,18,0,experiment,NULL,PennController,17,_Trial_,End,1687453348878,5f57aaeb5619fa2893adc008,5f57aaeb5619fa2893adc008,15,zip,critical,C,50,goal,low,exp2trials,NULL
1687453479,34f516959c8e9a29a75f64220f02f6d8,PennController,20,0,experiment,NULL,PennController,19,_Trial_,Start,1687453348879,5f57aaeb5619fa2893adc008,5f57aaeb5619fa2893adc008,17,roll,critical,C,25,goal,low,exp2trials,NULL
1687453479,34f516959c8e9a29a75f64220f02f6d8,PennController,20,0,experiment,NULL,PennController,19,_Header_,Start,1687453348879,5f57aaeb5619fa2893adc008,5f57aaeb5619fa2893adc008,17,roll,critical,C,25,goal,low,exp2trials,NULL
1687453479,34f516959c8e9a29a75f64220f02f6d8,PennController,20,0,experiment,NULL,PennController,19,_Header_,End,1687453348879,5f57aaeb5619fa2893adc008,5f57aaeb5619fa2893adc008,17,roll,critical,C,25,goal,low,exp2trials,NULL
1687453479,34f516959c8e9a29a75f64220f02f6d8,PennController,20,0,experiment,NULL,Video,progression,buffer,0.002955,1687453352395,5f57aaeb5619fa2893adc008,5f57aaeb5619fa2893adc008,17,roll,critical,C,25,goal,low,exp2trials,NULL
1687453479,34f516959c8e9a29a75f64220f02f6d8,PennController,20,0,experiment,NULL,VideoScrubber,slider-input,SelectedFrame,20,1687453354528,5f57aaeb5619fa2893adc008,5f57aaeb5619fa2893adc008,17,roll,critical,C,25,goal,low,exp2trials,NULL
1687453479,34f516959c8e9a29a75f64220f02f6d8,PennController,20,0,experiment,NULL,PennController,19,_Trial_,End,1687453357747,5f57aaeb5619fa2893adc008,5f57aaeb5619fa2893adc008,17,roll,critical,C,25,goal,low,exp2trials,NULL
1687453479,34f516959c8e9a29a75f64220f02f6d8,PennController,13,0,experiment,NULL,PennController,12,_Trial_,Start,1687453357748,5f57aaeb5619fa2893adc008,5f57aaeb5619fa2893adc008,10,train,critical,C,75,goal,low,exp2trials,NULL
1687453479,34f516959c8e9a29a75f64220f02f6d8,PennController,13,0,experiment,NULL,PennController,12,_Header_,Start,1687453357748,5f57aaeb5619fa2893adc008,5f57aaeb5619fa2893adc008,10,train,critical,C,75,goal,low,exp2trials,NULL
1687453479,34f516959c8e9a29a75f64220f02f6d8,PennController,13,0,experiment,NULL,PennController,12,_Header_,End,1687453357748,5f57aaeb5619fa2893adc008,5f57aaeb5619fa2893adc008,10,train,critical,C,75,goal,low,exp2trials,NULL
1687453479,34f516959c8e9a29a75f64220f02f6d8,PennController,13,0,experiment,NULL,Video,progression,buffer,0.002496,1687453361269,5f57aaeb5619fa2893adc008,5f57aaeb5619fa2893adc008,10,train,critical,C,75,goal,low,exp2trials,NULL
1687453479,34f516959c8e9a29a75f64220f02f6d8,PennController,13,0,experiment,NULL,VideoScrubber,slider-input,SelectedFrame,80,1687453365415,5f57aaeb5619fa2893adc008,5f57aaeb5619fa2893adc008,10,train,critical,C,75,goal,low,exp2trials,NULL
1687453479,34f516959c8e9a29a75f64220f02f6d8,PennController,13,0,experiment,NULL,PennController,12,_Trial_,End,1687453370221,5f57aaeb5619fa2893adc008,5f57aaeb5619fa2893adc008,10,train,critical,C,75,goal,low,exp2trials,NULL
1687453479,34f516959c8e9a29a75f64220f02f6d8,PennController,19,0,experiment,NULL,PennController,18,_Trial_,Start,1687453370222,5f57aaeb5619fa2893adc008,5f57aaeb5619fa2893adc008,16,blinds,critical,C,75,goal,low,exp2trials,NULL
1687453479,34f516959c8e9a29a75f64220f02f6d8,PennController,19,0,experiment,NULL,PennController,18,_Header_,Start,1687453370222,5f57aaeb5619fa2893adc008,5f57aaeb5619fa2893adc008,16,blinds,critical,C,75,goal,low,exp2trials,NULL
1687453479,34f516959c8e9a29a75f64220f02f6d8,PennController,19,0,experiment,NULL,PennController,18,_Header_,End,1687453370222,5f57aaeb5619fa2893adc008,5f57aaeb5619fa2893adc008,16,blinds,critical,C,75,goal,low,exp2trials,NULL
1687453479,34f516959c8e9a29a75f64220f02f6d8,PennController,19,0,experiment,NULL,Video,progression,buffer,0.002244,1687453373737,5f57aaeb5619fa2893adc008,5f57aaeb5619fa2893adc008,16,blinds,critical,C,75,goal,low,exp2trials,NULL
1687453479,34f516959c8e9a29a75f64220f02f6d8,PennController,19,0,experiment,NULL,VideoScrubber,slider-input,SelectedFrame,84,1687453379876,5f57aaeb5619fa2893adc008,5f57aaeb5619fa2893adc008,16,blinds,critical,C,75,goal,low,exp2trials,NULL
1687453479,34f516959c8e9a29a75f64220f02f6d8,PennController,19,0,experiment,NULL,PennController,18,_Trial_,End,1687453383450,5f57aaeb5619fa2893adc008,5f57aaeb5619fa2893adc008,16,blinds,critical,C,75,goal,low,exp2trials,NULL
1687453479,34f516959c8e9a29a75f64220f02f6d8,PennController,12,0,experiment,NULL,PennController,11,_Trial_,Start,1687453383451,5f57aaeb5619fa2893adc008,5f57aaeb5619fa2893adc008,9,cake,critical,C,50,goal,low,exp2trials,NULL
1687453479,34f516959c8e9a29a75f64220f02f6d8,PennController,12,0,experiment,NULL,PennController,11,_Header_,Start,1687453383451,5f57aaeb5619fa2893adc008,5f57aaeb5619fa2893adc008,9,cake,critical,C,50,goal,low,exp2trials,NULL
1687453479,34f516959c8e9a29a75f64220f02f6d8,PennController,12,0,experiment,NULL,PennController,11,_Header_,End,1687453383451,5f57aaeb5619fa2893adc008,5f57aaeb5619fa2893adc008,9,cake,critical,C,50,goal,low,exp2trials,NULL
1687453479,34f516959c8e9a29a75f64220f02f6d8,PennController,12,0,experiment,NULL,Video,progression,buffer,0.002455,1687453386967,5f57aaeb5619fa2893adc008,5f57aaeb5619fa2893adc008,9,cake,critical,C,50,goal,low,exp2trials,NULL
1687453479,34f516959c8e9a29a75f64220f02f6d8,PennController,12,0,experiment,NULL,VideoScrubber,slider-input,SelectedFrame,60,1687453391511,5f57aaeb5619fa2893adc008,5f57aaeb5619fa2893adc008,9,cake,critical,C,50,goal,low,exp2trials,NULL
1687453479,34f516959c8e9a29a75f64220f02f6d8,PennController,12,0,experiment,NULL,PennController,11,_Trial_,End,1687453398627,5f57aaeb5619fa2893adc008,5f57aaeb5619fa2893adc008,9,cake,critical,C,50,goal,low,exp2trials,NULL
1687453479,34f516959c8e9a29a75f64220f02f6d8,PennController,28,0,experiment,NULL,PennController,27,_Trial_,Start,1687453398628,5f57aaeb5619fa2893adc008,5f57aaeb5619fa2893adc008,25,house,filler,C,75,goal,GoalA,exp2trials,NULL
1687453479,34f516959c8e9a29a75f64220f02f6d8,PennController,28,0,experiment,NULL,PennController,27,_Header_,Start,1687453398628,5f57aaeb5619fa2893adc008,5f57aaeb5619fa2893adc008,25,house,filler,C,75,goal,GoalA,exp2trials,NULL
1687453479,34f516959c8e9a29a75f64220f02f6d8,PennController,28,0,experiment,NULL,PennController,27,_Header_,End,1687453398628,5f57aaeb5619fa2893adc008,5f57aaeb5619fa2893adc008,25,house,filler,C,75,goal,GoalA,exp2trials,NULL
1687453479,34f516959c8e9a29a75f64220f02f6d8,PennController,28,0,experiment,NULL,Video,progression,buffer,0.002206,1687453402147,5f57aaeb5619fa2893adc008,5f57aaeb5619fa2893adc008,25,house,filler,C,75,goal,GoalA,exp2trials,NULL
1687453479,34f516959c8e9a29a75f64220f02f6d8,PennController,28,0,experiment,NULL,VideoScrubber,slider-input,SelectedFrame,65,1687453406297,5f57aaeb5619fa2893adc008,5f57aaeb5619fa2893adc008,25,house,filler,C,75,goal,GoalA,exp2trials,NULL
1687453479,34f516959c8e9a29a75f64220f02f6d8,PennController,28,0,experiment,NULL,PennController,27,_Trial_,End,1687453407972,5f57aaeb5619fa2893adc008,5f57aaeb5619fa2893adc008,25,house,filler,C,75,goal,GoalA,exp2trials,NULL
1687453479,34f516959c8e9a29a75f64220f02f6d8,PennController,4,0,experiment,NULL,PennController,3,_Trial_,Start,1687453407973,5f57aaeb5619fa2893adc008,5f57aaeb5619fa2893adc008,1,vase,critical,C,75,goal,low,exp2trials,NULL
1687453479,34f516959c8e9a29a75f64220f02f6d8,PennController,4,0,experiment,NULL,PennController,3,_Header_,Start,1687453407973,5f57aaeb5619fa2893adc008,5f57aaeb5619fa2893adc008,1,vase,critical,C,75,goal,low,exp2trials,NULL
1687453479,34f516959c8e9a29a75f64220f02f6d8,PennController,4,0,experiment,NULL,PennController,3,_Header_,End,1687453407973,5f57aaeb5619fa2893adc008,5f57aaeb5619fa2893adc008,1,vase,critical,C,75,goal,low,exp2trials,NULL
1687453479,34f516959c8e9a29a75f64220f02f6d8,PennController,4,0,experiment,NULL,Video,progression,buffer,0.002199,1687453411489,5f57aaeb5619fa2893adc008,5f57aaeb5619fa2893adc008,1,vase,critical,C,75,goal,low,exp2trials,NULL
1687453479,34f516959c8e9a29a75f64220f02f6d8,PennController,4,0,experiment,NULL,VideoScrubber,slider-input,SelectedFrame,50,1687453415630,5f57aaeb5619fa2893adc008,5f57aaeb5619fa2893adc008,1,vase,critical,C,75,goal,low,exp2trials,NULL
1687453479,34f516959c8e9a29a75f64220f02f6d8,PennController,4,0,experiment,NULL,PennController,3,_Trial_,End,1687453418819,5f57aaeb5619fa2893adc008,5f57aaeb5619fa2893adc008,1,vase,critical,C,75,goal,low,exp2trials,NULL
1687453479,34f516959c8e9a29a75f64220f02f6d8,PennController,23,0,experiment,NULL,PennController,22,_Trial_,Start,1687453418821,5f57aaeb5619fa2893adc008,5f57aaeb5619fa2893adc008,20,cat,filler,C,25,goal,GoalB,exp2trials,NULL
1687453479,34f516959c8e9a29a75f64220f02f6d8,PennController,23,0,experiment,NULL,PennController,22,_Header_,Start,1687453418821,5f57aaeb5619fa2893adc008,5f57aaeb5619fa2893adc008,20,cat,filler,C,25,goal,GoalB,exp2trials,NULL
1687453479,34f516959c8e9a29a75f64220f02f6d8,PennController,23,0,experiment,NULL,PennController,22,_Header_,End,1687453418821,5f57aaeb5619fa2893adc008,5f57aaeb5619fa2893adc008,20,cat,filler,C,25,goal,GoalB,exp2trials,NULL
1687453479,34f516959c8e9a29a75f64220f02f6d8,PennController,23,0,experiment,NULL,Video,progression,buffer,0.002098,1687453422345,5f57aaeb5619fa2893adc008,5f57aaeb5619fa2893adc008,20,cat,filler,C,25,goal,GoalB,exp2trials,NULL
1687453479,34f516959c8e9a29a75f64220f02f6d8,PennController,23,0,experiment,NULL,VideoScrubber,slider-input,SelectedFrame,25,1687453424487,5f57aaeb5619fa2893adc008,5f57aaeb5619fa2893adc008,20,cat,filler,C,25,goal,GoalB,exp2trials,NULL
1687453479,34f516959c8e9a29a75f64220f02f6d8,PennController,23,0,experiment,NULL,PennController,22,_Trial_,End,1687453428557,5f57aaeb5619fa2893adc008,5f57aaeb5619fa2893adc008,20,cat,filler,C,25,goal,GoalB,exp2trials,NULL
1687453479,34f516959c8e9a29a75f64220f02f6d8,PennController,31,0,experiment,NULL,PennController,30,_Trial_,Start,1687453428558,5f57aaeb5619fa2893adc008,5f57aaeb5619fa2893adc008,28,sort,filler,C,75,goal,GoalB,exp2trials,NULL
1687453479,34f516959c8e9a29a75f64220f02f6d8,PennController,31,0,experiment,NULL,PennController,30,_Header_,Start,1687453428558,5f57aaeb5619fa2893adc008,5f57aaeb5619fa2893adc008,28,sort,filler,C,75,goal,GoalB,exp2trials,NULL
1687453479,34f516959c8e9a29a75f64220f02f6d8,PennController,31,0,experiment,NULL,PennController,30,_Header_,End,1687453428558,5f57aaeb5619fa2893adc008,5f57aaeb5619fa2893adc008,28,sort,filler,C,75,goal,GoalB,exp2trials,NULL
1687453479,34f516959c8e9a29a75f64220f02f6d8,PennController,31,0,experiment,NULL,Video,progression,buffer,0.002166,1687453432073,5f57aaeb5619fa2893adc008,5f57aaeb5619fa2893adc008,28,sort,filler,C,75,goal,GoalB,exp2trials,NULL
1687453479,34f516959c8e9a29a75f64220f02f6d8,PennController,31,0,experiment,NULL,VideoScrubber,slider-input,SelectedFrame,70,1687453436222,5f57aaeb5619fa2893adc008,5f57aaeb5619fa2893adc008,28,sort,filler,C,75,goal,GoalB,exp2trials,NULL
1687453479,34f516959c8e9a29a75f64220f02f6d8,PennController,31,0,experiment,NULL,PennController,30,_Trial_,End,1687453441597,5f57aaeb5619fa2893adc008,5f57aaeb5619fa2893adc008,28,sort,filler,C,75,goal,GoalB,exp2trials,NULL
1687453479,34f516959c8e9a29a75f64220f02f6d8,PennController,27,0,experiment,NULL,PennController,26,_Trial_,Start,1687453441598,5f57aaeb5619fa2893adc008,5f57aaeb5619fa2893adc008,24,match,filler,C,50,goal,GoalB,exp2trials,NULL
1687453479,34f516959c8e9a29a75f64220f02f6d8,PennController,27,0,experiment,NULL,PennController,26,_Header_,Start,1687453441598,5f57aaeb5619fa2893adc008,5f57aaeb5619fa2893adc008,24,match,filler,C,50,goal,GoalB,exp2trials,NULL
1687453479,34f516959c8e9a29a75f64220f02f6d8,PennController,27,0,experiment,NULL,PennController,26,_Header_,End,1687453441598,5f57aaeb5619fa2893adc008,5f57aaeb5619fa2893adc008,24,match,filler,C,50,goal,GoalB,exp2trials,NULL
1687453479,34f516959c8e9a29a75f64220f02f6d8,PennController,27,0,experiment,NULL,Video,progression,buffer,0.002345,1687453445112,5f57aaeb5619fa2893adc008,5f57aaeb5619fa2893adc008,24,match,filler,C,50,goal,GoalB,exp2trials,NULL
1687453479,34f516959c8e9a29a75f64220f02f6d8,PennController,27,0,experiment,NULL,VideoScrubber,slider-input,SelectedFrame,50,1687453448258,5f57aaeb5619fa2893adc008,5f57aaeb5619fa2893adc008,24,match,filler,C,50,goal,GoalB,exp2trials,NULL
1687453479,34f516959c8e9a29a75f64220f02f6d8,PennController,27,0,experiment,NULL,PennController,26,_Trial_,End,1687453452878,5f57aaeb5619fa2893adc008,5f57aaeb5619fa2893adc008,24,match,filler,C,50,goal,GoalB,exp2trials,NULL
1687453479,34f516959c8e9a29a75f64220f02f6d8,PennController,30,0,experiment,NULL,PennController,29,_Trial_,Start,1687453452879,5f57aaeb5619fa2893adc008,5f57aaeb5619fa2893adc008,27,square,filler,C,50,goal,GoalA,exp2trials,NULL
1687453479,34f516959c8e9a29a75f64220f02f6d8,PennController,30,0,experiment,NULL,PennController,29,_Header_,Start,1687453452879,5f57aaeb5619fa2893adc008,5f57aaeb5619fa2893adc008,27,square,filler,C,50,goal,GoalA,exp2trials,NULL
1687453479,34f516959c8e9a29a75f64220f02f6d8,PennController,30,0,experiment,NULL,PennController,29,_Header_,End,1687453452879,5f57aaeb5619fa2893adc008,5f57aaeb5619fa2893adc008,27,square,filler,C,50,goal,GoalA,exp2trials,NULL
1687453479,34f516959c8e9a29a75f64220f02f6d8,PennController,30,0,experiment,NULL,Video,progression,buffer,0.002257,1687453456399,5f57aaeb5619fa2893adc008,5f57aaeb5619fa2893adc008,27,square,filler,C,50,goal,GoalA,exp2trials,NULL
1687453479,34f516959c8e9a29a75f64220f02f6d8,PennController,30,0,experiment,NULL,VideoScrubber,slider-input,SelectedFrame,60,1687453459543,5f57aaeb5619fa2893adc008,5f57aaeb5619fa2893adc008,27,square,filler,C,50,goal,GoalA,exp2trials,NULL
1687453479,34f516959c8e9a29a75f64220f02f6d8,PennController,30,0,experiment,NULL,PennController,29,_Trial_,End,1687453464699,5f57aaeb5619fa2893adc008,5f57aaeb5619fa2893adc008,27,square,filler,C,50,goal,GoalA,exp2trials,NULL
1687453479,34f516959c8e9a29a75f64220f02f6d8,PennController,25,0,experiment,NULL,PennController,24,_Trial_,Start,1687453464700,5f57aaeb5619fa2893adc008,5f57aaeb5619fa2893adc008,22,wall,filler,C,75,goal,GoalB,exp2trials,NULL
1687453479,34f516959c8e9a29a75f64220f02f6d8,PennController,25,0,experiment,NULL,PennController,24,_Header_,Start,1687453464700,5f57aaeb5619fa2893adc008,5f57aaeb5619fa2893adc008,22,wall,filler,C,75,goal,GoalB,exp2trials,NULL
1687453479,34f516959c8e9a29a75f64220f02f6d8,PennController,25,0,experiment,NULL,PennController,24,_Header_,End,1687453464700,5f57aaeb5619fa2893adc008,5f57aaeb5619fa2893adc008,22,wall,filler,C,75,goal,GoalB,exp2trials,NULL
1687453479,34f516959c8e9a29a75f64220f02f6d8,PennController,25,0,experiment,NULL,Video,progression,buffer,0.004512,1687453468220,5f57aaeb5619fa2893adc008,5f57aaeb5619fa2893adc008,22,wall,filler,C,75,goal,GoalB,exp2trials,NULL
1687453479,34f516959c8e9a29a75f64220f02f6d8,PennController,25,0,experiment,NULL,VideoScrubber,slider-input,SelectedFrame,75,1687453472351,5f57aaeb5619fa2893adc008,5f57aaeb5619fa2893adc008,22,wall,filler,C,75,goal,GoalB,exp2trials,NULL
1687453479,34f516959c8e9a29a75f64220f02f6d8,PennController,25,0,experiment,NULL,PennController,24,_Trial_,End,1687453478516,5f57aaeb5619fa2893adc008,5f57aaeb5619fa2893adc008,22,wall,filler,C,75,goal,GoalB,exp2trials,NULL
