#
# Results on Thursday June 22 2023 17:07:15 UTC
# USER AGENT: Mozilla/5.0 (Windows NT 10.0; Win64; x64) AppleWebKit/537.36 (KHTML, like Gecko) Chrome/114.0.0.0 Safari/537.36
# Design number was non-random = 122
#
# Columns below this comment are as follows:
# 1. Results reception time.
# 2. MD5 hash of participant's IP address.
# 3. Controller name.
# 4. Order number of item.
# 5. Inner element number.
# 6. Label.
# 7. Latin Square Group.
# 8. PennElementType.
# 9. PennElementName.
# 10. Parameter.
# 11. Value.
# 12. EventTime.
# 13. ProlificID.
# 14. Comments.
1687453635,d191cf9fbe145787641f843db414ecc5,PennController,2,0,consent,NULL,PennController,0,_Trial_,Start,1687453193209,611d49d12910d7a7b27e5d31,NULL
1687453635,d191cf9fbe145787641f843db414ecc5,PennController,2,0,consent,NULL,PennController,0,_Header_,Start,1687453193209,611d49d12910d7a7b27e5d31,NULL
1687453635,d191cf9fbe145787641f843db414ecc5,PennController,2,0,consent,NULL,PennController,0,_Header_,End,1687453193209,611d49d12910d7a7b27e5d31,NULL
1687453635,d191cf9fbe145787641f843db414ecc5,PennController,2,0,consent,NULL,PennController,0,_Trial_,End,1687453207068,611d49d12910d7a7b27e5d31,NULL
# Columns below this comment are as follows:
# 14. ID.
# 15. Comments.
1687453635,d191cf9fbe145787641f843db414ecc5,PennController,3,0,intro,NULL,PennController,1,_Trial_,Start,1687453207070,611d49d12910d7a7b27e5d31,611d49d12910d7a7b27e5d31,NULL
1687453635,d191cf9fbe145787641f843db414ecc5,PennController,3,0,intro,NULL,PennController,1,_Header_,Start,1687453207070,611d49d12910d7a7b27e5d31,611d49d12910d7a7b27e5d31,NULL
1687453635,d191cf9fbe145787641f843db414ecc5,PennController,3,0,intro,NULL,PennController,1,_Header_,End,1687453207070,611d49d12910d7a7b27e5d31,611d49d12910d7a7b27e5d31,NULL
1687453635,d191cf9fbe145787641f843db414ecc5,PennController,3,0,intro,NULL,PennController,1,_Trial_,End,1687453210323,611d49d12910d7a7b27e5d31,611d49d12910d7a7b27e5d31,NULL
# Columns below this comment are as follows:
# 15. item_number.
# 16. item.
# 17. type.
# 18. Group.
# 19. prog.
# 20. condition.
# 21. height.
# 22. exp2trials.
# 23. Comments.
1687453635,d191cf9fbe145787641f843db414ecc5,PennController,14,0,experiment,NULL,PennController,13,_Trial_,Start,1687453210325,611d49d12910d7a7b27e5d31,611d49d12910d7a7b27e5d31,11,beads,critical,F,25,goal,high,exp2trials,NULL
1687453635,d191cf9fbe145787641f843db414ecc5,PennController,14,0,experiment,NULL,PennController,13,_Header_,Start,1687453210325,611d49d12910d7a7b27e5d31,611d49d12910d7a7b27e5d31,11,beads,critical,F,25,goal,high,exp2trials,NULL
1687453635,d191cf9fbe145787641f843db414ecc5,PennController,14,0,experiment,NULL,PennController,13,_Header_,End,1687453210325,611d49d12910d7a7b27e5d31,611d49d12910d7a7b27e5d31,11,beads,critical,F,25,goal,high,exp2trials,NULL
1687453635,d191cf9fbe145787641f843db414ecc5,PennController,14,0,experiment,NULL,Video,progression,buffer,0.005004,1687453213852,611d49d12910d7a7b27e5d31,611d49d12910d7a7b27e5d31,11,beads,critical,F,25,goal,high,exp2trials,NULL
1687453635,d191cf9fbe145787641f843db414ecc5,PennController,14,0,experiment,NULL,VideoScrubber,slider-input,SelectedFrame,20,1687453216031,611d49d12910d7a7b27e5d31,611d49d12910d7a7b27e5d31,11,beads,critical,F,25,goal,high,exp2trials,NULL
1687453635,d191cf9fbe145787641f843db414ecc5,PennController,14,0,experiment,NULL,PennController,13,_Trial_,End,1687453221048,611d49d12910d7a7b27e5d31,611d49d12910d7a7b27e5d31,11,beads,critical,F,25,goal,high,exp2trials,NULL
1687453635,d191cf9fbe145787641f843db414ecc5,PennController,7,0,experiment,NULL,PennController,6,_Trial_,Start,1687453221051,611d49d12910d7a7b27e5d31,611d49d12910d7a7b27e5d31,4,candy,critical,F,75,goal,high,exp2trials,NULL
1687453635,d191cf9fbe145787641f843db414ecc5,PennController,7,0,experiment,NULL,PennController,6,_Header_,Start,1687453221051,611d49d12910d7a7b27e5d31,611d49d12910d7a7b27e5d31,4,candy,critical,F,75,goal,high,exp2trials,NULL
1687453635,d191cf9fbe145787641f843db414ecc5,PennController,7,0,experiment,NULL,PennController,6,_Header_,End,1687453221051,611d49d12910d7a7b27e5d31,611d49d12910d7a7b27e5d31,4,candy,critical,F,75,goal,high,exp2trials,NULL
1687453635,d191cf9fbe145787641f843db414ecc5,PennController,7,0,experiment,NULL,Video,progression,buffer,0.013195,1687453224594,611d49d12910d7a7b27e5d31,611d49d12910d7a7b27e5d31,4,candy,critical,F,75,goal,high,exp2trials,NULL
1687453635,d191cf9fbe145787641f843db414ecc5,PennController,7,0,experiment,NULL,VideoScrubber,slider-input,SelectedFrame,80,1687453228760,611d49d12910d7a7b27e5d31,611d49d12910d7a7b27e5d31,4,candy,critical,F,75,goal,high,exp2trials,NULL
1687453635,d191cf9fbe145787641f843db414ecc5,PennController,7,0,experiment,NULL,PennController,6,_Trial_,End,1687453230577,611d49d12910d7a7b27e5d31,611d49d12910d7a7b27e5d31,4,candy,critical,F,75,goal,high,exp2trials,NULL
1687453635,d191cf9fbe145787641f843db414ecc5,PennController,32,0,experiment,NULL,PennController,31,_Trial_,Start,1687453230580,611d49d12910d7a7b27e5d31,611d49d12910d7a7b27e5d31,29,frog,filler,F,25,goal,GoalB,exp2trials,NULL
1687453635,d191cf9fbe145787641f843db414ecc5,PennController,32,0,experiment,NULL,PennController,31,_Header_,Start,1687453230580,611d49d12910d7a7b27e5d31,611d49d12910d7a7b27e5d31,29,frog,filler,F,25,goal,GoalB,exp2trials,NULL
1687453635,d191cf9fbe145787641f843db414ecc5,PennController,32,0,experiment,NULL,PennController,31,_Header_,End,1687453230580,611d49d12910d7a7b27e5d31,611d49d12910d7a7b27e5d31,29,frog,filler,F,25,goal,GoalB,exp2trials,NULL
1687453635,d191cf9fbe145787641f843db414ecc5,PennController,32,0,experiment,NULL,Video,progression,buffer,0.010322,1687453234113,611d49d12910d7a7b27e5d31,611d49d12910d7a7b27e5d31,29,frog,filler,F,25,goal,GoalB,exp2trials,NULL
1687453635,d191cf9fbe145787641f843db414ecc5,PennController,32,0,experiment,NULL,VideoScrubber,slider-input,SelectedFrame,25,1687453236279,611d49d12910d7a7b27e5d31,611d49d12910d7a7b27e5d31,29,frog,filler,F,25,goal,GoalB,exp2trials,NULL
1687453635,d191cf9fbe145787641f843db414ecc5,PennController,32,0,experiment,NULL,PennController,31,_Trial_,End,1687453242673,611d49d12910d7a7b27e5d31,611d49d12910d7a7b27e5d31,29,frog,filler,F,25,goal,GoalB,exp2trials,NULL
1687453635,d191cf9fbe145787641f843db414ecc5,PennController,26,0,experiment,NULL,PennController,25,_Trial_,Start,1687453242675,611d49d12910d7a7b27e5d31,611d49d12910d7a7b27e5d31,23,color,filler,F,25,goal,GoalB,exp2trials,NULL
1687453635,d191cf9fbe145787641f843db414ecc5,PennController,26,0,experiment,NULL,PennController,25,_Header_,Start,1687453242675,611d49d12910d7a7b27e5d31,611d49d12910d7a7b27e5d31,23,color,filler,F,25,goal,GoalB,exp2trials,NULL
1687453635,d191cf9fbe145787641f843db414ecc5,PennController,26,0,experiment,NULL,PennController,25,_Header_,End,1687453242675,611d49d12910d7a7b27e5d31,611d49d12910d7a7b27e5d31,23,color,filler,F,25,goal,GoalB,exp2trials,NULL
1687453635,d191cf9fbe145787641f843db414ecc5,PennController,26,0,experiment,NULL,Video,progression,buffer,0.006012,1687453246206,611d49d12910d7a7b27e5d31,611d49d12910d7a7b27e5d31,23,color,filler,F,25,goal,GoalB,exp2trials,NULL
1687453635,d191cf9fbe145787641f843db414ecc5,PennController,26,0,experiment,NULL,VideoScrubber,slider-input,SelectedFrame,25,1687453248375,611d49d12910d7a7b27e5d31,611d49d12910d7a7b27e5d31,23,color,filler,F,25,goal,GoalB,exp2trials,NULL
1687453635,d191cf9fbe145787641f843db414ecc5,PennController,26,0,experiment,NULL,PennController,25,_Trial_,End,1687453255855,611d49d12910d7a7b27e5d31,611d49d12910d7a7b27e5d31,23,color,filler,F,25,goal,GoalB,exp2trials,NULL
1687453635,d191cf9fbe145787641f843db414ecc5,PennController,22,0,experiment,NULL,PennController,21,_Trial_,Start,1687453255858,611d49d12910d7a7b27e5d31,611d49d12910d7a7b27e5d31,19,cup,filler,F,75,goal,GoalB,exp2trials,NULL
1687453635,d191cf9fbe145787641f843db414ecc5,PennController,22,0,experiment,NULL,PennController,21,_Header_,Start,1687453255858,611d49d12910d7a7b27e5d31,611d49d12910d7a7b27e5d31,19,cup,filler,F,75,goal,GoalB,exp2trials,NULL
1687453635,d191cf9fbe145787641f843db414ecc5,PennController,22,0,experiment,NULL,PennController,21,_Header_,End,1687453255858,611d49d12910d7a7b27e5d31,611d49d12910d7a7b27e5d31,19,cup,filler,F,75,goal,GoalB,exp2trials,NULL
1687453635,d191cf9fbe145787641f843db414ecc5,PennController,22,0,experiment,NULL,Video,progression,buffer,0.004414,1687453259389,611d49d12910d7a7b27e5d31,611d49d12910d7a7b27e5d31,19,cup,filler,F,75,goal,GoalB,exp2trials,NULL
1687453635,d191cf9fbe145787641f843db414ecc5,PennController,22,0,experiment,NULL,VideoScrubber,slider-input,SelectedFrame,55,1687453263562,611d49d12910d7a7b27e5d31,611d49d12910d7a7b27e5d31,19,cup,filler,F,75,goal,GoalB,exp2trials,NULL
1687453635,d191cf9fbe145787641f843db414ecc5,PennController,22,0,experiment,NULL,PennController,21,_Trial_,End,1687453275990,611d49d12910d7a7b27e5d31,611d49d12910d7a7b27e5d31,19,cup,filler,F,75,goal,GoalB,exp2trials,NULL
1687453635,d191cf9fbe145787641f843db414ecc5,PennController,23,0,experiment,NULL,PennController,22,_Trial_,Start,1687453275992,611d49d12910d7a7b27e5d31,611d49d12910d7a7b27e5d31,20,cat,filler,F,25,goal,GoalA,exp2trials,NULL
1687453635,d191cf9fbe145787641f843db414ecc5,PennController,23,0,experiment,NULL,PennController,22,_Header_,Start,1687453275992,611d49d12910d7a7b27e5d31,611d49d12910d7a7b27e5d31,20,cat,filler,F,25,goal,GoalA,exp2trials,NULL
1687453635,d191cf9fbe145787641f843db414ecc5,PennController,23,0,experiment,NULL,PennController,22,_Header_,End,1687453275992,611d49d12910d7a7b27e5d31,611d49d12910d7a7b27e5d31,20,cat,filler,F,25,goal,GoalA,exp2trials,NULL
1687453635,d191cf9fbe145787641f843db414ecc5,PennController,23,0,experiment,NULL,Video,progression,buffer,0.007728,1687453279520,611d49d12910d7a7b27e5d31,611d49d12910d7a7b27e5d31,20,cat,filler,F,25,goal,GoalA,exp2trials,NULL
1687453635,d191cf9fbe145787641f843db414ecc5,PennController,23,0,experiment,NULL,VideoScrubber,slider-input,SelectedFrame,25,1687453281689,611d49d12910d7a7b27e5d31,611d49d12910d7a7b27e5d31,20,cat,filler,F,25,goal,GoalA,exp2trials,NULL
1687453635,d191cf9fbe145787641f843db414ecc5,PennController,23,0,experiment,NULL,PennController,22,_Trial_,End,1687453286985,611d49d12910d7a7b27e5d31,611d49d12910d7a7b27e5d31,20,cat,filler,F,25,goal,GoalA,exp2trials,NULL
1687453635,d191cf9fbe145787641f843db414ecc5,PennController,24,0,experiment,NULL,PennController,23,_Trial_,Start,1687453286987,611d49d12910d7a7b27e5d31,611d49d12910d7a7b27e5d31,21,visit,filler,F,50,goal,GoalB,exp2trials,NULL
1687453635,d191cf9fbe145787641f843db414ecc5,PennController,24,0,experiment,NULL,PennController,23,_Header_,Start,1687453286987,611d49d12910d7a7b27e5d31,611d49d12910d7a7b27e5d31,21,visit,filler,F,50,goal,GoalB,exp2trials,NULL
1687453635,d191cf9fbe145787641f843db414ecc5,PennController,24,0,experiment,NULL,PennController,23,_Header_,End,1687453286987,611d49d12910d7a7b27e5d31,611d49d12910d7a7b27e5d31,21,visit,filler,F,50,goal,GoalB,exp2trials,NULL
1687453635,d191cf9fbe145787641f843db414ecc5,PennController,24,0,experiment,NULL,Video,progression,buffer,0.005017,1687453290513,611d49d12910d7a7b27e5d31,611d49d12910d7a7b27e5d31,21,visit,filler,F,50,goal,GoalB,exp2trials,NULL
1687453635,d191cf9fbe145787641f843db414ecc5,PennController,24,0,experiment,NULL,VideoScrubber,slider-input,SelectedFrame,55,1687453293672,611d49d12910d7a7b27e5d31,611d49d12910d7a7b27e5d31,21,visit,filler,F,50,goal,GoalB,exp2trials,NULL
1687453635,d191cf9fbe145787641f843db414ecc5,PennController,24,0,experiment,NULL,PennController,23,_Trial_,End,1687453297793,611d49d12910d7a7b27e5d31,611d49d12910d7a7b27e5d31,21,visit,filler,F,50,goal,GoalB,exp2trials,NULL
1687453635,d191cf9fbe145787641f843db414ecc5,PennController,11,0,experiment,NULL,PennController,10,_Trial_,Start,1687453297794,611d49d12910d7a7b27e5d31,611d49d12910d7a7b27e5d31,8,cucumber,critical,F,25,goal,high,exp2trials,NULL
1687453635,d191cf9fbe145787641f843db414ecc5,PennController,11,0,experiment,NULL,PennController,10,_Header_,Start,1687453297794,611d49d12910d7a7b27e5d31,611d49d12910d7a7b27e5d31,8,cucumber,critical,F,25,goal,high,exp2trials,NULL
1687453635,d191cf9fbe145787641f843db414ecc5,PennController,11,0,experiment,NULL,PennController,10,_Header_,End,1687453297794,611d49d12910d7a7b27e5d31,611d49d12910d7a7b27e5d31,8,cucumber,critical,F,25,goal,high,exp2trials,NULL
1687453635,d191cf9fbe145787641f843db414ecc5,PennController,11,0,experiment,NULL,Video,progression,buffer,0.008242,1687453301324,611d49d12910d7a7b27e5d31,611d49d12910d7a7b27e5d31,8,cucumber,critical,F,25,goal,high,exp2trials,NULL
1687453635,d191cf9fbe145787641f843db414ecc5,PennController,11,0,experiment,NULL,VideoScrubber,slider-input,SelectedFrame,21,1687453304092,611d49d12910d7a7b27e5d31,611d49d12910d7a7b27e5d31,8,cucumber,critical,F,25,goal,high,exp2trials,NULL
1687453635,d191cf9fbe145787641f843db414ecc5,PennController,11,0,experiment,NULL,PennController,10,_Trial_,End,1687453310622,611d49d12910d7a7b27e5d31,611d49d12910d7a7b27e5d31,8,cucumber,critical,F,25,goal,high,exp2trials,NULL
1687453635,d191cf9fbe145787641f843db414ecc5,PennController,20,0,experiment,NULL,PennController,19,_Trial_,Start,1687453310624,611d49d12910d7a7b27e5d31,611d49d12910d7a7b27e5d31,17,roll,critical,F,25,goal,high,exp2trials,NULL
1687453635,d191cf9fbe145787641f843db414ecc5,PennController,20,0,experiment,NULL,PennController,19,_Header_,Start,1687453310624,611d49d12910d7a7b27e5d31,611d49d12910d7a7b27e5d31,17,roll,critical,F,25,goal,high,exp2trials,NULL
1687453635,d191cf9fbe145787641f843db414ecc5,PennController,20,0,experiment,NULL,PennController,19,_Header_,End,1687453310624,611d49d12910d7a7b27e5d31,611d49d12910d7a7b27e5d31,17,roll,critical,F,25,goal,high,exp2trials,NULL
1687453635,d191cf9fbe145787641f843db414ecc5,PennController,20,0,experiment,NULL,Video,progression,buffer,0.004995,1687453314145,611d49d12910d7a7b27e5d31,611d49d12910d7a7b27e5d31,17,roll,critical,F,25,goal,high,exp2trials,NULL
1687453635,d191cf9fbe145787641f843db414ecc5,PennController,20,0,experiment,NULL,VideoScrubber,slider-input,SelectedFrame,25,1687453316306,611d49d12910d7a7b27e5d31,611d49d12910d7a7b27e5d31,17,roll,critical,F,25,goal,high,exp2trials,NULL
1687453635,d191cf9fbe145787641f843db414ecc5,PennController,20,0,experiment,NULL,PennController,19,_Trial_,End,1687453322349,611d49d12910d7a7b27e5d31,611d49d12910d7a7b27e5d31,17,roll,critical,F,25,goal,high,exp2trials,NULL
1687453635,d191cf9fbe145787641f843db414ecc5,PennController,25,0,experiment,NULL,PennController,24,_Trial_,Start,1687453322350,611d49d12910d7a7b27e5d31,611d49d12910d7a7b27e5d31,22,wall,filler,F,75,goal,GoalA,exp2trials,NULL
1687453635,d191cf9fbe145787641f843db414ecc5,PennController,25,0,experiment,NULL,PennController,24,_Header_,Start,1687453322350,611d49d12910d7a7b27e5d31,611d49d12910d7a7b27e5d31,22,wall,filler,F,75,goal,GoalA,exp2trials,NULL
1687453635,d191cf9fbe145787641f843db414ecc5,PennController,25,0,experiment,NULL,PennController,24,_Header_,End,1687453322350,611d49d12910d7a7b27e5d31,611d49d12910d7a7b27e5d31,22,wall,filler,F,75,goal,GoalA,exp2trials,NULL
1687453635,d191cf9fbe145787641f843db414ecc5,PennController,25,0,experiment,NULL,Video,progression,buffer,0.0089,1687453325885,611d49d12910d7a7b27e5d31,611d49d12910d7a7b27e5d31,22,wall,filler,F,75,goal,GoalA,exp2trials,NULL
1687453635,d191cf9fbe145787641f843db414ecc5,PennController,25,0,experiment,NULL,VideoScrubber,slider-input,SelectedFrame,70,1687453330056,611d49d12910d7a7b27e5d31,611d49d12910d7a7b27e5d31,22,wall,filler,F,75,goal,GoalA,exp2trials,NULL
1687453635,d191cf9fbe145787641f843db414ecc5,PennController,25,0,experiment,NULL,PennController,24,_Trial_,End,1687453332201,611d49d12910d7a7b27e5d31,611d49d12910d7a7b27e5d31,22,wall,filler,F,75,goal,GoalA,exp2trials,NULL
1687453635,d191cf9fbe145787641f843db414ecc5,PennController,9,0,experiment,NULL,PennController,8,_Trial_,Start,1687453332202,611d49d12910d7a7b27e5d31,611d49d12910d7a7b27e5d31,6,flower,critical,F,50,goal,high,exp2trials,NULL
1687453635,d191cf9fbe145787641f843db414ecc5,PennController,9,0,experiment,NULL,PennController,8,_Header_,Start,1687453332202,611d49d12910d7a7b27e5d31,611d49d12910d7a7b27e5d31,6,flower,critical,F,50,goal,high,exp2trials,NULL
1687453635,d191cf9fbe145787641f843db414ecc5,PennController,9,0,experiment,NULL,PennController,8,_Header_,End,1687453332202,611d49d12910d7a7b27e5d31,611d49d12910d7a7b27e5d31,6,flower,critical,F,50,goal,high,exp2trials,NULL
1687453635,d191cf9fbe145787641f843db414ecc5,PennController,9,0,experiment,NULL,Video,progression,buffer,0.00763,1687453335737,611d49d12910d7a7b27e5d31,611d49d12910d7a7b27e5d31,6,flower,critical,F,50,goal,high,exp2trials,NULL
1687453635,d191cf9fbe145787641f843db414ecc5,PennController,9,0,experiment,NULL,VideoScrubber,slider-input,SelectedFrame,45,1687453338906,611d49d12910d7a7b27e5d31,611d49d12910d7a7b27e5d31,6,flower,critical,F,50,goal,high,exp2trials,NULL
1687453635,d191cf9fbe145787641f843db414ecc5,PennController,9,0,experiment,NULL,PennController,8,_Trial_,End,1687453343839,611d49d12910d7a7b27e5d31,611d49d12910d7a7b27e5d31,6,flower,critical,F,50,goal,high,exp2trials,NULL
1687453635,d191cf9fbe145787641f843db414ecc5,PennController,15,0,experiment,NULL,PennController,14,_Trial_,Start,1687453343841,611d49d12910d7a7b27e5d31,611d49d12910d7a7b27e5d31,12,erase,critical,F,50,goal,high,exp2trials,NULL
1687453635,d191cf9fbe145787641f843db414ecc5,PennController,15,0,experiment,NULL,PennController,14,_Header_,Start,1687453343841,611d49d12910d7a7b27e5d31,611d49d12910d7a7b27e5d31,12,erase,critical,F,50,goal,high,exp2trials,NULL
1687453635,d191cf9fbe145787641f843db414ecc5,PennController,15,0,experiment,NULL,PennController,14,_Header_,End,1687453343841,611d49d12910d7a7b27e5d31,611d49d12910d7a7b27e5d31,12,erase,critical,F,50,goal,high,exp2trials,NULL
1687453635,d191cf9fbe145787641f843db414ecc5,PennController,15,0,experiment,NULL,Video,progression,buffer,0.008475,1687453347371,611d49d12910d7a7b27e5d31,611d49d12910d7a7b27e5d31,12,erase,critical,F,50,goal,high,exp2trials,NULL
1687453635,d191cf9fbe145787641f843db414ecc5,PennController,15,0,experiment,NULL,VideoScrubber,slider-input,SelectedFrame,45,1687453351942,611d49d12910d7a7b27e5d31,611d49d12910d7a7b27e5d31,12,erase,critical,F,50,goal,high,exp2trials,NULL
1687453635,d191cf9fbe145787641f843db414ecc5,PennController,15,0,experiment,NULL,PennController,14,_Trial_,End,1687453361105,611d49d12910d7a7b27e5d31,611d49d12910d7a7b27e5d31,12,erase,critical,F,50,goal,high,exp2trials,NULL
1687453635,d191cf9fbe145787641f843db414ecc5,PennController,30,0,experiment,NULL,PennController,29,_Trial_,Start,1687453361107,611d49d12910d7a7b27e5d31,611d49d12910d7a7b27e5d31,27,square,filler,F,50,goal,GoalB,exp2trials,NULL
1687453635,d191cf9fbe145787641f843db414ecc5,PennController,30,0,experiment,NULL,PennController,29,_Header_,Start,1687453361107,611d49d12910d7a7b27e5d31,611d49d12910d7a7b27e5d31,27,square,filler,F,50,goal,GoalB,exp2trials,NULL
1687453635,d191cf9fbe145787641f843db414ecc5,PennController,30,0,experiment,NULL,PennController,29,_Header_,End,1687453361107,611d49d12910d7a7b27e5d31,611d49d12910d7a7b27e5d31,27,square,filler,F,50,goal,GoalB,exp2trials,NULL
1687453635,d191cf9fbe145787641f843db414ecc5,PennController,30,0,experiment,NULL,Video,progression,buffer,0.007122,1687453364636,611d49d12910d7a7b27e5d31,611d49d12910d7a7b27e5d31,27,square,filler,F,50,goal,GoalB,exp2trials,NULL
1687453635,d191cf9fbe145787641f843db414ecc5,PennController,30,0,experiment,NULL,VideoScrubber,slider-input,SelectedFrame,40,1687453367803,611d49d12910d7a7b27e5d31,611d49d12910d7a7b27e5d31,27,square,filler,F,50,goal,GoalB,exp2trials,NULL
1687453635,d191cf9fbe145787641f843db414ecc5,PennController,30,0,experiment,NULL,PennController,29,_Trial_,End,1687453381668,611d49d12910d7a7b27e5d31,611d49d12910d7a7b27e5d31,27,square,filler,F,50,goal,GoalB,exp2trials,NULL
1687453635,d191cf9fbe145787641f843db414ecc5,PennController,28,0,experiment,NULL,PennController,27,_Trial_,Start,1687453381670,611d49d12910d7a7b27e5d31,611d49d12910d7a7b27e5d31,25,house,filler,F,75,goal,GoalB,exp2trials,NULL
1687453635,d191cf9fbe145787641f843db414ecc5,PennController,28,0,experiment,NULL,PennController,27,_Header_,Start,1687453381670,611d49d12910d7a7b27e5d31,611d49d12910d7a7b27e5d31,25,house,filler,F,75,goal,GoalB,exp2trials,NULL
1687453635,d191cf9fbe145787641f843db414ecc5,PennController,28,0,experiment,NULL,PennController,27,_Header_,End,1687453381670,611d49d12910d7a7b27e5d31,611d49d12910d7a7b27e5d31,25,house,filler,F,75,goal,GoalB,exp2trials,NULL
1687453635,d191cf9fbe145787641f843db414ecc5,PennController,28,0,experiment,NULL,Video,progression,buffer,0.007931,1687453385199,611d49d12910d7a7b27e5d31,611d49d12910d7a7b27e5d31,25,house,filler,F,75,goal,GoalB,exp2trials,NULL
1687453635,d191cf9fbe145787641f843db414ecc5,PennController,28,0,experiment,NULL,VideoScrubber,slider-input,SelectedFrame,75,1687453389368,611d49d12910d7a7b27e5d31,611d49d12910d7a7b27e5d31,25,house,filler,F,75,goal,GoalB,exp2trials,NULL
1687453635,d191cf9fbe145787641f843db414ecc5,PennController,28,0,experiment,NULL,PennController,27,_Trial_,End,1687453407788,611d49d12910d7a7b27e5d31,611d49d12910d7a7b27e5d31,25,house,filler,F,75,goal,GoalB,exp2trials,NULL
1687453635,d191cf9fbe145787641f843db414ecc5,PennController,27,0,experiment,NULL,PennController,26,_Trial_,Start,1687453407789,611d49d12910d7a7b27e5d31,611d49d12910d7a7b27e5d31,24,match,filler,F,50,goal,GoalA,exp2trials,NULL
1687453635,d191cf9fbe145787641f843db414ecc5,PennController,27,0,experiment,NULL,PennController,26,_Header_,Start,1687453407789,611d49d12910d7a7b27e5d31,611d49d12910d7a7b27e5d31,24,match,filler,F,50,goal,GoalA,exp2trials,NULL
1687453635,d191cf9fbe145787641f843db414ecc5,PennController,27,0,experiment,NULL,PennController,26,_Header_,End,1687453407789,611d49d12910d7a7b27e5d31,611d49d12910d7a7b27e5d31,24,match,filler,F,50,goal,GoalA,exp2trials,NULL
1687453635,d191cf9fbe145787641f843db414ecc5,PennController,27,0,experiment,NULL,Video,progression,buffer,0.004529,1687453411318,611d49d12910d7a7b27e5d31,611d49d12910d7a7b27e5d31,24,match,filler,F,50,goal,GoalA,exp2trials,NULL
1687453635,d191cf9fbe145787641f843db414ecc5,PennController,27,0,experiment,NULL,VideoScrubber,slider-input,SelectedFrame,50,1687453414484,611d49d12910d7a7b27e5d31,611d49d12910d7a7b27e5d31,24,match,filler,F,50,goal,GoalA,exp2trials,NULL
1687453635,d191cf9fbe145787641f843db414ecc5,PennController,27,0,experiment,NULL,PennController,26,_Trial_,End,1687453433440,611d49d12910d7a7b27e5d31,611d49d12910d7a7b27e5d31,24,match,filler,F,50,goal,GoalA,exp2trials,NULL
1687453635,d191cf9fbe145787641f843db414ecc5,PennController,17,0,experiment,NULL,PennController,16,_Trial_,Start,1687453433441,611d49d12910d7a7b27e5d31,611d49d12910d7a7b27e5d31,14,cover,critical,F,25,goal,high,exp2trials,NULL
1687453635,d191cf9fbe145787641f843db414ecc5,PennController,17,0,experiment,NULL,PennController,16,_Header_,Start,1687453433441,611d49d12910d7a7b27e5d31,611d49d12910d7a7b27e5d31,14,cover,critical,F,25,goal,high,exp2trials,NULL
1687453635,d191cf9fbe145787641f843db414ecc5,PennController,17,0,experiment,NULL,PennController,16,_Header_,End,1687453433441,611d49d12910d7a7b27e5d31,611d49d12910d7a7b27e5d31,14,cover,critical,F,25,goal,high,exp2trials,NULL
1687453635,d191cf9fbe145787641f843db414ecc5,PennController,17,0,experiment,NULL,Video,progression,buffer,0.004404,1687453436967,611d49d12910d7a7b27e5d31,611d49d12910d7a7b27e5d31,14,cover,critical,F,25,goal,high,exp2trials,NULL
1687453635,d191cf9fbe145787641f843db414ecc5,PennController,17,0,experiment,NULL,VideoScrubber,slider-input,SelectedFrame,21,1687453439734,611d49d12910d7a7b27e5d31,611d49d12910d7a7b27e5d31,14,cover,critical,F,25,goal,high,exp2trials,NULL
1687453635,d191cf9fbe145787641f843db414ecc5,PennController,17,0,experiment,NULL,PennController,16,_Trial_,End,1687453448536,611d49d12910d7a7b27e5d31,611d49d12910d7a7b27e5d31,14,cover,critical,F,25,goal,high,exp2trials,NULL
1687453635,d191cf9fbe145787641f843db414ecc5,PennController,18,0,experiment,NULL,PennController,17,_Trial_,Start,1687453448538,611d49d12910d7a7b27e5d31,611d49d12910d7a7b27e5d31,15,zip,critical,F,50,goal,high,exp2trials,NULL
1687453635,d191cf9fbe145787641f843db414ecc5,PennController,18,0,experiment,NULL,PennController,17,_Header_,Start,1687453448538,611d49d12910d7a7b27e5d31,611d49d12910d7a7b27e5d31,15,zip,critical,F,50,goal,high,exp2trials,NULL
1687453635,d191cf9fbe145787641f843db414ecc5,PennController,18,0,experiment,NULL,PennController,17,_Header_,End,1687453448538,611d49d12910d7a7b27e5d31,611d49d12910d7a7b27e5d31,15,zip,critical,F,50,goal,high,exp2trials,NULL
1687453635,d191cf9fbe145787641f843db414ecc5,PennController,18,0,experiment,NULL,Video,progression,buffer,0.008444,1687453452064,611d49d12910d7a7b27e5d31,611d49d12910d7a7b27e5d31,15,zip,critical,F,50,goal,high,exp2trials,NULL
1687453635,d191cf9fbe145787641f843db414ecc5,PennController,18,0,experiment,NULL,VideoScrubber,slider-input,SelectedFrame,55,1687453455231,611d49d12910d7a7b27e5d31,611d49d12910d7a7b27e5d31,15,zip,critical,F,50,goal,high,exp2trials,NULL
1687453635,d191cf9fbe145787641f843db414ecc5,PennController,18,0,experiment,NULL,PennController,17,_Trial_,End,1687453463332,611d49d12910d7a7b27e5d31,611d49d12910d7a7b27e5d31,15,zip,critical,F,50,goal,high,exp2trials,NULL
1687453635,d191cf9fbe145787641f843db414ecc5,PennController,12,0,experiment,NULL,PennController,11,_Trial_,Start,1687453463333,611d49d12910d7a7b27e5d31,611d49d12910d7a7b27e5d31,9,cake,critical,F,50,goal,high,exp2trials,NULL
1687453635,d191cf9fbe145787641f843db414ecc5,PennController,12,0,experiment,NULL,PennController,11,_Header_,Start,1687453463333,611d49d12910d7a7b27e5d31,611d49d12910d7a7b27e5d31,9,cake,critical,F,50,goal,high,exp2trials,NULL
1687453635,d191cf9fbe145787641f843db414ecc5,PennController,12,0,experiment,NULL,PennController,11,_Header_,End,1687453463333,611d49d12910d7a7b27e5d31,611d49d12910d7a7b27e5d31,9,cake,critical,F,50,goal,high,exp2trials,NULL
1687453635,d191cf9fbe145787641f843db414ecc5,PennController,12,0,experiment,NULL,Video,progression,buffer,0.004911,1687453466857,611d49d12910d7a7b27e5d31,611d49d12910d7a7b27e5d31,9,cake,critical,F,50,goal,high,exp2trials,NULL
1687453635,d191cf9fbe145787641f843db414ecc5,PennController,12,0,experiment,NULL,VideoScrubber,slider-input,SelectedFrame,51,1687453471433,611d49d12910d7a7b27e5d31,611d49d12910d7a7b27e5d31,9,cake,critical,F,50,goal,high,exp2trials,NULL
1687453635,d191cf9fbe145787641f843db414ecc5,PennController,12,0,experiment,NULL,PennController,11,_Trial_,End,1687453477923,611d49d12910d7a7b27e5d31,611d49d12910d7a7b27e5d31,9,cake,critical,F,50,goal,high,exp2trials,NULL
1687453635,d191cf9fbe145787641f843db414ecc5,PennController,21,0,experiment,NULL,PennController,20,_Trial_,Start,1687453477924,611d49d12910d7a7b27e5d31,611d49d12910d7a7b27e5d31,18,ball,critical,F,50,goal,high,exp2trials,NULL
1687453635,d191cf9fbe145787641f843db414ecc5,PennController,21,0,experiment,NULL,PennController,20,_Header_,Start,1687453477925,611d49d12910d7a7b27e5d31,611d49d12910d7a7b27e5d31,18,ball,critical,F,50,goal,high,exp2trials,NULL
1687453635,d191cf9fbe145787641f843db414ecc5,PennController,21,0,experiment,NULL,PennController,20,_Header_,End,1687453477925,611d49d12910d7a7b27e5d31,611d49d12910d7a7b27e5d31,18,ball,critical,F,50,goal,high,exp2trials,NULL
1687453635,d191cf9fbe145787641f843db414ecc5,PennController,21,0,experiment,NULL,Video,progression,buffer,0.004553,1687453481450,611d49d12910d7a7b27e5d31,611d49d12910d7a7b27e5d31,18,ball,critical,F,50,goal,high,exp2trials,NULL
1687453635,d191cf9fbe145787641f843db414ecc5,PennController,21,0,experiment,NULL,VideoScrubber,slider-input,SelectedFrame,50,1687453484614,611d49d12910d7a7b27e5d31,611d49d12910d7a7b27e5d31,18,ball,critical,F,50,goal,high,exp2trials,NULL
1687453635,d191cf9fbe145787641f843db414ecc5,PennController,21,0,experiment,NULL,PennController,20,_Trial_,End,1687453488390,611d49d12910d7a7b27e5d31,611d49d12910d7a7b27e5d31,18,ball,critical,F,50,goal,high,exp2trials,NULL
1687453635,d191cf9fbe145787641f843db414ecc5,PennController,13,0,experiment,NULL,PennController,12,_Trial_,Start,1687453488392,611d49d12910d7a7b27e5d31,611d49d12910d7a7b27e5d31,10,train,critical,F,75,goal,high,exp2trials,NULL
1687453635,d191cf9fbe145787641f843db414ecc5,PennController,13,0,experiment,NULL,PennController,12,_Header_,Start,1687453488392,611d49d12910d7a7b27e5d31,611d49d12910d7a7b27e5d31,10,train,critical,F,75,goal,high,exp2trials,NULL
1687453635,d191cf9fbe145787641f843db414ecc5,PennController,13,0,experiment,NULL,PennController,12,_Header_,End,1687453488392,611d49d12910d7a7b27e5d31,611d49d12910d7a7b27e5d31,10,train,critical,F,75,goal,high,exp2trials,NULL
1687453635,d191cf9fbe145787641f843db414ecc5,PennController,13,0,experiment,NULL,Video,progression,buffer,0.004748,1687453491913,611d49d12910d7a7b27e5d31,611d49d12910d7a7b27e5d31,10,train,critical,F,75,goal,high,exp2trials,NULL
1687453635,d191cf9fbe145787641f843db414ecc5,PennController,13,0,experiment,NULL,VideoScrubber,slider-input,SelectedFrame,75,1687453496082,611d49d12910d7a7b27e5d31,611d49d12910d7a7b27e5d31,10,train,critical,F,75,goal,high,exp2trials,NULL
1687453635,d191cf9fbe145787641f843db414ecc5,PennController,13,0,experiment,NULL,PennController,12,_Trial_,End,1687453501048,611d49d12910d7a7b27e5d31,611d49d12910d7a7b27e5d31,10,train,critical,F,75,goal,high,exp2trials,NULL
1687453635,d191cf9fbe145787641f843db414ecc5,PennController,16,0,experiment,NULL,PennController,15,_Trial_,Start,1687453501050,611d49d12910d7a7b27e5d31,611d49d12910d7a7b27e5d31,13,mix,critical,F,75,goal,high,exp2trials,NULL
1687453635,d191cf9fbe145787641f843db414ecc5,PennController,16,0,experiment,NULL,PennController,15,_Header_,Start,1687453501050,611d49d12910d7a7b27e5d31,611d49d12910d7a7b27e5d31,13,mix,critical,F,75,goal,high,exp2trials,NULL
1687453635,d191cf9fbe145787641f843db414ecc5,PennController,16,0,experiment,NULL,PennController,15,_Header_,End,1687453501050,611d49d12910d7a7b27e5d31,611d49d12910d7a7b27e5d31,13,mix,critical,F,75,goal,high,exp2trials,NULL
1687453635,d191cf9fbe145787641f843db414ecc5,PennController,16,0,experiment,NULL,Video,progression,buffer,0.00798,1687453504577,611d49d12910d7a7b27e5d31,611d49d12910d7a7b27e5d31,13,mix,critical,F,75,goal,high,exp2trials,NULL
1687453635,d191cf9fbe145787641f843db414ecc5,PennController,16,0,experiment,NULL,VideoScrubber,slider-input,SelectedFrame,75,1687453508748,611d49d12910d7a7b27e5d31,611d49d12910d7a7b27e5d31,13,mix,critical,F,75,goal,high,exp2trials,NULL
1687453635,d191cf9fbe145787641f843db414ecc5,PennController,16,0,experiment,NULL,PennController,15,_Trial_,End,1687453513780,611d49d12910d7a7b27e5d31,611d49d12910d7a7b27e5d31,13,mix,critical,F,75,goal,high,exp2trials,NULL
1687453635,d191cf9fbe145787641f843db414ecc5,PennController,6,0,experiment,NULL,PennController,5,_Trial_,Start,1687453513781,611d49d12910d7a7b27e5d31,611d49d12910d7a7b27e5d31,3,clean,critical,F,50,goal,high,exp2trials,NULL
1687453635,d191cf9fbe145787641f843db414ecc5,PennController,6,0,experiment,NULL,PennController,5,_Header_,Start,1687453513781,611d49d12910d7a7b27e5d31,611d49d12910d7a7b27e5d31,3,clean,critical,F,50,goal,high,exp2trials,NULL
1687453635,d191cf9fbe145787641f843db414ecc5,PennController,6,0,experiment,NULL,PennController,5,_Header_,End,1687453513781,611d49d12910d7a7b27e5d31,611d49d12910d7a7b27e5d31,3,clean,critical,F,50,goal,high,exp2trials,NULL
1687453635,d191cf9fbe145787641f843db414ecc5,PennController,6,0,experiment,NULL,Video,progression,buffer,0.010495,1687453517313,611d49d12910d7a7b27e5d31,611d49d12910d7a7b27e5d31,3,clean,critical,F,50,goal,high,exp2trials,NULL
1687453635,d191cf9fbe145787641f843db414ecc5,PennController,6,0,experiment,NULL,VideoScrubber,slider-input,SelectedFrame,65,1687453520478,611d49d12910d7a7b27e5d31,611d49d12910d7a7b27e5d31,3,clean,critical,F,50,goal,high,exp2trials,NULL
1687453635,d191cf9fbe145787641f843db414ecc5,PennController,6,0,experiment,NULL,PennController,5,_Trial_,End,1687453529882,611d49d12910d7a7b27e5d31,611d49d12910d7a7b27e5d31,3,clean,critical,F,50,goal,high,exp2trials,NULL
1687453635,d191cf9fbe145787641f843db414ecc5,PennController,4,0,experiment,NULL,PennController,3,_Trial_,Start,1687453529884,611d49d12910d7a7b27e5d31,611d49d12910d7a7b27e5d31,1,vase,critical,F,25,goal,high,exp2trials,NULL
1687453635,d191cf9fbe145787641f843db414ecc5,PennController,4,0,experiment,NULL,PennController,3,_Header_,Start,1687453529884,611d49d12910d7a7b27e5d31,611d49d12910d7a7b27e5d31,1,vase,critical,F,25,goal,high,exp2trials,NULL
1687453635,d191cf9fbe145787641f843db414ecc5,PennController,4,0,experiment,NULL,PennController,3,_Header_,End,1687453529884,611d49d12910d7a7b27e5d31,611d49d12910d7a7b27e5d31,1,vase,critical,F,25,goal,high,exp2trials,NULL
1687453635,d191cf9fbe145787641f843db414ecc5,PennController,4,0,experiment,NULL,Video,progression,buffer,0.00824,1687453533408,611d49d12910d7a7b27e5d31,611d49d12910d7a7b27e5d31,1,vase,critical,F,25,goal,high,exp2trials,NULL
1687453635,d191cf9fbe145787641f843db414ecc5,PennController,4,0,experiment,NULL,VideoScrubber,slider-input,SelectedFrame,65,1687453537578,611d49d12910d7a7b27e5d31,611d49d12910d7a7b27e5d31,1,vase,critical,F,25,goal,high,exp2trials,NULL
1687453635,d191cf9fbe145787641f843db414ecc5,PennController,4,0,experiment,NULL,PennController,3,_Trial_,End,1687453539828,611d49d12910d7a7b27e5d31,611d49d12910d7a7b27e5d31,1,vase,critical,F,25,goal,high,exp2trials,NULL
1687453635,d191cf9fbe145787641f843db414ecc5,PennController,5,0,experiment,NULL,PennController,4,_Trial_,Start,1687453539830,611d49d12910d7a7b27e5d31,611d49d12910d7a7b27e5d31,2,door,critical,F,25,goal,high,exp2trials,NULL
1687453635,d191cf9fbe145787641f843db414ecc5,PennController,5,0,experiment,NULL,PennController,4,_Header_,Start,1687453539830,611d49d12910d7a7b27e5d31,611d49d12910d7a7b27e5d31,2,door,critical,F,25,goal,high,exp2trials,NULL
1687453635,d191cf9fbe145787641f843db414ecc5,PennController,5,0,experiment,NULL,PennController,4,_Header_,End,1687453539830,611d49d12910d7a7b27e5d31,611d49d12910d7a7b27e5d31,2,door,critical,F,25,goal,high,exp2trials,NULL
1687453635,d191cf9fbe145787641f843db414ecc5,PennController,5,0,experiment,NULL,Video,progression,buffer,0.007896,1687453543360,611d49d12910d7a7b27e5d31,611d49d12910d7a7b27e5d31,2,door,critical,F,25,goal,high,exp2trials,NULL
1687453635,d191cf9fbe145787641f843db414ecc5,PennController,5,0,experiment,NULL,VideoScrubber,slider-input,SelectedFrame,25,1687453545528,611d49d12910d7a7b27e5d31,611d49d12910d7a7b27e5d31,2,door,critical,F,25,goal,high,exp2trials,NULL
1687453635,d191cf9fbe145787641f843db414ecc5,PennController,5,0,experiment,NULL,PennController,4,_Trial_,End,1687453552682,611d49d12910d7a7b27e5d31,611d49d12910d7a7b27e5d31,2,door,critical,F,25,goal,high,exp2trials,NULL
1687453635,d191cf9fbe145787641f843db414ecc5,PennController,31,0,experiment,NULL,PennController,30,_Trial_,Start,1687453552684,611d49d12910d7a7b27e5d31,611d49d12910d7a7b27e5d31,28,sort,filler,F,75,goal,GoalA,exp2trials,NULL
1687453635,d191cf9fbe145787641f843db414ecc5,PennController,31,0,experiment,NULL,PennController,30,_Header_,Start,1687453552684,611d49d12910d7a7b27e5d31,611d49d12910d7a7b27e5d31,28,sort,filler,F,75,goal,GoalA,exp2trials,NULL
1687453635,d191cf9fbe145787641f843db414ecc5,PennController,31,0,experiment,NULL,PennController,30,_Header_,End,1687453552684,611d49d12910d7a7b27e5d31,611d49d12910d7a7b27e5d31,28,sort,filler,F,75,goal,GoalA,exp2trials,NULL
1687453635,d191cf9fbe145787641f843db414ecc5,PennController,31,0,experiment,NULL,Video,progression,buffer,0.006547,1687453556215,611d49d12910d7a7b27e5d31,611d49d12910d7a7b27e5d31,28,sort,filler,F,75,goal,GoalA,exp2trials,NULL
1687453635,d191cf9fbe145787641f843db414ecc5,PennController,31,0,experiment,NULL,VideoScrubber,slider-input,SelectedFrame,70,1687453560378,611d49d12910d7a7b27e5d31,611d49d12910d7a7b27e5d31,28,sort,filler,F,75,goal,GoalA,exp2trials,NULL
1687453635,d191cf9fbe145787641f843db414ecc5,PennController,31,0,experiment,NULL,PennController,30,_Trial_,End,1687453571477,611d49d12910d7a7b27e5d31,611d49d12910d7a7b27e5d31,28,sort,filler,F,75,goal,GoalA,exp2trials,NULL
1687453635,d191cf9fbe145787641f843db414ecc5,PennController,8,0,experiment,NULL,PennController,7,_Trial_,Start,1687453571478,611d49d12910d7a7b27e5d31,611d49d12910d7a7b27e5d31,5,book,critical,F,25,goal,high,exp2trials,NULL
1687453635,d191cf9fbe145787641f843db414ecc5,PennController,8,0,experiment,NULL,PennController,7,_Header_,Start,1687453571478,611d49d12910d7a7b27e5d31,611d49d12910d7a7b27e5d31,5,book,critical,F,25,goal,high,exp2trials,NULL
1687453635,d191cf9fbe145787641f843db414ecc5,PennController,8,0,experiment,NULL,PennController,7,_Header_,End,1687453571478,611d49d12910d7a7b27e5d31,611d49d12910d7a7b27e5d31,5,book,critical,F,25,goal,high,exp2trials,NULL
1687453635,d191cf9fbe145787641f843db414ecc5,PennController,8,0,experiment,NULL,Video,progression,buffer,0.006562,1687453575005,611d49d12910d7a7b27e5d31,611d49d12910d7a7b27e5d31,5,book,critical,F,25,goal,high,exp2trials,NULL
1687453635,d191cf9fbe145787641f843db414ecc5,PennController,8,0,experiment,NULL,VideoScrubber,slider-input,SelectedFrame,55,1687453577176,611d49d12910d7a7b27e5d31,611d49d12910d7a7b27e5d31,5,book,critical,F,25,goal,high,exp2trials,NULL
1687453635,d191cf9fbe145787641f843db414ecc5,PennController,8,0,experiment,NULL,PennController,7,_Trial_,End,1687453586563,611d49d12910d7a7b27e5d31,611d49d12910d7a7b27e5d31,5,book,critical,F,25,goal,high,exp2trials,NULL
1687453635,d191cf9fbe145787641f843db414ecc5,PennController,10,0,experiment,NULL,PennController,9,_Trial_,Start,1687453586565,611d49d12910d7a7b27e5d31,611d49d12910d7a7b27e5d31,7,stack,critical,F,75,goal,high,exp2trials,NULL
1687453635,d191cf9fbe145787641f843db414ecc5,PennController,10,0,experiment,NULL,PennController,9,_Header_,Start,1687453586565,611d49d12910d7a7b27e5d31,611d49d12910d7a7b27e5d31,7,stack,critical,F,75,goal,high,exp2trials,NULL
1687453635,d191cf9fbe145787641f843db414ecc5,PennController,10,0,experiment,NULL,PennController,9,_Header_,End,1687453586565,611d49d12910d7a7b27e5d31,611d49d12910d7a7b27e5d31,7,stack,critical,F,75,goal,high,exp2trials,NULL
1687453635,d191cf9fbe145787641f843db414ecc5,PennController,10,0,experiment,NULL,Video,progression,buffer,0.004344,1687453590091,611d49d12910d7a7b27e5d31,611d49d12910d7a7b27e5d31,7,stack,critical,F,75,goal,high,exp2trials,NULL
1687453635,d191cf9fbe145787641f843db414ecc5,PennController,10,0,experiment,NULL,VideoScrubber,slider-input,SelectedFrame,70,1687453594263,611d49d12910d7a7b27e5d31,611d49d12910d7a7b27e5d31,7,stack,critical,F,75,goal,high,exp2trials,NULL
1687453635,d191cf9fbe145787641f843db414ecc5,PennController,10,0,experiment,NULL,PennController,9,_Trial_,End,1687453603885,611d49d12910d7a7b27e5d31,611d49d12910d7a7b27e5d31,7,stack,critical,F,75,goal,high,exp2trials,NULL
1687453635,d191cf9fbe145787641f843db414ecc5,PennController,29,0,experiment,NULL,PennController,28,_Trial_,Start,1687453603887,611d49d12910d7a7b27e5d31,611d49d12910d7a7b27e5d31,26,sandwich,filler,F,25,goal,GoalA,exp2trials,NULL
1687453635,d191cf9fbe145787641f843db414ecc5,PennController,29,0,experiment,NULL,PennController,28,_Header_,Start,1687453603887,611d49d12910d7a7b27e5d31,611d49d12910d7a7b27e5d31,26,sandwich,filler,F,25,goal,GoalA,exp2trials,NULL
1687453635,d191cf9fbe145787641f843db414ecc5,PennController,29,0,experiment,NULL,PennController,28,_Header_,End,1687453603887,611d49d12910d7a7b27e5d31,611d49d12910d7a7b27e5d31,26,sandwich,filler,F,25,goal,GoalA,exp2trials,NULL
1687453635,d191cf9fbe145787641f843db414ecc5,PennController,29,0,experiment,NULL,Video,progression,buffer,0.004445,1687453607412,611d49d12910d7a7b27e5d31,611d49d12910d7a7b27e5d31,26,sandwich,filler,F,25,goal,GoalA,exp2trials,NULL
1687453635,d191cf9fbe145787641f843db414ecc5,PennController,29,0,experiment,NULL,VideoScrubber,slider-input,SelectedFrame,25,1687453609575,611d49d12910d7a7b27e5d31,611d49d12910d7a7b27e5d31,26,sandwich,filler,F,25,goal,GoalA,exp2trials,NULL
1687453635,d191cf9fbe145787641f843db414ecc5,PennController,29,0,experiment,NULL,PennController,28,_Trial_,End,1687453616681,611d49d12910d7a7b27e5d31,611d49d12910d7a7b27e5d31,26,sandwich,filler,F,25,goal,GoalA,exp2trials,NULL
1687453635,d191cf9fbe145787641f843db414ecc5,PennController,19,0,experiment,NULL,PennController,18,_Trial_,Start,1687453616682,611d49d12910d7a7b27e5d31,611d49d12910d7a7b27e5d31,16,blinds,critical,F,75,goal,high,exp2trials,NULL
1687453635,d191cf9fbe145787641f843db414ecc5,PennController,19,0,experiment,NULL,PennController,18,_Header_,Start,1687453616682,611d49d12910d7a7b27e5d31,611d49d12910d7a7b27e5d31,16,blinds,critical,F,75,goal,high,exp2trials,NULL
1687453635,d191cf9fbe145787641f843db414ecc5,PennController,19,0,experiment,NULL,PennController,18,_Header_,End,1687453616682,611d49d12910d7a7b27e5d31,611d49d12910d7a7b27e5d31,16,blinds,critical,F,75,goal,high,exp2trials,NULL
1687453635,d191cf9fbe145787641f843db414ecc5,PennController,19,0,experiment,NULL,Video,progression,buffer,0.006829,1687453620214,611d49d12910d7a7b27e5d31,611d49d12910d7a7b27e5d31,16,blinds,critical,F,75,goal,high,exp2trials,NULL
1687453635,d191cf9fbe145787641f843db414ecc5,PennController,19,0,experiment,NULL,VideoScrubber,slider-input,SelectedFrame,78,1687453626374,611d49d12910d7a7b27e5d31,611d49d12910d7a7b27e5d31,16,blinds,critical,F,75,goal,high,exp2trials,NULL
1687453635,d191cf9fbe145787641f843db414ecc5,PennController,19,0,experiment,NULL,PennController,18,_Trial_,End,1687453634063,611d49d12910d7a7b27e5d31,611d49d12910d7a7b27e5d31,16,blinds,critical,F,75,goal,high,exp2trials,NULL
