#
# Results on Thursday June 22 2023 17:00:10 UTC
# USER AGENT: Mozilla/5.0 (Windows NT 10.0; Win64; x64) AppleWebKit/537.36 (KHTML, like Gecko) Chrome/106.0.0.0 Safari/537.36
# Design number was non-random = 77
#
# Columns below this comment are as follows:
# 1. Results reception time.
# 2. MD5 hash of participant's IP address.
# 3. Controller name.
# 4. Order number of item.
# 5. Inner element number.
# 6. Label.
# 7. Latin Square Group.
# 8. PennElementType.
# 9. PennElementName.
# 10. Parameter.
# 11. Value.
# 12. EventTime.
# 13. ProlificID.
# 14. Comments.
1687453210,d1682a5761bdfafee81f074acf863578,PennController,2,0,consent,NULL,PennController,0,_Trial_,Start,1687452849531,5e820b70239c3490a5e6015f,NULL
1687453210,d1682a5761bdfafee81f074acf863578,PennController,2,0,consent,NULL,PennController,0,_Header_,Start,1687452849531,5e820b70239c3490a5e6015f,NULL
1687453210,d1682a5761bdfafee81f074acf863578,PennController,2,0,consent,NULL,PennController,0,_Header_,End,1687452849771,5e820b70239c3490a5e6015f,NULL
1687453210,d1682a5761bdfafee81f074acf863578,PennController,2,0,consent,NULL,PennController,0,_Trial_,End,1687452862831,5e820b70239c3490a5e6015f,NULL
# Columns below this comment are as follows:
# 14. ID.
# 15. Comments.
1687453210,d1682a5761bdfafee81f074acf863578,PennController,3,0,intro,NULL,PennController,1,_Trial_,Start,1687452862833,5e820b70239c3490a5e6015f,5e820b70239c3490a5e6015f,NULL
1687453210,d1682a5761bdfafee81f074acf863578,PennController,3,0,intro,NULL,PennController,1,_Header_,Start,1687452862833,5e820b70239c3490a5e6015f,5e820b70239c3490a5e6015f,NULL
1687453210,d1682a5761bdfafee81f074acf863578,PennController,3,0,intro,NULL,PennController,1,_Header_,End,1687452862833,5e820b70239c3490a5e6015f,5e820b70239c3490a5e6015f,NULL
1687453210,d1682a5761bdfafee81f074acf863578,PennController,3,0,intro,NULL,PennController,1,_Trial_,End,1687452881675,5e820b70239c3490a5e6015f,5e820b70239c3490a5e6015f,NULL
# Columns below this comment are as follows:
# 15. item_number.
# 16. item.
# 17. type.
# 18. Group.
# 19. prog.
# 20. condition.
# 21. height.
# 22. exp2trials.
# 23. Comments.
1687453210,d1682a5761bdfafee81f074acf863578,PennController,16,0,experiment,NULL,PennController,15,_Trial_,Start,1687452881677,5e820b70239c3490a5e6015f,5e820b70239c3490a5e6015f,13,mix,critical,F,75,goal,high,exp2trials,NULL
1687453210,d1682a5761bdfafee81f074acf863578,PennController,16,0,experiment,NULL,PennController,15,_Header_,Start,1687452881677,5e820b70239c3490a5e6015f,5e820b70239c3490a5e6015f,13,mix,critical,F,75,goal,high,exp2trials,NULL
1687453210,d1682a5761bdfafee81f074acf863578,PennController,16,0,experiment,NULL,PennController,15,_Header_,End,1687452881677,5e820b70239c3490a5e6015f,5e820b70239c3490a5e6015f,13,mix,critical,F,75,goal,high,exp2trials,NULL
1687453210,d1682a5761bdfafee81f074acf863578,PennController,16,0,experiment,NULL,Video,progression,buffer,0.002732,1687452885206,5e820b70239c3490a5e6015f,5e820b70239c3490a5e6015f,13,mix,critical,F,75,goal,high,exp2trials,NULL
1687453210,d1682a5761bdfafee81f074acf863578,PennController,16,0,experiment,NULL,VideoScrubber,slider-input,SelectedFrame,95,1687452889371,5e820b70239c3490a5e6015f,5e820b70239c3490a5e6015f,13,mix,critical,F,75,goal,high,exp2trials,NULL
1687453210,d1682a5761bdfafee81f074acf863578,PennController,16,0,experiment,NULL,PennController,15,_Trial_,End,1687452895839,5e820b70239c3490a5e6015f,5e820b70239c3490a5e6015f,13,mix,critical,F,75,goal,high,exp2trials,NULL
1687453210,d1682a5761bdfafee81f074acf863578,PennController,10,0,experiment,NULL,PennController,9,_Trial_,Start,1687452895840,5e820b70239c3490a5e6015f,5e820b70239c3490a5e6015f,7,stack,critical,F,75,goal,high,exp2trials,NULL
1687453210,d1682a5761bdfafee81f074acf863578,PennController,10,0,experiment,NULL,PennController,9,_Header_,Start,1687452895840,5e820b70239c3490a5e6015f,5e820b70239c3490a5e6015f,7,stack,critical,F,75,goal,high,exp2trials,NULL
1687453210,d1682a5761bdfafee81f074acf863578,PennController,10,0,experiment,NULL,PennController,9,_Header_,End,1687452895840,5e820b70239c3490a5e6015f,5e820b70239c3490a5e6015f,7,stack,critical,F,75,goal,high,exp2trials,NULL
1687453210,d1682a5761bdfafee81f074acf863578,PennController,10,0,experiment,NULL,Video,progression,buffer,0.002124,1687452899354,5e820b70239c3490a5e6015f,5e820b70239c3490a5e6015f,7,stack,critical,F,75,goal,high,exp2trials,NULL
1687453210,d1682a5761bdfafee81f074acf863578,PennController,10,0,experiment,NULL,VideoScrubber,slider-input,SelectedFrame,85,1687452903517,5e820b70239c3490a5e6015f,5e820b70239c3490a5e6015f,7,stack,critical,F,75,goal,high,exp2trials,NULL
1687453210,d1682a5761bdfafee81f074acf863578,PennController,10,0,experiment,NULL,PennController,9,_Trial_,End,1687452907899,5e820b70239c3490a5e6015f,5e820b70239c3490a5e6015f,7,stack,critical,F,75,goal,high,exp2trials,NULL
1687453210,d1682a5761bdfafee81f074acf863578,PennController,26,0,experiment,NULL,PennController,25,_Trial_,Start,1687452907900,5e820b70239c3490a5e6015f,5e820b70239c3490a5e6015f,23,color,filler,F,25,goal,GoalB,exp2trials,NULL
1687453210,d1682a5761bdfafee81f074acf863578,PennController,26,0,experiment,NULL,PennController,25,_Header_,Start,1687452907900,5e820b70239c3490a5e6015f,5e820b70239c3490a5e6015f,23,color,filler,F,25,goal,GoalB,exp2trials,NULL
1687453210,d1682a5761bdfafee81f074acf863578,PennController,26,0,experiment,NULL,PennController,25,_Header_,End,1687452907900,5e820b70239c3490a5e6015f,5e820b70239c3490a5e6015f,23,color,filler,F,25,goal,GoalB,exp2trials,NULL
1687453210,d1682a5761bdfafee81f074acf863578,PennController,26,0,experiment,NULL,Video,progression,buffer,0.001881,1687452911417,5e820b70239c3490a5e6015f,5e820b70239c3490a5e6015f,23,color,filler,F,25,goal,GoalB,exp2trials,NULL
1687453210,d1682a5761bdfafee81f074acf863578,PennController,26,0,experiment,NULL,VideoScrubber,slider-input,SelectedFrame,25,1687452913580,5e820b70239c3490a5e6015f,5e820b70239c3490a5e6015f,23,color,filler,F,25,goal,GoalB,exp2trials,NULL
1687453210,d1682a5761bdfafee81f074acf863578,PennController,26,0,experiment,NULL,PennController,25,_Trial_,End,1687452919307,5e820b70239c3490a5e6015f,5e820b70239c3490a5e6015f,23,color,filler,F,25,goal,GoalB,exp2trials,NULL
1687453210,d1682a5761bdfafee81f074acf863578,PennController,20,0,experiment,NULL,PennController,19,_Trial_,Start,1687452919308,5e820b70239c3490a5e6015f,5e820b70239c3490a5e6015f,17,roll,critical,F,25,goal,high,exp2trials,NULL
1687453210,d1682a5761bdfafee81f074acf863578,PennController,20,0,experiment,NULL,PennController,19,_Header_,Start,1687452919308,5e820b70239c3490a5e6015f,5e820b70239c3490a5e6015f,17,roll,critical,F,25,goal,high,exp2trials,NULL
1687453210,d1682a5761bdfafee81f074acf863578,PennController,20,0,experiment,NULL,PennController,19,_Header_,End,1687452919308,5e820b70239c3490a5e6015f,5e820b70239c3490a5e6015f,17,roll,critical,F,25,goal,high,exp2trials,NULL
1687453210,d1682a5761bdfafee81f074acf863578,PennController,20,0,experiment,NULL,Video,progression,buffer,0.002004,1687452922823,5e820b70239c3490a5e6015f,5e820b70239c3490a5e6015f,17,roll,critical,F,25,goal,high,exp2trials,NULL
1687453210,d1682a5761bdfafee81f074acf863578,PennController,20,0,experiment,NULL,VideoScrubber,slider-input,SelectedFrame,20,1687452924988,5e820b70239c3490a5e6015f,5e820b70239c3490a5e6015f,17,roll,critical,F,25,goal,high,exp2trials,NULL
1687453210,d1682a5761bdfafee81f074acf863578,PennController,20,0,experiment,NULL,PennController,19,_Trial_,End,1687452929577,5e820b70239c3490a5e6015f,5e820b70239c3490a5e6015f,17,roll,critical,F,25,goal,high,exp2trials,NULL
1687453210,d1682a5761bdfafee81f074acf863578,PennController,12,0,experiment,NULL,PennController,11,_Trial_,Start,1687452929579,5e820b70239c3490a5e6015f,5e820b70239c3490a5e6015f,9,cake,critical,F,50,goal,high,exp2trials,NULL
1687453210,d1682a5761bdfafee81f074acf863578,PennController,12,0,experiment,NULL,PennController,11,_Header_,Start,1687452929579,5e820b70239c3490a5e6015f,5e820b70239c3490a5e6015f,9,cake,critical,F,50,goal,high,exp2trials,NULL
1687453210,d1682a5761bdfafee81f074acf863578,PennController,12,0,experiment,NULL,PennController,11,_Header_,End,1687452929579,5e820b70239c3490a5e6015f,5e820b70239c3490a5e6015f,9,cake,critical,F,50,goal,high,exp2trials,NULL
1687453210,d1682a5761bdfafee81f074acf863578,PennController,12,0,experiment,NULL,Video,progression,buffer,0.002247,1687452933092,5e820b70239c3490a5e6015f,5e820b70239c3490a5e6015f,9,cake,critical,F,50,goal,high,exp2trials,NULL
1687453210,d1682a5761bdfafee81f074acf863578,PennController,12,0,experiment,NULL,VideoScrubber,slider-input,SelectedFrame,75,1687452937655,5e820b70239c3490a5e6015f,5e820b70239c3490a5e6015f,9,cake,critical,F,50,goal,high,exp2trials,NULL
1687453210,d1682a5761bdfafee81f074acf863578,PennController,12,0,experiment,NULL,PennController,11,_Trial_,End,1687452943099,5e820b70239c3490a5e6015f,5e820b70239c3490a5e6015f,9,cake,critical,F,50,goal,high,exp2trials,NULL
1687453210,d1682a5761bdfafee81f074acf863578,PennController,18,0,experiment,NULL,PennController,17,_Trial_,Start,1687452943101,5e820b70239c3490a5e6015f,5e820b70239c3490a5e6015f,15,zip,critical,F,50,goal,high,exp2trials,NULL
1687453210,d1682a5761bdfafee81f074acf863578,PennController,18,0,experiment,NULL,PennController,17,_Header_,Start,1687452943101,5e820b70239c3490a5e6015f,5e820b70239c3490a5e6015f,15,zip,critical,F,50,goal,high,exp2trials,NULL
1687453210,d1682a5761bdfafee81f074acf863578,PennController,18,0,experiment,NULL,PennController,17,_Header_,End,1687452943101,5e820b70239c3490a5e6015f,5e820b70239c3490a5e6015f,15,zip,critical,F,50,goal,high,exp2trials,NULL
1687453210,d1682a5761bdfafee81f074acf863578,PennController,18,0,experiment,NULL,Video,progression,buffer,0.001982,1687452946616,5e820b70239c3490a5e6015f,5e820b70239c3490a5e6015f,15,zip,critical,F,50,goal,high,exp2trials,NULL
1687453210,d1682a5761bdfafee81f074acf863578,PennController,18,0,experiment,NULL,VideoScrubber,slider-input,SelectedFrame,55,1687452949782,5e820b70239c3490a5e6015f,5e820b70239c3490a5e6015f,15,zip,critical,F,50,goal,high,exp2trials,NULL
1687453210,d1682a5761bdfafee81f074acf863578,PennController,18,0,experiment,NULL,PennController,17,_Trial_,End,1687452955860,5e820b70239c3490a5e6015f,5e820b70239c3490a5e6015f,15,zip,critical,F,50,goal,high,exp2trials,NULL
1687453210,d1682a5761bdfafee81f074acf863578,PennController,9,0,experiment,NULL,PennController,8,_Trial_,Start,1687452955861,5e820b70239c3490a5e6015f,5e820b70239c3490a5e6015f,6,flower,critical,F,50,goal,high,exp2trials,NULL
1687453210,d1682a5761bdfafee81f074acf863578,PennController,9,0,experiment,NULL,PennController,8,_Header_,Start,1687452955861,5e820b70239c3490a5e6015f,5e820b70239c3490a5e6015f,6,flower,critical,F,50,goal,high,exp2trials,NULL
1687453210,d1682a5761bdfafee81f074acf863578,PennController,9,0,experiment,NULL,PennController,8,_Header_,End,1687452955861,5e820b70239c3490a5e6015f,5e820b70239c3490a5e6015f,6,flower,critical,F,50,goal,high,exp2trials,NULL
1687453210,d1682a5761bdfafee81f074acf863578,PennController,9,0,experiment,NULL,Video,progression,buffer,0.00175,1687452959374,5e820b70239c3490a5e6015f,5e820b70239c3490a5e6015f,6,flower,critical,F,50,goal,high,exp2trials,NULL
1687453210,d1682a5761bdfafee81f074acf863578,PennController,9,0,experiment,NULL,VideoScrubber,slider-input,SelectedFrame,45,1687452962543,5e820b70239c3490a5e6015f,5e820b70239c3490a5e6015f,6,flower,critical,F,50,goal,high,exp2trials,NULL
1687453210,d1682a5761bdfafee81f074acf863578,PennController,9,0,experiment,NULL,PennController,8,_Trial_,End,1687452967188,5e820b70239c3490a5e6015f,5e820b70239c3490a5e6015f,6,flower,critical,F,50,goal,high,exp2trials,NULL
1687453210,d1682a5761bdfafee81f074acf863578,PennController,21,0,experiment,NULL,PennController,20,_Trial_,Start,1687452967189,5e820b70239c3490a5e6015f,5e820b70239c3490a5e6015f,18,ball,critical,F,50,goal,high,exp2trials,NULL
1687453210,d1682a5761bdfafee81f074acf863578,PennController,21,0,experiment,NULL,PennController,20,_Header_,Start,1687452967189,5e820b70239c3490a5e6015f,5e820b70239c3490a5e6015f,18,ball,critical,F,50,goal,high,exp2trials,NULL
1687453210,d1682a5761bdfafee81f074acf863578,PennController,21,0,experiment,NULL,PennController,20,_Header_,End,1687452967189,5e820b70239c3490a5e6015f,5e820b70239c3490a5e6015f,18,ball,critical,F,50,goal,high,exp2trials,NULL
1687453210,d1682a5761bdfafee81f074acf863578,PennController,21,0,experiment,NULL,Video,progression,buffer,0.001967,1687452970705,5e820b70239c3490a5e6015f,5e820b70239c3490a5e6015f,18,ball,critical,F,50,goal,high,exp2trials,NULL
1687453210,d1682a5761bdfafee81f074acf863578,PennController,21,0,experiment,NULL,VideoScrubber,slider-input,SelectedFrame,50,1687452973870,5e820b70239c3490a5e6015f,5e820b70239c3490a5e6015f,18,ball,critical,F,50,goal,high,exp2trials,NULL
1687453210,d1682a5761bdfafee81f074acf863578,PennController,21,0,experiment,NULL,PennController,20,_Trial_,End,1687452978281,5e820b70239c3490a5e6015f,5e820b70239c3490a5e6015f,18,ball,critical,F,50,goal,high,exp2trials,NULL
1687453210,d1682a5761bdfafee81f074acf863578,PennController,5,0,experiment,NULL,PennController,4,_Trial_,Start,1687452978282,5e820b70239c3490a5e6015f,5e820b70239c3490a5e6015f,2,door,critical,F,25,goal,high,exp2trials,NULL
1687453210,d1682a5761bdfafee81f074acf863578,PennController,5,0,experiment,NULL,PennController,4,_Header_,Start,1687452978282,5e820b70239c3490a5e6015f,5e820b70239c3490a5e6015f,2,door,critical,F,25,goal,high,exp2trials,NULL
1687453210,d1682a5761bdfafee81f074acf863578,PennController,5,0,experiment,NULL,PennController,4,_Header_,End,1687452978282,5e820b70239c3490a5e6015f,5e820b70239c3490a5e6015f,2,door,critical,F,25,goal,high,exp2trials,NULL
1687453210,d1682a5761bdfafee81f074acf863578,PennController,5,0,experiment,NULL,Video,progression,buffer,0.002123,1687452981802,5e820b70239c3490a5e6015f,5e820b70239c3490a5e6015f,2,door,critical,F,25,goal,high,exp2trials,NULL
1687453210,d1682a5761bdfafee81f074acf863578,PennController,5,0,experiment,NULL,VideoScrubber,slider-input,SelectedFrame,25,1687452983967,5e820b70239c3490a5e6015f,5e820b70239c3490a5e6015f,2,door,critical,F,25,goal,high,exp2trials,NULL
1687453210,d1682a5761bdfafee81f074acf863578,PennController,5,0,experiment,NULL,PennController,4,_Trial_,End,1687452988811,5e820b70239c3490a5e6015f,5e820b70239c3490a5e6015f,2,door,critical,F,25,goal,high,exp2trials,NULL
1687453210,d1682a5761bdfafee81f074acf863578,PennController,6,0,experiment,NULL,PennController,5,_Trial_,Start,1687452988812,5e820b70239c3490a5e6015f,5e820b70239c3490a5e6015f,3,clean,critical,F,50,goal,high,exp2trials,NULL
1687453210,d1682a5761bdfafee81f074acf863578,PennController,6,0,experiment,NULL,PennController,5,_Header_,Start,1687452988812,5e820b70239c3490a5e6015f,5e820b70239c3490a5e6015f,3,clean,critical,F,50,goal,high,exp2trials,NULL
1687453210,d1682a5761bdfafee81f074acf863578,PennController,6,0,experiment,NULL,PennController,5,_Header_,End,1687452988812,5e820b70239c3490a5e6015f,5e820b70239c3490a5e6015f,3,clean,critical,F,50,goal,high,exp2trials,NULL
1687453210,d1682a5761bdfafee81f074acf863578,PennController,6,0,experiment,NULL,Video,progression,buffer,0.003398,1687452992334,5e820b70239c3490a5e6015f,5e820b70239c3490a5e6015f,3,clean,critical,F,50,goal,high,exp2trials,NULL
1687453210,d1682a5761bdfafee81f074acf863578,PennController,6,0,experiment,NULL,VideoScrubber,slider-input,SelectedFrame,40,1687452995497,5e820b70239c3490a5e6015f,5e820b70239c3490a5e6015f,3,clean,critical,F,50,goal,high,exp2trials,NULL
1687453210,d1682a5761bdfafee81f074acf863578,PennController,6,0,experiment,NULL,PennController,5,_Trial_,End,1687453002109,5e820b70239c3490a5e6015f,5e820b70239c3490a5e6015f,3,clean,critical,F,50,goal,high,exp2trials,NULL
1687453210,d1682a5761bdfafee81f074acf863578,PennController,4,0,experiment,NULL,PennController,3,_Trial_,Start,1687453002110,5e820b70239c3490a5e6015f,5e820b70239c3490a5e6015f,1,vase,critical,F,25,goal,high,exp2trials,NULL
1687453210,d1682a5761bdfafee81f074acf863578,PennController,4,0,experiment,NULL,PennController,3,_Header_,Start,1687453002110,5e820b70239c3490a5e6015f,5e820b70239c3490a5e6015f,1,vase,critical,F,25,goal,high,exp2trials,NULL
1687453210,d1682a5761bdfafee81f074acf863578,PennController,4,0,experiment,NULL,PennController,3,_Header_,End,1687453002110,5e820b70239c3490a5e6015f,5e820b70239c3490a5e6015f,1,vase,critical,F,25,goal,high,exp2trials,NULL
1687453210,d1682a5761bdfafee81f074acf863578,PennController,4,0,experiment,NULL,Video,progression,buffer,0.003433,1687453005627,5e820b70239c3490a5e6015f,5e820b70239c3490a5e6015f,1,vase,critical,F,25,goal,high,exp2trials,NULL
1687453210,d1682a5761bdfafee81f074acf863578,PennController,4,0,experiment,NULL,VideoScrubber,slider-input,SelectedFrame,75,1687453009795,5e820b70239c3490a5e6015f,5e820b70239c3490a5e6015f,1,vase,critical,F,25,goal,high,exp2trials,NULL
1687453210,d1682a5761bdfafee81f074acf863578,PennController,4,0,experiment,NULL,PennController,3,_Trial_,End,1687453015649,5e820b70239c3490a5e6015f,5e820b70239c3490a5e6015f,1,vase,critical,F,25,goal,high,exp2trials,NULL
1687453210,d1682a5761bdfafee81f074acf863578,PennController,32,0,experiment,NULL,PennController,31,_Trial_,Start,1687453015650,5e820b70239c3490a5e6015f,5e820b70239c3490a5e6015f,29,frog,filler,F,25,goal,GoalB,exp2trials,NULL
1687453210,d1682a5761bdfafee81f074acf863578,PennController,32,0,experiment,NULL,PennController,31,_Header_,Start,1687453015650,5e820b70239c3490a5e6015f,5e820b70239c3490a5e6015f,29,frog,filler,F,25,goal,GoalB,exp2trials,NULL
1687453210,d1682a5761bdfafee81f074acf863578,PennController,32,0,experiment,NULL,PennController,31,_Header_,End,1687453015650,5e820b70239c3490a5e6015f,5e820b70239c3490a5e6015f,29,frog,filler,F,25,goal,GoalB,exp2trials,NULL
1687453210,d1682a5761bdfafee81f074acf863578,PennController,32,0,experiment,NULL,Video,progression,buffer,0.002632,1687453019167,5e820b70239c3490a5e6015f,5e820b70239c3490a5e6015f,29,frog,filler,F,25,goal,GoalB,exp2trials,NULL
1687453210,d1682a5761bdfafee81f074acf863578,PennController,32,0,experiment,NULL,VideoScrubber,slider-input,SelectedFrame,45,1687453021339,5e820b70239c3490a5e6015f,5e820b70239c3490a5e6015f,29,frog,filler,F,25,goal,GoalB,exp2trials,NULL
1687453210,d1682a5761bdfafee81f074acf863578,PennController,32,0,experiment,NULL,PennController,31,_Trial_,End,1687453025371,5e820b70239c3490a5e6015f,5e820b70239c3490a5e6015f,29,frog,filler,F,25,goal,GoalB,exp2trials,NULL
1687453210,d1682a5761bdfafee81f074acf863578,PennController,11,0,experiment,NULL,PennController,10,_Trial_,Start,1687453025372,5e820b70239c3490a5e6015f,5e820b70239c3490a5e6015f,8,cucumber,critical,F,25,goal,high,exp2trials,NULL
1687453210,d1682a5761bdfafee81f074acf863578,PennController,11,0,experiment,NULL,PennController,10,_Header_,Start,1687453025372,5e820b70239c3490a5e6015f,5e820b70239c3490a5e6015f,8,cucumber,critical,F,25,goal,high,exp2trials,NULL
1687453210,d1682a5761bdfafee81f074acf863578,PennController,11,0,experiment,NULL,PennController,10,_Header_,End,1687453025372,5e820b70239c3490a5e6015f,5e820b70239c3490a5e6015f,8,cucumber,critical,F,25,goal,high,exp2trials,NULL
1687453210,d1682a5761bdfafee81f074acf863578,PennController,11,0,experiment,NULL,Video,progression,buffer,0.002868,1687453028892,5e820b70239c3490a5e6015f,5e820b70239c3490a5e6015f,8,cucumber,critical,F,25,goal,high,exp2trials,NULL
1687453210,d1682a5761bdfafee81f074acf863578,PennController,11,0,experiment,NULL,VideoScrubber,slider-input,SelectedFrame,21,1687453031663,5e820b70239c3490a5e6015f,5e820b70239c3490a5e6015f,8,cucumber,critical,F,25,goal,high,exp2trials,NULL
1687453210,d1682a5761bdfafee81f074acf863578,PennController,11,0,experiment,NULL,PennController,10,_Trial_,End,1687453035436,5e820b70239c3490a5e6015f,5e820b70239c3490a5e6015f,8,cucumber,critical,F,25,goal,high,exp2trials,NULL
1687453210,d1682a5761bdfafee81f074acf863578,PennController,13,0,experiment,NULL,PennController,12,_Trial_,Start,1687453035437,5e820b70239c3490a5e6015f,5e820b70239c3490a5e6015f,10,train,critical,F,75,goal,high,exp2trials,NULL
1687453210,d1682a5761bdfafee81f074acf863578,PennController,13,0,experiment,NULL,PennController,12,_Header_,Start,1687453035437,5e820b70239c3490a5e6015f,5e820b70239c3490a5e6015f,10,train,critical,F,75,goal,high,exp2trials,NULL
1687453210,d1682a5761bdfafee81f074acf863578,PennController,13,0,experiment,NULL,PennController,12,_Header_,End,1687453035437,5e820b70239c3490a5e6015f,5e820b70239c3490a5e6015f,10,train,critical,F,75,goal,high,exp2trials,NULL
1687453210,d1682a5761bdfafee81f074acf863578,PennController,13,0,experiment,NULL,Video,progression,buffer,0.002619,1687453038954,5e820b70239c3490a5e6015f,5e820b70239c3490a5e6015f,10,train,critical,F,75,goal,high,exp2trials,NULL
1687453210,d1682a5761bdfafee81f074acf863578,PennController,13,0,experiment,NULL,VideoScrubber,slider-input,SelectedFrame,70,1687453043127,5e820b70239c3490a5e6015f,5e820b70239c3490a5e6015f,10,train,critical,F,75,goal,high,exp2trials,NULL
1687453210,d1682a5761bdfafee81f074acf863578,PennController,13,0,experiment,NULL,PennController,12,_Trial_,End,1687453047032,5e820b70239c3490a5e6015f,5e820b70239c3490a5e6015f,10,train,critical,F,75,goal,high,exp2trials,NULL
1687453210,d1682a5761bdfafee81f074acf863578,PennController,15,0,experiment,NULL,PennController,14,_Trial_,Start,1687453047033,5e820b70239c3490a5e6015f,5e820b70239c3490a5e6015f,12,erase,critical,F,50,goal,high,exp2trials,NULL
1687453210,d1682a5761bdfafee81f074acf863578,PennController,15,0,experiment,NULL,PennController,14,_Header_,Start,1687453047033,5e820b70239c3490a5e6015f,5e820b70239c3490a5e6015f,12,erase,critical,F,50,goal,high,exp2trials,NULL
1687453210,d1682a5761bdfafee81f074acf863578,PennController,15,0,experiment,NULL,PennController,14,_Header_,End,1687453047033,5e820b70239c3490a5e6015f,5e820b70239c3490a5e6015f,12,erase,critical,F,50,goal,high,exp2trials,NULL
1687453210,d1682a5761bdfafee81f074acf863578,PennController,15,0,experiment,NULL,Video,progression,buffer,0.00376,1687453050549,5e820b70239c3490a5e6015f,5e820b70239c3490a5e6015f,12,erase,critical,F,50,goal,high,exp2trials,NULL
1687453210,d1682a5761bdfafee81f074acf863578,PennController,15,0,experiment,NULL,VideoScrubber,slider-input,SelectedFrame,48,1687453055121,5e820b70239c3490a5e6015f,5e820b70239c3490a5e6015f,12,erase,critical,F,50,goal,high,exp2trials,NULL
1687453210,d1682a5761bdfafee81f074acf863578,PennController,15,0,experiment,NULL,PennController,14,_Trial_,End,1687453060719,5e820b70239c3490a5e6015f,5e820b70239c3490a5e6015f,12,erase,critical,F,50,goal,high,exp2trials,NULL
1687453210,d1682a5761bdfafee81f074acf863578,PennController,23,0,experiment,NULL,PennController,22,_Trial_,Start,1687453060720,5e820b70239c3490a5e6015f,5e820b70239c3490a5e6015f,20,cat,filler,F,25,goal,GoalA,exp2trials,NULL
1687453210,d1682a5761bdfafee81f074acf863578,PennController,23,0,experiment,NULL,PennController,22,_Header_,Start,1687453060720,5e820b70239c3490a5e6015f,5e820b70239c3490a5e6015f,20,cat,filler,F,25,goal,GoalA,exp2trials,NULL
1687453210,d1682a5761bdfafee81f074acf863578,PennController,23,0,experiment,NULL,PennController,22,_Header_,End,1687453060720,5e820b70239c3490a5e6015f,5e820b70239c3490a5e6015f,20,cat,filler,F,25,goal,GoalA,exp2trials,NULL
1687453210,d1682a5761bdfafee81f074acf863578,PennController,23,0,experiment,NULL,Video,progression,buffer,0.001981,1687453064238,5e820b70239c3490a5e6015f,5e820b70239c3490a5e6015f,20,cat,filler,F,25,goal,GoalA,exp2trials,NULL
1687453210,d1682a5761bdfafee81f074acf863578,PennController,23,0,experiment,NULL,VideoScrubber,slider-input,SelectedFrame,25,1687453066401,5e820b70239c3490a5e6015f,5e820b70239c3490a5e6015f,20,cat,filler,F,25,goal,GoalA,exp2trials,NULL
1687453210,d1682a5761bdfafee81f074acf863578,PennController,23,0,experiment,NULL,PennController,22,_Trial_,End,1687453070776,5e820b70239c3490a5e6015f,5e820b70239c3490a5e6015f,20,cat,filler,F,25,goal,GoalA,exp2trials,NULL
1687453210,d1682a5761bdfafee81f074acf863578,PennController,30,0,experiment,NULL,PennController,29,_Trial_,Start,1687453070777,5e820b70239c3490a5e6015f,5e820b70239c3490a5e6015f,27,square,filler,F,50,goal,GoalB,exp2trials,NULL
1687453210,d1682a5761bdfafee81f074acf863578,PennController,30,0,experiment,NULL,PennController,29,_Header_,Start,1687453070777,5e820b70239c3490a5e6015f,5e820b70239c3490a5e6015f,27,square,filler,F,50,goal,GoalB,exp2trials,NULL
1687453210,d1682a5761bdfafee81f074acf863578,PennController,30,0,experiment,NULL,PennController,29,_Header_,End,1687453070777,5e820b70239c3490a5e6015f,5e820b70239c3490a5e6015f,27,square,filler,F,50,goal,GoalB,exp2trials,NULL
1687453210,d1682a5761bdfafee81f074acf863578,PennController,30,0,experiment,NULL,Video,progression,buffer,0.00149,1687453074291,5e820b70239c3490a5e6015f,5e820b70239c3490a5e6015f,27,square,filler,F,50,goal,GoalB,exp2trials,NULL
1687453210,d1682a5761bdfafee81f074acf863578,PennController,30,0,experiment,NULL,VideoScrubber,slider-input,SelectedFrame,30,1687453077462,5e820b70239c3490a5e6015f,5e820b70239c3490a5e6015f,27,square,filler,F,50,goal,GoalB,exp2trials,NULL
1687453210,d1682a5761bdfafee81f074acf863578,PennController,30,0,experiment,NULL,PennController,29,_Trial_,End,1687453079322,5e820b70239c3490a5e6015f,5e820b70239c3490a5e6015f,27,square,filler,F,50,goal,GoalB,exp2trials,NULL
1687453210,d1682a5761bdfafee81f074acf863578,PennController,29,0,experiment,NULL,PennController,28,_Trial_,Start,1687453079323,5e820b70239c3490a5e6015f,5e820b70239c3490a5e6015f,26,sandwich,filler,F,25,goal,GoalA,exp2trials,NULL
1687453210,d1682a5761bdfafee81f074acf863578,PennController,29,0,experiment,NULL,PennController,28,_Header_,Start,1687453079323,5e820b70239c3490a5e6015f,5e820b70239c3490a5e6015f,26,sandwich,filler,F,25,goal,GoalA,exp2trials,NULL
1687453210,d1682a5761bdfafee81f074acf863578,PennController,29,0,experiment,NULL,PennController,28,_Header_,End,1687453079323,5e820b70239c3490a5e6015f,5e820b70239c3490a5e6015f,26,sandwich,filler,F,25,goal,GoalA,exp2trials,NULL
1687453210,d1682a5761bdfafee81f074acf863578,PennController,29,0,experiment,NULL,Video,progression,buffer,0.001845,1687453082843,5e820b70239c3490a5e6015f,5e820b70239c3490a5e6015f,26,sandwich,filler,F,25,goal,GoalA,exp2trials,NULL
1687453210,d1682a5761bdfafee81f074acf863578,PennController,29,0,experiment,NULL,VideoScrubber,slider-input,SelectedFrame,25,1687453085004,5e820b70239c3490a5e6015f,5e820b70239c3490a5e6015f,26,sandwich,filler,F,25,goal,GoalA,exp2trials,NULL
1687453210,d1682a5761bdfafee81f074acf863578,PennController,29,0,experiment,NULL,PennController,28,_Trial_,End,1687453088540,5e820b70239c3490a5e6015f,5e820b70239c3490a5e6015f,26,sandwich,filler,F,25,goal,GoalA,exp2trials,NULL
1687453210,d1682a5761bdfafee81f074acf863578,PennController,24,0,experiment,NULL,PennController,23,_Trial_,Start,1687453088541,5e820b70239c3490a5e6015f,5e820b70239c3490a5e6015f,21,visit,filler,F,50,goal,GoalB,exp2trials,NULL
1687453210,d1682a5761bdfafee81f074acf863578,PennController,24,0,experiment,NULL,PennController,23,_Header_,Start,1687453088541,5e820b70239c3490a5e6015f,5e820b70239c3490a5e6015f,21,visit,filler,F,50,goal,GoalB,exp2trials,NULL
1687453210,d1682a5761bdfafee81f074acf863578,PennController,24,0,experiment,NULL,PennController,23,_Header_,End,1687453088541,5e820b70239c3490a5e6015f,5e820b70239c3490a5e6015f,21,visit,filler,F,50,goal,GoalB,exp2trials,NULL
1687453210,d1682a5761bdfafee81f074acf863578,PennController,24,0,experiment,NULL,Video,progression,buffer,0.002769,1687453092059,5e820b70239c3490a5e6015f,5e820b70239c3490a5e6015f,21,visit,filler,F,50,goal,GoalB,exp2trials,NULL
1687453210,d1682a5761bdfafee81f074acf863578,PennController,24,0,experiment,NULL,VideoScrubber,slider-input,SelectedFrame,55,1687453095232,5e820b70239c3490a5e6015f,5e820b70239c3490a5e6015f,21,visit,filler,F,50,goal,GoalB,exp2trials,NULL
1687453210,d1682a5761bdfafee81f074acf863578,PennController,24,0,experiment,NULL,PennController,23,_Trial_,End,1687453098553,5e820b70239c3490a5e6015f,5e820b70239c3490a5e6015f,21,visit,filler,F,50,goal,GoalB,exp2trials,NULL
1687453210,d1682a5761bdfafee81f074acf863578,PennController,28,0,experiment,NULL,PennController,27,_Trial_,Start,1687453098554,5e820b70239c3490a5e6015f,5e820b70239c3490a5e6015f,25,house,filler,F,75,goal,GoalB,exp2trials,NULL
1687453210,d1682a5761bdfafee81f074acf863578,PennController,28,0,experiment,NULL,PennController,27,_Header_,Start,1687453098554,5e820b70239c3490a5e6015f,5e820b70239c3490a5e6015f,25,house,filler,F,75,goal,GoalB,exp2trials,NULL
1687453210,d1682a5761bdfafee81f074acf863578,PennController,28,0,experiment,NULL,PennController,27,_Header_,End,1687453098554,5e820b70239c3490a5e6015f,5e820b70239c3490a5e6015f,25,house,filler,F,75,goal,GoalB,exp2trials,NULL
1687453210,d1682a5761bdfafee81f074acf863578,PennController,28,0,experiment,NULL,Video,progression,buffer,0.002076,1687453102072,5e820b70239c3490a5e6015f,5e820b70239c3490a5e6015f,25,house,filler,F,75,goal,GoalB,exp2trials,NULL
1687453210,d1682a5761bdfafee81f074acf863578,PennController,28,0,experiment,NULL,VideoScrubber,slider-input,SelectedFrame,75,1687453106243,5e820b70239c3490a5e6015f,5e820b70239c3490a5e6015f,25,house,filler,F,75,goal,GoalB,exp2trials,NULL
1687453210,d1682a5761bdfafee81f074acf863578,PennController,28,0,experiment,NULL,PennController,27,_Trial_,End,1687453111638,5e820b70239c3490a5e6015f,5e820b70239c3490a5e6015f,25,house,filler,F,75,goal,GoalB,exp2trials,NULL
1687453210,d1682a5761bdfafee81f074acf863578,PennController,14,0,experiment,NULL,PennController,13,_Trial_,Start,1687453111639,5e820b70239c3490a5e6015f,5e820b70239c3490a5e6015f,11,beads,critical,F,25,goal,high,exp2trials,NULL
1687453210,d1682a5761bdfafee81f074acf863578,PennController,14,0,experiment,NULL,PennController,13,_Header_,Start,1687453111639,5e820b70239c3490a5e6015f,5e820b70239c3490a5e6015f,11,beads,critical,F,25,goal,high,exp2trials,NULL
1687453210,d1682a5761bdfafee81f074acf863578,PennController,14,0,experiment,NULL,PennController,13,_Header_,End,1687453111639,5e820b70239c3490a5e6015f,5e820b70239c3490a5e6015f,11,beads,critical,F,25,goal,high,exp2trials,NULL
1687453210,d1682a5761bdfafee81f074acf863578,PennController,14,0,experiment,NULL,Video,progression,buffer,0.002043,1687453115158,5e820b70239c3490a5e6015f,5e820b70239c3490a5e6015f,11,beads,critical,F,25,goal,high,exp2trials,NULL
1687453210,d1682a5761bdfafee81f074acf863578,PennController,14,0,experiment,NULL,VideoScrubber,slider-input,SelectedFrame,30,1687453117322,5e820b70239c3490a5e6015f,5e820b70239c3490a5e6015f,11,beads,critical,F,25,goal,high,exp2trials,NULL
1687453210,d1682a5761bdfafee81f074acf863578,PennController,14,0,experiment,NULL,PennController,13,_Trial_,End,1687453121094,5e820b70239c3490a5e6015f,5e820b70239c3490a5e6015f,11,beads,critical,F,25,goal,high,exp2trials,NULL
1687453210,d1682a5761bdfafee81f074acf863578,PennController,27,0,experiment,NULL,PennController,26,_Trial_,Start,1687453121095,5e820b70239c3490a5e6015f,5e820b70239c3490a5e6015f,24,match,filler,F,50,goal,GoalA,exp2trials,NULL
1687453210,d1682a5761bdfafee81f074acf863578,PennController,27,0,experiment,NULL,PennController,26,_Header_,Start,1687453121095,5e820b70239c3490a5e6015f,5e820b70239c3490a5e6015f,24,match,filler,F,50,goal,GoalA,exp2trials,NULL
1687453210,d1682a5761bdfafee81f074acf863578,PennController,27,0,experiment,NULL,PennController,26,_Header_,End,1687453121095,5e820b70239c3490a5e6015f,5e820b70239c3490a5e6015f,24,match,filler,F,50,goal,GoalA,exp2trials,NULL
1687453210,d1682a5761bdfafee81f074acf863578,PennController,27,0,experiment,NULL,Video,progression,buffer,0.002263,1687453124614,5e820b70239c3490a5e6015f,5e820b70239c3490a5e6015f,24,match,filler,F,50,goal,GoalA,exp2trials,NULL
1687453210,d1682a5761bdfafee81f074acf863578,PennController,27,0,experiment,NULL,VideoScrubber,slider-input,SelectedFrame,50,1687453127782,5e820b70239c3490a5e6015f,5e820b70239c3490a5e6015f,24,match,filler,F,50,goal,GoalA,exp2trials,NULL
1687453210,d1682a5761bdfafee81f074acf863578,PennController,27,0,experiment,NULL,PennController,26,_Trial_,End,1687453132389,5e820b70239c3490a5e6015f,5e820b70239c3490a5e6015f,24,match,filler,F,50,goal,GoalA,exp2trials,NULL
1687453210,d1682a5761bdfafee81f074acf863578,PennController,8,0,experiment,NULL,PennController,7,_Trial_,Start,1687453132390,5e820b70239c3490a5e6015f,5e820b70239c3490a5e6015f,5,book,critical,F,25,goal,high,exp2trials,NULL
1687453210,d1682a5761bdfafee81f074acf863578,PennController,8,0,experiment,NULL,PennController,7,_Header_,Start,1687453132390,5e820b70239c3490a5e6015f,5e820b70239c3490a5e6015f,5,book,critical,F,25,goal,high,exp2trials,NULL
1687453210,d1682a5761bdfafee81f074acf863578,PennController,8,0,experiment,NULL,PennController,7,_Header_,End,1687453132390,5e820b70239c3490a5e6015f,5e820b70239c3490a5e6015f,5,book,critical,F,25,goal,high,exp2trials,NULL
1687453210,d1682a5761bdfafee81f074acf863578,PennController,8,0,experiment,NULL,Video,progression,buffer,0.001716,1687453135901,5e820b70239c3490a5e6015f,5e820b70239c3490a5e6015f,5,book,critical,F,25,goal,high,exp2trials,NULL
1687453210,d1682a5761bdfafee81f074acf863578,PennController,8,0,experiment,NULL,VideoScrubber,slider-input,SelectedFrame,20,1687453138058,5e820b70239c3490a5e6015f,5e820b70239c3490a5e6015f,5,book,critical,F,25,goal,high,exp2trials,NULL
1687453210,d1682a5761bdfafee81f074acf863578,PennController,8,0,experiment,NULL,PennController,7,_Trial_,End,1687453140158,5e820b70239c3490a5e6015f,5e820b70239c3490a5e6015f,5,book,critical,F,25,goal,high,exp2trials,NULL
1687453210,d1682a5761bdfafee81f074acf863578,PennController,22,0,experiment,NULL,PennController,21,_Trial_,Start,1687453140159,5e820b70239c3490a5e6015f,5e820b70239c3490a5e6015f,19,cup,filler,F,75,goal,GoalB,exp2trials,NULL
1687453210,d1682a5761bdfafee81f074acf863578,PennController,22,0,experiment,NULL,PennController,21,_Header_,Start,1687453140159,5e820b70239c3490a5e6015f,5e820b70239c3490a5e6015f,19,cup,filler,F,75,goal,GoalB,exp2trials,NULL
1687453210,d1682a5761bdfafee81f074acf863578,PennController,22,0,experiment,NULL,PennController,21,_Header_,End,1687453140159,5e820b70239c3490a5e6015f,5e820b70239c3490a5e6015f,19,cup,filler,F,75,goal,GoalB,exp2trials,NULL
1687453210,d1682a5761bdfafee81f074acf863578,PennController,22,0,experiment,NULL,Video,progression,buffer,0.001825,1687453143672,5e820b70239c3490a5e6015f,5e820b70239c3490a5e6015f,19,cup,filler,F,75,goal,GoalB,exp2trials,NULL
1687453210,d1682a5761bdfafee81f074acf863578,PennController,22,0,experiment,NULL,VideoScrubber,slider-input,SelectedFrame,55,1687453147836,5e820b70239c3490a5e6015f,5e820b70239c3490a5e6015f,19,cup,filler,F,75,goal,GoalB,exp2trials,NULL
1687453210,d1682a5761bdfafee81f074acf863578,PennController,22,0,experiment,NULL,PennController,21,_Trial_,End,1687453149024,5e820b70239c3490a5e6015f,5e820b70239c3490a5e6015f,19,cup,filler,F,75,goal,GoalB,exp2trials,NULL
1687453210,d1682a5761bdfafee81f074acf863578,PennController,7,0,experiment,NULL,PennController,6,_Trial_,Start,1687453149025,5e820b70239c3490a5e6015f,5e820b70239c3490a5e6015f,4,candy,critical,F,75,goal,high,exp2trials,NULL
1687453210,d1682a5761bdfafee81f074acf863578,PennController,7,0,experiment,NULL,PennController,6,_Header_,Start,1687453149025,5e820b70239c3490a5e6015f,5e820b70239c3490a5e6015f,4,candy,critical,F,75,goal,high,exp2trials,NULL
1687453210,d1682a5761bdfafee81f074acf863578,PennController,7,0,experiment,NULL,PennController,6,_Header_,End,1687453149025,5e820b70239c3490a5e6015f,5e820b70239c3490a5e6015f,4,candy,critical,F,75,goal,high,exp2trials,NULL
1687453210,d1682a5761bdfafee81f074acf863578,PennController,7,0,experiment,NULL,Video,progression,buffer,0.002157,1687453152543,5e820b70239c3490a5e6015f,5e820b70239c3490a5e6015f,4,candy,critical,F,75,goal,high,exp2trials,NULL
1687453210,d1682a5761bdfafee81f074acf863578,PennController,7,0,experiment,NULL,VideoScrubber,slider-input,SelectedFrame,75,1687453156711,5e820b70239c3490a5e6015f,5e820b70239c3490a5e6015f,4,candy,critical,F,75,goal,high,exp2trials,NULL
1687453210,d1682a5761bdfafee81f074acf863578,PennController,7,0,experiment,NULL,PennController,6,_Trial_,End,1687453160523,5e820b70239c3490a5e6015f,5e820b70239c3490a5e6015f,4,candy,critical,F,75,goal,high,exp2trials,NULL
1687453210,d1682a5761bdfafee81f074acf863578,PennController,19,0,experiment,NULL,PennController,18,_Trial_,Start,1687453160524,5e820b70239c3490a5e6015f,5e820b70239c3490a5e6015f,16,blinds,critical,F,75,goal,high,exp2trials,NULL
1687453210,d1682a5761bdfafee81f074acf863578,PennController,19,0,experiment,NULL,PennController,18,_Header_,Start,1687453160524,5e820b70239c3490a5e6015f,5e820b70239c3490a5e6015f,16,blinds,critical,F,75,goal,high,exp2trials,NULL
1687453210,d1682a5761bdfafee81f074acf863578,PennController,19,0,experiment,NULL,PennController,18,_Header_,End,1687453160524,5e820b70239c3490a5e6015f,5e820b70239c3490a5e6015f,16,blinds,critical,F,75,goal,high,exp2trials,NULL
1687453210,d1682a5761bdfafee81f074acf863578,PennController,19,0,experiment,NULL,Video,progression,buffer,0.001995,1687453164041,5e820b70239c3490a5e6015f,5e820b70239c3490a5e6015f,16,blinds,critical,F,75,goal,high,exp2trials,NULL
1687453210,d1682a5761bdfafee81f074acf863578,PennController,19,0,experiment,NULL,VideoScrubber,slider-input,SelectedFrame,84,1687453170209,5e820b70239c3490a5e6015f,5e820b70239c3490a5e6015f,16,blinds,critical,F,75,goal,high,exp2trials,NULL
1687453210,d1682a5761bdfafee81f074acf863578,PennController,19,0,experiment,NULL,PennController,18,_Trial_,End,1687453175529,5e820b70239c3490a5e6015f,5e820b70239c3490a5e6015f,16,blinds,critical,F,75,goal,high,exp2trials,NULL
1687453210,d1682a5761bdfafee81f074acf863578,PennController,17,0,experiment,NULL,PennController,16,_Trial_,Start,1687453175531,5e820b70239c3490a5e6015f,5e820b70239c3490a5e6015f,14,cover,critical,F,25,goal,high,exp2trials,NULL
1687453210,d1682a5761bdfafee81f074acf863578,PennController,17,0,experiment,NULL,PennController,16,_Header_,Start,1687453175531,5e820b70239c3490a5e6015f,5e820b70239c3490a5e6015f,14,cover,critical,F,25,goal,high,exp2trials,NULL
1687453210,d1682a5761bdfafee81f074acf863578,PennController,17,0,experiment,NULL,PennController,16,_Header_,End,1687453175531,5e820b70239c3490a5e6015f,5e820b70239c3490a5e6015f,14,cover,critical,F,25,goal,high,exp2trials,NULL
1687453210,d1682a5761bdfafee81f074acf863578,PennController,17,0,experiment,NULL,Video,progression,buffer,0.002853,1687453179049,5e820b70239c3490a5e6015f,5e820b70239c3490a5e6015f,14,cover,critical,F,25,goal,high,exp2trials,NULL
1687453210,d1682a5761bdfafee81f074acf863578,PennController,17,0,experiment,NULL,VideoScrubber,slider-input,SelectedFrame,21,1687453181819,5e820b70239c3490a5e6015f,5e820b70239c3490a5e6015f,14,cover,critical,F,25,goal,high,exp2trials,NULL
1687453210,d1682a5761bdfafee81f074acf863578,PennController,17,0,experiment,NULL,PennController,16,_Trial_,End,1687453186711,5e820b70239c3490a5e6015f,5e820b70239c3490a5e6015f,14,cover,critical,F,25,goal,high,exp2trials,NULL
1687453210,d1682a5761bdfafee81f074acf863578,PennController,25,0,experiment,NULL,PennController,24,_Trial_,Start,1687453186712,5e820b70239c3490a5e6015f,5e820b70239c3490a5e6015f,22,wall,filler,F,75,goal,GoalA,exp2trials,NULL
1687453210,d1682a5761bdfafee81f074acf863578,PennController,25,0,experiment,NULL,PennController,24,_Header_,Start,1687453186712,5e820b70239c3490a5e6015f,5e820b70239c3490a5e6015f,22,wall,filler,F,75,goal,GoalA,exp2trials,NULL
1687453210,d1682a5761bdfafee81f074acf863578,PennController,25,0,experiment,NULL,PennController,24,_Header_,End,1687453186712,5e820b70239c3490a5e6015f,5e820b70239c3490a5e6015f,22,wall,filler,F,75,goal,GoalA,exp2trials,NULL
1687453210,d1682a5761bdfafee81f074acf863578,PennController,25,0,experiment,NULL,Video,progression,buffer,0.002348,1687453190224,5e820b70239c3490a5e6015f,5e820b70239c3490a5e6015f,22,wall,filler,F,75,goal,GoalA,exp2trials,NULL
1687453210,d1682a5761bdfafee81f074acf863578,PennController,25,0,experiment,NULL,VideoScrubber,slider-input,SelectedFrame,75,1687453194399,5e820b70239c3490a5e6015f,5e820b70239c3490a5e6015f,22,wall,filler,F,75,goal,GoalA,exp2trials,NULL
1687453210,d1682a5761bdfafee81f074acf863578,PennController,25,0,experiment,NULL,PennController,24,_Trial_,End,1687453199103,5e820b70239c3490a5e6015f,5e820b70239c3490a5e6015f,22,wall,filler,F,75,goal,GoalA,exp2trials,NULL
1687453210,d1682a5761bdfafee81f074acf863578,PennController,31,0,experiment,NULL,PennController,30,_Trial_,Start,1687453199104,5e820b70239c3490a5e6015f,5e820b70239c3490a5e6015f,28,sort,filler,F,75,goal,GoalA,exp2trials,NULL
1687453210,d1682a5761bdfafee81f074acf863578,PennController,31,0,experiment,NULL,PennController,30,_Header_,Start,1687453199104,5e820b70239c3490a5e6015f,5e820b70239c3490a5e6015f,28,sort,filler,F,75,goal,GoalA,exp2trials,NULL
1687453210,d1682a5761bdfafee81f074acf863578,PennController,31,0,experiment,NULL,PennController,30,_Header_,End,1687453199104,5e820b70239c3490a5e6015f,5e820b70239c3490a5e6015f,28,sort,filler,F,75,goal,GoalA,exp2trials,NULL
1687453210,d1682a5761bdfafee81f074acf863578,PennController,31,0,experiment,NULL,Video,progression,buffer,0.002969,1687453202625,5e820b70239c3490a5e6015f,5e820b70239c3490a5e6015f,28,sort,filler,F,75,goal,GoalA,exp2trials,NULL
1687453210,d1682a5761bdfafee81f074acf863578,PennController,31,0,experiment,NULL,VideoScrubber,slider-input,SelectedFrame,75,1687453206795,5e820b70239c3490a5e6015f,5e820b70239c3490a5e6015f,28,sort,filler,F,75,goal,GoalA,exp2trials,NULL
1687453210,d1682a5761bdfafee81f074acf863578,PennController,31,0,experiment,NULL,PennController,30,_Trial_,End,1687453211145,5e820b70239c3490a5e6015f,5e820b70239c3490a5e6015f,28,sort,filler,F,75,goal,GoalA,exp2trials,NULL
