#
# Results on Thursday June 22 2023 17:00:15 UTC
# USER AGENT: Mozilla/5.0 (Windows NT 10.0; Win64; x64) AppleWebKit/537.36 (KHTML, like Gecko) Chrome/114.0.0.0 Safari/537.36
# Design number was non-random = 53
#
# Columns below this comment are as follows:
# 1. Results reception time.
# 2. MD5 hash of participant's IP address.
# 3. Controller name.
# 4. Order number of item.
# 5. Inner element number.
# 6. Label.
# 7. Latin Square Group.
# 8. PennElementType.
# 9. PennElementName.
# 10. Parameter.
# 11. Value.
# 12. EventTime.
# 13. ProlificID.
# 14. Comments.
1687453215,e7bc71c1130334296cd236e284d00c65,PennController,2,0,consent,NULL,PennController,0,_Trial_,Start,1687452787038,60a69d04e5534b81417680ce,NULL
1687453215,e7bc71c1130334296cd236e284d00c65,PennController,2,0,consent,NULL,PennController,0,_Header_,Start,1687452787038,60a69d04e5534b81417680ce,NULL
1687453215,e7bc71c1130334296cd236e284d00c65,PennController,2,0,consent,NULL,PennController,0,_Header_,End,1687452787170,60a69d04e5534b81417680ce,NULL
1687453215,e7bc71c1130334296cd236e284d00c65,PennController,2,0,consent,NULL,PennController,0,_Trial_,End,1687452793149,60a69d04e5534b81417680ce,NULL
# Columns below this comment are as follows:
# 14. ID.
# 15. Comments.
1687453215,e7bc71c1130334296cd236e284d00c65,PennController,3,0,intro,NULL,PennController,1,_Trial_,Start,1687452793151,60a69d04e5534b81417680ce,60a69d04e5534b81417680ce,NULL
1687453215,e7bc71c1130334296cd236e284d00c65,PennController,3,0,intro,NULL,PennController,1,_Header_,Start,1687452793151,60a69d04e5534b81417680ce,60a69d04e5534b81417680ce,NULL
1687453215,e7bc71c1130334296cd236e284d00c65,PennController,3,0,intro,NULL,PennController,1,_Header_,End,1687452793151,60a69d04e5534b81417680ce,60a69d04e5534b81417680ce,NULL
1687453215,e7bc71c1130334296cd236e284d00c65,PennController,3,0,intro,NULL,PennController,1,_Trial_,End,1687452798829,60a69d04e5534b81417680ce,60a69d04e5534b81417680ce,NULL
# Columns below this comment are as follows:
# 15. item_number.
# 16. item.
# 17. type.
# 18. Group.
# 19. prog.
# 20. condition.
# 21. height.
# 22. exp2trials.
# 23. Comments.
1687453215,e7bc71c1130334296cd236e284d00c65,PennController,23,0,experiment,NULL,PennController,22,_Trial_,Start,1687452798831,60a69d04e5534b81417680ce,60a69d04e5534b81417680ce,20,cat,filler,I,25,nogoal,none,exp2trials,NULL
1687453215,e7bc71c1130334296cd236e284d00c65,PennController,23,0,experiment,NULL,PennController,22,_Header_,Start,1687452798831,60a69d04e5534b81417680ce,60a69d04e5534b81417680ce,20,cat,filler,I,25,nogoal,none,exp2trials,NULL
1687453215,e7bc71c1130334296cd236e284d00c65,PennController,23,0,experiment,NULL,PennController,22,_Header_,End,1687452798832,60a69d04e5534b81417680ce,60a69d04e5534b81417680ce,20,cat,filler,I,25,nogoal,none,exp2trials,NULL
1687453215,e7bc71c1130334296cd236e284d00c65,PennController,23,0,experiment,NULL,Video,progression,buffer,0.014836,1687452802398,60a69d04e5534b81417680ce,60a69d04e5534b81417680ce,20,cat,filler,I,25,nogoal,none,exp2trials,NULL
1687453215,e7bc71c1130334296cd236e284d00c65,PennController,23,0,experiment,NULL,VideoScrubber,slider-input,SelectedFrame,0,1687452804593,60a69d04e5534b81417680ce,60a69d04e5534b81417680ce,20,cat,filler,I,25,nogoal,none,exp2trials,NULL
1687453215,e7bc71c1130334296cd236e284d00c65,PennController,23,0,experiment,NULL,PennController,22,_Trial_,End,1687452819457,60a69d04e5534b81417680ce,60a69d04e5534b81417680ce,20,cat,filler,I,25,nogoal,none,exp2trials,NULL
1687453215,e7bc71c1130334296cd236e284d00c65,PennController,16,0,experiment,NULL,PennController,15,_Trial_,Start,1687452819459,60a69d04e5534b81417680ce,60a69d04e5534b81417680ce,13,mix,critical,I,75,nogoal,none,exp2trials,NULL
1687453215,e7bc71c1130334296cd236e284d00c65,PennController,16,0,experiment,NULL,PennController,15,_Header_,Start,1687452819459,60a69d04e5534b81417680ce,60a69d04e5534b81417680ce,13,mix,critical,I,75,nogoal,none,exp2trials,NULL
1687453215,e7bc71c1130334296cd236e284d00c65,PennController,16,0,experiment,NULL,PennController,15,_Header_,End,1687452819459,60a69d04e5534b81417680ce,60a69d04e5534b81417680ce,13,mix,critical,I,75,nogoal,none,exp2trials,NULL
1687453215,e7bc71c1130334296cd236e284d00c65,PennController,16,0,experiment,NULL,Video,progression,buffer,0.01022,1687452823006,60a69d04e5534b81417680ce,60a69d04e5534b81417680ce,13,mix,critical,I,75,nogoal,none,exp2trials,NULL
1687453215,e7bc71c1130334296cd236e284d00c65,PennController,16,0,experiment,NULL,VideoScrubber,slider-input,SelectedFrame,45,1687452827178,60a69d04e5534b81417680ce,60a69d04e5534b81417680ce,13,mix,critical,I,75,nogoal,none,exp2trials,NULL
1687453215,e7bc71c1130334296cd236e284d00c65,PennController,16,0,experiment,NULL,PennController,15,_Trial_,End,1687452837689,60a69d04e5534b81417680ce,60a69d04e5534b81417680ce,13,mix,critical,I,75,nogoal,none,exp2trials,NULL
1687453215,e7bc71c1130334296cd236e284d00c65,PennController,14,0,experiment,NULL,PennController,13,_Trial_,Start,1687452837690,60a69d04e5534b81417680ce,60a69d04e5534b81417680ce,11,beads,critical,I,25,nogoal,none,exp2trials,NULL
1687453215,e7bc71c1130334296cd236e284d00c65,PennController,14,0,experiment,NULL,PennController,13,_Header_,Start,1687452837690,60a69d04e5534b81417680ce,60a69d04e5534b81417680ce,11,beads,critical,I,25,nogoal,none,exp2trials,NULL
1687453215,e7bc71c1130334296cd236e284d00c65,PennController,14,0,experiment,NULL,PennController,13,_Header_,End,1687452837690,60a69d04e5534b81417680ce,60a69d04e5534b81417680ce,11,beads,critical,I,25,nogoal,none,exp2trials,NULL
1687453215,e7bc71c1130334296cd236e284d00c65,PennController,14,0,experiment,NULL,Video,progression,buffer,0.017103,1687452841242,60a69d04e5534b81417680ce,60a69d04e5534b81417680ce,11,beads,critical,I,25,nogoal,none,exp2trials,NULL
1687453215,e7bc71c1130334296cd236e284d00c65,PennController,14,0,experiment,NULL,VideoScrubber,slider-input,SelectedFrame,10,1687452843416,60a69d04e5534b81417680ce,60a69d04e5534b81417680ce,11,beads,critical,I,25,nogoal,none,exp2trials,NULL
1687453215,e7bc71c1130334296cd236e284d00c65,PennController,14,0,experiment,NULL,PennController,13,_Trial_,End,1687452847810,60a69d04e5534b81417680ce,60a69d04e5534b81417680ce,11,beads,critical,I,25,nogoal,none,exp2trials,NULL
1687453215,e7bc71c1130334296cd236e284d00c65,PennController,31,0,experiment,NULL,PennController,30,_Trial_,Start,1687452847811,60a69d04e5534b81417680ce,60a69d04e5534b81417680ce,28,sort,filler,I,75,nogoal,none,exp2trials,NULL
1687453215,e7bc71c1130334296cd236e284d00c65,PennController,31,0,experiment,NULL,PennController,30,_Header_,Start,1687452847811,60a69d04e5534b81417680ce,60a69d04e5534b81417680ce,28,sort,filler,I,75,nogoal,none,exp2trials,NULL
1687453215,e7bc71c1130334296cd236e284d00c65,PennController,31,0,experiment,NULL,PennController,30,_Header_,End,1687452847811,60a69d04e5534b81417680ce,60a69d04e5534b81417680ce,28,sort,filler,I,75,nogoal,none,exp2trials,NULL
1687453215,e7bc71c1130334296cd236e284d00c65,PennController,31,0,experiment,NULL,Video,progression,buffer,0.01614,1687452851362,60a69d04e5534b81417680ce,60a69d04e5534b81417680ce,28,sort,filler,I,75,nogoal,none,exp2trials,NULL
1687453215,e7bc71c1130334296cd236e284d00c65,PennController,31,0,experiment,NULL,VideoScrubber,slider-input,SelectedFrame,45,1687452855536,60a69d04e5534b81417680ce,60a69d04e5534b81417680ce,28,sort,filler,I,75,nogoal,none,exp2trials,NULL
1687453215,e7bc71c1130334296cd236e284d00c65,PennController,31,0,experiment,NULL,PennController,30,_Trial_,End,1687452861481,60a69d04e5534b81417680ce,60a69d04e5534b81417680ce,28,sort,filler,I,75,nogoal,none,exp2trials,NULL
1687453215,e7bc71c1130334296cd236e284d00c65,PennController,11,0,experiment,NULL,PennController,10,_Trial_,Start,1687452861482,60a69d04e5534b81417680ce,60a69d04e5534b81417680ce,8,cucumber,critical,I,25,nogoal,none,exp2trials,NULL
1687453215,e7bc71c1130334296cd236e284d00c65,PennController,11,0,experiment,NULL,PennController,10,_Header_,Start,1687452861482,60a69d04e5534b81417680ce,60a69d04e5534b81417680ce,8,cucumber,critical,I,25,nogoal,none,exp2trials,NULL
1687453215,e7bc71c1130334296cd236e284d00c65,PennController,11,0,experiment,NULL,PennController,10,_Header_,End,1687452861483,60a69d04e5534b81417680ce,60a69d04e5534b81417680ce,8,cucumber,critical,I,25,nogoal,none,exp2trials,NULL
1687453215,e7bc71c1130334296cd236e284d00c65,PennController,11,0,experiment,NULL,Video,progression,buffer,0.008357,1687452865032,60a69d04e5534b81417680ce,60a69d04e5534b81417680ce,8,cucumber,critical,I,25,nogoal,none,exp2trials,NULL
1687453215,e7bc71c1130334296cd236e284d00c65,PennController,11,0,experiment,NULL,VideoScrubber,slider-input,SelectedFrame,69,1687452867810,60a69d04e5534b81417680ce,60a69d04e5534b81417680ce,8,cucumber,critical,I,25,nogoal,none,exp2trials,NULL
1687453215,e7bc71c1130334296cd236e284d00c65,PennController,11,0,experiment,NULL,PennController,10,_Trial_,End,1687452873569,60a69d04e5534b81417680ce,60a69d04e5534b81417680ce,8,cucumber,critical,I,25,nogoal,none,exp2trials,NULL
1687453215,e7bc71c1130334296cd236e284d00c65,PennController,9,0,experiment,NULL,PennController,8,_Trial_,Start,1687452873570,60a69d04e5534b81417680ce,60a69d04e5534b81417680ce,6,flower,critical,I,50,nogoal,none,exp2trials,NULL
1687453215,e7bc71c1130334296cd236e284d00c65,PennController,9,0,experiment,NULL,PennController,8,_Header_,Start,1687452873570,60a69d04e5534b81417680ce,60a69d04e5534b81417680ce,6,flower,critical,I,50,nogoal,none,exp2trials,NULL
1687453215,e7bc71c1130334296cd236e284d00c65,PennController,9,0,experiment,NULL,PennController,8,_Header_,End,1687452873571,60a69d04e5534b81417680ce,60a69d04e5534b81417680ce,6,flower,critical,I,50,nogoal,none,exp2trials,NULL
1687453215,e7bc71c1130334296cd236e284d00c65,PennController,9,0,experiment,NULL,Video,progression,buffer,0.014516,1687452877129,60a69d04e5534b81417680ce,60a69d04e5534b81417680ce,6,flower,critical,I,50,nogoal,none,exp2trials,NULL
1687453215,e7bc71c1130334296cd236e284d00c65,PennController,9,0,experiment,NULL,VideoScrubber,slider-input,SelectedFrame,0,1687452880300,60a69d04e5534b81417680ce,60a69d04e5534b81417680ce,6,flower,critical,I,50,nogoal,none,exp2trials,NULL
1687453215,e7bc71c1130334296cd236e284d00c65,PennController,9,0,experiment,NULL,PennController,8,_Trial_,End,1687452885297,60a69d04e5534b81417680ce,60a69d04e5534b81417680ce,6,flower,critical,I,50,nogoal,none,exp2trials,NULL
1687453215,e7bc71c1130334296cd236e284d00c65,PennController,30,0,experiment,NULL,PennController,29,_Trial_,Start,1687452885298,60a69d04e5534b81417680ce,60a69d04e5534b81417680ce,27,square,filler,I,50,nogoal,none,exp2trials,NULL
1687453215,e7bc71c1130334296cd236e284d00c65,PennController,30,0,experiment,NULL,PennController,29,_Header_,Start,1687452885298,60a69d04e5534b81417680ce,60a69d04e5534b81417680ce,27,square,filler,I,50,nogoal,none,exp2trials,NULL
1687453215,e7bc71c1130334296cd236e284d00c65,PennController,30,0,experiment,NULL,PennController,29,_Header_,End,1687452885298,60a69d04e5534b81417680ce,60a69d04e5534b81417680ce,27,square,filler,I,50,nogoal,none,exp2trials,NULL
1687453215,e7bc71c1130334296cd236e284d00c65,PennController,30,0,experiment,NULL,Video,progression,buffer,0.012662,1687452888848,60a69d04e5534b81417680ce,60a69d04e5534b81417680ce,27,square,filler,I,50,nogoal,none,exp2trials,NULL
1687453215,e7bc71c1130334296cd236e284d00c65,PennController,30,0,experiment,NULL,VideoScrubber,slider-input,SelectedFrame,45,1687452892015,60a69d04e5534b81417680ce,60a69d04e5534b81417680ce,27,square,filler,I,50,nogoal,none,exp2trials,NULL
1687453215,e7bc71c1130334296cd236e284d00c65,PennController,30,0,experiment,NULL,PennController,29,_Trial_,End,1687452904521,60a69d04e5534b81417680ce,60a69d04e5534b81417680ce,27,square,filler,I,50,nogoal,none,exp2trials,NULL
1687453215,e7bc71c1130334296cd236e284d00c65,PennController,21,0,experiment,NULL,PennController,20,_Trial_,Start,1687452904522,60a69d04e5534b81417680ce,60a69d04e5534b81417680ce,18,ball,critical,I,50,nogoal,none,exp2trials,NULL
1687453215,e7bc71c1130334296cd236e284d00c65,PennController,21,0,experiment,NULL,PennController,20,_Header_,Start,1687452904522,60a69d04e5534b81417680ce,60a69d04e5534b81417680ce,18,ball,critical,I,50,nogoal,none,exp2trials,NULL
1687453215,e7bc71c1130334296cd236e284d00c65,PennController,21,0,experiment,NULL,PennController,20,_Header_,End,1687452904522,60a69d04e5534b81417680ce,60a69d04e5534b81417680ce,18,ball,critical,I,50,nogoal,none,exp2trials,NULL
1687453215,e7bc71c1130334296cd236e284d00c65,PennController,21,0,experiment,NULL,Video,progression,buffer,0.008943,1687452908068,60a69d04e5534b81417680ce,60a69d04e5534b81417680ce,18,ball,critical,I,50,nogoal,none,exp2trials,NULL
1687453215,e7bc71c1130334296cd236e284d00c65,PennController,21,0,experiment,NULL,VideoScrubber,slider-input,SelectedFrame,40,1687452911238,60a69d04e5534b81417680ce,60a69d04e5534b81417680ce,18,ball,critical,I,50,nogoal,none,exp2trials,NULL
1687453215,e7bc71c1130334296cd236e284d00c65,PennController,21,0,experiment,NULL,PennController,20,_Trial_,End,1687452916585,60a69d04e5534b81417680ce,60a69d04e5534b81417680ce,18,ball,critical,I,50,nogoal,none,exp2trials,NULL
1687453215,e7bc71c1130334296cd236e284d00c65,PennController,12,0,experiment,NULL,PennController,11,_Trial_,Start,1687452916587,60a69d04e5534b81417680ce,60a69d04e5534b81417680ce,9,cake,critical,I,50,nogoal,none,exp2trials,NULL
1687453215,e7bc71c1130334296cd236e284d00c65,PennController,12,0,experiment,NULL,PennController,11,_Header_,Start,1687452916587,60a69d04e5534b81417680ce,60a69d04e5534b81417680ce,9,cake,critical,I,50,nogoal,none,exp2trials,NULL
1687453215,e7bc71c1130334296cd236e284d00c65,PennController,12,0,experiment,NULL,PennController,11,_Header_,End,1687452916587,60a69d04e5534b81417680ce,60a69d04e5534b81417680ce,9,cake,critical,I,50,nogoal,none,exp2trials,NULL
1687453215,e7bc71c1130334296cd236e284d00c65,PennController,12,0,experiment,NULL,Video,progression,buffer,0.013983,1687452920141,60a69d04e5534b81417680ce,60a69d04e5534b81417680ce,9,cake,critical,I,50,nogoal,none,exp2trials,NULL
1687453215,e7bc71c1130334296cd236e284d00c65,PennController,12,0,experiment,NULL,VideoScrubber,slider-input,SelectedFrame,72,1687452924713,60a69d04e5534b81417680ce,60a69d04e5534b81417680ce,9,cake,critical,I,50,nogoal,none,exp2trials,NULL
1687453215,e7bc71c1130334296cd236e284d00c65,PennController,12,0,experiment,NULL,PennController,11,_Trial_,End,1687452928889,60a69d04e5534b81417680ce,60a69d04e5534b81417680ce,9,cake,critical,I,50,nogoal,none,exp2trials,NULL
1687453215,e7bc71c1130334296cd236e284d00c65,PennController,5,0,experiment,NULL,PennController,4,_Trial_,Start,1687452928890,60a69d04e5534b81417680ce,60a69d04e5534b81417680ce,2,door,critical,I,25,nogoal,none,exp2trials,NULL
1687453215,e7bc71c1130334296cd236e284d00c65,PennController,5,0,experiment,NULL,PennController,4,_Header_,Start,1687452928890,60a69d04e5534b81417680ce,60a69d04e5534b81417680ce,2,door,critical,I,25,nogoal,none,exp2trials,NULL
1687453215,e7bc71c1130334296cd236e284d00c65,PennController,5,0,experiment,NULL,PennController,4,_Header_,End,1687452928890,60a69d04e5534b81417680ce,60a69d04e5534b81417680ce,2,door,critical,I,25,nogoal,none,exp2trials,NULL
1687453215,e7bc71c1130334296cd236e284d00c65,PennController,5,0,experiment,NULL,Video,progression,buffer,0.014361,1687452932441,60a69d04e5534b81417680ce,60a69d04e5534b81417680ce,2,door,critical,I,25,nogoal,none,exp2trials,NULL
1687453215,e7bc71c1130334296cd236e284d00c65,PennController,5,0,experiment,NULL,VideoScrubber,slider-input,SelectedFrame,25,1687452934613,60a69d04e5534b81417680ce,60a69d04e5534b81417680ce,2,door,critical,I,25,nogoal,none,exp2trials,NULL
1687453215,e7bc71c1130334296cd236e284d00c65,PennController,5,0,experiment,NULL,PennController,4,_Trial_,End,1687452941017,60a69d04e5534b81417680ce,60a69d04e5534b81417680ce,2,door,critical,I,25,nogoal,none,exp2trials,NULL
1687453215,e7bc71c1130334296cd236e284d00c65,PennController,27,0,experiment,NULL,PennController,26,_Trial_,Start,1687452941018,60a69d04e5534b81417680ce,60a69d04e5534b81417680ce,24,match,filler,I,50,nogoal,none,exp2trials,NULL
1687453215,e7bc71c1130334296cd236e284d00c65,PennController,27,0,experiment,NULL,PennController,26,_Header_,Start,1687452941018,60a69d04e5534b81417680ce,60a69d04e5534b81417680ce,24,match,filler,I,50,nogoal,none,exp2trials,NULL
1687453215,e7bc71c1130334296cd236e284d00c65,PennController,27,0,experiment,NULL,PennController,26,_Header_,End,1687452941018,60a69d04e5534b81417680ce,60a69d04e5534b81417680ce,24,match,filler,I,50,nogoal,none,exp2trials,NULL
1687453215,e7bc71c1130334296cd236e284d00c65,PennController,27,0,experiment,NULL,Video,progression,buffer,0.012997,1687452944570,60a69d04e5534b81417680ce,60a69d04e5534b81417680ce,24,match,filler,I,50,nogoal,none,exp2trials,NULL
1687453215,e7bc71c1130334296cd236e284d00c65,PennController,27,0,experiment,NULL,VideoScrubber,slider-input,SelectedFrame,50,1687452947748,60a69d04e5534b81417680ce,60a69d04e5534b81417680ce,24,match,filler,I,50,nogoal,none,exp2trials,NULL
1687453215,e7bc71c1130334296cd236e284d00c65,PennController,27,0,experiment,NULL,PennController,26,_Trial_,End,1687452953617,60a69d04e5534b81417680ce,60a69d04e5534b81417680ce,24,match,filler,I,50,nogoal,none,exp2trials,NULL
1687453215,e7bc71c1130334296cd236e284d00c65,PennController,20,0,experiment,NULL,PennController,19,_Trial_,Start,1687452953618,60a69d04e5534b81417680ce,60a69d04e5534b81417680ce,17,roll,critical,I,25,nogoal,none,exp2trials,NULL
1687453215,e7bc71c1130334296cd236e284d00c65,PennController,20,0,experiment,NULL,PennController,19,_Header_,Start,1687452953618,60a69d04e5534b81417680ce,60a69d04e5534b81417680ce,17,roll,critical,I,25,nogoal,none,exp2trials,NULL
1687453215,e7bc71c1130334296cd236e284d00c65,PennController,20,0,experiment,NULL,PennController,19,_Header_,End,1687452953618,60a69d04e5534b81417680ce,60a69d04e5534b81417680ce,17,roll,critical,I,25,nogoal,none,exp2trials,NULL
1687453215,e7bc71c1130334296cd236e284d00c65,PennController,20,0,experiment,NULL,Video,progression,buffer,0,1687452957169,60a69d04e5534b81417680ce,60a69d04e5534b81417680ce,17,roll,critical,I,25,nogoal,none,exp2trials,NULL
1687453215,e7bc71c1130334296cd236e284d00c65,PennController,20,0,experiment,NULL,VideoScrubber,slider-input,SelectedFrame,35,1687452959384,60a69d04e5534b81417680ce,60a69d04e5534b81417680ce,17,roll,critical,I,25,nogoal,none,exp2trials,NULL
1687453215,e7bc71c1130334296cd236e284d00c65,PennController,20,0,experiment,NULL,PennController,19,_Trial_,End,1687452964865,60a69d04e5534b81417680ce,60a69d04e5534b81417680ce,17,roll,critical,I,25,nogoal,none,exp2trials,NULL
1687453215,e7bc71c1130334296cd236e284d00c65,PennController,22,0,experiment,NULL,PennController,21,_Trial_,Start,1687452964866,60a69d04e5534b81417680ce,60a69d04e5534b81417680ce,19,cup,filler,I,75,nogoal,none,exp2trials,NULL
1687453215,e7bc71c1130334296cd236e284d00c65,PennController,22,0,experiment,NULL,PennController,21,_Header_,Start,1687452964866,60a69d04e5534b81417680ce,60a69d04e5534b81417680ce,19,cup,filler,I,75,nogoal,none,exp2trials,NULL
1687453215,e7bc71c1130334296cd236e284d00c65,PennController,22,0,experiment,NULL,PennController,21,_Header_,End,1687452964866,60a69d04e5534b81417680ce,60a69d04e5534b81417680ce,19,cup,filler,I,75,nogoal,none,exp2trials,NULL
1687453215,e7bc71c1130334296cd236e284d00c65,PennController,22,0,experiment,NULL,Video,progression,buffer,0.009227,1687452968404,60a69d04e5534b81417680ce,60a69d04e5534b81417680ce,19,cup,filler,I,75,nogoal,none,exp2trials,NULL
1687453215,e7bc71c1130334296cd236e284d00c65,PennController,22,0,experiment,NULL,VideoScrubber,slider-input,SelectedFrame,35,1687452972572,60a69d04e5534b81417680ce,60a69d04e5534b81417680ce,19,cup,filler,I,75,nogoal,none,exp2trials,NULL
1687453215,e7bc71c1130334296cd236e284d00c65,PennController,22,0,experiment,NULL,PennController,21,_Trial_,End,1687452984657,60a69d04e5534b81417680ce,60a69d04e5534b81417680ce,19,cup,filler,I,75,nogoal,none,exp2trials,NULL
1687453215,e7bc71c1130334296cd236e284d00c65,PennController,17,0,experiment,NULL,PennController,16,_Trial_,Start,1687452984658,60a69d04e5534b81417680ce,60a69d04e5534b81417680ce,14,cover,critical,I,25,nogoal,none,exp2trials,NULL
1687453215,e7bc71c1130334296cd236e284d00c65,PennController,17,0,experiment,NULL,PennController,16,_Header_,Start,1687452984658,60a69d04e5534b81417680ce,60a69d04e5534b81417680ce,14,cover,critical,I,25,nogoal,none,exp2trials,NULL
1687453215,e7bc71c1130334296cd236e284d00c65,PennController,17,0,experiment,NULL,PennController,16,_Header_,End,1687452984658,60a69d04e5534b81417680ce,60a69d04e5534b81417680ce,14,cover,critical,I,25,nogoal,none,exp2trials,NULL
1687453215,e7bc71c1130334296cd236e284d00c65,PennController,17,0,experiment,NULL,Video,progression,buffer,0.007533,1687452988204,60a69d04e5534b81417680ce,60a69d04e5534b81417680ce,14,cover,critical,I,25,nogoal,none,exp2trials,NULL
1687453215,e7bc71c1130334296cd236e284d00c65,PennController,17,0,experiment,NULL,VideoScrubber,slider-input,SelectedFrame,36,1687452990981,60a69d04e5534b81417680ce,60a69d04e5534b81417680ce,14,cover,critical,I,25,nogoal,none,exp2trials,NULL
1687453215,e7bc71c1130334296cd236e284d00c65,PennController,17,0,experiment,NULL,PennController,16,_Trial_,End,1687452996113,60a69d04e5534b81417680ce,60a69d04e5534b81417680ce,14,cover,critical,I,25,nogoal,none,exp2trials,NULL
1687453215,e7bc71c1130334296cd236e284d00c65,PennController,4,0,experiment,NULL,PennController,3,_Trial_,Start,1687452996114,60a69d04e5534b81417680ce,60a69d04e5534b81417680ce,1,vase,critical,I,75,nogoal,none,exp2trials,NULL
1687453215,e7bc71c1130334296cd236e284d00c65,PennController,4,0,experiment,NULL,PennController,3,_Header_,Start,1687452996114,60a69d04e5534b81417680ce,60a69d04e5534b81417680ce,1,vase,critical,I,75,nogoal,none,exp2trials,NULL
1687453215,e7bc71c1130334296cd236e284d00c65,PennController,4,0,experiment,NULL,PennController,3,_Header_,End,1687452996115,60a69d04e5534b81417680ce,60a69d04e5534b81417680ce,1,vase,critical,I,75,nogoal,none,exp2trials,NULL
1687453215,e7bc71c1130334296cd236e284d00c65,PennController,4,0,experiment,NULL,Video,progression,buffer,0.013046,1687452999660,60a69d04e5534b81417680ce,60a69d04e5534b81417680ce,1,vase,critical,I,75,nogoal,none,exp2trials,NULL
1687453215,e7bc71c1130334296cd236e284d00c65,PennController,4,0,experiment,NULL,VideoScrubber,slider-input,SelectedFrame,70,1687453003835,60a69d04e5534b81417680ce,60a69d04e5534b81417680ce,1,vase,critical,I,75,nogoal,none,exp2trials,NULL
1687453215,e7bc71c1130334296cd236e284d00c65,PennController,4,0,experiment,NULL,PennController,3,_Trial_,End,1687453008489,60a69d04e5534b81417680ce,60a69d04e5534b81417680ce,1,vase,critical,I,75,nogoal,none,exp2trials,NULL
1687453215,e7bc71c1130334296cd236e284d00c65,PennController,32,0,experiment,NULL,PennController,31,_Trial_,Start,1687453008491,60a69d04e5534b81417680ce,60a69d04e5534b81417680ce,29,frog,filler,I,25,nogoal,none,exp2trials,NULL
1687453215,e7bc71c1130334296cd236e284d00c65,PennController,32,0,experiment,NULL,PennController,31,_Header_,Start,1687453008491,60a69d04e5534b81417680ce,60a69d04e5534b81417680ce,29,frog,filler,I,25,nogoal,none,exp2trials,NULL
1687453215,e7bc71c1130334296cd236e284d00c65,PennController,32,0,experiment,NULL,PennController,31,_Header_,End,1687453008491,60a69d04e5534b81417680ce,60a69d04e5534b81417680ce,29,frog,filler,I,25,nogoal,none,exp2trials,NULL
1687453215,e7bc71c1130334296cd236e284d00c65,PennController,32,0,experiment,NULL,Video,progression,buffer,0.007775,1687453012030,60a69d04e5534b81417680ce,60a69d04e5534b81417680ce,29,frog,filler,I,25,nogoal,none,exp2trials,NULL
1687453215,e7bc71c1130334296cd236e284d00c65,PennController,32,0,experiment,NULL,VideoScrubber,slider-input,SelectedFrame,30,1687453014202,60a69d04e5534b81417680ce,60a69d04e5534b81417680ce,29,frog,filler,I,25,nogoal,none,exp2trials,NULL
1687453215,e7bc71c1130334296cd236e284d00c65,PennController,32,0,experiment,NULL,PennController,31,_Trial_,End,1687453025417,60a69d04e5534b81417680ce,60a69d04e5534b81417680ce,29,frog,filler,I,25,nogoal,none,exp2trials,NULL
1687453215,e7bc71c1130334296cd236e284d00c65,PennController,26,0,experiment,NULL,PennController,25,_Trial_,Start,1687453025418,60a69d04e5534b81417680ce,60a69d04e5534b81417680ce,23,color,filler,I,25,nogoal,none,exp2trials,NULL
1687453215,e7bc71c1130334296cd236e284d00c65,PennController,26,0,experiment,NULL,PennController,25,_Header_,Start,1687453025418,60a69d04e5534b81417680ce,60a69d04e5534b81417680ce,23,color,filler,I,25,nogoal,none,exp2trials,NULL
1687453215,e7bc71c1130334296cd236e284d00c65,PennController,26,0,experiment,NULL,PennController,25,_Header_,End,1687453025418,60a69d04e5534b81417680ce,60a69d04e5534b81417680ce,23,color,filler,I,25,nogoal,none,exp2trials,NULL
1687453215,e7bc71c1130334296cd236e284d00c65,PennController,26,0,experiment,NULL,Video,progression,buffer,0.012353,1687453028963,60a69d04e5534b81417680ce,60a69d04e5534b81417680ce,23,color,filler,I,25,nogoal,none,exp2trials,NULL
1687453215,e7bc71c1130334296cd236e284d00c65,PennController,26,0,experiment,NULL,VideoScrubber,slider-input,SelectedFrame,25,1687453031144,60a69d04e5534b81417680ce,60a69d04e5534b81417680ce,23,color,filler,I,25,nogoal,none,exp2trials,NULL
1687453215,e7bc71c1130334296cd236e284d00c65,PennController,26,0,experiment,NULL,PennController,25,_Trial_,End,1687453037729,60a69d04e5534b81417680ce,60a69d04e5534b81417680ce,23,color,filler,I,25,nogoal,none,exp2trials,NULL
1687453215,e7bc71c1130334296cd236e284d00c65,PennController,19,0,experiment,NULL,PennController,18,_Trial_,Start,1687453037730,60a69d04e5534b81417680ce,60a69d04e5534b81417680ce,16,blinds,critical,I,75,nogoal,none,exp2trials,NULL
1687453215,e7bc71c1130334296cd236e284d00c65,PennController,19,0,experiment,NULL,PennController,18,_Header_,Start,1687453037730,60a69d04e5534b81417680ce,60a69d04e5534b81417680ce,16,blinds,critical,I,75,nogoal,none,exp2trials,NULL
1687453215,e7bc71c1130334296cd236e284d00c65,PennController,19,0,experiment,NULL,PennController,18,_Header_,End,1687453037730,60a69d04e5534b81417680ce,60a69d04e5534b81417680ce,16,blinds,critical,I,75,nogoal,none,exp2trials,NULL
1687453215,e7bc71c1130334296cd236e284d00c65,PennController,19,0,experiment,NULL,Video,progression,buffer,0.007655,1687453041270,60a69d04e5534b81417680ce,60a69d04e5534b81417680ce,16,blinds,critical,I,75,nogoal,none,exp2trials,NULL
1687453215,e7bc71c1130334296cd236e284d00c65,PennController,19,0,experiment,NULL,VideoScrubber,slider-input,SelectedFrame,54,1687453047451,60a69d04e5534b81417680ce,60a69d04e5534b81417680ce,16,blinds,critical,I,75,nogoal,none,exp2trials,NULL
1687453215,e7bc71c1130334296cd236e284d00c65,PennController,19,0,experiment,NULL,PennController,18,_Trial_,End,1687453053937,60a69d04e5534b81417680ce,60a69d04e5534b81417680ce,16,blinds,critical,I,75,nogoal,none,exp2trials,NULL
1687453215,e7bc71c1130334296cd236e284d00c65,PennController,15,0,experiment,NULL,PennController,14,_Trial_,Start,1687453053938,60a69d04e5534b81417680ce,60a69d04e5534b81417680ce,12,erase,critical,I,50,nogoal,none,exp2trials,NULL
1687453215,e7bc71c1130334296cd236e284d00c65,PennController,15,0,experiment,NULL,PennController,14,_Header_,Start,1687453053938,60a69d04e5534b81417680ce,60a69d04e5534b81417680ce,12,erase,critical,I,50,nogoal,none,exp2trials,NULL
1687453215,e7bc71c1130334296cd236e284d00c65,PennController,15,0,experiment,NULL,PennController,14,_Header_,End,1687453053938,60a69d04e5534b81417680ce,60a69d04e5534b81417680ce,12,erase,critical,I,50,nogoal,none,exp2trials,NULL
1687453215,e7bc71c1130334296cd236e284d00c65,PennController,15,0,experiment,NULL,Video,progression,buffer,0.008502,1687453057480,60a69d04e5534b81417680ce,60a69d04e5534b81417680ce,12,erase,critical,I,50,nogoal,none,exp2trials,NULL
1687453215,e7bc71c1130334296cd236e284d00c65,PennController,15,0,experiment,NULL,VideoScrubber,slider-input,SelectedFrame,54,1687453062049,60a69d04e5534b81417680ce,60a69d04e5534b81417680ce,12,erase,critical,I,50,nogoal,none,exp2trials,NULL
1687453215,e7bc71c1130334296cd236e284d00c65,PennController,15,0,experiment,NULL,PennController,14,_Trial_,End,1687453073713,60a69d04e5534b81417680ce,60a69d04e5534b81417680ce,12,erase,critical,I,50,nogoal,none,exp2trials,NULL
1687453215,e7bc71c1130334296cd236e284d00c65,PennController,6,0,experiment,NULL,PennController,5,_Trial_,Start,1687453073714,60a69d04e5534b81417680ce,60a69d04e5534b81417680ce,3,clean,critical,I,50,nogoal,none,exp2trials,NULL
1687453215,e7bc71c1130334296cd236e284d00c65,PennController,6,0,experiment,NULL,PennController,5,_Header_,Start,1687453073714,60a69d04e5534b81417680ce,60a69d04e5534b81417680ce,3,clean,critical,I,50,nogoal,none,exp2trials,NULL
1687453215,e7bc71c1130334296cd236e284d00c65,PennController,6,0,experiment,NULL,PennController,5,_Header_,End,1687453073714,60a69d04e5534b81417680ce,60a69d04e5534b81417680ce,3,clean,critical,I,50,nogoal,none,exp2trials,NULL
1687453215,e7bc71c1130334296cd236e284d00c65,PennController,6,0,experiment,NULL,Video,progression,buffer,0.014953,1687453077269,60a69d04e5534b81417680ce,60a69d04e5534b81417680ce,3,clean,critical,I,50,nogoal,none,exp2trials,NULL
1687453215,e7bc71c1130334296cd236e284d00c65,PennController,6,0,experiment,NULL,VideoScrubber,slider-input,SelectedFrame,75,1687453080442,60a69d04e5534b81417680ce,60a69d04e5534b81417680ce,3,clean,critical,I,50,nogoal,none,exp2trials,NULL
1687453215,e7bc71c1130334296cd236e284d00c65,PennController,6,0,experiment,NULL,PennController,5,_Trial_,End,1687453090737,60a69d04e5534b81417680ce,60a69d04e5534b81417680ce,3,clean,critical,I,50,nogoal,none,exp2trials,NULL
1687453215,e7bc71c1130334296cd236e284d00c65,PennController,29,0,experiment,NULL,PennController,28,_Trial_,Start,1687453090738,60a69d04e5534b81417680ce,60a69d04e5534b81417680ce,26,sandwich,filler,I,25,nogoal,none,exp2trials,NULL
1687453215,e7bc71c1130334296cd236e284d00c65,PennController,29,0,experiment,NULL,PennController,28,_Header_,Start,1687453090738,60a69d04e5534b81417680ce,60a69d04e5534b81417680ce,26,sandwich,filler,I,25,nogoal,none,exp2trials,NULL
1687453215,e7bc71c1130334296cd236e284d00c65,PennController,29,0,experiment,NULL,PennController,28,_Header_,End,1687453090738,60a69d04e5534b81417680ce,60a69d04e5534b81417680ce,26,sandwich,filler,I,25,nogoal,none,exp2trials,NULL
1687453215,e7bc71c1130334296cd236e284d00c65,PennController,29,0,experiment,NULL,Video,progression,buffer,0.013531,1687453094287,60a69d04e5534b81417680ce,60a69d04e5534b81417680ce,26,sandwich,filler,I,25,nogoal,none,exp2trials,NULL
1687453215,e7bc71c1130334296cd236e284d00c65,PennController,29,0,experiment,NULL,VideoScrubber,slider-input,SelectedFrame,25,1687453096459,60a69d04e5534b81417680ce,60a69d04e5534b81417680ce,26,sandwich,filler,I,25,nogoal,none,exp2trials,NULL
1687453215,e7bc71c1130334296cd236e284d00c65,PennController,29,0,experiment,NULL,PennController,28,_Trial_,End,1687453103809,60a69d04e5534b81417680ce,60a69d04e5534b81417680ce,26,sandwich,filler,I,25,nogoal,none,exp2trials,NULL
1687453215,e7bc71c1130334296cd236e284d00c65,PennController,28,0,experiment,NULL,PennController,27,_Trial_,Start,1687453103810,60a69d04e5534b81417680ce,60a69d04e5534b81417680ce,25,house,filler,I,75,nogoal,none,exp2trials,NULL
1687453215,e7bc71c1130334296cd236e284d00c65,PennController,28,0,experiment,NULL,PennController,27,_Header_,Start,1687453103810,60a69d04e5534b81417680ce,60a69d04e5534b81417680ce,25,house,filler,I,75,nogoal,none,exp2trials,NULL
1687453215,e7bc71c1130334296cd236e284d00c65,PennController,28,0,experiment,NULL,PennController,27,_Header_,End,1687453103810,60a69d04e5534b81417680ce,60a69d04e5534b81417680ce,25,house,filler,I,75,nogoal,none,exp2trials,NULL
1687453215,e7bc71c1130334296cd236e284d00c65,PennController,28,0,experiment,NULL,Video,progression,buffer,0.008294,1687453107349,60a69d04e5534b81417680ce,60a69d04e5534b81417680ce,25,house,filler,I,75,nogoal,none,exp2trials,NULL
1687453215,e7bc71c1130334296cd236e284d00c65,PennController,28,0,experiment,NULL,VideoScrubber,slider-input,SelectedFrame,45,1687453111532,60a69d04e5534b81417680ce,60a69d04e5534b81417680ce,25,house,filler,I,75,nogoal,none,exp2trials,NULL
1687453215,e7bc71c1130334296cd236e284d00c65,PennController,28,0,experiment,NULL,PennController,27,_Trial_,End,1687453119921,60a69d04e5534b81417680ce,60a69d04e5534b81417680ce,25,house,filler,I,75,nogoal,none,exp2trials,NULL
1687453215,e7bc71c1130334296cd236e284d00c65,PennController,18,0,experiment,NULL,PennController,17,_Trial_,Start,1687453119922,60a69d04e5534b81417680ce,60a69d04e5534b81417680ce,15,zip,critical,I,50,nogoal,none,exp2trials,NULL
1687453215,e7bc71c1130334296cd236e284d00c65,PennController,18,0,experiment,NULL,PennController,17,_Header_,Start,1687453119922,60a69d04e5534b81417680ce,60a69d04e5534b81417680ce,15,zip,critical,I,50,nogoal,none,exp2trials,NULL
1687453215,e7bc71c1130334296cd236e284d00c65,PennController,18,0,experiment,NULL,PennController,17,_Header_,End,1687453119922,60a69d04e5534b81417680ce,60a69d04e5534b81417680ce,15,zip,critical,I,50,nogoal,none,exp2trials,NULL
1687453215,e7bc71c1130334296cd236e284d00c65,PennController,18,0,experiment,NULL,Video,progression,buffer,0.011715,1687453123472,60a69d04e5534b81417680ce,60a69d04e5534b81417680ce,15,zip,critical,I,50,nogoal,none,exp2trials,NULL
1687453215,e7bc71c1130334296cd236e284d00c65,PennController,18,0,experiment,NULL,VideoScrubber,slider-input,SelectedFrame,50,1687453126650,60a69d04e5534b81417680ce,60a69d04e5534b81417680ce,15,zip,critical,I,50,nogoal,none,exp2trials,NULL
1687453215,e7bc71c1130334296cd236e284d00c65,PennController,18,0,experiment,NULL,PennController,17,_Trial_,End,1687453130904,60a69d04e5534b81417680ce,60a69d04e5534b81417680ce,15,zip,critical,I,50,nogoal,none,exp2trials,NULL
1687453215,e7bc71c1130334296cd236e284d00c65,PennController,8,0,experiment,NULL,PennController,7,_Trial_,Start,1687453130905,60a69d04e5534b81417680ce,60a69d04e5534b81417680ce,5,book,critical,I,25,nogoal,none,exp2trials,NULL
1687453215,e7bc71c1130334296cd236e284d00c65,PennController,8,0,experiment,NULL,PennController,7,_Header_,Start,1687453130905,60a69d04e5534b81417680ce,60a69d04e5534b81417680ce,5,book,critical,I,25,nogoal,none,exp2trials,NULL
1687453215,e7bc71c1130334296cd236e284d00c65,PennController,8,0,experiment,NULL,PennController,7,_Header_,End,1687453130905,60a69d04e5534b81417680ce,60a69d04e5534b81417680ce,5,book,critical,I,25,nogoal,none,exp2trials,NULL
1687453215,e7bc71c1130334296cd236e284d00c65,PennController,8,0,experiment,NULL,Video,progression,buffer,0.00766,1687453134451,60a69d04e5534b81417680ce,60a69d04e5534b81417680ce,5,book,critical,I,25,nogoal,none,exp2trials,NULL
1687453215,e7bc71c1130334296cd236e284d00c65,PennController,8,0,experiment,NULL,VideoScrubber,slider-input,SelectedFrame,15,1687453136617,60a69d04e5534b81417680ce,60a69d04e5534b81417680ce,5,book,critical,I,25,nogoal,none,exp2trials,NULL
1687453215,e7bc71c1130334296cd236e284d00c65,PennController,8,0,experiment,NULL,PennController,7,_Trial_,End,1687453142128,60a69d04e5534b81417680ce,60a69d04e5534b81417680ce,5,book,critical,I,25,nogoal,none,exp2trials,NULL
1687453215,e7bc71c1130334296cd236e284d00c65,PennController,13,0,experiment,NULL,PennController,12,_Trial_,Start,1687453142129,60a69d04e5534b81417680ce,60a69d04e5534b81417680ce,10,train,critical,I,75,nogoal,none,exp2trials,NULL
1687453215,e7bc71c1130334296cd236e284d00c65,PennController,13,0,experiment,NULL,PennController,12,_Header_,Start,1687453142129,60a69d04e5534b81417680ce,60a69d04e5534b81417680ce,10,train,critical,I,75,nogoal,none,exp2trials,NULL
1687453215,e7bc71c1130334296cd236e284d00c65,PennController,13,0,experiment,NULL,PennController,12,_Header_,End,1687453142129,60a69d04e5534b81417680ce,60a69d04e5534b81417680ce,10,train,critical,I,75,nogoal,none,exp2trials,NULL
1687453215,e7bc71c1130334296cd236e284d00c65,PennController,13,0,experiment,NULL,Video,progression,buffer,0.009258,1687453145676,60a69d04e5534b81417680ce,60a69d04e5534b81417680ce,10,train,critical,I,75,nogoal,none,exp2trials,NULL
1687453215,e7bc71c1130334296cd236e284d00c65,PennController,13,0,experiment,NULL,VideoScrubber,slider-input,SelectedFrame,80,1687453149860,60a69d04e5534b81417680ce,60a69d04e5534b81417680ce,10,train,critical,I,75,nogoal,none,exp2trials,NULL
1687453215,e7bc71c1130334296cd236e284d00c65,PennController,13,0,experiment,NULL,PennController,12,_Trial_,End,1687453157697,60a69d04e5534b81417680ce,60a69d04e5534b81417680ce,10,train,critical,I,75,nogoal,none,exp2trials,NULL
1687453215,e7bc71c1130334296cd236e284d00c65,PennController,24,0,experiment,NULL,PennController,23,_Trial_,Start,1687453157698,60a69d04e5534b81417680ce,60a69d04e5534b81417680ce,21,visit,filler,I,50,nogoal,none,exp2trials,NULL
1687453215,e7bc71c1130334296cd236e284d00c65,PennController,24,0,experiment,NULL,PennController,23,_Header_,Start,1687453157698,60a69d04e5534b81417680ce,60a69d04e5534b81417680ce,21,visit,filler,I,50,nogoal,none,exp2trials,NULL
1687453215,e7bc71c1130334296cd236e284d00c65,PennController,24,0,experiment,NULL,PennController,23,_Header_,End,1687453157698,60a69d04e5534b81417680ce,60a69d04e5534b81417680ce,21,visit,filler,I,50,nogoal,none,exp2trials,NULL
1687453215,e7bc71c1130334296cd236e284d00c65,PennController,24,0,experiment,NULL,Video,progression,buffer,0.014815,1687453161247,60a69d04e5534b81417680ce,60a69d04e5534b81417680ce,21,visit,filler,I,50,nogoal,none,exp2trials,NULL
1687453215,e7bc71c1130334296cd236e284d00c65,PennController,24,0,experiment,NULL,VideoScrubber,slider-input,SelectedFrame,70,1687453164412,60a69d04e5534b81417680ce,60a69d04e5534b81417680ce,21,visit,filler,I,50,nogoal,none,exp2trials,NULL
1687453215,e7bc71c1130334296cd236e284d00c65,PennController,24,0,experiment,NULL,PennController,23,_Trial_,End,1687453170465,60a69d04e5534b81417680ce,60a69d04e5534b81417680ce,21,visit,filler,I,50,nogoal,none,exp2trials,NULL
1687453215,e7bc71c1130334296cd236e284d00c65,PennController,25,0,experiment,NULL,PennController,24,_Trial_,Start,1687453170465,60a69d04e5534b81417680ce,60a69d04e5534b81417680ce,22,wall,filler,I,75,nogoal,none,exp2trials,NULL
1687453215,e7bc71c1130334296cd236e284d00c65,PennController,25,0,experiment,NULL,PennController,24,_Header_,Start,1687453170465,60a69d04e5534b81417680ce,60a69d04e5534b81417680ce,22,wall,filler,I,75,nogoal,none,exp2trials,NULL
1687453215,e7bc71c1130334296cd236e284d00c65,PennController,25,0,experiment,NULL,PennController,24,_Header_,End,1687453170465,60a69d04e5534b81417680ce,60a69d04e5534b81417680ce,22,wall,filler,I,75,nogoal,none,exp2trials,NULL
1687453215,e7bc71c1130334296cd236e284d00c65,PennController,25,0,experiment,NULL,Video,progression,buffer,0.014354,1687453174014,60a69d04e5534b81417680ce,60a69d04e5534b81417680ce,22,wall,filler,I,75,nogoal,none,exp2trials,NULL
1687453215,e7bc71c1130334296cd236e284d00c65,PennController,25,0,experiment,NULL,VideoScrubber,slider-input,SelectedFrame,70,1687453178184,60a69d04e5534b81417680ce,60a69d04e5534b81417680ce,22,wall,filler,I,75,nogoal,none,exp2trials,NULL
1687453215,e7bc71c1130334296cd236e284d00c65,PennController,25,0,experiment,NULL,PennController,24,_Trial_,End,1687453186665,60a69d04e5534b81417680ce,60a69d04e5534b81417680ce,22,wall,filler,I,75,nogoal,none,exp2trials,NULL
1687453215,e7bc71c1130334296cd236e284d00c65,PennController,7,0,experiment,NULL,PennController,6,_Trial_,Start,1687453186667,60a69d04e5534b81417680ce,60a69d04e5534b81417680ce,4,candy,critical,I,75,nogoal,none,exp2trials,NULL
1687453215,e7bc71c1130334296cd236e284d00c65,PennController,7,0,experiment,NULL,PennController,6,_Header_,Start,1687453186667,60a69d04e5534b81417680ce,60a69d04e5534b81417680ce,4,candy,critical,I,75,nogoal,none,exp2trials,NULL
1687453215,e7bc71c1130334296cd236e284d00c65,PennController,7,0,experiment,NULL,PennController,6,_Header_,End,1687453186667,60a69d04e5534b81417680ce,60a69d04e5534b81417680ce,4,candy,critical,I,75,nogoal,none,exp2trials,NULL
1687453215,e7bc71c1130334296cd236e284d00c65,PennController,7,0,experiment,NULL,Video,progression,buffer,0.012598,1687453190210,60a69d04e5534b81417680ce,60a69d04e5534b81417680ce,4,candy,critical,I,75,nogoal,none,exp2trials,NULL
1687453215,e7bc71c1130334296cd236e284d00c65,PennController,7,0,experiment,NULL,VideoScrubber,slider-input,SelectedFrame,85,1687453194374,60a69d04e5534b81417680ce,60a69d04e5534b81417680ce,4,candy,critical,I,75,nogoal,none,exp2trials,NULL
1687453215,e7bc71c1130334296cd236e284d00c65,PennController,7,0,experiment,NULL,PennController,6,_Trial_,End,1687453199121,60a69d04e5534b81417680ce,60a69d04e5534b81417680ce,4,candy,critical,I,75,nogoal,none,exp2trials,NULL
1687453215,e7bc71c1130334296cd236e284d00c65,PennController,10,0,experiment,NULL,PennController,9,_Trial_,Start,1687453199121,60a69d04e5534b81417680ce,60a69d04e5534b81417680ce,7,stack,critical,I,75,nogoal,none,exp2trials,NULL
1687453215,e7bc71c1130334296cd236e284d00c65,PennController,10,0,experiment,NULL,PennController,9,_Header_,Start,1687453199121,60a69d04e5534b81417680ce,60a69d04e5534b81417680ce,7,stack,critical,I,75,nogoal,none,exp2trials,NULL
1687453215,e7bc71c1130334296cd236e284d00c65,PennController,10,0,experiment,NULL,PennController,9,_Header_,End,1687453199122,60a69d04e5534b81417680ce,60a69d04e5534b81417680ce,7,stack,critical,I,75,nogoal,none,exp2trials,NULL
1687453215,e7bc71c1130334296cd236e284d00c65,PennController,10,0,experiment,NULL,Video,progression,buffer,0.012923,1687453202667,60a69d04e5534b81417680ce,60a69d04e5534b81417680ce,7,stack,critical,I,75,nogoal,none,exp2trials,NULL
1687453215,e7bc71c1130334296cd236e284d00c65,PennController,10,0,experiment,NULL,VideoScrubber,slider-input,SelectedFrame,75,1687453206843,60a69d04e5534b81417680ce,60a69d04e5534b81417680ce,7,stack,critical,I,75,nogoal,none,exp2trials,NULL
1687453215,e7bc71c1130334296cd236e284d00c65,PennController,10,0,experiment,NULL,PennController,9,_Trial_,End,1687453215080,60a69d04e5534b81417680ce,60a69d04e5534b81417680ce,7,stack,critical,I,75,nogoal,none,exp2trials,NULL
