#
# Results on Thursday June 22 2023 17:00:55 UTC
# USER AGENT: Mozilla/5.0 (Macintosh; Intel Mac OS X 10_15_7) AppleWebKit/537.36 (KHTML, like Gecko) Chrome/114.0.0.0 Safari/537.36
# Design number was non-random = 99
#
# Columns below this comment are as follows:
# 1. Results reception time.
# 2. MD5 hash of participant's IP address.
# 3. Controller name.
# 4. Order number of item.
# 5. Inner element number.
# 6. Label.
# 7. Latin Square Group.
# 8. PennElementType.
# 9. PennElementName.
# 10. Parameter.
# 11. Value.
# 12. EventTime.
# 13. ProlificID.
# 14. Comments.
1687453255,d6ca3d07f66e7740d9ad4e9fb69ae319,PennController,2,0,consent,NULL,PennController,0,_Trial_,Start,1687452897570,5eb55873fafd943e4f55e5b7,NULL
1687453255,d6ca3d07f66e7740d9ad4e9fb69ae319,PennController,2,0,consent,NULL,PennController,0,_Header_,Start,1687452897570,5eb55873fafd943e4f55e5b7,NULL
1687453255,d6ca3d07f66e7740d9ad4e9fb69ae319,PennController,2,0,consent,NULL,PennController,0,_Header_,End,1687452897615,5eb55873fafd943e4f55e5b7,NULL
1687453255,d6ca3d07f66e7740d9ad4e9fb69ae319,PennController,2,0,consent,NULL,PennController,0,_Trial_,End,1687452905708,5eb55873fafd943e4f55e5b7,NULL
# Columns below this comment are as follows:
# 14. ID.
# 15. Comments.
1687453255,d6ca3d07f66e7740d9ad4e9fb69ae319,PennController,3,0,intro,NULL,PennController,1,_Trial_,Start,1687452905710,5eb55873fafd943e4f55e5b7,https://upenn.pcibex.net/p/lYSybP/?id=5eb55873fafd943e4f55e5b7,NULL
1687453255,d6ca3d07f66e7740d9ad4e9fb69ae319,PennController,3,0,intro,NULL,PennController,1,_Header_,Start,1687452905710,5eb55873fafd943e4f55e5b7,https://upenn.pcibex.net/p/lYSybP/?id=5eb55873fafd943e4f55e5b7,NULL
1687453255,d6ca3d07f66e7740d9ad4e9fb69ae319,PennController,3,0,intro,NULL,PennController,1,_Header_,End,1687452905710,5eb55873fafd943e4f55e5b7,https://upenn.pcibex.net/p/lYSybP/?id=5eb55873fafd943e4f55e5b7,NULL
1687453255,d6ca3d07f66e7740d9ad4e9fb69ae319,PennController,3,0,intro,NULL,PennController,1,_Trial_,End,1687452907125,5eb55873fafd943e4f55e5b7,https://upenn.pcibex.net/p/lYSybP/?id=5eb55873fafd943e4f55e5b7,NULL
# Columns below this comment are as follows:
# 15. item_number.
# 16. item.
# 17. type.
# 18. Group.
# 19. prog.
# 20. condition.
# 21. height.
# 22. exp2trials.
# 23. Comments.
1687453255,d6ca3d07f66e7740d9ad4e9fb69ae319,PennController,18,0,experiment,NULL,PennController,17,_Trial_,Start,1687452907133,5eb55873fafd943e4f55e5b7,https://upenn.pcibex.net/p/lYSybP/?id=5eb55873fafd943e4f55e5b7,15,zip,critical,A,75,goal,low,exp2trials,NULL
1687453255,d6ca3d07f66e7740d9ad4e9fb69ae319,PennController,18,0,experiment,NULL,PennController,17,_Header_,Start,1687452907133,5eb55873fafd943e4f55e5b7,https://upenn.pcibex.net/p/lYSybP/?id=5eb55873fafd943e4f55e5b7,15,zip,critical,A,75,goal,low,exp2trials,NULL
1687453255,d6ca3d07f66e7740d9ad4e9fb69ae319,PennController,18,0,experiment,NULL,PennController,17,_Header_,End,1687452907133,5eb55873fafd943e4f55e5b7,https://upenn.pcibex.net/p/lYSybP/?id=5eb55873fafd943e4f55e5b7,15,zip,critical,A,75,goal,low,exp2trials,NULL
1687453255,d6ca3d07f66e7740d9ad4e9fb69ae319,PennController,18,0,experiment,NULL,Video,progression,buffer,0.001977,1687452910652,5eb55873fafd943e4f55e5b7,https://upenn.pcibex.net/p/lYSybP/?id=5eb55873fafd943e4f55e5b7,15,zip,critical,A,75,goal,low,exp2trials,NULL
1687453255,d6ca3d07f66e7740d9ad4e9fb69ae319,PennController,18,0,experiment,NULL,VideoScrubber,slider-input,SelectedFrame,90,1687452914028,5eb55873fafd943e4f55e5b7,https://upenn.pcibex.net/p/lYSybP/?id=5eb55873fafd943e4f55e5b7,15,zip,critical,A,75,goal,low,exp2trials,NULL
1687453255,d6ca3d07f66e7740d9ad4e9fb69ae319,PennController,18,0,experiment,NULL,PennController,17,_Trial_,End,1687452924002,5eb55873fafd943e4f55e5b7,https://upenn.pcibex.net/p/lYSybP/?id=5eb55873fafd943e4f55e5b7,15,zip,critical,A,75,goal,low,exp2trials,NULL
1687453255,d6ca3d07f66e7740d9ad4e9fb69ae319,PennController,10,0,experiment,NULL,PennController,9,_Trial_,Start,1687452924004,5eb55873fafd943e4f55e5b7,https://upenn.pcibex.net/p/lYSybP/?id=5eb55873fafd943e4f55e5b7,7,stack,critical,A,25,goal,low,exp2trials,NULL
1687453255,d6ca3d07f66e7740d9ad4e9fb69ae319,PennController,10,0,experiment,NULL,PennController,9,_Header_,Start,1687452924004,5eb55873fafd943e4f55e5b7,https://upenn.pcibex.net/p/lYSybP/?id=5eb55873fafd943e4f55e5b7,7,stack,critical,A,25,goal,low,exp2trials,NULL
1687453255,d6ca3d07f66e7740d9ad4e9fb69ae319,PennController,10,0,experiment,NULL,PennController,9,_Header_,End,1687452924004,5eb55873fafd943e4f55e5b7,https://upenn.pcibex.net/p/lYSybP/?id=5eb55873fafd943e4f55e5b7,7,stack,critical,A,25,goal,low,exp2trials,NULL
1687453255,d6ca3d07f66e7740d9ad4e9fb69ae319,PennController,10,0,experiment,NULL,Video,progression,buffer,0.004037,1687452927538,5eb55873fafd943e4f55e5b7,https://upenn.pcibex.net/p/lYSybP/?id=5eb55873fafd943e4f55e5b7,7,stack,critical,A,25,goal,low,exp2trials,NULL
1687453255,d6ca3d07f66e7740d9ad4e9fb69ae319,PennController,10,0,experiment,NULL,VideoScrubber,slider-input,SelectedFrame,40,1687452929711,5eb55873fafd943e4f55e5b7,https://upenn.pcibex.net/p/lYSybP/?id=5eb55873fafd943e4f55e5b7,7,stack,critical,A,25,goal,low,exp2trials,NULL
1687453255,d6ca3d07f66e7740d9ad4e9fb69ae319,PennController,10,0,experiment,NULL,PennController,9,_Trial_,End,1687452934251,5eb55873fafd943e4f55e5b7,https://upenn.pcibex.net/p/lYSybP/?id=5eb55873fafd943e4f55e5b7,7,stack,critical,A,25,goal,low,exp2trials,NULL
1687453255,d6ca3d07f66e7740d9ad4e9fb69ae319,PennController,11,0,experiment,NULL,PennController,10,_Trial_,Start,1687452934253,5eb55873fafd943e4f55e5b7,https://upenn.pcibex.net/p/lYSybP/?id=5eb55873fafd943e4f55e5b7,8,cucumber,critical,A,50,goal,low,exp2trials,NULL
1687453255,d6ca3d07f66e7740d9ad4e9fb69ae319,PennController,11,0,experiment,NULL,PennController,10,_Header_,Start,1687452934253,5eb55873fafd943e4f55e5b7,https://upenn.pcibex.net/p/lYSybP/?id=5eb55873fafd943e4f55e5b7,8,cucumber,critical,A,50,goal,low,exp2trials,NULL
1687453255,d6ca3d07f66e7740d9ad4e9fb69ae319,PennController,11,0,experiment,NULL,PennController,10,_Header_,End,1687452934253,5eb55873fafd943e4f55e5b7,https://upenn.pcibex.net/p/lYSybP/?id=5eb55873fafd943e4f55e5b7,8,cucumber,critical,A,50,goal,low,exp2trials,NULL
1687453255,d6ca3d07f66e7740d9ad4e9fb69ae319,PennController,11,0,experiment,NULL,Video,progression,buffer,0.002487,1687452937779,5eb55873fafd943e4f55e5b7,https://upenn.pcibex.net/p/lYSybP/?id=5eb55873fafd943e4f55e5b7,8,cucumber,critical,A,50,goal,low,exp2trials,NULL
1687453255,d6ca3d07f66e7740d9ad4e9fb69ae319,PennController,11,0,experiment,NULL,VideoScrubber,slider-input,SelectedFrame,57,1687452942357,5eb55873fafd943e4f55e5b7,https://upenn.pcibex.net/p/lYSybP/?id=5eb55873fafd943e4f55e5b7,8,cucumber,critical,A,50,goal,low,exp2trials,NULL
1687453255,d6ca3d07f66e7740d9ad4e9fb69ae319,PennController,11,0,experiment,NULL,PennController,10,_Trial_,End,1687452947333,5eb55873fafd943e4f55e5b7,https://upenn.pcibex.net/p/lYSybP/?id=5eb55873fafd943e4f55e5b7,8,cucumber,critical,A,50,goal,low,exp2trials,NULL
1687453255,d6ca3d07f66e7740d9ad4e9fb69ae319,PennController,14,0,experiment,NULL,PennController,13,_Trial_,Start,1687452947334,5eb55873fafd943e4f55e5b7,https://upenn.pcibex.net/p/lYSybP/?id=5eb55873fafd943e4f55e5b7,11,beads,critical,A,50,goal,low,exp2trials,NULL
1687453255,d6ca3d07f66e7740d9ad4e9fb69ae319,PennController,14,0,experiment,NULL,PennController,13,_Header_,Start,1687452947334,5eb55873fafd943e4f55e5b7,https://upenn.pcibex.net/p/lYSybP/?id=5eb55873fafd943e4f55e5b7,11,beads,critical,A,50,goal,low,exp2trials,NULL
1687453255,d6ca3d07f66e7740d9ad4e9fb69ae319,PennController,14,0,experiment,NULL,PennController,13,_Header_,End,1687452947334,5eb55873fafd943e4f55e5b7,https://upenn.pcibex.net/p/lYSybP/?id=5eb55873fafd943e4f55e5b7,11,beads,critical,A,50,goal,low,exp2trials,NULL
1687453255,d6ca3d07f66e7740d9ad4e9fb69ae319,PennController,14,0,experiment,NULL,Video,progression,buffer,0.002375,1687452950860,5eb55873fafd943e4f55e5b7,https://upenn.pcibex.net/p/lYSybP/?id=5eb55873fafd943e4f55e5b7,11,beads,critical,A,50,goal,low,exp2trials,NULL
1687453255,d6ca3d07f66e7740d9ad4e9fb69ae319,PennController,14,0,experiment,NULL,VideoScrubber,slider-input,SelectedFrame,65,1687452954030,5eb55873fafd943e4f55e5b7,https://upenn.pcibex.net/p/lYSybP/?id=5eb55873fafd943e4f55e5b7,11,beads,critical,A,50,goal,low,exp2trials,NULL
1687453255,d6ca3d07f66e7740d9ad4e9fb69ae319,PennController,14,0,experiment,NULL,PennController,13,_Trial_,End,1687452962835,5eb55873fafd943e4f55e5b7,https://upenn.pcibex.net/p/lYSybP/?id=5eb55873fafd943e4f55e5b7,11,beads,critical,A,50,goal,low,exp2trials,NULL
1687453255,d6ca3d07f66e7740d9ad4e9fb69ae319,PennController,31,0,experiment,NULL,PennController,30,_Trial_,Start,1687452962837,5eb55873fafd943e4f55e5b7,https://upenn.pcibex.net/p/lYSybP/?id=5eb55873fafd943e4f55e5b7,28,sort,filler,A,25,goal,GoalB,exp2trials,NULL
1687453255,d6ca3d07f66e7740d9ad4e9fb69ae319,PennController,31,0,experiment,NULL,PennController,30,_Header_,Start,1687452962837,5eb55873fafd943e4f55e5b7,https://upenn.pcibex.net/p/lYSybP/?id=5eb55873fafd943e4f55e5b7,28,sort,filler,A,25,goal,GoalB,exp2trials,NULL
1687453255,d6ca3d07f66e7740d9ad4e9fb69ae319,PennController,31,0,experiment,NULL,PennController,30,_Header_,End,1687452962837,5eb55873fafd943e4f55e5b7,https://upenn.pcibex.net/p/lYSybP/?id=5eb55873fafd943e4f55e5b7,28,sort,filler,A,25,goal,GoalB,exp2trials,NULL
1687453255,d6ca3d07f66e7740d9ad4e9fb69ae319,PennController,31,0,experiment,NULL,Video,progression,buffer,0.003415,1687452966365,5eb55873fafd943e4f55e5b7,https://upenn.pcibex.net/p/lYSybP/?id=5eb55873fafd943e4f55e5b7,28,sort,filler,A,25,goal,GoalB,exp2trials,NULL
1687453255,d6ca3d07f66e7740d9ad4e9fb69ae319,PennController,31,0,experiment,NULL,VideoScrubber,slider-input,SelectedFrame,35,1687452968542,5eb55873fafd943e4f55e5b7,https://upenn.pcibex.net/p/lYSybP/?id=5eb55873fafd943e4f55e5b7,28,sort,filler,A,25,goal,GoalB,exp2trials,NULL
1687453255,d6ca3d07f66e7740d9ad4e9fb69ae319,PennController,31,0,experiment,NULL,PennController,30,_Trial_,End,1687452975569,5eb55873fafd943e4f55e5b7,https://upenn.pcibex.net/p/lYSybP/?id=5eb55873fafd943e4f55e5b7,28,sort,filler,A,25,goal,GoalB,exp2trials,NULL
1687453255,d6ca3d07f66e7740d9ad4e9fb69ae319,PennController,13,0,experiment,NULL,PennController,12,_Trial_,Start,1687452975571,5eb55873fafd943e4f55e5b7,https://upenn.pcibex.net/p/lYSybP/?id=5eb55873fafd943e4f55e5b7,10,train,critical,A,25,goal,low,exp2trials,NULL
1687453255,d6ca3d07f66e7740d9ad4e9fb69ae319,PennController,13,0,experiment,NULL,PennController,12,_Header_,Start,1687452975571,5eb55873fafd943e4f55e5b7,https://upenn.pcibex.net/p/lYSybP/?id=5eb55873fafd943e4f55e5b7,10,train,critical,A,25,goal,low,exp2trials,NULL
1687453255,d6ca3d07f66e7740d9ad4e9fb69ae319,PennController,13,0,experiment,NULL,PennController,12,_Header_,End,1687452975571,5eb55873fafd943e4f55e5b7,https://upenn.pcibex.net/p/lYSybP/?id=5eb55873fafd943e4f55e5b7,10,train,critical,A,25,goal,low,exp2trials,NULL
1687453255,d6ca3d07f66e7740d9ad4e9fb69ae319,PennController,13,0,experiment,NULL,Video,progression,buffer,0.001919,1687452979088,5eb55873fafd943e4f55e5b7,https://upenn.pcibex.net/p/lYSybP/?id=5eb55873fafd943e4f55e5b7,10,train,critical,A,25,goal,low,exp2trials,NULL
1687453255,d6ca3d07f66e7740d9ad4e9fb69ae319,PennController,13,0,experiment,NULL,VideoScrubber,slider-input,SelectedFrame,25,1687452981259,5eb55873fafd943e4f55e5b7,https://upenn.pcibex.net/p/lYSybP/?id=5eb55873fafd943e4f55e5b7,10,train,critical,A,25,goal,low,exp2trials,NULL
1687453255,d6ca3d07f66e7740d9ad4e9fb69ae319,PennController,13,0,experiment,NULL,PennController,12,_Trial_,End,1687452984885,5eb55873fafd943e4f55e5b7,https://upenn.pcibex.net/p/lYSybP/?id=5eb55873fafd943e4f55e5b7,10,train,critical,A,25,goal,low,exp2trials,NULL
1687453255,d6ca3d07f66e7740d9ad4e9fb69ae319,PennController,21,0,experiment,NULL,PennController,20,_Trial_,Start,1687452984886,5eb55873fafd943e4f55e5b7,https://upenn.pcibex.net/p/lYSybP/?id=5eb55873fafd943e4f55e5b7,18,ball,critical,A,75,goal,low,exp2trials,NULL
1687453255,d6ca3d07f66e7740d9ad4e9fb69ae319,PennController,21,0,experiment,NULL,PennController,20,_Header_,Start,1687452984886,5eb55873fafd943e4f55e5b7,https://upenn.pcibex.net/p/lYSybP/?id=5eb55873fafd943e4f55e5b7,18,ball,critical,A,75,goal,low,exp2trials,NULL
1687453255,d6ca3d07f66e7740d9ad4e9fb69ae319,PennController,21,0,experiment,NULL,PennController,20,_Header_,End,1687452984886,5eb55873fafd943e4f55e5b7,https://upenn.pcibex.net/p/lYSybP/?id=5eb55873fafd943e4f55e5b7,18,ball,critical,A,75,goal,low,exp2trials,NULL
1687453255,d6ca3d07f66e7740d9ad4e9fb69ae319,PennController,21,0,experiment,NULL,Video,progression,buffer,0.002046,1687452988411,5eb55873fafd943e4f55e5b7,https://upenn.pcibex.net/p/lYSybP/?id=5eb55873fafd943e4f55e5b7,18,ball,critical,A,75,goal,low,exp2trials,NULL
1687453255,d6ca3d07f66e7740d9ad4e9fb69ae319,PennController,21,0,experiment,NULL,VideoScrubber,slider-input,SelectedFrame,80,1687452992596,5eb55873fafd943e4f55e5b7,https://upenn.pcibex.net/p/lYSybP/?id=5eb55873fafd943e4f55e5b7,18,ball,critical,A,75,goal,low,exp2trials,NULL
1687453255,d6ca3d07f66e7740d9ad4e9fb69ae319,PennController,21,0,experiment,NULL,PennController,20,_Trial_,End,1687452995450,5eb55873fafd943e4f55e5b7,https://upenn.pcibex.net/p/lYSybP/?id=5eb55873fafd943e4f55e5b7,18,ball,critical,A,75,goal,low,exp2trials,NULL
1687453255,d6ca3d07f66e7740d9ad4e9fb69ae319,PennController,27,0,experiment,NULL,PennController,26,_Trial_,Start,1687452995451,5eb55873fafd943e4f55e5b7,https://upenn.pcibex.net/p/lYSybP/?id=5eb55873fafd943e4f55e5b7,24,match,filler,A,75,goal,GoalB,exp2trials,NULL
1687453255,d6ca3d07f66e7740d9ad4e9fb69ae319,PennController,27,0,experiment,NULL,PennController,26,_Header_,Start,1687452995451,5eb55873fafd943e4f55e5b7,https://upenn.pcibex.net/p/lYSybP/?id=5eb55873fafd943e4f55e5b7,24,match,filler,A,75,goal,GoalB,exp2trials,NULL
1687453255,d6ca3d07f66e7740d9ad4e9fb69ae319,PennController,27,0,experiment,NULL,PennController,26,_Header_,End,1687452995451,5eb55873fafd943e4f55e5b7,https://upenn.pcibex.net/p/lYSybP/?id=5eb55873fafd943e4f55e5b7,24,match,filler,A,75,goal,GoalB,exp2trials,NULL
1687453255,d6ca3d07f66e7740d9ad4e9fb69ae319,PennController,27,0,experiment,NULL,Video,progression,buffer,0.002159,1687452998972,5eb55873fafd943e4f55e5b7,https://upenn.pcibex.net/p/lYSybP/?id=5eb55873fafd943e4f55e5b7,24,match,filler,A,75,goal,GoalB,exp2trials,NULL
1687453255,d6ca3d07f66e7740d9ad4e9fb69ae319,PennController,27,0,experiment,NULL,VideoScrubber,slider-input,SelectedFrame,80,1687453003143,5eb55873fafd943e4f55e5b7,https://upenn.pcibex.net/p/lYSybP/?id=5eb55873fafd943e4f55e5b7,24,match,filler,A,75,goal,GoalB,exp2trials,NULL
1687453255,d6ca3d07f66e7740d9ad4e9fb69ae319,PennController,27,0,experiment,NULL,PennController,26,_Trial_,End,1687453009199,5eb55873fafd943e4f55e5b7,https://upenn.pcibex.net/p/lYSybP/?id=5eb55873fafd943e4f55e5b7,24,match,filler,A,75,goal,GoalB,exp2trials,NULL
1687453255,d6ca3d07f66e7740d9ad4e9fb69ae319,PennController,26,0,experiment,NULL,PennController,25,_Trial_,Start,1687453009199,5eb55873fafd943e4f55e5b7,https://upenn.pcibex.net/p/lYSybP/?id=5eb55873fafd943e4f55e5b7,23,color,filler,A,50,goal,GoalA,exp2trials,NULL
1687453255,d6ca3d07f66e7740d9ad4e9fb69ae319,PennController,26,0,experiment,NULL,PennController,25,_Header_,Start,1687453009199,5eb55873fafd943e4f55e5b7,https://upenn.pcibex.net/p/lYSybP/?id=5eb55873fafd943e4f55e5b7,23,color,filler,A,50,goal,GoalA,exp2trials,NULL
1687453255,d6ca3d07f66e7740d9ad4e9fb69ae319,PennController,26,0,experiment,NULL,PennController,25,_Header_,End,1687453009199,5eb55873fafd943e4f55e5b7,https://upenn.pcibex.net/p/lYSybP/?id=5eb55873fafd943e4f55e5b7,23,color,filler,A,50,goal,GoalA,exp2trials,NULL
1687453255,d6ca3d07f66e7740d9ad4e9fb69ae319,PennController,26,0,experiment,NULL,Video,progression,buffer,0.003502,1687453012719,5eb55873fafd943e4f55e5b7,https://upenn.pcibex.net/p/lYSybP/?id=5eb55873fafd943e4f55e5b7,23,color,filler,A,50,goal,GoalA,exp2trials,NULL
1687453255,d6ca3d07f66e7740d9ad4e9fb69ae319,PennController,26,0,experiment,NULL,VideoScrubber,slider-input,SelectedFrame,50,1687453015892,5eb55873fafd943e4f55e5b7,https://upenn.pcibex.net/p/lYSybP/?id=5eb55873fafd943e4f55e5b7,23,color,filler,A,50,goal,GoalA,exp2trials,NULL
1687453255,d6ca3d07f66e7740d9ad4e9fb69ae319,PennController,26,0,experiment,NULL,PennController,25,_Trial_,End,1687453020586,5eb55873fafd943e4f55e5b7,https://upenn.pcibex.net/p/lYSybP/?id=5eb55873fafd943e4f55e5b7,23,color,filler,A,50,goal,GoalA,exp2trials,NULL
1687453255,d6ca3d07f66e7740d9ad4e9fb69ae319,PennController,5,0,experiment,NULL,PennController,4,_Trial_,Start,1687453020588,5eb55873fafd943e4f55e5b7,https://upenn.pcibex.net/p/lYSybP/?id=5eb55873fafd943e4f55e5b7,2,door,critical,A,50,goal,low,exp2trials,NULL
1687453255,d6ca3d07f66e7740d9ad4e9fb69ae319,PennController,5,0,experiment,NULL,PennController,4,_Header_,Start,1687453020588,5eb55873fafd943e4f55e5b7,https://upenn.pcibex.net/p/lYSybP/?id=5eb55873fafd943e4f55e5b7,2,door,critical,A,50,goal,low,exp2trials,NULL
1687453255,d6ca3d07f66e7740d9ad4e9fb69ae319,PennController,5,0,experiment,NULL,PennController,4,_Header_,End,1687453020588,5eb55873fafd943e4f55e5b7,https://upenn.pcibex.net/p/lYSybP/?id=5eb55873fafd943e4f55e5b7,2,door,critical,A,50,goal,low,exp2trials,NULL
1687453255,d6ca3d07f66e7740d9ad4e9fb69ae319,PennController,5,0,experiment,NULL,Video,progression,buffer,0.003734,1687453024111,5eb55873fafd943e4f55e5b7,https://upenn.pcibex.net/p/lYSybP/?id=5eb55873fafd943e4f55e5b7,2,door,critical,A,50,goal,low,exp2trials,NULL
1687453255,d6ca3d07f66e7740d9ad4e9fb69ae319,PennController,5,0,experiment,NULL,VideoScrubber,slider-input,SelectedFrame,50,1687453027275,5eb55873fafd943e4f55e5b7,https://upenn.pcibex.net/p/lYSybP/?id=5eb55873fafd943e4f55e5b7,2,door,critical,A,50,goal,low,exp2trials,NULL
1687453255,d6ca3d07f66e7740d9ad4e9fb69ae319,PennController,5,0,experiment,NULL,PennController,4,_Trial_,End,1687453035124,5eb55873fafd943e4f55e5b7,https://upenn.pcibex.net/p/lYSybP/?id=5eb55873fafd943e4f55e5b7,2,door,critical,A,50,goal,low,exp2trials,NULL
1687453255,d6ca3d07f66e7740d9ad4e9fb69ae319,PennController,30,0,experiment,NULL,PennController,29,_Trial_,Start,1687453035126,5eb55873fafd943e4f55e5b7,https://upenn.pcibex.net/p/lYSybP/?id=5eb55873fafd943e4f55e5b7,27,square,filler,A,75,goal,GoalA,exp2trials,NULL
1687453255,d6ca3d07f66e7740d9ad4e9fb69ae319,PennController,30,0,experiment,NULL,PennController,29,_Header_,Start,1687453035126,5eb55873fafd943e4f55e5b7,https://upenn.pcibex.net/p/lYSybP/?id=5eb55873fafd943e4f55e5b7,27,square,filler,A,75,goal,GoalA,exp2trials,NULL
1687453255,d6ca3d07f66e7740d9ad4e9fb69ae319,PennController,30,0,experiment,NULL,PennController,29,_Header_,End,1687453035126,5eb55873fafd943e4f55e5b7,https://upenn.pcibex.net/p/lYSybP/?id=5eb55873fafd943e4f55e5b7,27,square,filler,A,75,goal,GoalA,exp2trials,NULL
1687453255,d6ca3d07f66e7740d9ad4e9fb69ae319,PennController,30,0,experiment,NULL,Video,progression,buffer,0.003534,1687453038657,5eb55873fafd943e4f55e5b7,https://upenn.pcibex.net/p/lYSybP/?id=5eb55873fafd943e4f55e5b7,27,square,filler,A,75,goal,GoalA,exp2trials,NULL
1687453255,d6ca3d07f66e7740d9ad4e9fb69ae319,PennController,30,0,experiment,NULL,VideoScrubber,slider-input,SelectedFrame,75,1687453042825,5eb55873fafd943e4f55e5b7,https://upenn.pcibex.net/p/lYSybP/?id=5eb55873fafd943e4f55e5b7,27,square,filler,A,75,goal,GoalA,exp2trials,NULL
1687453255,d6ca3d07f66e7740d9ad4e9fb69ae319,PennController,30,0,experiment,NULL,PennController,29,_Trial_,End,1687453046984,5eb55873fafd943e4f55e5b7,https://upenn.pcibex.net/p/lYSybP/?id=5eb55873fafd943e4f55e5b7,27,square,filler,A,75,goal,GoalA,exp2trials,NULL
1687453255,d6ca3d07f66e7740d9ad4e9fb69ae319,PennController,16,0,experiment,NULL,PennController,15,_Trial_,Start,1687453046986,5eb55873fafd943e4f55e5b7,https://upenn.pcibex.net/p/lYSybP/?id=5eb55873fafd943e4f55e5b7,13,mix,critical,A,25,goal,low,exp2trials,NULL
1687453255,d6ca3d07f66e7740d9ad4e9fb69ae319,PennController,16,0,experiment,NULL,PennController,15,_Header_,Start,1687453046986,5eb55873fafd943e4f55e5b7,https://upenn.pcibex.net/p/lYSybP/?id=5eb55873fafd943e4f55e5b7,13,mix,critical,A,25,goal,low,exp2trials,NULL
1687453255,d6ca3d07f66e7740d9ad4e9fb69ae319,PennController,16,0,experiment,NULL,PennController,15,_Header_,End,1687453046986,5eb55873fafd943e4f55e5b7,https://upenn.pcibex.net/p/lYSybP/?id=5eb55873fafd943e4f55e5b7,13,mix,critical,A,25,goal,low,exp2trials,NULL
1687453255,d6ca3d07f66e7740d9ad4e9fb69ae319,PennController,16,0,experiment,NULL,Video,progression,buffer,0.003739,1687453050511,5eb55873fafd943e4f55e5b7,https://upenn.pcibex.net/p/lYSybP/?id=5eb55873fafd943e4f55e5b7,13,mix,critical,A,25,goal,low,exp2trials,NULL
1687453255,d6ca3d07f66e7740d9ad4e9fb69ae319,PennController,16,0,experiment,NULL,VideoScrubber,slider-input,SelectedFrame,25,1687453052692,5eb55873fafd943e4f55e5b7,https://upenn.pcibex.net/p/lYSybP/?id=5eb55873fafd943e4f55e5b7,13,mix,critical,A,25,goal,low,exp2trials,NULL
1687453255,d6ca3d07f66e7740d9ad4e9fb69ae319,PennController,16,0,experiment,NULL,PennController,15,_Trial_,End,1687453059831,5eb55873fafd943e4f55e5b7,https://upenn.pcibex.net/p/lYSybP/?id=5eb55873fafd943e4f55e5b7,13,mix,critical,A,25,goal,low,exp2trials,NULL
1687453255,d6ca3d07f66e7740d9ad4e9fb69ae319,PennController,17,0,experiment,NULL,PennController,16,_Trial_,Start,1687453059832,5eb55873fafd943e4f55e5b7,https://upenn.pcibex.net/p/lYSybP/?id=5eb55873fafd943e4f55e5b7,14,cover,critical,A,50,goal,low,exp2trials,NULL
1687453255,d6ca3d07f66e7740d9ad4e9fb69ae319,PennController,17,0,experiment,NULL,PennController,16,_Header_,Start,1687453059832,5eb55873fafd943e4f55e5b7,https://upenn.pcibex.net/p/lYSybP/?id=5eb55873fafd943e4f55e5b7,14,cover,critical,A,50,goal,low,exp2trials,NULL
1687453255,d6ca3d07f66e7740d9ad4e9fb69ae319,PennController,17,0,experiment,NULL,PennController,16,_Header_,End,1687453059832,5eb55873fafd943e4f55e5b7,https://upenn.pcibex.net/p/lYSybP/?id=5eb55873fafd943e4f55e5b7,14,cover,critical,A,50,goal,low,exp2trials,NULL
1687453255,d6ca3d07f66e7740d9ad4e9fb69ae319,PennController,17,0,experiment,NULL,Video,progression,buffer,0.004198,1687453063361,5eb55873fafd943e4f55e5b7,https://upenn.pcibex.net/p/lYSybP/?id=5eb55873fafd943e4f55e5b7,14,cover,critical,A,50,goal,low,exp2trials,NULL
1687453255,d6ca3d07f66e7740d9ad4e9fb69ae319,PennController,17,0,experiment,NULL,VideoScrubber,slider-input,SelectedFrame,51,1687453067936,5eb55873fafd943e4f55e5b7,https://upenn.pcibex.net/p/lYSybP/?id=5eb55873fafd943e4f55e5b7,14,cover,critical,A,50,goal,low,exp2trials,NULL
1687453255,d6ca3d07f66e7740d9ad4e9fb69ae319,PennController,17,0,experiment,NULL,PennController,16,_Trial_,End,1687453071897,5eb55873fafd943e4f55e5b7,https://upenn.pcibex.net/p/lYSybP/?id=5eb55873fafd943e4f55e5b7,14,cover,critical,A,50,goal,low,exp2trials,NULL
1687453255,d6ca3d07f66e7740d9ad4e9fb69ae319,PennController,22,0,experiment,NULL,PennController,21,_Trial_,Start,1687453071899,5eb55873fafd943e4f55e5b7,https://upenn.pcibex.net/p/lYSybP/?id=5eb55873fafd943e4f55e5b7,19,cup,filler,A,25,goal,GoalA,exp2trials,NULL
1687453255,d6ca3d07f66e7740d9ad4e9fb69ae319,PennController,22,0,experiment,NULL,PennController,21,_Header_,Start,1687453071899,5eb55873fafd943e4f55e5b7,https://upenn.pcibex.net/p/lYSybP/?id=5eb55873fafd943e4f55e5b7,19,cup,filler,A,25,goal,GoalA,exp2trials,NULL
1687453255,d6ca3d07f66e7740d9ad4e9fb69ae319,PennController,22,0,experiment,NULL,PennController,21,_Header_,End,1687453071899,5eb55873fafd943e4f55e5b7,https://upenn.pcibex.net/p/lYSybP/?id=5eb55873fafd943e4f55e5b7,19,cup,filler,A,25,goal,GoalA,exp2trials,NULL
1687453255,d6ca3d07f66e7740d9ad4e9fb69ae319,PennController,22,0,experiment,NULL,Video,progression,buffer,0.003976,1687453075428,5eb55873fafd943e4f55e5b7,https://upenn.pcibex.net/p/lYSybP/?id=5eb55873fafd943e4f55e5b7,19,cup,filler,A,25,goal,GoalA,exp2trials,NULL
1687453255,d6ca3d07f66e7740d9ad4e9fb69ae319,PennController,22,0,experiment,NULL,VideoScrubber,slider-input,SelectedFrame,15,1687453077606,5eb55873fafd943e4f55e5b7,https://upenn.pcibex.net/p/lYSybP/?id=5eb55873fafd943e4f55e5b7,19,cup,filler,A,25,goal,GoalA,exp2trials,NULL
1687453255,d6ca3d07f66e7740d9ad4e9fb69ae319,PennController,22,0,experiment,NULL,PennController,21,_Trial_,End,1687453082112,5eb55873fafd943e4f55e5b7,https://upenn.pcibex.net/p/lYSybP/?id=5eb55873fafd943e4f55e5b7,19,cup,filler,A,25,goal,GoalA,exp2trials,NULL
1687453255,d6ca3d07f66e7740d9ad4e9fb69ae319,PennController,19,0,experiment,NULL,PennController,18,_Trial_,Start,1687453082114,5eb55873fafd943e4f55e5b7,https://upenn.pcibex.net/p/lYSybP/?id=5eb55873fafd943e4f55e5b7,16,blinds,critical,A,25,goal,low,exp2trials,NULL
1687453255,d6ca3d07f66e7740d9ad4e9fb69ae319,PennController,19,0,experiment,NULL,PennController,18,_Header_,Start,1687453082114,5eb55873fafd943e4f55e5b7,https://upenn.pcibex.net/p/lYSybP/?id=5eb55873fafd943e4f55e5b7,16,blinds,critical,A,25,goal,low,exp2trials,NULL
1687453255,d6ca3d07f66e7740d9ad4e9fb69ae319,PennController,19,0,experiment,NULL,PennController,18,_Header_,End,1687453082114,5eb55873fafd943e4f55e5b7,https://upenn.pcibex.net/p/lYSybP/?id=5eb55873fafd943e4f55e5b7,16,blinds,critical,A,25,goal,low,exp2trials,NULL
1687453255,d6ca3d07f66e7740d9ad4e9fb69ae319,PennController,19,0,experiment,NULL,Video,progression,buffer,0.002348,1687453085637,5eb55873fafd943e4f55e5b7,https://upenn.pcibex.net/p/lYSybP/?id=5eb55873fafd943e4f55e5b7,16,blinds,critical,A,25,goal,low,exp2trials,NULL
1687453255,d6ca3d07f66e7740d9ad4e9fb69ae319,PennController,19,0,experiment,NULL,VideoScrubber,slider-input,SelectedFrame,33,1687453088404,5eb55873fafd943e4f55e5b7,https://upenn.pcibex.net/p/lYSybP/?id=5eb55873fafd943e4f55e5b7,16,blinds,critical,A,25,goal,low,exp2trials,NULL
1687453255,d6ca3d07f66e7740d9ad4e9fb69ae319,PennController,19,0,experiment,NULL,PennController,18,_Trial_,End,1687453093729,5eb55873fafd943e4f55e5b7,https://upenn.pcibex.net/p/lYSybP/?id=5eb55873fafd943e4f55e5b7,16,blinds,critical,A,25,goal,low,exp2trials,NULL
1687453255,d6ca3d07f66e7740d9ad4e9fb69ae319,PennController,24,0,experiment,NULL,PennController,23,_Trial_,Start,1687453093731,5eb55873fafd943e4f55e5b7,https://upenn.pcibex.net/p/lYSybP/?id=5eb55873fafd943e4f55e5b7,21,visit,filler,A,75,goal,GoalA,exp2trials,NULL
1687453255,d6ca3d07f66e7740d9ad4e9fb69ae319,PennController,24,0,experiment,NULL,PennController,23,_Header_,Start,1687453093731,5eb55873fafd943e4f55e5b7,https://upenn.pcibex.net/p/lYSybP/?id=5eb55873fafd943e4f55e5b7,21,visit,filler,A,75,goal,GoalA,exp2trials,NULL
1687453255,d6ca3d07f66e7740d9ad4e9fb69ae319,PennController,24,0,experiment,NULL,PennController,23,_Header_,End,1687453093731,5eb55873fafd943e4f55e5b7,https://upenn.pcibex.net/p/lYSybP/?id=5eb55873fafd943e4f55e5b7,21,visit,filler,A,75,goal,GoalA,exp2trials,NULL
1687453255,d6ca3d07f66e7740d9ad4e9fb69ae319,PennController,24,0,experiment,NULL,Video,progression,buffer,0.003562,1687453097259,5eb55873fafd943e4f55e5b7,https://upenn.pcibex.net/p/lYSybP/?id=5eb55873fafd943e4f55e5b7,21,visit,filler,A,75,goal,GoalA,exp2trials,NULL
1687453255,d6ca3d07f66e7740d9ad4e9fb69ae319,PennController,24,0,experiment,NULL,VideoScrubber,slider-input,SelectedFrame,75,1687453101432,5eb55873fafd943e4f55e5b7,https://upenn.pcibex.net/p/lYSybP/?id=5eb55873fafd943e4f55e5b7,21,visit,filler,A,75,goal,GoalA,exp2trials,NULL
1687453255,d6ca3d07f66e7740d9ad4e9fb69ae319,PennController,24,0,experiment,NULL,PennController,23,_Trial_,End,1687453104778,5eb55873fafd943e4f55e5b7,https://upenn.pcibex.net/p/lYSybP/?id=5eb55873fafd943e4f55e5b7,21,visit,filler,A,75,goal,GoalA,exp2trials,NULL
1687453255,d6ca3d07f66e7740d9ad4e9fb69ae319,PennController,25,0,experiment,NULL,PennController,24,_Trial_,Start,1687453104780,5eb55873fafd943e4f55e5b7,https://upenn.pcibex.net/p/lYSybP/?id=5eb55873fafd943e4f55e5b7,22,wall,filler,A,25,goal,GoalB,exp2trials,NULL
1687453255,d6ca3d07f66e7740d9ad4e9fb69ae319,PennController,25,0,experiment,NULL,PennController,24,_Header_,Start,1687453104780,5eb55873fafd943e4f55e5b7,https://upenn.pcibex.net/p/lYSybP/?id=5eb55873fafd943e4f55e5b7,22,wall,filler,A,25,goal,GoalB,exp2trials,NULL
1687453255,d6ca3d07f66e7740d9ad4e9fb69ae319,PennController,25,0,experiment,NULL,PennController,24,_Header_,End,1687453104780,5eb55873fafd943e4f55e5b7,https://upenn.pcibex.net/p/lYSybP/?id=5eb55873fafd943e4f55e5b7,22,wall,filler,A,25,goal,GoalB,exp2trials,NULL
1687453255,d6ca3d07f66e7740d9ad4e9fb69ae319,PennController,25,0,experiment,NULL,Video,progression,buffer,0.002807,1687453108306,5eb55873fafd943e4f55e5b7,https://upenn.pcibex.net/p/lYSybP/?id=5eb55873fafd943e4f55e5b7,22,wall,filler,A,25,goal,GoalB,exp2trials,NULL
1687453255,d6ca3d07f66e7740d9ad4e9fb69ae319,PennController,25,0,experiment,NULL,VideoScrubber,slider-input,SelectedFrame,20,1687453110480,5eb55873fafd943e4f55e5b7,https://upenn.pcibex.net/p/lYSybP/?id=5eb55873fafd943e4f55e5b7,22,wall,filler,A,25,goal,GoalB,exp2trials,NULL
1687453255,d6ca3d07f66e7740d9ad4e9fb69ae319,PennController,25,0,experiment,NULL,PennController,24,_Trial_,End,1687453117729,5eb55873fafd943e4f55e5b7,https://upenn.pcibex.net/p/lYSybP/?id=5eb55873fafd943e4f55e5b7,22,wall,filler,A,25,goal,GoalB,exp2trials,NULL
1687453255,d6ca3d07f66e7740d9ad4e9fb69ae319,PennController,15,0,experiment,NULL,PennController,14,_Trial_,Start,1687453117730,5eb55873fafd943e4f55e5b7,https://upenn.pcibex.net/p/lYSybP/?id=5eb55873fafd943e4f55e5b7,12,erase,critical,A,75,goal,low,exp2trials,NULL
1687453255,d6ca3d07f66e7740d9ad4e9fb69ae319,PennController,15,0,experiment,NULL,PennController,14,_Header_,Start,1687453117730,5eb55873fafd943e4f55e5b7,https://upenn.pcibex.net/p/lYSybP/?id=5eb55873fafd943e4f55e5b7,12,erase,critical,A,75,goal,low,exp2trials,NULL
1687453255,d6ca3d07f66e7740d9ad4e9fb69ae319,PennController,15,0,experiment,NULL,PennController,14,_Header_,End,1687453117730,5eb55873fafd943e4f55e5b7,https://upenn.pcibex.net/p/lYSybP/?id=5eb55873fafd943e4f55e5b7,12,erase,critical,A,75,goal,low,exp2trials,NULL
1687453255,d6ca3d07f66e7740d9ad4e9fb69ae319,PennController,15,0,experiment,NULL,Video,progression,buffer,0.003676,1687453121257,5eb55873fafd943e4f55e5b7,https://upenn.pcibex.net/p/lYSybP/?id=5eb55873fafd943e4f55e5b7,12,erase,critical,A,75,goal,low,exp2trials,NULL
1687453255,d6ca3d07f66e7740d9ad4e9fb69ae319,PennController,15,0,experiment,NULL,VideoScrubber,slider-input,SelectedFrame,75,1687453127436,5eb55873fafd943e4f55e5b7,https://upenn.pcibex.net/p/lYSybP/?id=5eb55873fafd943e4f55e5b7,12,erase,critical,A,75,goal,low,exp2trials,NULL
1687453255,d6ca3d07f66e7740d9ad4e9fb69ae319,PennController,15,0,experiment,NULL,PennController,14,_Trial_,End,1687453133296,5eb55873fafd943e4f55e5b7,https://upenn.pcibex.net/p/lYSybP/?id=5eb55873fafd943e4f55e5b7,12,erase,critical,A,75,goal,low,exp2trials,NULL
1687453255,d6ca3d07f66e7740d9ad4e9fb69ae319,PennController,29,0,experiment,NULL,PennController,28,_Trial_,Start,1687453133298,5eb55873fafd943e4f55e5b7,https://upenn.pcibex.net/p/lYSybP/?id=5eb55873fafd943e4f55e5b7,26,sandwich,filler,A,50,goal,GoalB,exp2trials,NULL
1687453255,d6ca3d07f66e7740d9ad4e9fb69ae319,PennController,29,0,experiment,NULL,PennController,28,_Header_,Start,1687453133298,5eb55873fafd943e4f55e5b7,https://upenn.pcibex.net/p/lYSybP/?id=5eb55873fafd943e4f55e5b7,26,sandwich,filler,A,50,goal,GoalB,exp2trials,NULL
1687453255,d6ca3d07f66e7740d9ad4e9fb69ae319,PennController,29,0,experiment,NULL,PennController,28,_Header_,End,1687453133298,5eb55873fafd943e4f55e5b7,https://upenn.pcibex.net/p/lYSybP/?id=5eb55873fafd943e4f55e5b7,26,sandwich,filler,A,50,goal,GoalB,exp2trials,NULL
1687453255,d6ca3d07f66e7740d9ad4e9fb69ae319,PennController,29,0,experiment,NULL,Video,progression,buffer,0.00354,1687453136829,5eb55873fafd943e4f55e5b7,https://upenn.pcibex.net/p/lYSybP/?id=5eb55873fafd943e4f55e5b7,26,sandwich,filler,A,50,goal,GoalB,exp2trials,NULL
1687453255,d6ca3d07f66e7740d9ad4e9fb69ae319,PennController,29,0,experiment,NULL,VideoScrubber,slider-input,SelectedFrame,45,1687453140001,5eb55873fafd943e4f55e5b7,https://upenn.pcibex.net/p/lYSybP/?id=5eb55873fafd943e4f55e5b7,26,sandwich,filler,A,50,goal,GoalB,exp2trials,NULL
1687453255,d6ca3d07f66e7740d9ad4e9fb69ae319,PennController,29,0,experiment,NULL,PennController,28,_Trial_,End,1687453146612,5eb55873fafd943e4f55e5b7,https://upenn.pcibex.net/p/lYSybP/?id=5eb55873fafd943e4f55e5b7,26,sandwich,filler,A,50,goal,GoalB,exp2trials,NULL
1687453255,d6ca3d07f66e7740d9ad4e9fb69ae319,PennController,8,0,experiment,NULL,PennController,7,_Trial_,Start,1687453146615,5eb55873fafd943e4f55e5b7,https://upenn.pcibex.net/p/lYSybP/?id=5eb55873fafd943e4f55e5b7,5,book,critical,A,50,goal,low,exp2trials,NULL
1687453255,d6ca3d07f66e7740d9ad4e9fb69ae319,PennController,8,0,experiment,NULL,PennController,7,_Header_,Start,1687453146615,5eb55873fafd943e4f55e5b7,https://upenn.pcibex.net/p/lYSybP/?id=5eb55873fafd943e4f55e5b7,5,book,critical,A,50,goal,low,exp2trials,NULL
1687453255,d6ca3d07f66e7740d9ad4e9fb69ae319,PennController,8,0,experiment,NULL,PennController,7,_Header_,End,1687453146615,5eb55873fafd943e4f55e5b7,https://upenn.pcibex.net/p/lYSybP/?id=5eb55873fafd943e4f55e5b7,5,book,critical,A,50,goal,low,exp2trials,NULL
1687453255,d6ca3d07f66e7740d9ad4e9fb69ae319,PennController,8,0,experiment,NULL,Video,progression,buffer,0.001567,1687453150141,5eb55873fafd943e4f55e5b7,https://upenn.pcibex.net/p/lYSybP/?id=5eb55873fafd943e4f55e5b7,5,book,critical,A,50,goal,low,exp2trials,NULL
1687453255,d6ca3d07f66e7740d9ad4e9fb69ae319,PennController,8,0,experiment,NULL,VideoScrubber,slider-input,SelectedFrame,65,1687453153320,5eb55873fafd943e4f55e5b7,https://upenn.pcibex.net/p/lYSybP/?id=5eb55873fafd943e4f55e5b7,5,book,critical,A,50,goal,low,exp2trials,NULL
1687453255,d6ca3d07f66e7740d9ad4e9fb69ae319,PennController,8,0,experiment,NULL,PennController,7,_Trial_,End,1687453159678,5eb55873fafd943e4f55e5b7,https://upenn.pcibex.net/p/lYSybP/?id=5eb55873fafd943e4f55e5b7,5,book,critical,A,50,goal,low,exp2trials,NULL
1687453255,d6ca3d07f66e7740d9ad4e9fb69ae319,PennController,4,0,experiment,NULL,PennController,3,_Trial_,Start,1687453159680,5eb55873fafd943e4f55e5b7,https://upenn.pcibex.net/p/lYSybP/?id=5eb55873fafd943e4f55e5b7,1,vase,critical,A,25,goal,low,exp2trials,NULL
1687453255,d6ca3d07f66e7740d9ad4e9fb69ae319,PennController,4,0,experiment,NULL,PennController,3,_Header_,Start,1687453159680,5eb55873fafd943e4f55e5b7,https://upenn.pcibex.net/p/lYSybP/?id=5eb55873fafd943e4f55e5b7,1,vase,critical,A,25,goal,low,exp2trials,NULL
1687453255,d6ca3d07f66e7740d9ad4e9fb69ae319,PennController,4,0,experiment,NULL,PennController,3,_Header_,End,1687453159680,5eb55873fafd943e4f55e5b7,https://upenn.pcibex.net/p/lYSybP/?id=5eb55873fafd943e4f55e5b7,1,vase,critical,A,25,goal,low,exp2trials,NULL
1687453255,d6ca3d07f66e7740d9ad4e9fb69ae319,PennController,4,0,experiment,NULL,Video,progression,buffer,0.004434,1687453163214,5eb55873fafd943e4f55e5b7,https://upenn.pcibex.net/p/lYSybP/?id=5eb55873fafd943e4f55e5b7,1,vase,critical,A,25,goal,low,exp2trials,NULL
1687453255,d6ca3d07f66e7740d9ad4e9fb69ae319,PennController,4,0,experiment,NULL,VideoScrubber,slider-input,SelectedFrame,35,1687453165382,5eb55873fafd943e4f55e5b7,https://upenn.pcibex.net/p/lYSybP/?id=5eb55873fafd943e4f55e5b7,1,vase,critical,A,25,goal,low,exp2trials,NULL
1687453255,d6ca3d07f66e7740d9ad4e9fb69ae319,PennController,4,0,experiment,NULL,PennController,3,_Trial_,End,1687453168095,5eb55873fafd943e4f55e5b7,https://upenn.pcibex.net/p/lYSybP/?id=5eb55873fafd943e4f55e5b7,1,vase,critical,A,25,goal,low,exp2trials,NULL
1687453255,d6ca3d07f66e7740d9ad4e9fb69ae319,PennController,9,0,experiment,NULL,PennController,8,_Trial_,Start,1687453168097,5eb55873fafd943e4f55e5b7,https://upenn.pcibex.net/p/lYSybP/?id=5eb55873fafd943e4f55e5b7,6,flower,critical,A,75,goal,low,exp2trials,NULL
1687453255,d6ca3d07f66e7740d9ad4e9fb69ae319,PennController,9,0,experiment,NULL,PennController,8,_Header_,Start,1687453168097,5eb55873fafd943e4f55e5b7,https://upenn.pcibex.net/p/lYSybP/?id=5eb55873fafd943e4f55e5b7,6,flower,critical,A,75,goal,low,exp2trials,NULL
1687453255,d6ca3d07f66e7740d9ad4e9fb69ae319,PennController,9,0,experiment,NULL,PennController,8,_Header_,End,1687453168097,5eb55873fafd943e4f55e5b7,https://upenn.pcibex.net/p/lYSybP/?id=5eb55873fafd943e4f55e5b7,6,flower,critical,A,75,goal,low,exp2trials,NULL
1687453255,d6ca3d07f66e7740d9ad4e9fb69ae319,PennController,9,0,experiment,NULL,Video,progression,buffer,0.001917,1687453171620,5eb55873fafd943e4f55e5b7,https://upenn.pcibex.net/p/lYSybP/?id=5eb55873fafd943e4f55e5b7,6,flower,critical,A,75,goal,low,exp2trials,NULL
1687453255,d6ca3d07f66e7740d9ad4e9fb69ae319,PennController,9,0,experiment,NULL,VideoScrubber,slider-input,SelectedFrame,80,1687453175785,5eb55873fafd943e4f55e5b7,https://upenn.pcibex.net/p/lYSybP/?id=5eb55873fafd943e4f55e5b7,6,flower,critical,A,75,goal,low,exp2trials,NULL
1687453255,d6ca3d07f66e7740d9ad4e9fb69ae319,PennController,9,0,experiment,NULL,PennController,8,_Trial_,End,1687453179442,5eb55873fafd943e4f55e5b7,https://upenn.pcibex.net/p/lYSybP/?id=5eb55873fafd943e4f55e5b7,6,flower,critical,A,75,goal,low,exp2trials,NULL
1687453255,d6ca3d07f66e7740d9ad4e9fb69ae319,PennController,7,0,experiment,NULL,PennController,6,_Trial_,Start,1687453179442,5eb55873fafd943e4f55e5b7,https://upenn.pcibex.net/p/lYSybP/?id=5eb55873fafd943e4f55e5b7,4,candy,critical,A,25,goal,low,exp2trials,NULL
1687453255,d6ca3d07f66e7740d9ad4e9fb69ae319,PennController,7,0,experiment,NULL,PennController,6,_Header_,Start,1687453179442,5eb55873fafd943e4f55e5b7,https://upenn.pcibex.net/p/lYSybP/?id=5eb55873fafd943e4f55e5b7,4,candy,critical,A,25,goal,low,exp2trials,NULL
1687453255,d6ca3d07f66e7740d9ad4e9fb69ae319,PennController,7,0,experiment,NULL,PennController,6,_Header_,End,1687453179442,5eb55873fafd943e4f55e5b7,https://upenn.pcibex.net/p/lYSybP/?id=5eb55873fafd943e4f55e5b7,4,candy,critical,A,25,goal,low,exp2trials,NULL
1687453255,d6ca3d07f66e7740d9ad4e9fb69ae319,PennController,7,0,experiment,NULL,Video,progression,buffer,0.002586,1687453182964,5eb55873fafd943e4f55e5b7,https://upenn.pcibex.net/p/lYSybP/?id=5eb55873fafd943e4f55e5b7,4,candy,critical,A,25,goal,low,exp2trials,NULL
1687453255,d6ca3d07f66e7740d9ad4e9fb69ae319,PennController,7,0,experiment,NULL,VideoScrubber,slider-input,SelectedFrame,20,1687453185133,5eb55873fafd943e4f55e5b7,https://upenn.pcibex.net/p/lYSybP/?id=5eb55873fafd943e4f55e5b7,4,candy,critical,A,25,goal,low,exp2trials,NULL
1687453255,d6ca3d07f66e7740d9ad4e9fb69ae319,PennController,7,0,experiment,NULL,PennController,6,_Trial_,End,1687453191844,5eb55873fafd943e4f55e5b7,https://upenn.pcibex.net/p/lYSybP/?id=5eb55873fafd943e4f55e5b7,4,candy,critical,A,25,goal,low,exp2trials,NULL
1687453255,d6ca3d07f66e7740d9ad4e9fb69ae319,PennController,23,0,experiment,NULL,PennController,22,_Trial_,Start,1687453191846,5eb55873fafd943e4f55e5b7,https://upenn.pcibex.net/p/lYSybP/?id=5eb55873fafd943e4f55e5b7,20,cat,filler,A,50,goal,GoalB,exp2trials,NULL
1687453255,d6ca3d07f66e7740d9ad4e9fb69ae319,PennController,23,0,experiment,NULL,PennController,22,_Header_,Start,1687453191846,5eb55873fafd943e4f55e5b7,https://upenn.pcibex.net/p/lYSybP/?id=5eb55873fafd943e4f55e5b7,20,cat,filler,A,50,goal,GoalB,exp2trials,NULL
1687453255,d6ca3d07f66e7740d9ad4e9fb69ae319,PennController,23,0,experiment,NULL,PennController,22,_Header_,End,1687453191846,5eb55873fafd943e4f55e5b7,https://upenn.pcibex.net/p/lYSybP/?id=5eb55873fafd943e4f55e5b7,20,cat,filler,A,50,goal,GoalB,exp2trials,NULL
1687453255,d6ca3d07f66e7740d9ad4e9fb69ae319,PennController,23,0,experiment,NULL,Video,progression,buffer,0.00282,1687453195370,5eb55873fafd943e4f55e5b7,https://upenn.pcibex.net/p/lYSybP/?id=5eb55873fafd943e4f55e5b7,20,cat,filler,A,50,goal,GoalB,exp2trials,NULL
1687453255,d6ca3d07f66e7740d9ad4e9fb69ae319,PennController,23,0,experiment,NULL,VideoScrubber,slider-input,SelectedFrame,50,1687453198532,5eb55873fafd943e4f55e5b7,https://upenn.pcibex.net/p/lYSybP/?id=5eb55873fafd943e4f55e5b7,20,cat,filler,A,50,goal,GoalB,exp2trials,NULL
1687453255,d6ca3d07f66e7740d9ad4e9fb69ae319,PennController,23,0,experiment,NULL,PennController,22,_Trial_,End,1687453201678,5eb55873fafd943e4f55e5b7,https://upenn.pcibex.net/p/lYSybP/?id=5eb55873fafd943e4f55e5b7,20,cat,filler,A,50,goal,GoalB,exp2trials,NULL
1687453255,d6ca3d07f66e7740d9ad4e9fb69ae319,PennController,32,0,experiment,NULL,PennController,31,_Trial_,Start,1687453201679,5eb55873fafd943e4f55e5b7,https://upenn.pcibex.net/p/lYSybP/?id=5eb55873fafd943e4f55e5b7,29,frog,filler,A,50,goal,GoalA,exp2trials,NULL
1687453255,d6ca3d07f66e7740d9ad4e9fb69ae319,PennController,32,0,experiment,NULL,PennController,31,_Header_,Start,1687453201679,5eb55873fafd943e4f55e5b7,https://upenn.pcibex.net/p/lYSybP/?id=5eb55873fafd943e4f55e5b7,29,frog,filler,A,50,goal,GoalA,exp2trials,NULL
1687453255,d6ca3d07f66e7740d9ad4e9fb69ae319,PennController,32,0,experiment,NULL,PennController,31,_Header_,End,1687453201679,5eb55873fafd943e4f55e5b7,https://upenn.pcibex.net/p/lYSybP/?id=5eb55873fafd943e4f55e5b7,29,frog,filler,A,50,goal,GoalA,exp2trials,NULL
1687453255,d6ca3d07f66e7740d9ad4e9fb69ae319,PennController,32,0,experiment,NULL,Video,progression,buffer,0.003606,1687453205208,5eb55873fafd943e4f55e5b7,https://upenn.pcibex.net/p/lYSybP/?id=5eb55873fafd943e4f55e5b7,29,frog,filler,A,50,goal,GoalA,exp2trials,NULL
1687453255,d6ca3d07f66e7740d9ad4e9fb69ae319,PennController,32,0,experiment,NULL,VideoScrubber,slider-input,SelectedFrame,45,1687453208387,5eb55873fafd943e4f55e5b7,https://upenn.pcibex.net/p/lYSybP/?id=5eb55873fafd943e4f55e5b7,29,frog,filler,A,50,goal,GoalA,exp2trials,NULL
1687453255,d6ca3d07f66e7740d9ad4e9fb69ae319,PennController,32,0,experiment,NULL,PennController,31,_Trial_,End,1687453211861,5eb55873fafd943e4f55e5b7,https://upenn.pcibex.net/p/lYSybP/?id=5eb55873fafd943e4f55e5b7,29,frog,filler,A,50,goal,GoalA,exp2trials,NULL
1687453255,d6ca3d07f66e7740d9ad4e9fb69ae319,PennController,6,0,experiment,NULL,PennController,5,_Trial_,Start,1687453211863,5eb55873fafd943e4f55e5b7,https://upenn.pcibex.net/p/lYSybP/?id=5eb55873fafd943e4f55e5b7,3,clean,critical,A,75,goal,low,exp2trials,NULL
1687453255,d6ca3d07f66e7740d9ad4e9fb69ae319,PennController,6,0,experiment,NULL,PennController,5,_Header_,Start,1687453211863,5eb55873fafd943e4f55e5b7,https://upenn.pcibex.net/p/lYSybP/?id=5eb55873fafd943e4f55e5b7,3,clean,critical,A,75,goal,low,exp2trials,NULL
1687453255,d6ca3d07f66e7740d9ad4e9fb69ae319,PennController,6,0,experiment,NULL,PennController,5,_Header_,End,1687453211863,5eb55873fafd943e4f55e5b7,https://upenn.pcibex.net/p/lYSybP/?id=5eb55873fafd943e4f55e5b7,3,clean,critical,A,75,goal,low,exp2trials,NULL
1687453255,d6ca3d07f66e7740d9ad4e9fb69ae319,PennController,6,0,experiment,NULL,Video,progression,buffer,0.002574,1687453215386,5eb55873fafd943e4f55e5b7,https://upenn.pcibex.net/p/lYSybP/?id=5eb55873fafd943e4f55e5b7,3,clean,critical,A,75,goal,low,exp2trials,NULL
1687453255,d6ca3d07f66e7740d9ad4e9fb69ae319,PennController,6,0,experiment,NULL,VideoScrubber,slider-input,SelectedFrame,70,1687453219551,5eb55873fafd943e4f55e5b7,https://upenn.pcibex.net/p/lYSybP/?id=5eb55873fafd943e4f55e5b7,3,clean,critical,A,75,goal,low,exp2trials,NULL
1687453255,d6ca3d07f66e7740d9ad4e9fb69ae319,PennController,6,0,experiment,NULL,PennController,5,_Trial_,End,1687453222312,5eb55873fafd943e4f55e5b7,https://upenn.pcibex.net/p/lYSybP/?id=5eb55873fafd943e4f55e5b7,3,clean,critical,A,75,goal,low,exp2trials,NULL
1687453255,d6ca3d07f66e7740d9ad4e9fb69ae319,PennController,28,0,experiment,NULL,PennController,27,_Trial_,Start,1687453222313,5eb55873fafd943e4f55e5b7,https://upenn.pcibex.net/p/lYSybP/?id=5eb55873fafd943e4f55e5b7,25,house,filler,A,25,goal,GoalA,exp2trials,NULL
1687453255,d6ca3d07f66e7740d9ad4e9fb69ae319,PennController,28,0,experiment,NULL,PennController,27,_Header_,Start,1687453222313,5eb55873fafd943e4f55e5b7,https://upenn.pcibex.net/p/lYSybP/?id=5eb55873fafd943e4f55e5b7,25,house,filler,A,25,goal,GoalA,exp2trials,NULL
1687453255,d6ca3d07f66e7740d9ad4e9fb69ae319,PennController,28,0,experiment,NULL,PennController,27,_Header_,End,1687453222313,5eb55873fafd943e4f55e5b7,https://upenn.pcibex.net/p/lYSybP/?id=5eb55873fafd943e4f55e5b7,25,house,filler,A,25,goal,GoalA,exp2trials,NULL
1687453255,d6ca3d07f66e7740d9ad4e9fb69ae319,PennController,28,0,experiment,NULL,Video,progression,buffer,0.003366,1687453225841,5eb55873fafd943e4f55e5b7,https://upenn.pcibex.net/p/lYSybP/?id=5eb55873fafd943e4f55e5b7,25,house,filler,A,25,goal,GoalA,exp2trials,NULL
1687453255,d6ca3d07f66e7740d9ad4e9fb69ae319,PennController,28,0,experiment,NULL,VideoScrubber,slider-input,SelectedFrame,25,1687453228021,5eb55873fafd943e4f55e5b7,https://upenn.pcibex.net/p/lYSybP/?id=5eb55873fafd943e4f55e5b7,25,house,filler,A,25,goal,GoalA,exp2trials,NULL
1687453255,d6ca3d07f66e7740d9ad4e9fb69ae319,PennController,28,0,experiment,NULL,PennController,27,_Trial_,End,1687453231994,5eb55873fafd943e4f55e5b7,https://upenn.pcibex.net/p/lYSybP/?id=5eb55873fafd943e4f55e5b7,25,house,filler,A,25,goal,GoalA,exp2trials,NULL
1687453255,d6ca3d07f66e7740d9ad4e9fb69ae319,PennController,20,0,experiment,NULL,PennController,19,_Trial_,Start,1687453231996,5eb55873fafd943e4f55e5b7,https://upenn.pcibex.net/p/lYSybP/?id=5eb55873fafd943e4f55e5b7,17,roll,critical,A,50,goal,low,exp2trials,NULL
1687453255,d6ca3d07f66e7740d9ad4e9fb69ae319,PennController,20,0,experiment,NULL,PennController,19,_Header_,Start,1687453231996,5eb55873fafd943e4f55e5b7,https://upenn.pcibex.net/p/lYSybP/?id=5eb55873fafd943e4f55e5b7,17,roll,critical,A,50,goal,low,exp2trials,NULL
1687453255,d6ca3d07f66e7740d9ad4e9fb69ae319,PennController,20,0,experiment,NULL,PennController,19,_Header_,End,1687453231996,5eb55873fafd943e4f55e5b7,https://upenn.pcibex.net/p/lYSybP/?id=5eb55873fafd943e4f55e5b7,17,roll,critical,A,50,goal,low,exp2trials,NULL
1687453255,d6ca3d07f66e7740d9ad4e9fb69ae319,PennController,20,0,experiment,NULL,Video,progression,buffer,0.002514,1687453235518,5eb55873fafd943e4f55e5b7,https://upenn.pcibex.net/p/lYSybP/?id=5eb55873fafd943e4f55e5b7,17,roll,critical,A,50,goal,low,exp2trials,NULL
1687453255,d6ca3d07f66e7740d9ad4e9fb69ae319,PennController,20,0,experiment,NULL,VideoScrubber,slider-input,SelectedFrame,40,1687453238684,5eb55873fafd943e4f55e5b7,https://upenn.pcibex.net/p/lYSybP/?id=5eb55873fafd943e4f55e5b7,17,roll,critical,A,50,goal,low,exp2trials,NULL
1687453255,d6ca3d07f66e7740d9ad4e9fb69ae319,PennController,20,0,experiment,NULL,PennController,19,_Trial_,End,1687453241227,5eb55873fafd943e4f55e5b7,https://upenn.pcibex.net/p/lYSybP/?id=5eb55873fafd943e4f55e5b7,17,roll,critical,A,50,goal,low,exp2trials,NULL
1687453255,d6ca3d07f66e7740d9ad4e9fb69ae319,PennController,12,0,experiment,NULL,PennController,11,_Trial_,Start,1687453241228,5eb55873fafd943e4f55e5b7,https://upenn.pcibex.net/p/lYSybP/?id=5eb55873fafd943e4f55e5b7,9,cake,critical,A,75,goal,low,exp2trials,NULL
1687453255,d6ca3d07f66e7740d9ad4e9fb69ae319,PennController,12,0,experiment,NULL,PennController,11,_Header_,Start,1687453241228,5eb55873fafd943e4f55e5b7,https://upenn.pcibex.net/p/lYSybP/?id=5eb55873fafd943e4f55e5b7,9,cake,critical,A,75,goal,low,exp2trials,NULL
1687453255,d6ca3d07f66e7740d9ad4e9fb69ae319,PennController,12,0,experiment,NULL,PennController,11,_Header_,End,1687453241228,5eb55873fafd943e4f55e5b7,https://upenn.pcibex.net/p/lYSybP/?id=5eb55873fafd943e4f55e5b7,9,cake,critical,A,75,goal,low,exp2trials,NULL
1687453255,d6ca3d07f66e7740d9ad4e9fb69ae319,PennController,12,0,experiment,NULL,Video,progression,buffer,0.003648,1687453244751,5eb55873fafd943e4f55e5b7,https://upenn.pcibex.net/p/lYSybP/?id=5eb55873fafd943e4f55e5b7,9,cake,critical,A,75,goal,low,exp2trials,NULL
1687453255,d6ca3d07f66e7740d9ad4e9fb69ae319,PennController,12,0,experiment,NULL,VideoScrubber,slider-input,SelectedFrame,81,1687453250919,5eb55873fafd943e4f55e5b7,https://upenn.pcibex.net/p/lYSybP/?id=5eb55873fafd943e4f55e5b7,9,cake,critical,A,75,goal,low,exp2trials,NULL
1687453255,d6ca3d07f66e7740d9ad4e9fb69ae319,PennController,12,0,experiment,NULL,PennController,11,_Trial_,End,1687453255012,5eb55873fafd943e4f55e5b7,https://upenn.pcibex.net/p/lYSybP/?id=5eb55873fafd943e4f55e5b7,9,cake,critical,A,75,goal,low,exp2trials,NULL
