#
# Results on Thursday June 22 2023 17:09:40 UTC
# USER AGENT: Mozilla/5.0 (Windows NT 10.0; Win64; x64) AppleWebKit/537.36 (KHTML, like Gecko) Chrome/114.0.0.0 Safari/537.36 Edg/114.0.1823.55
# Design number was non-random = 72
#
# Columns below this comment are as follows:
# 1. Results reception time.
# 2. MD5 hash of participant's IP address.
# 3. Controller name.
# 4. Order number of item.
# 5. Inner element number.
# 6. Label.
# 7. Latin Square Group.
# 8. PennElementType.
# 9. PennElementName.
# 10. Parameter.
# 11. Value.
# 12. EventTime.
# 13. ProlificID.
# 14. Comments.
1687453780,31cd63a989a8a717aea76155df098b0f,PennController,2,0,consent,NULL,PennController,0,_Trial_,Start,1687452819111,60f269b5194811c9e2707558,NULL
1687453780,31cd63a989a8a717aea76155df098b0f,PennController,2,0,consent,NULL,PennController,0,_Header_,Start,1687452819111,60f269b5194811c9e2707558,NULL
1687453780,31cd63a989a8a717aea76155df098b0f,PennController,2,0,consent,NULL,PennController,0,_Header_,End,1687452819207,60f269b5194811c9e2707558,NULL
1687453780,31cd63a989a8a717aea76155df098b0f,PennController,2,0,consent,NULL,PennController,0,_Trial_,End,1687453128769,60f269b5194811c9e2707558,NULL
# Columns below this comment are as follows:
# 14. ID.
# 15. Comments.
1687453780,31cd63a989a8a717aea76155df098b0f,PennController,3,0,intro,NULL,PennController,1,_Trial_,Start,1687453128772,60f269b5194811c9e2707558,60f269b5194811c9e2707558,NULL
1687453780,31cd63a989a8a717aea76155df098b0f,PennController,3,0,intro,NULL,PennController,1,_Header_,Start,1687453128772,60f269b5194811c9e2707558,60f269b5194811c9e2707558,NULL
1687453780,31cd63a989a8a717aea76155df098b0f,PennController,3,0,intro,NULL,PennController,1,_Header_,End,1687453128772,60f269b5194811c9e2707558,60f269b5194811c9e2707558,NULL
1687453780,31cd63a989a8a717aea76155df098b0f,PennController,3,0,intro,NULL,PennController,1,_Trial_,End,1687453169352,60f269b5194811c9e2707558,60f269b5194811c9e2707558,NULL
# Columns below this comment are as follows:
# 15. item_number.
# 16. item.
# 17. type.
# 18. Group.
# 19. prog.
# 20. condition.
# 21. height.
# 22. exp2trials.
# 23. Comments.
1687453780,31cd63a989a8a717aea76155df098b0f,PennController,9,0,experiment,NULL,PennController,8,_Trial_,Start,1687453169355,60f269b5194811c9e2707558,60f269b5194811c9e2707558,6,flower,critical,A,75,goal,low,exp2trials,NULL
1687453780,31cd63a989a8a717aea76155df098b0f,PennController,9,0,experiment,NULL,PennController,8,_Header_,Start,1687453169355,60f269b5194811c9e2707558,60f269b5194811c9e2707558,6,flower,critical,A,75,goal,low,exp2trials,NULL
1687453780,31cd63a989a8a717aea76155df098b0f,PennController,9,0,experiment,NULL,PennController,8,_Header_,End,1687453169355,60f269b5194811c9e2707558,60f269b5194811c9e2707558,6,flower,critical,A,75,goal,low,exp2trials,NULL
1687453780,31cd63a989a8a717aea76155df098b0f,PennController,9,0,experiment,NULL,Video,progression,buffer,0.003327,1687453172902,60f269b5194811c9e2707558,60f269b5194811c9e2707558,6,flower,critical,A,75,goal,low,exp2trials,NULL
1687453780,31cd63a989a8a717aea76155df098b0f,PennController,9,0,experiment,NULL,VideoScrubber,slider-input,SelectedFrame,75,1687453177087,60f269b5194811c9e2707558,60f269b5194811c9e2707558,6,flower,critical,A,75,goal,low,exp2trials,NULL
1687453780,31cd63a989a8a717aea76155df098b0f,PennController,9,0,experiment,NULL,PennController,8,_Trial_,End,1687453195723,60f269b5194811c9e2707558,60f269b5194811c9e2707558,6,flower,critical,A,75,goal,low,exp2trials,NULL
1687453780,31cd63a989a8a717aea76155df098b0f,PennController,19,0,experiment,NULL,PennController,18,_Trial_,Start,1687453195724,60f269b5194811c9e2707558,60f269b5194811c9e2707558,16,blinds,critical,A,25,goal,low,exp2trials,NULL
1687453780,31cd63a989a8a717aea76155df098b0f,PennController,19,0,experiment,NULL,PennController,18,_Header_,Start,1687453195724,60f269b5194811c9e2707558,60f269b5194811c9e2707558,16,blinds,critical,A,25,goal,low,exp2trials,NULL
1687453780,31cd63a989a8a717aea76155df098b0f,PennController,19,0,experiment,NULL,PennController,18,_Header_,End,1687453195724,60f269b5194811c9e2707558,60f269b5194811c9e2707558,16,blinds,critical,A,25,goal,low,exp2trials,NULL
1687453780,31cd63a989a8a717aea76155df098b0f,PennController,19,0,experiment,NULL,Video,progression,buffer,0.002276,1687453199255,60f269b5194811c9e2707558,60f269b5194811c9e2707558,16,blinds,critical,A,25,goal,low,exp2trials,NULL
1687453780,31cd63a989a8a717aea76155df098b0f,PennController,19,0,experiment,NULL,VideoScrubber,slider-input,SelectedFrame,21,1687453202050,60f269b5194811c9e2707558,60f269b5194811c9e2707558,16,blinds,critical,A,25,goal,low,exp2trials,NULL
1687453780,31cd63a989a8a717aea76155df098b0f,PennController,19,0,experiment,NULL,PennController,18,_Trial_,End,1687453219489,60f269b5194811c9e2707558,60f269b5194811c9e2707558,16,blinds,critical,A,25,goal,low,exp2trials,NULL
1687453780,31cd63a989a8a717aea76155df098b0f,PennController,24,0,experiment,NULL,PennController,23,_Trial_,Start,1687453219491,60f269b5194811c9e2707558,60f269b5194811c9e2707558,21,visit,filler,A,75,goal,GoalA,exp2trials,NULL
1687453780,31cd63a989a8a717aea76155df098b0f,PennController,24,0,experiment,NULL,PennController,23,_Header_,Start,1687453219491,60f269b5194811c9e2707558,60f269b5194811c9e2707558,21,visit,filler,A,75,goal,GoalA,exp2trials,NULL
1687453780,31cd63a989a8a717aea76155df098b0f,PennController,24,0,experiment,NULL,PennController,23,_Header_,End,1687453219491,60f269b5194811c9e2707558,60f269b5194811c9e2707558,21,visit,filler,A,75,goal,GoalA,exp2trials,NULL
1687453780,31cd63a989a8a717aea76155df098b0f,PennController,24,0,experiment,NULL,Video,progression,buffer,0.00244,1687453223024,60f269b5194811c9e2707558,60f269b5194811c9e2707558,21,visit,filler,A,75,goal,GoalA,exp2trials,NULL
1687453780,31cd63a989a8a717aea76155df098b0f,PennController,24,0,experiment,NULL,VideoScrubber,slider-input,SelectedFrame,75,1687453227185,60f269b5194811c9e2707558,60f269b5194811c9e2707558,21,visit,filler,A,75,goal,GoalA,exp2trials,NULL
1687453780,31cd63a989a8a717aea76155df098b0f,PennController,24,0,experiment,NULL,PennController,23,_Trial_,End,1687453241070,60f269b5194811c9e2707558,60f269b5194811c9e2707558,21,visit,filler,A,75,goal,GoalA,exp2trials,NULL
1687453780,31cd63a989a8a717aea76155df098b0f,PennController,28,0,experiment,NULL,PennController,27,_Trial_,Start,1687453241072,60f269b5194811c9e2707558,60f269b5194811c9e2707558,25,house,filler,A,25,goal,GoalA,exp2trials,NULL
1687453780,31cd63a989a8a717aea76155df098b0f,PennController,28,0,experiment,NULL,PennController,27,_Header_,Start,1687453241072,60f269b5194811c9e2707558,60f269b5194811c9e2707558,25,house,filler,A,25,goal,GoalA,exp2trials,NULL
1687453780,31cd63a989a8a717aea76155df098b0f,PennController,28,0,experiment,NULL,PennController,27,_Header_,End,1687453241072,60f269b5194811c9e2707558,60f269b5194811c9e2707558,25,house,filler,A,25,goal,GoalA,exp2trials,NULL
1687453780,31cd63a989a8a717aea76155df098b0f,PennController,28,0,experiment,NULL,Video,progression,buffer,0.002038,1687453244599,60f269b5194811c9e2707558,60f269b5194811c9e2707558,25,house,filler,A,25,goal,GoalA,exp2trials,NULL
1687453780,31cd63a989a8a717aea76155df098b0f,PennController,28,0,experiment,NULL,VideoScrubber,slider-input,SelectedFrame,45,1687453246766,60f269b5194811c9e2707558,60f269b5194811c9e2707558,25,house,filler,A,25,goal,GoalA,exp2trials,NULL
1687453780,31cd63a989a8a717aea76155df098b0f,PennController,28,0,experiment,NULL,PennController,27,_Trial_,End,1687453267326,60f269b5194811c9e2707558,60f269b5194811c9e2707558,25,house,filler,A,25,goal,GoalA,exp2trials,NULL
1687453780,31cd63a989a8a717aea76155df098b0f,PennController,32,0,experiment,NULL,PennController,31,_Trial_,Start,1687453267327,60f269b5194811c9e2707558,60f269b5194811c9e2707558,29,frog,filler,A,50,goal,GoalA,exp2trials,NULL
1687453780,31cd63a989a8a717aea76155df098b0f,PennController,32,0,experiment,NULL,PennController,31,_Header_,Start,1687453267327,60f269b5194811c9e2707558,60f269b5194811c9e2707558,29,frog,filler,A,50,goal,GoalA,exp2trials,NULL
1687453780,31cd63a989a8a717aea76155df098b0f,PennController,32,0,experiment,NULL,PennController,31,_Header_,End,1687453267327,60f269b5194811c9e2707558,60f269b5194811c9e2707558,29,frog,filler,A,50,goal,GoalA,exp2trials,NULL
1687453780,31cd63a989a8a717aea76155df098b0f,PennController,32,0,experiment,NULL,Video,progression,buffer,0.003131,1687453270868,60f269b5194811c9e2707558,60f269b5194811c9e2707558,29,frog,filler,A,50,goal,GoalA,exp2trials,NULL
1687453780,31cd63a989a8a717aea76155df098b0f,PennController,32,0,experiment,NULL,VideoScrubber,slider-input,SelectedFrame,55,1687453274034,60f269b5194811c9e2707558,60f269b5194811c9e2707558,29,frog,filler,A,50,goal,GoalA,exp2trials,NULL
1687453780,31cd63a989a8a717aea76155df098b0f,PennController,32,0,experiment,NULL,PennController,31,_Trial_,End,1687453286626,60f269b5194811c9e2707558,60f269b5194811c9e2707558,29,frog,filler,A,50,goal,GoalA,exp2trials,NULL
1687453780,31cd63a989a8a717aea76155df098b0f,PennController,11,0,experiment,NULL,PennController,10,_Trial_,Start,1687453286627,60f269b5194811c9e2707558,60f269b5194811c9e2707558,8,cucumber,critical,A,50,goal,low,exp2trials,NULL
1687453780,31cd63a989a8a717aea76155df098b0f,PennController,11,0,experiment,NULL,PennController,10,_Header_,Start,1687453286627,60f269b5194811c9e2707558,60f269b5194811c9e2707558,8,cucumber,critical,A,50,goal,low,exp2trials,NULL
1687453780,31cd63a989a8a717aea76155df098b0f,PennController,11,0,experiment,NULL,PennController,10,_Header_,End,1687453286627,60f269b5194811c9e2707558,60f269b5194811c9e2707558,8,cucumber,critical,A,50,goal,low,exp2trials,NULL
1687453780,31cd63a989a8a717aea76155df098b0f,PennController,11,0,experiment,NULL,Video,progression,buffer,0.003102,1687453290162,60f269b5194811c9e2707558,60f269b5194811c9e2707558,8,cucumber,critical,A,50,goal,low,exp2trials,NULL
1687453780,31cd63a989a8a717aea76155df098b0f,PennController,11,0,experiment,NULL,VideoScrubber,slider-input,SelectedFrame,48,1687453294737,60f269b5194811c9e2707558,60f269b5194811c9e2707558,8,cucumber,critical,A,50,goal,low,exp2trials,NULL
1687453780,31cd63a989a8a717aea76155df098b0f,PennController,11,0,experiment,NULL,PennController,10,_Trial_,End,1687453302982,60f269b5194811c9e2707558,60f269b5194811c9e2707558,8,cucumber,critical,A,50,goal,low,exp2trials,NULL
1687453780,31cd63a989a8a717aea76155df098b0f,PennController,21,0,experiment,NULL,PennController,20,_Trial_,Start,1687453302983,60f269b5194811c9e2707558,60f269b5194811c9e2707558,18,ball,critical,A,75,goal,low,exp2trials,NULL
1687453780,31cd63a989a8a717aea76155df098b0f,PennController,21,0,experiment,NULL,PennController,20,_Header_,Start,1687453302983,60f269b5194811c9e2707558,60f269b5194811c9e2707558,18,ball,critical,A,75,goal,low,exp2trials,NULL
1687453780,31cd63a989a8a717aea76155df098b0f,PennController,21,0,experiment,NULL,PennController,20,_Header_,End,1687453302983,60f269b5194811c9e2707558,60f269b5194811c9e2707558,18,ball,critical,A,75,goal,low,exp2trials,NULL
1687453780,31cd63a989a8a717aea76155df098b0f,PennController,21,0,experiment,NULL,Video,progression,buffer,0.001616,1687453306506,60f269b5194811c9e2707558,60f269b5194811c9e2707558,18,ball,critical,A,75,goal,low,exp2trials,NULL
1687453780,31cd63a989a8a717aea76155df098b0f,PennController,21,0,experiment,NULL,VideoScrubber,slider-input,SelectedFrame,75,1687453310667,60f269b5194811c9e2707558,60f269b5194811c9e2707558,18,ball,critical,A,75,goal,low,exp2trials,NULL
1687453780,31cd63a989a8a717aea76155df098b0f,PennController,21,0,experiment,NULL,PennController,20,_Trial_,End,1687453320544,60f269b5194811c9e2707558,60f269b5194811c9e2707558,18,ball,critical,A,75,goal,low,exp2trials,NULL
1687453780,31cd63a989a8a717aea76155df098b0f,PennController,23,0,experiment,NULL,PennController,22,_Trial_,Start,1687453320545,60f269b5194811c9e2707558,60f269b5194811c9e2707558,20,cat,filler,A,50,goal,GoalB,exp2trials,NULL
1687453780,31cd63a989a8a717aea76155df098b0f,PennController,23,0,experiment,NULL,PennController,22,_Header_,Start,1687453320545,60f269b5194811c9e2707558,60f269b5194811c9e2707558,20,cat,filler,A,50,goal,GoalB,exp2trials,NULL
1687453780,31cd63a989a8a717aea76155df098b0f,PennController,23,0,experiment,NULL,PennController,22,_Header_,End,1687453320545,60f269b5194811c9e2707558,60f269b5194811c9e2707558,20,cat,filler,A,50,goal,GoalB,exp2trials,NULL
1687453780,31cd63a989a8a717aea76155df098b0f,PennController,23,0,experiment,NULL,Video,progression,buffer,0.002268,1687453324064,60f269b5194811c9e2707558,60f269b5194811c9e2707558,20,cat,filler,A,50,goal,GoalB,exp2trials,NULL
1687453780,31cd63a989a8a717aea76155df098b0f,PennController,23,0,experiment,NULL,VideoScrubber,slider-input,SelectedFrame,50,1687453327256,60f269b5194811c9e2707558,60f269b5194811c9e2707558,20,cat,filler,A,50,goal,GoalB,exp2trials,NULL
1687453780,31cd63a989a8a717aea76155df098b0f,PennController,23,0,experiment,NULL,PennController,22,_Trial_,End,1687453336045,60f269b5194811c9e2707558,60f269b5194811c9e2707558,20,cat,filler,A,50,goal,GoalB,exp2trials,NULL
1687453780,31cd63a989a8a717aea76155df098b0f,PennController,5,0,experiment,NULL,PennController,4,_Trial_,Start,1687453336046,60f269b5194811c9e2707558,60f269b5194811c9e2707558,2,door,critical,A,50,goal,low,exp2trials,NULL
1687453780,31cd63a989a8a717aea76155df098b0f,PennController,5,0,experiment,NULL,PennController,4,_Header_,Start,1687453336046,60f269b5194811c9e2707558,60f269b5194811c9e2707558,2,door,critical,A,50,goal,low,exp2trials,NULL
1687453780,31cd63a989a8a717aea76155df098b0f,PennController,5,0,experiment,NULL,PennController,4,_Header_,End,1687453336046,60f269b5194811c9e2707558,60f269b5194811c9e2707558,2,door,critical,A,50,goal,low,exp2trials,NULL
1687453780,31cd63a989a8a717aea76155df098b0f,PennController,5,0,experiment,NULL,Video,progression,buffer,0,1687453339600,60f269b5194811c9e2707558,60f269b5194811c9e2707558,2,door,critical,A,50,goal,low,exp2trials,NULL
1687453780,31cd63a989a8a717aea76155df098b0f,PennController,5,0,experiment,NULL,VideoScrubber,slider-input,SelectedFrame,60,1687453343526,60f269b5194811c9e2707558,60f269b5194811c9e2707558,2,door,critical,A,50,goal,low,exp2trials,NULL
1687453780,31cd63a989a8a717aea76155df098b0f,PennController,5,0,experiment,NULL,PennController,4,_Trial_,End,1687453358246,60f269b5194811c9e2707558,60f269b5194811c9e2707558,2,door,critical,A,50,goal,low,exp2trials,NULL
1687453780,31cd63a989a8a717aea76155df098b0f,PennController,17,0,experiment,NULL,PennController,16,_Trial_,Start,1687453358247,60f269b5194811c9e2707558,60f269b5194811c9e2707558,14,cover,critical,A,50,goal,low,exp2trials,NULL
1687453780,31cd63a989a8a717aea76155df098b0f,PennController,17,0,experiment,NULL,PennController,16,_Header_,Start,1687453358247,60f269b5194811c9e2707558,60f269b5194811c9e2707558,14,cover,critical,A,50,goal,low,exp2trials,NULL
1687453780,31cd63a989a8a717aea76155df098b0f,PennController,17,0,experiment,NULL,PennController,16,_Header_,End,1687453358247,60f269b5194811c9e2707558,60f269b5194811c9e2707558,14,cover,critical,A,50,goal,low,exp2trials,NULL
1687453780,31cd63a989a8a717aea76155df098b0f,PennController,17,0,experiment,NULL,Video,progression,buffer,0.002308,1687453361781,60f269b5194811c9e2707558,60f269b5194811c9e2707558,14,cover,critical,A,50,goal,low,exp2trials,NULL
1687453780,31cd63a989a8a717aea76155df098b0f,PennController,17,0,experiment,NULL,VideoScrubber,slider-input,SelectedFrame,51,1687453366349,60f269b5194811c9e2707558,60f269b5194811c9e2707558,14,cover,critical,A,50,goal,low,exp2trials,NULL
1687453780,31cd63a989a8a717aea76155df098b0f,PennController,17,0,experiment,NULL,PennController,16,_Trial_,End,1687453380754,60f269b5194811c9e2707558,60f269b5194811c9e2707558,14,cover,critical,A,50,goal,low,exp2trials,NULL
1687453780,31cd63a989a8a717aea76155df098b0f,PennController,16,0,experiment,NULL,PennController,15,_Trial_,Start,1687453380755,60f269b5194811c9e2707558,60f269b5194811c9e2707558,13,mix,critical,A,25,goal,low,exp2trials,NULL
1687453780,31cd63a989a8a717aea76155df098b0f,PennController,16,0,experiment,NULL,PennController,15,_Header_,Start,1687453380755,60f269b5194811c9e2707558,60f269b5194811c9e2707558,13,mix,critical,A,25,goal,low,exp2trials,NULL
1687453780,31cd63a989a8a717aea76155df098b0f,PennController,16,0,experiment,NULL,PennController,15,_Header_,End,1687453380755,60f269b5194811c9e2707558,60f269b5194811c9e2707558,13,mix,critical,A,25,goal,low,exp2trials,NULL
1687453780,31cd63a989a8a717aea76155df098b0f,PennController,16,0,experiment,NULL,Video,progression,buffer,0.003265,1687453384296,60f269b5194811c9e2707558,60f269b5194811c9e2707558,13,mix,critical,A,25,goal,low,exp2trials,NULL
1687453780,31cd63a989a8a717aea76155df098b0f,PennController,16,0,experiment,NULL,VideoScrubber,slider-input,SelectedFrame,15,1687453386481,60f269b5194811c9e2707558,60f269b5194811c9e2707558,13,mix,critical,A,25,goal,low,exp2trials,NULL
1687453780,31cd63a989a8a717aea76155df098b0f,PennController,16,0,experiment,NULL,PennController,15,_Trial_,End,1687453409704,60f269b5194811c9e2707558,60f269b5194811c9e2707558,13,mix,critical,A,25,goal,low,exp2trials,NULL
1687453780,31cd63a989a8a717aea76155df098b0f,PennController,14,0,experiment,NULL,PennController,13,_Trial_,Start,1687453409706,60f269b5194811c9e2707558,60f269b5194811c9e2707558,11,beads,critical,A,50,goal,low,exp2trials,NULL
1687453780,31cd63a989a8a717aea76155df098b0f,PennController,14,0,experiment,NULL,PennController,13,_Header_,Start,1687453409706,60f269b5194811c9e2707558,60f269b5194811c9e2707558,11,beads,critical,A,50,goal,low,exp2trials,NULL
1687453780,31cd63a989a8a717aea76155df098b0f,PennController,14,0,experiment,NULL,PennController,13,_Header_,End,1687453409706,60f269b5194811c9e2707558,60f269b5194811c9e2707558,11,beads,critical,A,50,goal,low,exp2trials,NULL
1687453780,31cd63a989a8a717aea76155df098b0f,PennController,14,0,experiment,NULL,Video,progression,buffer,0.001476,1687453413253,60f269b5194811c9e2707558,60f269b5194811c9e2707558,11,beads,critical,A,50,goal,low,exp2trials,NULL
1687453780,31cd63a989a8a717aea76155df098b0f,PennController,14,0,experiment,NULL,VideoScrubber,slider-input,SelectedFrame,45,1687453416414,60f269b5194811c9e2707558,60f269b5194811c9e2707558,11,beads,critical,A,50,goal,low,exp2trials,NULL
1687453780,31cd63a989a8a717aea76155df098b0f,PennController,14,0,experiment,NULL,PennController,13,_Trial_,End,1687453428412,60f269b5194811c9e2707558,60f269b5194811c9e2707558,11,beads,critical,A,50,goal,low,exp2trials,NULL
1687453780,31cd63a989a8a717aea76155df098b0f,PennController,29,0,experiment,NULL,PennController,28,_Trial_,Start,1687453428412,60f269b5194811c9e2707558,60f269b5194811c9e2707558,26,sandwich,filler,A,50,goal,GoalB,exp2trials,NULL
1687453780,31cd63a989a8a717aea76155df098b0f,PennController,29,0,experiment,NULL,PennController,28,_Header_,Start,1687453428412,60f269b5194811c9e2707558,60f269b5194811c9e2707558,26,sandwich,filler,A,50,goal,GoalB,exp2trials,NULL
1687453780,31cd63a989a8a717aea76155df098b0f,PennController,29,0,experiment,NULL,PennController,28,_Header_,End,1687453428412,60f269b5194811c9e2707558,60f269b5194811c9e2707558,26,sandwich,filler,A,50,goal,GoalB,exp2trials,NULL
1687453780,31cd63a989a8a717aea76155df098b0f,PennController,29,0,experiment,NULL,Video,progression,buffer,0.006208,1687453431945,60f269b5194811c9e2707558,60f269b5194811c9e2707558,26,sandwich,filler,A,50,goal,GoalB,exp2trials,NULL
1687453780,31cd63a989a8a717aea76155df098b0f,PennController,29,0,experiment,NULL,VideoScrubber,slider-input,SelectedFrame,45,1687453435132,60f269b5194811c9e2707558,60f269b5194811c9e2707558,26,sandwich,filler,A,50,goal,GoalB,exp2trials,NULL
1687453780,31cd63a989a8a717aea76155df098b0f,PennController,29,0,experiment,NULL,PennController,28,_Trial_,End,1687453452790,60f269b5194811c9e2707558,60f269b5194811c9e2707558,26,sandwich,filler,A,50,goal,GoalB,exp2trials,NULL
1687453780,31cd63a989a8a717aea76155df098b0f,PennController,8,0,experiment,NULL,PennController,7,_Trial_,Start,1687453452791,60f269b5194811c9e2707558,60f269b5194811c9e2707558,5,book,critical,A,50,goal,low,exp2trials,NULL
1687453780,31cd63a989a8a717aea76155df098b0f,PennController,8,0,experiment,NULL,PennController,7,_Header_,Start,1687453452791,60f269b5194811c9e2707558,60f269b5194811c9e2707558,5,book,critical,A,50,goal,low,exp2trials,NULL
1687453780,31cd63a989a8a717aea76155df098b0f,PennController,8,0,experiment,NULL,PennController,7,_Header_,End,1687453452791,60f269b5194811c9e2707558,60f269b5194811c9e2707558,5,book,critical,A,50,goal,low,exp2trials,NULL
1687453780,31cd63a989a8a717aea76155df098b0f,PennController,8,0,experiment,NULL,Video,progression,buffer,0.002542,1687453456324,60f269b5194811c9e2707558,60f269b5194811c9e2707558,5,book,critical,A,50,goal,low,exp2trials,NULL
1687453780,31cd63a989a8a717aea76155df098b0f,PennController,8,0,experiment,NULL,VideoScrubber,slider-input,SelectedFrame,50,1687453459495,60f269b5194811c9e2707558,60f269b5194811c9e2707558,5,book,critical,A,50,goal,low,exp2trials,NULL
1687453780,31cd63a989a8a717aea76155df098b0f,PennController,8,0,experiment,NULL,PennController,7,_Trial_,End,1687453493288,60f269b5194811c9e2707558,60f269b5194811c9e2707558,5,book,critical,A,50,goal,low,exp2trials,NULL
1687453780,31cd63a989a8a717aea76155df098b0f,PennController,10,0,experiment,NULL,PennController,9,_Trial_,Start,1687453493290,60f269b5194811c9e2707558,60f269b5194811c9e2707558,7,stack,critical,A,25,goal,low,exp2trials,NULL
1687453780,31cd63a989a8a717aea76155df098b0f,PennController,10,0,experiment,NULL,PennController,9,_Header_,Start,1687453493290,60f269b5194811c9e2707558,60f269b5194811c9e2707558,7,stack,critical,A,25,goal,low,exp2trials,NULL
1687453780,31cd63a989a8a717aea76155df098b0f,PennController,10,0,experiment,NULL,PennController,9,_Header_,End,1687453493290,60f269b5194811c9e2707558,60f269b5194811c9e2707558,7,stack,critical,A,25,goal,low,exp2trials,NULL
1687453780,31cd63a989a8a717aea76155df098b0f,PennController,10,0,experiment,NULL,Video,progression,buffer,0.001924,1687453496825,60f269b5194811c9e2707558,60f269b5194811c9e2707558,7,stack,critical,A,25,goal,low,exp2trials,NULL
1687453780,31cd63a989a8a717aea76155df098b0f,PennController,10,0,experiment,NULL,VideoScrubber,slider-input,SelectedFrame,20,1687453499014,60f269b5194811c9e2707558,60f269b5194811c9e2707558,7,stack,critical,A,25,goal,low,exp2trials,NULL
1687453780,31cd63a989a8a717aea76155df098b0f,PennController,10,0,experiment,NULL,PennController,9,_Trial_,End,1687453507819,60f269b5194811c9e2707558,60f269b5194811c9e2707558,7,stack,critical,A,25,goal,low,exp2trials,NULL
1687453780,31cd63a989a8a717aea76155df098b0f,PennController,27,0,experiment,NULL,PennController,26,_Trial_,Start,1687453507820,60f269b5194811c9e2707558,60f269b5194811c9e2707558,24,match,filler,A,75,goal,GoalB,exp2trials,NULL
1687453780,31cd63a989a8a717aea76155df098b0f,PennController,27,0,experiment,NULL,PennController,26,_Header_,Start,1687453507820,60f269b5194811c9e2707558,60f269b5194811c9e2707558,24,match,filler,A,75,goal,GoalB,exp2trials,NULL
1687453780,31cd63a989a8a717aea76155df098b0f,PennController,27,0,experiment,NULL,PennController,26,_Header_,End,1687453507820,60f269b5194811c9e2707558,60f269b5194811c9e2707558,24,match,filler,A,75,goal,GoalB,exp2trials,NULL
1687453780,31cd63a989a8a717aea76155df098b0f,PennController,27,0,experiment,NULL,Video,progression,buffer,0.00331,1687453511361,60f269b5194811c9e2707558,60f269b5194811c9e2707558,24,match,filler,A,75,goal,GoalB,exp2trials,NULL
1687453780,31cd63a989a8a717aea76155df098b0f,PennController,27,0,experiment,NULL,VideoScrubber,slider-input,SelectedFrame,60,1687453515540,60f269b5194811c9e2707558,60f269b5194811c9e2707558,24,match,filler,A,75,goal,GoalB,exp2trials,NULL
1687453780,31cd63a989a8a717aea76155df098b0f,PennController,27,0,experiment,NULL,PennController,26,_Trial_,End,1687453545913,60f269b5194811c9e2707558,60f269b5194811c9e2707558,24,match,filler,A,75,goal,GoalB,exp2trials,NULL
1687453780,31cd63a989a8a717aea76155df098b0f,PennController,15,0,experiment,NULL,PennController,14,_Trial_,Start,1687453545914,60f269b5194811c9e2707558,60f269b5194811c9e2707558,12,erase,critical,A,75,goal,low,exp2trials,NULL
1687453780,31cd63a989a8a717aea76155df098b0f,PennController,15,0,experiment,NULL,PennController,14,_Header_,Start,1687453545914,60f269b5194811c9e2707558,60f269b5194811c9e2707558,12,erase,critical,A,75,goal,low,exp2trials,NULL
1687453780,31cd63a989a8a717aea76155df098b0f,PennController,15,0,experiment,NULL,PennController,14,_Header_,End,1687453545914,60f269b5194811c9e2707558,60f269b5194811c9e2707558,12,erase,critical,A,75,goal,low,exp2trials,NULL
1687453780,31cd63a989a8a717aea76155df098b0f,PennController,15,0,experiment,NULL,Video,progression,buffer,0.003157,1687453549460,60f269b5194811c9e2707558,60f269b5194811c9e2707558,12,erase,critical,A,75,goal,low,exp2trials,NULL
1687453780,31cd63a989a8a717aea76155df098b0f,PennController,15,0,experiment,NULL,VideoScrubber,slider-input,SelectedFrame,75,1687453555632,60f269b5194811c9e2707558,60f269b5194811c9e2707558,12,erase,critical,A,75,goal,low,exp2trials,NULL
1687453780,31cd63a989a8a717aea76155df098b0f,PennController,15,0,experiment,NULL,PennController,14,_Trial_,End,1687453565483,60f269b5194811c9e2707558,60f269b5194811c9e2707558,12,erase,critical,A,75,goal,low,exp2trials,NULL
1687453780,31cd63a989a8a717aea76155df098b0f,PennController,6,0,experiment,NULL,PennController,5,_Trial_,Start,1687453565485,60f269b5194811c9e2707558,60f269b5194811c9e2707558,3,clean,critical,A,75,goal,low,exp2trials,NULL
1687453780,31cd63a989a8a717aea76155df098b0f,PennController,6,0,experiment,NULL,PennController,5,_Header_,Start,1687453565485,60f269b5194811c9e2707558,60f269b5194811c9e2707558,3,clean,critical,A,75,goal,low,exp2trials,NULL
1687453780,31cd63a989a8a717aea76155df098b0f,PennController,6,0,experiment,NULL,PennController,5,_Header_,End,1687453565485,60f269b5194811c9e2707558,60f269b5194811c9e2707558,3,clean,critical,A,75,goal,low,exp2trials,NULL
1687453780,31cd63a989a8a717aea76155df098b0f,PennController,6,0,experiment,NULL,Video,progression,buffer,0.006031,1687453569033,60f269b5194811c9e2707558,60f269b5194811c9e2707558,3,clean,critical,A,75,goal,low,exp2trials,NULL
1687453780,31cd63a989a8a717aea76155df098b0f,PennController,6,0,experiment,NULL,VideoScrubber,slider-input,SelectedFrame,70,1687453573204,60f269b5194811c9e2707558,60f269b5194811c9e2707558,3,clean,critical,A,75,goal,low,exp2trials,NULL
1687453780,31cd63a989a8a717aea76155df098b0f,PennController,6,0,experiment,NULL,PennController,5,_Trial_,End,1687453583460,60f269b5194811c9e2707558,60f269b5194811c9e2707558,3,clean,critical,A,75,goal,low,exp2trials,NULL
1687453780,31cd63a989a8a717aea76155df098b0f,PennController,18,0,experiment,NULL,PennController,17,_Trial_,Start,1687453583461,60f269b5194811c9e2707558,60f269b5194811c9e2707558,15,zip,critical,A,75,goal,low,exp2trials,NULL
1687453780,31cd63a989a8a717aea76155df098b0f,PennController,18,0,experiment,NULL,PennController,17,_Header_,Start,1687453583461,60f269b5194811c9e2707558,60f269b5194811c9e2707558,15,zip,critical,A,75,goal,low,exp2trials,NULL
1687453780,31cd63a989a8a717aea76155df098b0f,PennController,18,0,experiment,NULL,PennController,17,_Header_,End,1687453583461,60f269b5194811c9e2707558,60f269b5194811c9e2707558,15,zip,critical,A,75,goal,low,exp2trials,NULL
1687453780,31cd63a989a8a717aea76155df098b0f,PennController,18,0,experiment,NULL,Video,progression,buffer,0.002494,1687453586989,60f269b5194811c9e2707558,60f269b5194811c9e2707558,15,zip,critical,A,75,goal,low,exp2trials,NULL
1687453780,31cd63a989a8a717aea76155df098b0f,PennController,18,0,experiment,NULL,VideoScrubber,slider-input,SelectedFrame,75,1687453590360,60f269b5194811c9e2707558,60f269b5194811c9e2707558,15,zip,critical,A,75,goal,low,exp2trials,NULL
1687453780,31cd63a989a8a717aea76155df098b0f,PennController,18,0,experiment,NULL,PennController,17,_Trial_,End,1687453602951,60f269b5194811c9e2707558,60f269b5194811c9e2707558,15,zip,critical,A,75,goal,low,exp2trials,NULL
1687453780,31cd63a989a8a717aea76155df098b0f,PennController,13,0,experiment,NULL,PennController,12,_Trial_,Start,1687453602951,60f269b5194811c9e2707558,60f269b5194811c9e2707558,10,train,critical,A,25,goal,low,exp2trials,NULL
1687453780,31cd63a989a8a717aea76155df098b0f,PennController,13,0,experiment,NULL,PennController,12,_Header_,Start,1687453602951,60f269b5194811c9e2707558,60f269b5194811c9e2707558,10,train,critical,A,25,goal,low,exp2trials,NULL
1687453780,31cd63a989a8a717aea76155df098b0f,PennController,13,0,experiment,NULL,PennController,12,_Header_,End,1687453602951,60f269b5194811c9e2707558,60f269b5194811c9e2707558,10,train,critical,A,25,goal,low,exp2trials,NULL
1687453780,31cd63a989a8a717aea76155df098b0f,PennController,13,0,experiment,NULL,Video,progression,buffer,0.002404,1687453606475,60f269b5194811c9e2707558,60f269b5194811c9e2707558,10,train,critical,A,25,goal,low,exp2trials,NULL
1687453780,31cd63a989a8a717aea76155df098b0f,PennController,13,0,experiment,NULL,VideoScrubber,slider-input,SelectedFrame,30,1687453608661,60f269b5194811c9e2707558,60f269b5194811c9e2707558,10,train,critical,A,25,goal,low,exp2trials,NULL
1687453780,31cd63a989a8a717aea76155df098b0f,PennController,13,0,experiment,NULL,PennController,12,_Trial_,End,1687453613631,60f269b5194811c9e2707558,60f269b5194811c9e2707558,10,train,critical,A,25,goal,low,exp2trials,NULL
1687453780,31cd63a989a8a717aea76155df098b0f,PennController,31,0,experiment,NULL,PennController,30,_Trial_,Start,1687453613632,60f269b5194811c9e2707558,60f269b5194811c9e2707558,28,sort,filler,A,25,goal,GoalB,exp2trials,NULL
1687453780,31cd63a989a8a717aea76155df098b0f,PennController,31,0,experiment,NULL,PennController,30,_Header_,Start,1687453613632,60f269b5194811c9e2707558,60f269b5194811c9e2707558,28,sort,filler,A,25,goal,GoalB,exp2trials,NULL
1687453780,31cd63a989a8a717aea76155df098b0f,PennController,31,0,experiment,NULL,PennController,30,_Header_,End,1687453613632,60f269b5194811c9e2707558,60f269b5194811c9e2707558,28,sort,filler,A,25,goal,GoalB,exp2trials,NULL
1687453780,31cd63a989a8a717aea76155df098b0f,PennController,31,0,experiment,NULL,Video,progression,buffer,0.001976,1687453617189,60f269b5194811c9e2707558,60f269b5194811c9e2707558,28,sort,filler,A,25,goal,GoalB,exp2trials,NULL
1687453780,31cd63a989a8a717aea76155df098b0f,PennController,31,0,experiment,NULL,VideoScrubber,slider-input,SelectedFrame,30,1687453619374,60f269b5194811c9e2707558,60f269b5194811c9e2707558,28,sort,filler,A,25,goal,GoalB,exp2trials,NULL
1687453780,31cd63a989a8a717aea76155df098b0f,PennController,31,0,experiment,NULL,PennController,30,_Trial_,End,1687453629170,60f269b5194811c9e2707558,60f269b5194811c9e2707558,28,sort,filler,A,25,goal,GoalB,exp2trials,NULL
1687453780,31cd63a989a8a717aea76155df098b0f,PennController,25,0,experiment,NULL,PennController,24,_Trial_,Start,1687453629170,60f269b5194811c9e2707558,60f269b5194811c9e2707558,22,wall,filler,A,25,goal,GoalB,exp2trials,NULL
1687453780,31cd63a989a8a717aea76155df098b0f,PennController,25,0,experiment,NULL,PennController,24,_Header_,Start,1687453629170,60f269b5194811c9e2707558,60f269b5194811c9e2707558,22,wall,filler,A,25,goal,GoalB,exp2trials,NULL
1687453780,31cd63a989a8a717aea76155df098b0f,PennController,25,0,experiment,NULL,PennController,24,_Header_,End,1687453629170,60f269b5194811c9e2707558,60f269b5194811c9e2707558,22,wall,filler,A,25,goal,GoalB,exp2trials,NULL
1687453780,31cd63a989a8a717aea76155df098b0f,PennController,25,0,experiment,NULL,Video,progression,buffer,0.001717,1687453632700,60f269b5194811c9e2707558,60f269b5194811c9e2707558,22,wall,filler,A,25,goal,GoalB,exp2trials,NULL
1687453780,31cd63a989a8a717aea76155df098b0f,PennController,25,0,experiment,NULL,VideoScrubber,slider-input,SelectedFrame,25,1687453634895,60f269b5194811c9e2707558,60f269b5194811c9e2707558,22,wall,filler,A,25,goal,GoalB,exp2trials,NULL
1687453780,31cd63a989a8a717aea76155df098b0f,PennController,25,0,experiment,NULL,PennController,24,_Trial_,End,1687453641829,60f269b5194811c9e2707558,60f269b5194811c9e2707558,22,wall,filler,A,25,goal,GoalB,exp2trials,NULL
1687453780,31cd63a989a8a717aea76155df098b0f,PennController,30,0,experiment,NULL,PennController,29,_Trial_,Start,1687453641830,60f269b5194811c9e2707558,60f269b5194811c9e2707558,27,square,filler,A,75,goal,GoalA,exp2trials,NULL
1687453780,31cd63a989a8a717aea76155df098b0f,PennController,30,0,experiment,NULL,PennController,29,_Header_,Start,1687453641830,60f269b5194811c9e2707558,60f269b5194811c9e2707558,27,square,filler,A,75,goal,GoalA,exp2trials,NULL
1687453780,31cd63a989a8a717aea76155df098b0f,PennController,30,0,experiment,NULL,PennController,29,_Header_,End,1687453641830,60f269b5194811c9e2707558,60f269b5194811c9e2707558,27,square,filler,A,75,goal,GoalA,exp2trials,NULL
1687453780,31cd63a989a8a717aea76155df098b0f,PennController,30,0,experiment,NULL,Video,progression,buffer,0.005722,1687453645396,60f269b5194811c9e2707558,60f269b5194811c9e2707558,27,square,filler,A,75,goal,GoalA,exp2trials,NULL
1687453780,31cd63a989a8a717aea76155df098b0f,PennController,30,0,experiment,NULL,VideoScrubber,slider-input,SelectedFrame,70,1687453649556,60f269b5194811c9e2707558,60f269b5194811c9e2707558,27,square,filler,A,75,goal,GoalA,exp2trials,NULL
1687453780,31cd63a989a8a717aea76155df098b0f,PennController,30,0,experiment,NULL,PennController,29,_Trial_,End,1687453665466,60f269b5194811c9e2707558,60f269b5194811c9e2707558,27,square,filler,A,75,goal,GoalA,exp2trials,NULL
1687453780,31cd63a989a8a717aea76155df098b0f,PennController,20,0,experiment,NULL,PennController,19,_Trial_,Start,1687453665467,60f269b5194811c9e2707558,60f269b5194811c9e2707558,17,roll,critical,A,50,goal,low,exp2trials,NULL
1687453780,31cd63a989a8a717aea76155df098b0f,PennController,20,0,experiment,NULL,PennController,19,_Header_,Start,1687453665467,60f269b5194811c9e2707558,60f269b5194811c9e2707558,17,roll,critical,A,50,goal,low,exp2trials,NULL
1687453780,31cd63a989a8a717aea76155df098b0f,PennController,20,0,experiment,NULL,PennController,19,_Header_,End,1687453665467,60f269b5194811c9e2707558,60f269b5194811c9e2707558,17,roll,critical,A,50,goal,low,exp2trials,NULL
1687453780,31cd63a989a8a717aea76155df098b0f,PennController,20,0,experiment,NULL,Video,progression,buffer,0,1687453668990,60f269b5194811c9e2707558,60f269b5194811c9e2707558,17,roll,critical,A,50,goal,low,exp2trials,NULL
1687453780,31cd63a989a8a717aea76155df098b0f,PennController,20,0,experiment,NULL,VideoScrubber,slider-input,SelectedFrame,35,1687453672501,60f269b5194811c9e2707558,60f269b5194811c9e2707558,17,roll,critical,A,50,goal,low,exp2trials,NULL
1687453780,31cd63a989a8a717aea76155df098b0f,PennController,20,0,experiment,NULL,PennController,19,_Trial_,End,1687453679976,60f269b5194811c9e2707558,60f269b5194811c9e2707558,17,roll,critical,A,50,goal,low,exp2trials,NULL
1687453780,31cd63a989a8a717aea76155df098b0f,PennController,12,0,experiment,NULL,PennController,11,_Trial_,Start,1687453679978,60f269b5194811c9e2707558,60f269b5194811c9e2707558,9,cake,critical,A,75,goal,low,exp2trials,NULL
1687453780,31cd63a989a8a717aea76155df098b0f,PennController,12,0,experiment,NULL,PennController,11,_Header_,Start,1687453679978,60f269b5194811c9e2707558,60f269b5194811c9e2707558,9,cake,critical,A,75,goal,low,exp2trials,NULL
1687453780,31cd63a989a8a717aea76155df098b0f,PennController,12,0,experiment,NULL,PennController,11,_Header_,End,1687453679978,60f269b5194811c9e2707558,60f269b5194811c9e2707558,9,cake,critical,A,75,goal,low,exp2trials,NULL
1687453780,31cd63a989a8a717aea76155df098b0f,PennController,12,0,experiment,NULL,Video,progression,buffer,0.003758,1687453683521,60f269b5194811c9e2707558,60f269b5194811c9e2707558,9,cake,critical,A,75,goal,low,exp2trials,NULL
1687453780,31cd63a989a8a717aea76155df098b0f,PennController,12,0,experiment,NULL,VideoScrubber,slider-input,SelectedFrame,42,1687453689689,60f269b5194811c9e2707558,60f269b5194811c9e2707558,9,cake,critical,A,75,goal,low,exp2trials,NULL
1687453780,31cd63a989a8a717aea76155df098b0f,PennController,12,0,experiment,NULL,PennController,11,_Trial_,End,1687453699024,60f269b5194811c9e2707558,60f269b5194811c9e2707558,9,cake,critical,A,75,goal,low,exp2trials,NULL
1687453780,31cd63a989a8a717aea76155df098b0f,PennController,4,0,experiment,NULL,PennController,3,_Trial_,Start,1687453699025,60f269b5194811c9e2707558,60f269b5194811c9e2707558,1,vase,critical,A,25,goal,low,exp2trials,NULL
1687453780,31cd63a989a8a717aea76155df098b0f,PennController,4,0,experiment,NULL,PennController,3,_Header_,Start,1687453699025,60f269b5194811c9e2707558,60f269b5194811c9e2707558,1,vase,critical,A,25,goal,low,exp2trials,NULL
1687453780,31cd63a989a8a717aea76155df098b0f,PennController,4,0,experiment,NULL,PennController,3,_Header_,End,1687453699025,60f269b5194811c9e2707558,60f269b5194811c9e2707558,1,vase,critical,A,25,goal,low,exp2trials,NULL
1687453780,31cd63a989a8a717aea76155df098b0f,PennController,4,0,experiment,NULL,Video,progression,buffer,0.002817,1687453702554,60f269b5194811c9e2707558,60f269b5194811c9e2707558,1,vase,critical,A,25,goal,low,exp2trials,NULL
1687453780,31cd63a989a8a717aea76155df098b0f,PennController,4,0,experiment,NULL,VideoScrubber,slider-input,SelectedFrame,30,1687453704718,60f269b5194811c9e2707558,60f269b5194811c9e2707558,1,vase,critical,A,25,goal,low,exp2trials,NULL
1687453780,31cd63a989a8a717aea76155df098b0f,PennController,4,0,experiment,NULL,PennController,3,_Trial_,End,1687453712999,60f269b5194811c9e2707558,60f269b5194811c9e2707558,1,vase,critical,A,25,goal,low,exp2trials,NULL
1687453780,31cd63a989a8a717aea76155df098b0f,PennController,26,0,experiment,NULL,PennController,25,_Trial_,Start,1687453712999,60f269b5194811c9e2707558,60f269b5194811c9e2707558,23,color,filler,A,50,goal,GoalA,exp2trials,NULL
1687453780,31cd63a989a8a717aea76155df098b0f,PennController,26,0,experiment,NULL,PennController,25,_Header_,Start,1687453712999,60f269b5194811c9e2707558,60f269b5194811c9e2707558,23,color,filler,A,50,goal,GoalA,exp2trials,NULL
1687453780,31cd63a989a8a717aea76155df098b0f,PennController,26,0,experiment,NULL,PennController,25,_Header_,End,1687453712999,60f269b5194811c9e2707558,60f269b5194811c9e2707558,23,color,filler,A,50,goal,GoalA,exp2trials,NULL
1687453780,31cd63a989a8a717aea76155df098b0f,PennController,26,0,experiment,NULL,Video,progression,buffer,0.003616,1687453716548,60f269b5194811c9e2707558,60f269b5194811c9e2707558,23,color,filler,A,50,goal,GoalA,exp2trials,NULL
1687453780,31cd63a989a8a717aea76155df098b0f,PennController,26,0,experiment,NULL,VideoScrubber,slider-input,SelectedFrame,50,1687453719714,60f269b5194811c9e2707558,60f269b5194811c9e2707558,23,color,filler,A,50,goal,GoalA,exp2trials,NULL
1687453780,31cd63a989a8a717aea76155df098b0f,PennController,26,0,experiment,NULL,PennController,25,_Trial_,End,1687453728126,60f269b5194811c9e2707558,60f269b5194811c9e2707558,23,color,filler,A,50,goal,GoalA,exp2trials,NULL
1687453780,31cd63a989a8a717aea76155df098b0f,PennController,7,0,experiment,NULL,PennController,6,_Trial_,Start,1687453728126,60f269b5194811c9e2707558,60f269b5194811c9e2707558,4,candy,critical,A,25,goal,low,exp2trials,NULL
1687453780,31cd63a989a8a717aea76155df098b0f,PennController,7,0,experiment,NULL,PennController,6,_Header_,Start,1687453728126,60f269b5194811c9e2707558,60f269b5194811c9e2707558,4,candy,critical,A,25,goal,low,exp2trials,NULL
1687453780,31cd63a989a8a717aea76155df098b0f,PennController,7,0,experiment,NULL,PennController,6,_Header_,End,1687453728126,60f269b5194811c9e2707558,60f269b5194811c9e2707558,4,candy,critical,A,25,goal,low,exp2trials,NULL
1687453780,31cd63a989a8a717aea76155df098b0f,PennController,7,0,experiment,NULL,Video,progression,buffer,0.003943,1687453731649,60f269b5194811c9e2707558,60f269b5194811c9e2707558,4,candy,critical,A,25,goal,low,exp2trials,NULL
1687453780,31cd63a989a8a717aea76155df098b0f,PennController,7,0,experiment,NULL,VideoScrubber,slider-input,SelectedFrame,35,1687453733847,60f269b5194811c9e2707558,60f269b5194811c9e2707558,4,candy,critical,A,25,goal,low,exp2trials,NULL
1687453780,31cd63a989a8a717aea76155df098b0f,PennController,7,0,experiment,NULL,PennController,6,_Trial_,End,1687453740584,60f269b5194811c9e2707558,60f269b5194811c9e2707558,4,candy,critical,A,25,goal,low,exp2trials,NULL
1687453780,31cd63a989a8a717aea76155df098b0f,PennController,22,0,experiment,NULL,PennController,21,_Trial_,Start,1687453740585,60f269b5194811c9e2707558,60f269b5194811c9e2707558,19,cup,filler,A,25,goal,GoalA,exp2trials,NULL
1687453780,31cd63a989a8a717aea76155df098b0f,PennController,22,0,experiment,NULL,PennController,21,_Header_,Start,1687453740585,60f269b5194811c9e2707558,60f269b5194811c9e2707558,19,cup,filler,A,25,goal,GoalA,exp2trials,NULL
1687453780,31cd63a989a8a717aea76155df098b0f,PennController,22,0,experiment,NULL,PennController,21,_Header_,End,1687453740585,60f269b5194811c9e2707558,60f269b5194811c9e2707558,19,cup,filler,A,25,goal,GoalA,exp2trials,NULL
1687453780,31cd63a989a8a717aea76155df098b0f,PennController,22,0,experiment,NULL,Video,progression,buffer,0.002053,1687453744137,60f269b5194811c9e2707558,60f269b5194811c9e2707558,19,cup,filler,A,25,goal,GoalA,exp2trials,NULL
1687453780,31cd63a989a8a717aea76155df098b0f,PennController,22,0,experiment,NULL,VideoScrubber,slider-input,SelectedFrame,25,1687453746333,60f269b5194811c9e2707558,60f269b5194811c9e2707558,19,cup,filler,A,25,goal,GoalA,exp2trials,NULL
1687453780,31cd63a989a8a717aea76155df098b0f,PennController,22,0,experiment,NULL,PennController,21,_Trial_,End,1687453754880,60f269b5194811c9e2707558,60f269b5194811c9e2707558,19,cup,filler,A,25,goal,GoalA,exp2trials,NULL
