#
# Results on Thursday June 22 2023 16:57:07 UTC
# USER AGENT: Mozilla/5.0 (Windows NT 6.3; Win64; x64; rv:109.0) Gecko/20100101 Firefox/114.0
# Design number was non-random = 15
#
# Columns below this comment are as follows:
# 1. Results reception time.
# 2. MD5 hash of participant's IP address.
# 3. Controller name.
# 4. Order number of item.
# 5. Inner element number.
# 6. Label.
# 7. Latin Square Group.
# 8. PennElementType.
# 9. PennElementName.
# 10. Parameter.
# 11. Value.
# 12. EventTime.
# 13. ProlificID.
# 14. Comments.
1687453027,97cc82060ad4c4d6b1056a24eff92b45,PennController,2,0,consent,NULL,PennController,0,_Trial_,Start,1687452636823,60b8e5946caaff962008212e,NULL
1687453027,97cc82060ad4c4d6b1056a24eff92b45,PennController,2,0,consent,NULL,PennController,0,_Header_,Start,1687452636823,60b8e5946caaff962008212e,NULL
1687453027,97cc82060ad4c4d6b1056a24eff92b45,PennController,2,0,consent,NULL,PennController,0,_Header_,End,1687452636823,60b8e5946caaff962008212e,NULL
1687453027,97cc82060ad4c4d6b1056a24eff92b45,PennController,2,0,consent,NULL,PennController,0,_Trial_,End,1687452641153,60b8e5946caaff962008212e,NULL
# Columns below this comment are as follows:
# 14. ID.
# 15. Comments.
1687453027,97cc82060ad4c4d6b1056a24eff92b45,PennController,3,0,intro,NULL,PennController,1,_Trial_,Start,1687452641158,60b8e5946caaff962008212e,60b8e5946caaff962008212e,NULL
1687453027,97cc82060ad4c4d6b1056a24eff92b45,PennController,3,0,intro,NULL,PennController,1,_Header_,Start,1687452641158,60b8e5946caaff962008212e,60b8e5946caaff962008212e,NULL
1687453027,97cc82060ad4c4d6b1056a24eff92b45,PennController,3,0,intro,NULL,PennController,1,_Header_,End,1687452641158,60b8e5946caaff962008212e,60b8e5946caaff962008212e,NULL
1687453027,97cc82060ad4c4d6b1056a24eff92b45,PennController,3,0,intro,NULL,PennController,1,_Trial_,End,1687452651223,60b8e5946caaff962008212e,60b8e5946caaff962008212e,NULL
# Columns below this comment are as follows:
# 15. item_number.
# 16. item.
# 17. type.
# 18. Group.
# 19. prog.
# 20. condition.
# 21. height.
# 22. exp2trials.
# 23. Comments.
1687453027,97cc82060ad4c4d6b1056a24eff92b45,PennController,29,0,experiment,NULL,PennController,28,_Trial_,Start,1687452651238,60b8e5946caaff962008212e,60b8e5946caaff962008212e,26,sandwich,filler,G,50,nogoal,none,exp2trials,NULL
1687453027,97cc82060ad4c4d6b1056a24eff92b45,PennController,29,0,experiment,NULL,PennController,28,_Header_,Start,1687452651239,60b8e5946caaff962008212e,60b8e5946caaff962008212e,26,sandwich,filler,G,50,nogoal,none,exp2trials,NULL
1687453027,97cc82060ad4c4d6b1056a24eff92b45,PennController,29,0,experiment,NULL,PennController,28,_Header_,End,1687452651239,60b8e5946caaff962008212e,60b8e5946caaff962008212e,26,sandwich,filler,G,50,nogoal,none,exp2trials,NULL
1687453027,97cc82060ad4c4d6b1056a24eff92b45,PennController,29,0,experiment,NULL,Video,progression,buffer,0,1687452654862,60b8e5946caaff962008212e,60b8e5946caaff962008212e,26,sandwich,filler,G,50,nogoal,none,exp2trials,NULL
1687453027,97cc82060ad4c4d6b1056a24eff92b45,PennController,29,0,experiment,NULL,VideoScrubber,slider-input,SelectedFrame,45,1687452658121,60b8e5946caaff962008212e,60b8e5946caaff962008212e,26,sandwich,filler,G,50,nogoal,none,exp2trials,NULL
1687453027,97cc82060ad4c4d6b1056a24eff92b45,PennController,29,0,experiment,NULL,PennController,28,_Trial_,End,1687452666794,60b8e5946caaff962008212e,60b8e5946caaff962008212e,26,sandwich,filler,G,50,nogoal,none,exp2trials,NULL
1687453027,97cc82060ad4c4d6b1056a24eff92b45,PennController,24,0,experiment,NULL,PennController,23,_Trial_,Start,1687452666799,60b8e5946caaff962008212e,60b8e5946caaff962008212e,21,visit,filler,G,75,nogoal,none,exp2trials,NULL
1687453027,97cc82060ad4c4d6b1056a24eff92b45,PennController,24,0,experiment,NULL,PennController,23,_Header_,Start,1687452666799,60b8e5946caaff962008212e,60b8e5946caaff962008212e,21,visit,filler,G,75,nogoal,none,exp2trials,NULL
1687453027,97cc82060ad4c4d6b1056a24eff92b45,PennController,24,0,experiment,NULL,PennController,23,_Header_,End,1687452666799,60b8e5946caaff962008212e,60b8e5946caaff962008212e,21,visit,filler,G,75,nogoal,none,exp2trials,NULL
1687453027,97cc82060ad4c4d6b1056a24eff92b45,PennController,24,0,experiment,NULL,Video,progression,buffer,0,1687452670366,60b8e5946caaff962008212e,60b8e5946caaff962008212e,21,visit,filler,G,75,nogoal,none,exp2trials,NULL
1687453027,97cc82060ad4c4d6b1056a24eff92b45,PennController,24,0,experiment,NULL,VideoScrubber,slider-input,SelectedFrame,85,1687452674673,60b8e5946caaff962008212e,60b8e5946caaff962008212e,21,visit,filler,G,75,nogoal,none,exp2trials,NULL
1687453027,97cc82060ad4c4d6b1056a24eff92b45,PennController,24,0,experiment,NULL,PennController,23,_Trial_,End,1687452679373,60b8e5946caaff962008212e,60b8e5946caaff962008212e,21,visit,filler,G,75,nogoal,none,exp2trials,NULL
1687453027,97cc82060ad4c4d6b1056a24eff92b45,PennController,19,0,experiment,NULL,PennController,18,_Trial_,Start,1687452679376,60b8e5946caaff962008212e,60b8e5946caaff962008212e,16,blinds,critical,G,25,nogoal,none,exp2trials,NULL
1687453027,97cc82060ad4c4d6b1056a24eff92b45,PennController,19,0,experiment,NULL,PennController,18,_Header_,Start,1687452679376,60b8e5946caaff962008212e,60b8e5946caaff962008212e,16,blinds,critical,G,25,nogoal,none,exp2trials,NULL
1687453027,97cc82060ad4c4d6b1056a24eff92b45,PennController,19,0,experiment,NULL,PennController,18,_Header_,End,1687452679376,60b8e5946caaff962008212e,60b8e5946caaff962008212e,16,blinds,critical,G,25,nogoal,none,exp2trials,NULL
1687453027,97cc82060ad4c4d6b1056a24eff92b45,PennController,19,0,experiment,NULL,Video,progression,buffer,0,1687452682939,60b8e5946caaff962008212e,60b8e5946caaff962008212e,16,blinds,critical,G,25,nogoal,none,exp2trials,NULL
1687453027,97cc82060ad4c4d6b1056a24eff92b45,PennController,19,0,experiment,NULL,VideoScrubber,slider-input,SelectedFrame,27,1687452685843,60b8e5946caaff962008212e,60b8e5946caaff962008212e,16,blinds,critical,G,25,nogoal,none,exp2trials,NULL
1687453027,97cc82060ad4c4d6b1056a24eff92b45,PennController,19,0,experiment,NULL,PennController,18,_Trial_,End,1687452692134,60b8e5946caaff962008212e,60b8e5946caaff962008212e,16,blinds,critical,G,25,nogoal,none,exp2trials,NULL
1687453027,97cc82060ad4c4d6b1056a24eff92b45,PennController,6,0,experiment,NULL,PennController,5,_Trial_,Start,1687452692136,60b8e5946caaff962008212e,60b8e5946caaff962008212e,3,clean,critical,G,75,nogoal,none,exp2trials,NULL
1687453027,97cc82060ad4c4d6b1056a24eff92b45,PennController,6,0,experiment,NULL,PennController,5,_Header_,Start,1687452692136,60b8e5946caaff962008212e,60b8e5946caaff962008212e,3,clean,critical,G,75,nogoal,none,exp2trials,NULL
1687453027,97cc82060ad4c4d6b1056a24eff92b45,PennController,6,0,experiment,NULL,PennController,5,_Header_,End,1687452692136,60b8e5946caaff962008212e,60b8e5946caaff962008212e,3,clean,critical,G,75,nogoal,none,exp2trials,NULL
1687453027,97cc82060ad4c4d6b1056a24eff92b45,PennController,6,0,experiment,NULL,Video,progression,buffer,0,1687452695704,60b8e5946caaff962008212e,60b8e5946caaff962008212e,3,clean,critical,G,75,nogoal,none,exp2trials,NULL
1687453027,97cc82060ad4c4d6b1056a24eff92b45,PennController,6,0,experiment,NULL,VideoScrubber,slider-input,SelectedFrame,75,1687452700001,60b8e5946caaff962008212e,60b8e5946caaff962008212e,3,clean,critical,G,75,nogoal,none,exp2trials,NULL
1687453027,97cc82060ad4c4d6b1056a24eff92b45,PennController,6,0,experiment,NULL,PennController,5,_Trial_,End,1687452705956,60b8e5946caaff962008212e,60b8e5946caaff962008212e,3,clean,critical,G,75,nogoal,none,exp2trials,NULL
1687453027,97cc82060ad4c4d6b1056a24eff92b45,PennController,10,0,experiment,NULL,PennController,9,_Trial_,Start,1687452705958,60b8e5946caaff962008212e,60b8e5946caaff962008212e,7,stack,critical,G,25,nogoal,none,exp2trials,NULL
1687453027,97cc82060ad4c4d6b1056a24eff92b45,PennController,10,0,experiment,NULL,PennController,9,_Header_,Start,1687452705958,60b8e5946caaff962008212e,60b8e5946caaff962008212e,7,stack,critical,G,25,nogoal,none,exp2trials,NULL
1687453027,97cc82060ad4c4d6b1056a24eff92b45,PennController,10,0,experiment,NULL,PennController,9,_Header_,End,1687452705958,60b8e5946caaff962008212e,60b8e5946caaff962008212e,7,stack,critical,G,25,nogoal,none,exp2trials,NULL
1687453027,97cc82060ad4c4d6b1056a24eff92b45,PennController,10,0,experiment,NULL,Video,progression,buffer,0,1687452709545,60b8e5946caaff962008212e,60b8e5946caaff962008212e,7,stack,critical,G,25,nogoal,none,exp2trials,NULL
1687453027,97cc82060ad4c4d6b1056a24eff92b45,PennController,10,0,experiment,NULL,VideoScrubber,slider-input,SelectedFrame,50,1687452711854,60b8e5946caaff962008212e,60b8e5946caaff962008212e,7,stack,critical,G,25,nogoal,none,exp2trials,NULL
1687453027,97cc82060ad4c4d6b1056a24eff92b45,PennController,10,0,experiment,NULL,PennController,9,_Trial_,End,1687452719228,60b8e5946caaff962008212e,60b8e5946caaff962008212e,7,stack,critical,G,25,nogoal,none,exp2trials,NULL
1687453027,97cc82060ad4c4d6b1056a24eff92b45,PennController,22,0,experiment,NULL,PennController,21,_Trial_,Start,1687452719233,60b8e5946caaff962008212e,60b8e5946caaff962008212e,19,cup,filler,G,25,nogoal,none,exp2trials,NULL
1687453027,97cc82060ad4c4d6b1056a24eff92b45,PennController,22,0,experiment,NULL,PennController,21,_Header_,Start,1687452719233,60b8e5946caaff962008212e,60b8e5946caaff962008212e,19,cup,filler,G,25,nogoal,none,exp2trials,NULL
1687453027,97cc82060ad4c4d6b1056a24eff92b45,PennController,22,0,experiment,NULL,PennController,21,_Header_,End,1687452719233,60b8e5946caaff962008212e,60b8e5946caaff962008212e,19,cup,filler,G,25,nogoal,none,exp2trials,NULL
1687453027,97cc82060ad4c4d6b1056a24eff92b45,PennController,22,0,experiment,NULL,Video,progression,buffer,0,1687452722798,60b8e5946caaff962008212e,60b8e5946caaff962008212e,19,cup,filler,G,25,nogoal,none,exp2trials,NULL
1687453027,97cc82060ad4c4d6b1056a24eff92b45,PennController,22,0,experiment,NULL,VideoScrubber,slider-input,SelectedFrame,35,1687452725091,60b8e5946caaff962008212e,60b8e5946caaff962008212e,19,cup,filler,G,25,nogoal,none,exp2trials,NULL
1687453027,97cc82060ad4c4d6b1056a24eff92b45,PennController,22,0,experiment,NULL,PennController,21,_Trial_,End,1687452734418,60b8e5946caaff962008212e,60b8e5946caaff962008212e,19,cup,filler,G,25,nogoal,none,exp2trials,NULL
1687453027,97cc82060ad4c4d6b1056a24eff92b45,PennController,4,0,experiment,NULL,PennController,3,_Trial_,Start,1687452734422,60b8e5946caaff962008212e,60b8e5946caaff962008212e,1,vase,critical,G,25,nogoal,none,exp2trials,NULL
1687453027,97cc82060ad4c4d6b1056a24eff92b45,PennController,4,0,experiment,NULL,PennController,3,_Header_,Start,1687452734422,60b8e5946caaff962008212e,60b8e5946caaff962008212e,1,vase,critical,G,25,nogoal,none,exp2trials,NULL
1687453027,97cc82060ad4c4d6b1056a24eff92b45,PennController,4,0,experiment,NULL,PennController,3,_Header_,End,1687452734422,60b8e5946caaff962008212e,60b8e5946caaff962008212e,1,vase,critical,G,25,nogoal,none,exp2trials,NULL
1687453027,97cc82060ad4c4d6b1056a24eff92b45,PennController,4,0,experiment,NULL,Video,progression,buffer,0,1687452737976,60b8e5946caaff962008212e,60b8e5946caaff962008212e,1,vase,critical,G,25,nogoal,none,exp2trials,NULL
1687453027,97cc82060ad4c4d6b1056a24eff92b45,PennController,4,0,experiment,NULL,VideoScrubber,slider-input,SelectedFrame,30,1687452740257,60b8e5946caaff962008212e,60b8e5946caaff962008212e,1,vase,critical,G,25,nogoal,none,exp2trials,NULL
1687453027,97cc82060ad4c4d6b1056a24eff92b45,PennController,4,0,experiment,NULL,PennController,3,_Trial_,End,1687452744953,60b8e5946caaff962008212e,60b8e5946caaff962008212e,1,vase,critical,G,25,nogoal,none,exp2trials,NULL
1687453027,97cc82060ad4c4d6b1056a24eff92b45,PennController,32,0,experiment,NULL,PennController,31,_Trial_,Start,1687452744956,60b8e5946caaff962008212e,60b8e5946caaff962008212e,29,frog,filler,G,50,nogoal,none,exp2trials,NULL
1687453027,97cc82060ad4c4d6b1056a24eff92b45,PennController,32,0,experiment,NULL,PennController,31,_Header_,Start,1687452744956,60b8e5946caaff962008212e,60b8e5946caaff962008212e,29,frog,filler,G,50,nogoal,none,exp2trials,NULL
1687453027,97cc82060ad4c4d6b1056a24eff92b45,PennController,32,0,experiment,NULL,PennController,31,_Header_,End,1687452744956,60b8e5946caaff962008212e,60b8e5946caaff962008212e,29,frog,filler,G,50,nogoal,none,exp2trials,NULL
1687453027,97cc82060ad4c4d6b1056a24eff92b45,PennController,32,0,experiment,NULL,Video,progression,buffer,0,1687452748517,60b8e5946caaff962008212e,60b8e5946caaff962008212e,29,frog,filler,G,50,nogoal,none,exp2trials,NULL
1687453027,97cc82060ad4c4d6b1056a24eff92b45,PennController,32,0,experiment,NULL,VideoScrubber,slider-input,SelectedFrame,50,1687452751806,60b8e5946caaff962008212e,60b8e5946caaff962008212e,29,frog,filler,G,50,nogoal,none,exp2trials,NULL
1687453027,97cc82060ad4c4d6b1056a24eff92b45,PennController,32,0,experiment,NULL,PennController,31,_Trial_,End,1687452756908,60b8e5946caaff962008212e,60b8e5946caaff962008212e,29,frog,filler,G,50,nogoal,none,exp2trials,NULL
1687453027,97cc82060ad4c4d6b1056a24eff92b45,PennController,13,0,experiment,NULL,PennController,12,_Trial_,Start,1687452756911,60b8e5946caaff962008212e,60b8e5946caaff962008212e,10,train,critical,G,25,nogoal,none,exp2trials,NULL
1687453027,97cc82060ad4c4d6b1056a24eff92b45,PennController,13,0,experiment,NULL,PennController,12,_Header_,Start,1687452756911,60b8e5946caaff962008212e,60b8e5946caaff962008212e,10,train,critical,G,25,nogoal,none,exp2trials,NULL
1687453027,97cc82060ad4c4d6b1056a24eff92b45,PennController,13,0,experiment,NULL,PennController,12,_Header_,End,1687452756911,60b8e5946caaff962008212e,60b8e5946caaff962008212e,10,train,critical,G,25,nogoal,none,exp2trials,NULL
1687453027,97cc82060ad4c4d6b1056a24eff92b45,PennController,13,0,experiment,NULL,Video,progression,buffer,0,1687452760470,60b8e5946caaff962008212e,60b8e5946caaff962008212e,10,train,critical,G,25,nogoal,none,exp2trials,NULL
1687453027,97cc82060ad4c4d6b1056a24eff92b45,PennController,13,0,experiment,NULL,VideoScrubber,slider-input,SelectedFrame,15,1687452762764,60b8e5946caaff962008212e,60b8e5946caaff962008212e,10,train,critical,G,25,nogoal,none,exp2trials,NULL
1687453027,97cc82060ad4c4d6b1056a24eff92b45,PennController,13,0,experiment,NULL,PennController,12,_Trial_,End,1687452767797,60b8e5946caaff962008212e,60b8e5946caaff962008212e,10,train,critical,G,25,nogoal,none,exp2trials,NULL
1687453027,97cc82060ad4c4d6b1056a24eff92b45,PennController,28,0,experiment,NULL,PennController,27,_Trial_,Start,1687452767799,60b8e5946caaff962008212e,60b8e5946caaff962008212e,25,house,filler,G,25,nogoal,none,exp2trials,NULL
1687453027,97cc82060ad4c4d6b1056a24eff92b45,PennController,28,0,experiment,NULL,PennController,27,_Header_,Start,1687452767799,60b8e5946caaff962008212e,60b8e5946caaff962008212e,25,house,filler,G,25,nogoal,none,exp2trials,NULL
1687453027,97cc82060ad4c4d6b1056a24eff92b45,PennController,28,0,experiment,NULL,PennController,27,_Header_,End,1687452767799,60b8e5946caaff962008212e,60b8e5946caaff962008212e,25,house,filler,G,25,nogoal,none,exp2trials,NULL
1687453027,97cc82060ad4c4d6b1056a24eff92b45,PennController,28,0,experiment,NULL,Video,progression,buffer,0,1687452771354,60b8e5946caaff962008212e,60b8e5946caaff962008212e,25,house,filler,G,25,nogoal,none,exp2trials,NULL
1687453027,97cc82060ad4c4d6b1056a24eff92b45,PennController,28,0,experiment,NULL,VideoScrubber,slider-input,SelectedFrame,20,1687452773644,60b8e5946caaff962008212e,60b8e5946caaff962008212e,25,house,filler,G,25,nogoal,none,exp2trials,NULL
1687453027,97cc82060ad4c4d6b1056a24eff92b45,PennController,28,0,experiment,NULL,PennController,27,_Trial_,End,1687452777430,60b8e5946caaff962008212e,60b8e5946caaff962008212e,25,house,filler,G,25,nogoal,none,exp2trials,NULL
1687453027,97cc82060ad4c4d6b1056a24eff92b45,PennController,18,0,experiment,NULL,PennController,17,_Trial_,Start,1687452777433,60b8e5946caaff962008212e,60b8e5946caaff962008212e,15,zip,critical,G,75,nogoal,none,exp2trials,NULL
1687453027,97cc82060ad4c4d6b1056a24eff92b45,PennController,18,0,experiment,NULL,PennController,17,_Header_,Start,1687452777433,60b8e5946caaff962008212e,60b8e5946caaff962008212e,15,zip,critical,G,75,nogoal,none,exp2trials,NULL
1687453027,97cc82060ad4c4d6b1056a24eff92b45,PennController,18,0,experiment,NULL,PennController,17,_Header_,End,1687452777433,60b8e5946caaff962008212e,60b8e5946caaff962008212e,15,zip,critical,G,75,nogoal,none,exp2trials,NULL
1687453027,97cc82060ad4c4d6b1056a24eff92b45,PennController,18,0,experiment,NULL,Video,progression,buffer,0,1687452780988,60b8e5946caaff962008212e,60b8e5946caaff962008212e,15,zip,critical,G,75,nogoal,none,exp2trials,NULL
1687453027,97cc82060ad4c4d6b1056a24eff92b45,PennController,18,0,experiment,NULL,VideoScrubber,slider-input,SelectedFrame,95,1687452784481,60b8e5946caaff962008212e,60b8e5946caaff962008212e,15,zip,critical,G,75,nogoal,none,exp2trials,NULL
1687453027,97cc82060ad4c4d6b1056a24eff92b45,PennController,18,0,experiment,NULL,PennController,17,_Trial_,End,1687452792048,60b8e5946caaff962008212e,60b8e5946caaff962008212e,15,zip,critical,G,75,nogoal,none,exp2trials,NULL
1687453027,97cc82060ad4c4d6b1056a24eff92b45,PennController,11,0,experiment,NULL,PennController,10,_Trial_,Start,1687452792050,60b8e5946caaff962008212e,60b8e5946caaff962008212e,8,cucumber,critical,G,50,nogoal,none,exp2trials,NULL
1687453027,97cc82060ad4c4d6b1056a24eff92b45,PennController,11,0,experiment,NULL,PennController,10,_Header_,Start,1687452792050,60b8e5946caaff962008212e,60b8e5946caaff962008212e,8,cucumber,critical,G,50,nogoal,none,exp2trials,NULL
1687453027,97cc82060ad4c4d6b1056a24eff92b45,PennController,11,0,experiment,NULL,PennController,10,_Header_,End,1687452792050,60b8e5946caaff962008212e,60b8e5946caaff962008212e,8,cucumber,critical,G,50,nogoal,none,exp2trials,NULL
1687453027,97cc82060ad4c4d6b1056a24eff92b45,PennController,11,0,experiment,NULL,Video,progression,buffer,0,1687452795604,60b8e5946caaff962008212e,60b8e5946caaff962008212e,8,cucumber,critical,G,50,nogoal,none,exp2trials,NULL
1687453027,97cc82060ad4c4d6b1056a24eff92b45,PennController,11,0,experiment,NULL,VideoScrubber,slider-input,SelectedFrame,54,1687452800307,60b8e5946caaff962008212e,60b8e5946caaff962008212e,8,cucumber,critical,G,50,nogoal,none,exp2trials,NULL
1687453027,97cc82060ad4c4d6b1056a24eff92b45,PennController,11,0,experiment,NULL,PennController,10,_Trial_,End,1687452804589,60b8e5946caaff962008212e,60b8e5946caaff962008212e,8,cucumber,critical,G,50,nogoal,none,exp2trials,NULL
1687453027,97cc82060ad4c4d6b1056a24eff92b45,PennController,27,0,experiment,NULL,PennController,26,_Trial_,Start,1687452804592,60b8e5946caaff962008212e,60b8e5946caaff962008212e,24,match,filler,G,75,nogoal,none,exp2trials,NULL
1687453027,97cc82060ad4c4d6b1056a24eff92b45,PennController,27,0,experiment,NULL,PennController,26,_Header_,Start,1687452804592,60b8e5946caaff962008212e,60b8e5946caaff962008212e,24,match,filler,G,75,nogoal,none,exp2trials,NULL
1687453027,97cc82060ad4c4d6b1056a24eff92b45,PennController,27,0,experiment,NULL,PennController,26,_Header_,End,1687452804592,60b8e5946caaff962008212e,60b8e5946caaff962008212e,24,match,filler,G,75,nogoal,none,exp2trials,NULL
1687453027,97cc82060ad4c4d6b1056a24eff92b45,PennController,27,0,experiment,NULL,Video,progression,buffer,0,1687452808152,60b8e5946caaff962008212e,60b8e5946caaff962008212e,24,match,filler,G,75,nogoal,none,exp2trials,NULL
1687453027,97cc82060ad4c4d6b1056a24eff92b45,PennController,27,0,experiment,NULL,VideoScrubber,slider-input,SelectedFrame,65,1687452812446,60b8e5946caaff962008212e,60b8e5946caaff962008212e,24,match,filler,G,75,nogoal,none,exp2trials,NULL
1687453027,97cc82060ad4c4d6b1056a24eff92b45,PennController,27,0,experiment,NULL,PennController,26,_Trial_,End,1687452820283,60b8e5946caaff962008212e,60b8e5946caaff962008212e,24,match,filler,G,75,nogoal,none,exp2trials,NULL
1687453027,97cc82060ad4c4d6b1056a24eff92b45,PennController,5,0,experiment,NULL,PennController,4,_Trial_,Start,1687452820287,60b8e5946caaff962008212e,60b8e5946caaff962008212e,2,door,critical,G,50,nogoal,none,exp2trials,NULL
1687453027,97cc82060ad4c4d6b1056a24eff92b45,PennController,5,0,experiment,NULL,PennController,4,_Header_,Start,1687452820287,60b8e5946caaff962008212e,60b8e5946caaff962008212e,2,door,critical,G,50,nogoal,none,exp2trials,NULL
1687453027,97cc82060ad4c4d6b1056a24eff92b45,PennController,5,0,experiment,NULL,PennController,4,_Header_,End,1687452820287,60b8e5946caaff962008212e,60b8e5946caaff962008212e,2,door,critical,G,50,nogoal,none,exp2trials,NULL
1687453027,97cc82060ad4c4d6b1056a24eff92b45,PennController,5,0,experiment,NULL,Video,progression,buffer,0,1687452823850,60b8e5946caaff962008212e,60b8e5946caaff962008212e,2,door,critical,G,50,nogoal,none,exp2trials,NULL
1687453027,97cc82060ad4c4d6b1056a24eff92b45,PennController,5,0,experiment,NULL,VideoScrubber,slider-input,SelectedFrame,45,1687452827150,60b8e5946caaff962008212e,60b8e5946caaff962008212e,2,door,critical,G,50,nogoal,none,exp2trials,NULL
1687453027,97cc82060ad4c4d6b1056a24eff92b45,PennController,5,0,experiment,NULL,PennController,4,_Trial_,End,1687452832766,60b8e5946caaff962008212e,60b8e5946caaff962008212e,2,door,critical,G,50,nogoal,none,exp2trials,NULL
1687453027,97cc82060ad4c4d6b1056a24eff92b45,PennController,30,0,experiment,NULL,PennController,29,_Trial_,Start,1687452832768,60b8e5946caaff962008212e,60b8e5946caaff962008212e,27,square,filler,G,75,nogoal,none,exp2trials,NULL
1687453027,97cc82060ad4c4d6b1056a24eff92b45,PennController,30,0,experiment,NULL,PennController,29,_Header_,Start,1687452832768,60b8e5946caaff962008212e,60b8e5946caaff962008212e,27,square,filler,G,75,nogoal,none,exp2trials,NULL
1687453027,97cc82060ad4c4d6b1056a24eff92b45,PennController,30,0,experiment,NULL,PennController,29,_Header_,End,1687452832768,60b8e5946caaff962008212e,60b8e5946caaff962008212e,27,square,filler,G,75,nogoal,none,exp2trials,NULL
1687453027,97cc82060ad4c4d6b1056a24eff92b45,PennController,30,0,experiment,NULL,Video,progression,buffer,0,1687452836324,60b8e5946caaff962008212e,60b8e5946caaff962008212e,27,square,filler,G,75,nogoal,none,exp2trials,NULL
1687453027,97cc82060ad4c4d6b1056a24eff92b45,PennController,30,0,experiment,NULL,VideoScrubber,slider-input,SelectedFrame,75,1687452840619,60b8e5946caaff962008212e,60b8e5946caaff962008212e,27,square,filler,G,75,nogoal,none,exp2trials,NULL
1687453027,97cc82060ad4c4d6b1056a24eff92b45,PennController,30,0,experiment,NULL,PennController,29,_Trial_,End,1687452850698,60b8e5946caaff962008212e,60b8e5946caaff962008212e,27,square,filler,G,75,nogoal,none,exp2trials,NULL
1687453027,97cc82060ad4c4d6b1056a24eff92b45,PennController,12,0,experiment,NULL,PennController,11,_Trial_,Start,1687452850701,60b8e5946caaff962008212e,60b8e5946caaff962008212e,9,cake,critical,G,75,nogoal,none,exp2trials,NULL
1687453027,97cc82060ad4c4d6b1056a24eff92b45,PennController,12,0,experiment,NULL,PennController,11,_Header_,Start,1687452850701,60b8e5946caaff962008212e,60b8e5946caaff962008212e,9,cake,critical,G,75,nogoal,none,exp2trials,NULL
1687453027,97cc82060ad4c4d6b1056a24eff92b45,PennController,12,0,experiment,NULL,PennController,11,_Header_,End,1687452850701,60b8e5946caaff962008212e,60b8e5946caaff962008212e,9,cake,critical,G,75,nogoal,none,exp2trials,NULL
1687453027,97cc82060ad4c4d6b1056a24eff92b45,PennController,12,0,experiment,NULL,Video,progression,buffer,0,1687452854266,60b8e5946caaff962008212e,60b8e5946caaff962008212e,9,cake,critical,G,75,nogoal,none,exp2trials,NULL
1687453027,97cc82060ad4c4d6b1056a24eff92b45,PennController,12,0,experiment,NULL,VideoScrubber,slider-input,SelectedFrame,81,1687452860570,60b8e5946caaff962008212e,60b8e5946caaff962008212e,9,cake,critical,G,75,nogoal,none,exp2trials,NULL
1687453027,97cc82060ad4c4d6b1056a24eff92b45,PennController,12,0,experiment,NULL,PennController,11,_Trial_,End,1687452867859,60b8e5946caaff962008212e,60b8e5946caaff962008212e,9,cake,critical,G,75,nogoal,none,exp2trials,NULL
1687453027,97cc82060ad4c4d6b1056a24eff92b45,PennController,8,0,experiment,NULL,PennController,7,_Trial_,Start,1687452867860,60b8e5946caaff962008212e,60b8e5946caaff962008212e,5,book,critical,G,50,nogoal,none,exp2trials,NULL
1687453027,97cc82060ad4c4d6b1056a24eff92b45,PennController,8,0,experiment,NULL,PennController,7,_Header_,Start,1687452867860,60b8e5946caaff962008212e,60b8e5946caaff962008212e,5,book,critical,G,50,nogoal,none,exp2trials,NULL
1687453027,97cc82060ad4c4d6b1056a24eff92b45,PennController,8,0,experiment,NULL,PennController,7,_Header_,End,1687452867860,60b8e5946caaff962008212e,60b8e5946caaff962008212e,5,book,critical,G,50,nogoal,none,exp2trials,NULL
1687453027,97cc82060ad4c4d6b1056a24eff92b45,PennController,8,0,experiment,NULL,Video,progression,buffer,0,1687452871416,60b8e5946caaff962008212e,60b8e5946caaff962008212e,5,book,critical,G,50,nogoal,none,exp2trials,NULL
1687453027,97cc82060ad4c4d6b1056a24eff92b45,PennController,8,0,experiment,NULL,VideoScrubber,slider-input,SelectedFrame,40,1687452874720,60b8e5946caaff962008212e,60b8e5946caaff962008212e,5,book,critical,G,50,nogoal,none,exp2trials,NULL
1687453027,97cc82060ad4c4d6b1056a24eff92b45,PennController,8,0,experiment,NULL,PennController,7,_Trial_,End,1687452884337,60b8e5946caaff962008212e,60b8e5946caaff962008212e,5,book,critical,G,50,nogoal,none,exp2trials,NULL
1687453027,97cc82060ad4c4d6b1056a24eff92b45,PennController,25,0,experiment,NULL,PennController,24,_Trial_,Start,1687452884339,60b8e5946caaff962008212e,60b8e5946caaff962008212e,22,wall,filler,G,25,nogoal,none,exp2trials,NULL
1687453027,97cc82060ad4c4d6b1056a24eff92b45,PennController,25,0,experiment,NULL,PennController,24,_Header_,Start,1687452884339,60b8e5946caaff962008212e,60b8e5946caaff962008212e,22,wall,filler,G,25,nogoal,none,exp2trials,NULL
1687453027,97cc82060ad4c4d6b1056a24eff92b45,PennController,25,0,experiment,NULL,PennController,24,_Header_,End,1687452884339,60b8e5946caaff962008212e,60b8e5946caaff962008212e,22,wall,filler,G,25,nogoal,none,exp2trials,NULL
1687453027,97cc82060ad4c4d6b1056a24eff92b45,PennController,25,0,experiment,NULL,Video,progression,buffer,0,1687452887899,60b8e5946caaff962008212e,60b8e5946caaff962008212e,22,wall,filler,G,25,nogoal,none,exp2trials,NULL
1687453027,97cc82060ad4c4d6b1056a24eff92b45,PennController,25,0,experiment,NULL,VideoScrubber,slider-input,SelectedFrame,25,1687452890194,60b8e5946caaff962008212e,60b8e5946caaff962008212e,22,wall,filler,G,25,nogoal,none,exp2trials,NULL
1687453027,97cc82060ad4c4d6b1056a24eff92b45,PennController,25,0,experiment,NULL,PennController,24,_Trial_,End,1687452895702,60b8e5946caaff962008212e,60b8e5946caaff962008212e,22,wall,filler,G,25,nogoal,none,exp2trials,NULL
1687453027,97cc82060ad4c4d6b1056a24eff92b45,PennController,26,0,experiment,NULL,PennController,25,_Trial_,Start,1687452895703,60b8e5946caaff962008212e,60b8e5946caaff962008212e,23,color,filler,G,50,nogoal,none,exp2trials,NULL
1687453027,97cc82060ad4c4d6b1056a24eff92b45,PennController,26,0,experiment,NULL,PennController,25,_Header_,Start,1687452895703,60b8e5946caaff962008212e,60b8e5946caaff962008212e,23,color,filler,G,50,nogoal,none,exp2trials,NULL
1687453027,97cc82060ad4c4d6b1056a24eff92b45,PennController,26,0,experiment,NULL,PennController,25,_Header_,End,1687452895704,60b8e5946caaff962008212e,60b8e5946caaff962008212e,23,color,filler,G,50,nogoal,none,exp2trials,NULL
1687453027,97cc82060ad4c4d6b1056a24eff92b45,PennController,26,0,experiment,NULL,Video,progression,buffer,0,1687452899254,60b8e5946caaff962008212e,60b8e5946caaff962008212e,23,color,filler,G,50,nogoal,none,exp2trials,NULL
1687453027,97cc82060ad4c4d6b1056a24eff92b45,PennController,26,0,experiment,NULL,VideoScrubber,slider-input,SelectedFrame,50,1687452902542,60b8e5946caaff962008212e,60b8e5946caaff962008212e,23,color,filler,G,50,nogoal,none,exp2trials,NULL
1687453027,97cc82060ad4c4d6b1056a24eff92b45,PennController,26,0,experiment,NULL,PennController,25,_Trial_,End,1687452907018,60b8e5946caaff962008212e,60b8e5946caaff962008212e,23,color,filler,G,50,nogoal,none,exp2trials,NULL
1687453027,97cc82060ad4c4d6b1056a24eff92b45,PennController,14,0,experiment,NULL,PennController,13,_Trial_,Start,1687452907020,60b8e5946caaff962008212e,60b8e5946caaff962008212e,11,beads,critical,G,50,nogoal,none,exp2trials,NULL
1687453027,97cc82060ad4c4d6b1056a24eff92b45,PennController,14,0,experiment,NULL,PennController,13,_Header_,Start,1687452907020,60b8e5946caaff962008212e,60b8e5946caaff962008212e,11,beads,critical,G,50,nogoal,none,exp2trials,NULL
1687453027,97cc82060ad4c4d6b1056a24eff92b45,PennController,14,0,experiment,NULL,PennController,13,_Header_,End,1687452907020,60b8e5946caaff962008212e,60b8e5946caaff962008212e,11,beads,critical,G,50,nogoal,none,exp2trials,NULL
1687453027,97cc82060ad4c4d6b1056a24eff92b45,PennController,14,0,experiment,NULL,Video,progression,buffer,0,1687452910581,60b8e5946caaff962008212e,60b8e5946caaff962008212e,11,beads,critical,G,50,nogoal,none,exp2trials,NULL
1687453027,97cc82060ad4c4d6b1056a24eff92b45,PennController,14,0,experiment,NULL,VideoScrubber,slider-input,SelectedFrame,55,1687452913875,60b8e5946caaff962008212e,60b8e5946caaff962008212e,11,beads,critical,G,50,nogoal,none,exp2trials,NULL
1687453027,97cc82060ad4c4d6b1056a24eff92b45,PennController,14,0,experiment,NULL,PennController,13,_Trial_,End,1687452918223,60b8e5946caaff962008212e,60b8e5946caaff962008212e,11,beads,critical,G,50,nogoal,none,exp2trials,NULL
1687453027,97cc82060ad4c4d6b1056a24eff92b45,PennController,9,0,experiment,NULL,PennController,8,_Trial_,Start,1687452918225,60b8e5946caaff962008212e,60b8e5946caaff962008212e,6,flower,critical,G,75,nogoal,none,exp2trials,NULL
1687453027,97cc82060ad4c4d6b1056a24eff92b45,PennController,9,0,experiment,NULL,PennController,8,_Header_,Start,1687452918225,60b8e5946caaff962008212e,60b8e5946caaff962008212e,6,flower,critical,G,75,nogoal,none,exp2trials,NULL
1687453027,97cc82060ad4c4d6b1056a24eff92b45,PennController,9,0,experiment,NULL,PennController,8,_Header_,End,1687452918225,60b8e5946caaff962008212e,60b8e5946caaff962008212e,6,flower,critical,G,75,nogoal,none,exp2trials,NULL
1687453027,97cc82060ad4c4d6b1056a24eff92b45,PennController,9,0,experiment,NULL,Video,progression,buffer,0,1687452921778,60b8e5946caaff962008212e,60b8e5946caaff962008212e,6,flower,critical,G,75,nogoal,none,exp2trials,NULL
1687453027,97cc82060ad4c4d6b1056a24eff92b45,PennController,9,0,experiment,NULL,VideoScrubber,slider-input,SelectedFrame,75,1687452926077,60b8e5946caaff962008212e,60b8e5946caaff962008212e,6,flower,critical,G,75,nogoal,none,exp2trials,NULL
1687453027,97cc82060ad4c4d6b1056a24eff92b45,PennController,9,0,experiment,NULL,PennController,8,_Trial_,End,1687452930409,60b8e5946caaff962008212e,60b8e5946caaff962008212e,6,flower,critical,G,75,nogoal,none,exp2trials,NULL
1687453027,97cc82060ad4c4d6b1056a24eff92b45,PennController,16,0,experiment,NULL,PennController,15,_Trial_,Start,1687452930411,60b8e5946caaff962008212e,60b8e5946caaff962008212e,13,mix,critical,G,25,nogoal,none,exp2trials,NULL
1687453027,97cc82060ad4c4d6b1056a24eff92b45,PennController,16,0,experiment,NULL,PennController,15,_Header_,Start,1687452930411,60b8e5946caaff962008212e,60b8e5946caaff962008212e,13,mix,critical,G,25,nogoal,none,exp2trials,NULL
1687453027,97cc82060ad4c4d6b1056a24eff92b45,PennController,16,0,experiment,NULL,PennController,15,_Header_,End,1687452930411,60b8e5946caaff962008212e,60b8e5946caaff962008212e,13,mix,critical,G,25,nogoal,none,exp2trials,NULL
1687453027,97cc82060ad4c4d6b1056a24eff92b45,PennController,16,0,experiment,NULL,Video,progression,buffer,0,1687452933969,60b8e5946caaff962008212e,60b8e5946caaff962008212e,13,mix,critical,G,25,nogoal,none,exp2trials,NULL
1687453027,97cc82060ad4c4d6b1056a24eff92b45,PennController,16,0,experiment,NULL,VideoScrubber,slider-input,SelectedFrame,20,1687452936257,60b8e5946caaff962008212e,60b8e5946caaff962008212e,13,mix,critical,G,25,nogoal,none,exp2trials,NULL
1687453027,97cc82060ad4c4d6b1056a24eff92b45,PennController,16,0,experiment,NULL,PennController,15,_Trial_,End,1687452941347,60b8e5946caaff962008212e,60b8e5946caaff962008212e,13,mix,critical,G,25,nogoal,none,exp2trials,NULL
1687453027,97cc82060ad4c4d6b1056a24eff92b45,PennController,15,0,experiment,NULL,PennController,14,_Trial_,Start,1687452941349,60b8e5946caaff962008212e,60b8e5946caaff962008212e,12,erase,critical,G,75,nogoal,none,exp2trials,NULL
1687453027,97cc82060ad4c4d6b1056a24eff92b45,PennController,15,0,experiment,NULL,PennController,14,_Header_,Start,1687452941349,60b8e5946caaff962008212e,60b8e5946caaff962008212e,12,erase,critical,G,75,nogoal,none,exp2trials,NULL
1687453027,97cc82060ad4c4d6b1056a24eff92b45,PennController,15,0,experiment,NULL,PennController,14,_Header_,End,1687452941350,60b8e5946caaff962008212e,60b8e5946caaff962008212e,12,erase,critical,G,75,nogoal,none,exp2trials,NULL
1687453027,97cc82060ad4c4d6b1056a24eff92b45,PennController,15,0,experiment,NULL,Video,progression,buffer,0,1687452944905,60b8e5946caaff962008212e,60b8e5946caaff962008212e,12,erase,critical,G,75,nogoal,none,exp2trials,NULL
1687453027,97cc82060ad4c4d6b1056a24eff92b45,PennController,15,0,experiment,NULL,VideoScrubber,slider-input,SelectedFrame,75,1687452951195,60b8e5946caaff962008212e,60b8e5946caaff962008212e,12,erase,critical,G,75,nogoal,none,exp2trials,NULL
1687453027,97cc82060ad4c4d6b1056a24eff92b45,PennController,15,0,experiment,NULL,PennController,14,_Trial_,End,1687452958173,60b8e5946caaff962008212e,60b8e5946caaff962008212e,12,erase,critical,G,75,nogoal,none,exp2trials,NULL
1687453027,97cc82060ad4c4d6b1056a24eff92b45,PennController,20,0,experiment,NULL,PennController,19,_Trial_,Start,1687452958175,60b8e5946caaff962008212e,60b8e5946caaff962008212e,17,roll,critical,G,50,nogoal,none,exp2trials,NULL
1687453027,97cc82060ad4c4d6b1056a24eff92b45,PennController,20,0,experiment,NULL,PennController,19,_Header_,Start,1687452958175,60b8e5946caaff962008212e,60b8e5946caaff962008212e,17,roll,critical,G,50,nogoal,none,exp2trials,NULL
1687453027,97cc82060ad4c4d6b1056a24eff92b45,PennController,20,0,experiment,NULL,PennController,19,_Header_,End,1687452958175,60b8e5946caaff962008212e,60b8e5946caaff962008212e,17,roll,critical,G,50,nogoal,none,exp2trials,NULL
1687453027,97cc82060ad4c4d6b1056a24eff92b45,PennController,20,0,experiment,NULL,Video,progression,buffer,0,1687452961731,60b8e5946caaff962008212e,60b8e5946caaff962008212e,17,roll,critical,G,50,nogoal,none,exp2trials,NULL
1687453027,97cc82060ad4c4d6b1056a24eff92b45,PennController,20,0,experiment,NULL,VideoScrubber,slider-input,SelectedFrame,40,1687452965040,60b8e5946caaff962008212e,60b8e5946caaff962008212e,17,roll,critical,G,50,nogoal,none,exp2trials,NULL
1687453027,97cc82060ad4c4d6b1056a24eff92b45,PennController,20,0,experiment,NULL,PennController,19,_Trial_,End,1687452969941,60b8e5946caaff962008212e,60b8e5946caaff962008212e,17,roll,critical,G,50,nogoal,none,exp2trials,NULL
1687453027,97cc82060ad4c4d6b1056a24eff92b45,PennController,31,0,experiment,NULL,PennController,30,_Trial_,Start,1687452969943,60b8e5946caaff962008212e,60b8e5946caaff962008212e,28,sort,filler,G,25,nogoal,none,exp2trials,NULL
1687453027,97cc82060ad4c4d6b1056a24eff92b45,PennController,31,0,experiment,NULL,PennController,30,_Header_,Start,1687452969943,60b8e5946caaff962008212e,60b8e5946caaff962008212e,28,sort,filler,G,25,nogoal,none,exp2trials,NULL
1687453027,97cc82060ad4c4d6b1056a24eff92b45,PennController,31,0,experiment,NULL,PennController,30,_Header_,End,1687452969943,60b8e5946caaff962008212e,60b8e5946caaff962008212e,28,sort,filler,G,25,nogoal,none,exp2trials,NULL
1687453027,97cc82060ad4c4d6b1056a24eff92b45,PennController,31,0,experiment,NULL,Video,progression,buffer,0,1687452973497,60b8e5946caaff962008212e,60b8e5946caaff962008212e,28,sort,filler,G,25,nogoal,none,exp2trials,NULL
1687453027,97cc82060ad4c4d6b1056a24eff92b45,PennController,31,0,experiment,NULL,VideoScrubber,slider-input,SelectedFrame,35,1687452975790,60b8e5946caaff962008212e,60b8e5946caaff962008212e,28,sort,filler,G,25,nogoal,none,exp2trials,NULL
1687453027,97cc82060ad4c4d6b1056a24eff92b45,PennController,31,0,experiment,NULL,PennController,30,_Trial_,End,1687452981207,60b8e5946caaff962008212e,60b8e5946caaff962008212e,28,sort,filler,G,25,nogoal,none,exp2trials,NULL
1687453027,97cc82060ad4c4d6b1056a24eff92b45,PennController,7,0,experiment,NULL,PennController,6,_Trial_,Start,1687452981208,60b8e5946caaff962008212e,60b8e5946caaff962008212e,4,candy,critical,G,25,nogoal,none,exp2trials,NULL
1687453027,97cc82060ad4c4d6b1056a24eff92b45,PennController,7,0,experiment,NULL,PennController,6,_Header_,Start,1687452981208,60b8e5946caaff962008212e,60b8e5946caaff962008212e,4,candy,critical,G,25,nogoal,none,exp2trials,NULL
1687453027,97cc82060ad4c4d6b1056a24eff92b45,PennController,7,0,experiment,NULL,PennController,6,_Header_,End,1687452981208,60b8e5946caaff962008212e,60b8e5946caaff962008212e,4,candy,critical,G,25,nogoal,none,exp2trials,NULL
1687453027,97cc82060ad4c4d6b1056a24eff92b45,PennController,7,0,experiment,NULL,Video,progression,buffer,0,1687452984763,60b8e5946caaff962008212e,60b8e5946caaff962008212e,4,candy,critical,G,25,nogoal,none,exp2trials,NULL
1687453027,97cc82060ad4c4d6b1056a24eff92b45,PennController,7,0,experiment,NULL,VideoScrubber,slider-input,SelectedFrame,25,1687452987052,60b8e5946caaff962008212e,60b8e5946caaff962008212e,4,candy,critical,G,25,nogoal,none,exp2trials,NULL
1687453027,97cc82060ad4c4d6b1056a24eff92b45,PennController,7,0,experiment,NULL,PennController,6,_Trial_,End,1687452990939,60b8e5946caaff962008212e,60b8e5946caaff962008212e,4,candy,critical,G,25,nogoal,none,exp2trials,NULL
1687453027,97cc82060ad4c4d6b1056a24eff92b45,PennController,23,0,experiment,NULL,PennController,22,_Trial_,Start,1687452990941,60b8e5946caaff962008212e,60b8e5946caaff962008212e,20,cat,filler,G,50,nogoal,none,exp2trials,NULL
1687453027,97cc82060ad4c4d6b1056a24eff92b45,PennController,23,0,experiment,NULL,PennController,22,_Header_,Start,1687452990941,60b8e5946caaff962008212e,60b8e5946caaff962008212e,20,cat,filler,G,50,nogoal,none,exp2trials,NULL
1687453027,97cc82060ad4c4d6b1056a24eff92b45,PennController,23,0,experiment,NULL,PennController,22,_Header_,End,1687452990941,60b8e5946caaff962008212e,60b8e5946caaff962008212e,20,cat,filler,G,50,nogoal,none,exp2trials,NULL
1687453027,97cc82060ad4c4d6b1056a24eff92b45,PennController,23,0,experiment,NULL,Video,progression,buffer,0,1687452994498,60b8e5946caaff962008212e,60b8e5946caaff962008212e,20,cat,filler,G,50,nogoal,none,exp2trials,NULL
1687453027,97cc82060ad4c4d6b1056a24eff92b45,PennController,23,0,experiment,NULL,VideoScrubber,slider-input,SelectedFrame,50,1687452997788,60b8e5946caaff962008212e,60b8e5946caaff962008212e,20,cat,filler,G,50,nogoal,none,exp2trials,NULL
1687453027,97cc82060ad4c4d6b1056a24eff92b45,PennController,23,0,experiment,NULL,PennController,22,_Trial_,End,1687453000475,60b8e5946caaff962008212e,60b8e5946caaff962008212e,20,cat,filler,G,50,nogoal,none,exp2trials,NULL
1687453027,97cc82060ad4c4d6b1056a24eff92b45,PennController,17,0,experiment,NULL,PennController,16,_Trial_,Start,1687453000477,60b8e5946caaff962008212e,60b8e5946caaff962008212e,14,cover,critical,G,50,nogoal,none,exp2trials,NULL
1687453027,97cc82060ad4c4d6b1056a24eff92b45,PennController,17,0,experiment,NULL,PennController,16,_Header_,Start,1687453000477,60b8e5946caaff962008212e,60b8e5946caaff962008212e,14,cover,critical,G,50,nogoal,none,exp2trials,NULL
1687453027,97cc82060ad4c4d6b1056a24eff92b45,PennController,17,0,experiment,NULL,PennController,16,_Header_,End,1687453000477,60b8e5946caaff962008212e,60b8e5946caaff962008212e,14,cover,critical,G,50,nogoal,none,exp2trials,NULL
1687453027,97cc82060ad4c4d6b1056a24eff92b45,PennController,17,0,experiment,NULL,Video,progression,buffer,0,1687453004035,60b8e5946caaff962008212e,60b8e5946caaff962008212e,14,cover,critical,G,50,nogoal,none,exp2trials,NULL
1687453027,97cc82060ad4c4d6b1056a24eff92b45,PennController,17,0,experiment,NULL,VideoScrubber,slider-input,SelectedFrame,51,1687453008733,60b8e5946caaff962008212e,60b8e5946caaff962008212e,14,cover,critical,G,50,nogoal,none,exp2trials,NULL
1687453027,97cc82060ad4c4d6b1056a24eff92b45,PennController,17,0,experiment,NULL,PennController,16,_Trial_,End,1687453016066,60b8e5946caaff962008212e,60b8e5946caaff962008212e,14,cover,critical,G,50,nogoal,none,exp2trials,NULL
1687453027,97cc82060ad4c4d6b1056a24eff92b45,PennController,21,0,experiment,NULL,PennController,20,_Trial_,Start,1687453016068,60b8e5946caaff962008212e,60b8e5946caaff962008212e,18,ball,critical,G,75,nogoal,none,exp2trials,NULL
1687453027,97cc82060ad4c4d6b1056a24eff92b45,PennController,21,0,experiment,NULL,PennController,20,_Header_,Start,1687453016068,60b8e5946caaff962008212e,60b8e5946caaff962008212e,18,ball,critical,G,75,nogoal,none,exp2trials,NULL
1687453027,97cc82060ad4c4d6b1056a24eff92b45,PennController,21,0,experiment,NULL,PennController,20,_Header_,End,1687453016068,60b8e5946caaff962008212e,60b8e5946caaff962008212e,18,ball,critical,G,75,nogoal,none,exp2trials,NULL
1687453027,97cc82060ad4c4d6b1056a24eff92b45,PennController,21,0,experiment,NULL,Video,progression,buffer,0,1687453019618,60b8e5946caaff962008212e,60b8e5946caaff962008212e,18,ball,critical,G,75,nogoal,none,exp2trials,NULL
1687453027,97cc82060ad4c4d6b1056a24eff92b45,PennController,21,0,experiment,NULL,VideoScrubber,slider-input,SelectedFrame,80,1687453023918,60b8e5946caaff962008212e,60b8e5946caaff962008212e,18,ball,critical,G,75,nogoal,none,exp2trials,NULL
1687453027,97cc82060ad4c4d6b1056a24eff92b45,PennController,21,0,experiment,NULL,PennController,20,_Trial_,End,1687453026720,60b8e5946caaff962008212e,60b8e5946caaff962008212e,18,ball,critical,G,75,nogoal,none,exp2trials,NULL
