#
# Results on Thursday June 22 2023 17:04:22 UTC
# USER AGENT: Mozilla/5.0 (Windows NT 10.0; Win64; x64) AppleWebKit/537.36 (KHTML, like Gecko) Chrome/114.0.0.0 Safari/537.36 Edg/114.0.1823.51
# Design number was non-random = 73
#
# Columns below this comment are as follows:
# 1. Results reception time.
# 2. MD5 hash of participant's IP address.
# 3. Controller name.
# 4. Order number of item.
# 5. Inner element number.
# 6. Label.
# 7. Latin Square Group.
# 8. PennElementType.
# 9. PennElementName.
# 10. Parameter.
# 11. Value.
# 12. EventTime.
# 13. ProlificID.
# 14. Comments.
1687453462,4aa27d087f513ce1f33293f342d13be8,PennController,2,0,consent,NULL,PennController,0,_Trial_,Start,1687452844463,5f03c4832e8e3c608c6cdb35,NULL
1687453462,4aa27d087f513ce1f33293f342d13be8,PennController,2,0,consent,NULL,PennController,0,_Header_,Start,1687452844463,5f03c4832e8e3c608c6cdb35,NULL
1687453462,4aa27d087f513ce1f33293f342d13be8,PennController,2,0,consent,NULL,PennController,0,_Header_,End,1687452844598,5f03c4832e8e3c608c6cdb35,NULL
1687453462,4aa27d087f513ce1f33293f342d13be8,PennController,2,0,consent,NULL,PennController,0,_Trial_,End,1687452855545,5f03c4832e8e3c608c6cdb35,NULL
# Columns below this comment are as follows:
# 14. ID.
# 15. Comments.
1687453462,4aa27d087f513ce1f33293f342d13be8,PennController,3,0,intro,NULL,PennController,1,_Trial_,Start,1687452855549,5f03c4832e8e3c608c6cdb35,5f03c4832e8e3c608c6cdb35,NULL
1687453462,4aa27d087f513ce1f33293f342d13be8,PennController,3,0,intro,NULL,PennController,1,_Header_,Start,1687452855549,5f03c4832e8e3c608c6cdb35,5f03c4832e8e3c608c6cdb35,NULL
1687453462,4aa27d087f513ce1f33293f342d13be8,PennController,3,0,intro,NULL,PennController,1,_Header_,End,1687452855549,5f03c4832e8e3c608c6cdb35,5f03c4832e8e3c608c6cdb35,NULL
1687453462,4aa27d087f513ce1f33293f342d13be8,PennController,3,0,intro,NULL,PennController,1,_Trial_,End,1687452937586,5f03c4832e8e3c608c6cdb35,5f03c4832e8e3c608c6cdb35,NULL
# Columns below this comment are as follows:
# 15. item_number.
# 16. item.
# 17. type.
# 18. Group.
# 19. prog.
# 20. condition.
# 21. height.
# 22. exp2trials.
# 23. Comments.
1687453462,4aa27d087f513ce1f33293f342d13be8,PennController,32,0,experiment,NULL,PennController,31,_Trial_,Start,1687452937589,5f03c4832e8e3c608c6cdb35,5f03c4832e8e3c608c6cdb35,29,frog,filler,B,75,goal,GoalA,exp2trials,NULL
1687453462,4aa27d087f513ce1f33293f342d13be8,PennController,32,0,experiment,NULL,PennController,31,_Header_,Start,1687452937589,5f03c4832e8e3c608c6cdb35,5f03c4832e8e3c608c6cdb35,29,frog,filler,B,75,goal,GoalA,exp2trials,NULL
1687453462,4aa27d087f513ce1f33293f342d13be8,PennController,32,0,experiment,NULL,PennController,31,_Header_,End,1687452937589,5f03c4832e8e3c608c6cdb35,5f03c4832e8e3c608c6cdb35,29,frog,filler,B,75,goal,GoalA,exp2trials,NULL
1687453462,4aa27d087f513ce1f33293f342d13be8,PennController,32,0,experiment,NULL,Video,progression,buffer,0.008721,1687452942975,5f03c4832e8e3c608c6cdb35,5f03c4832e8e3c608c6cdb35,29,frog,filler,B,75,goal,GoalA,exp2trials,NULL
1687453462,4aa27d087f513ce1f33293f342d13be8,PennController,32,0,experiment,NULL,VideoScrubber,slider-input,SelectedFrame,25,1687452963474,5f03c4832e8e3c608c6cdb35,5f03c4832e8e3c608c6cdb35,29,frog,filler,B,75,goal,GoalA,exp2trials,NULL
1687453462,4aa27d087f513ce1f33293f342d13be8,PennController,32,0,experiment,NULL,PennController,31,_Trial_,End,1687452994055,5f03c4832e8e3c608c6cdb35,5f03c4832e8e3c608c6cdb35,29,frog,filler,B,75,goal,GoalA,exp2trials,NULL
1687453462,4aa27d087f513ce1f33293f342d13be8,PennController,14,0,experiment,NULL,PennController,13,_Trial_,Start,1687452994058,5f03c4832e8e3c608c6cdb35,5f03c4832e8e3c608c6cdb35,11,beads,critical,B,75,goal,low,exp2trials,NULL
1687453462,4aa27d087f513ce1f33293f342d13be8,PennController,14,0,experiment,NULL,PennController,13,_Header_,Start,1687452994058,5f03c4832e8e3c608c6cdb35,5f03c4832e8e3c608c6cdb35,11,beads,critical,B,75,goal,low,exp2trials,NULL
1687453462,4aa27d087f513ce1f33293f342d13be8,PennController,14,0,experiment,NULL,PennController,13,_Header_,End,1687452994058,5f03c4832e8e3c608c6cdb35,5f03c4832e8e3c608c6cdb35,11,beads,critical,B,75,goal,low,exp2trials,NULL
1687453462,4aa27d087f513ce1f33293f342d13be8,PennController,14,0,experiment,NULL,Video,progression,buffer,0.002122,1687452998951,5f03c4832e8e3c608c6cdb35,5f03c4832e8e3c608c6cdb35,11,beads,critical,B,75,goal,low,exp2trials,NULL
1687453462,4aa27d087f513ce1f33293f342d13be8,PennController,14,0,experiment,NULL,VideoScrubber,slider-input,SelectedFrame,75,1687453003937,5f03c4832e8e3c608c6cdb35,5f03c4832e8e3c608c6cdb35,11,beads,critical,B,75,goal,low,exp2trials,NULL
1687453462,4aa27d087f513ce1f33293f342d13be8,PennController,14,0,experiment,NULL,PennController,13,_Trial_,End,1687453014013,5f03c4832e8e3c608c6cdb35,5f03c4832e8e3c608c6cdb35,11,beads,critical,B,75,goal,low,exp2trials,NULL
1687453462,4aa27d087f513ce1f33293f342d13be8,PennController,24,0,experiment,NULL,PennController,23,_Trial_,Start,1687453014015,5f03c4832e8e3c608c6cdb35,5f03c4832e8e3c608c6cdb35,21,visit,filler,B,25,goal,GoalA,exp2trials,NULL
1687453462,4aa27d087f513ce1f33293f342d13be8,PennController,24,0,experiment,NULL,PennController,23,_Header_,Start,1687453014015,5f03c4832e8e3c608c6cdb35,5f03c4832e8e3c608c6cdb35,21,visit,filler,B,25,goal,GoalA,exp2trials,NULL
1687453462,4aa27d087f513ce1f33293f342d13be8,PennController,24,0,experiment,NULL,PennController,23,_Header_,End,1687453014015,5f03c4832e8e3c608c6cdb35,5f03c4832e8e3c608c6cdb35,21,visit,filler,B,25,goal,GoalA,exp2trials,NULL
1687453462,4aa27d087f513ce1f33293f342d13be8,PennController,24,0,experiment,NULL,Video,progression,buffer,0.005541,1687453017546,5f03c4832e8e3c608c6cdb35,5f03c4832e8e3c608c6cdb35,21,visit,filler,B,25,goal,GoalA,exp2trials,NULL
1687453462,4aa27d087f513ce1f33293f342d13be8,PennController,24,0,experiment,NULL,VideoScrubber,slider-input,SelectedFrame,60,1687453019941,5f03c4832e8e3c608c6cdb35,5f03c4832e8e3c608c6cdb35,21,visit,filler,B,25,goal,GoalA,exp2trials,NULL
1687453462,4aa27d087f513ce1f33293f342d13be8,PennController,24,0,experiment,NULL,PennController,23,_Trial_,End,1687453030096,5f03c4832e8e3c608c6cdb35,5f03c4832e8e3c608c6cdb35,21,visit,filler,B,25,goal,GoalA,exp2trials,NULL
1687453462,4aa27d087f513ce1f33293f342d13be8,PennController,8,0,experiment,NULL,PennController,7,_Trial_,Start,1687453030099,5f03c4832e8e3c608c6cdb35,5f03c4832e8e3c608c6cdb35,5,book,critical,B,75,goal,low,exp2trials,NULL
1687453462,4aa27d087f513ce1f33293f342d13be8,PennController,8,0,experiment,NULL,PennController,7,_Header_,Start,1687453030099,5f03c4832e8e3c608c6cdb35,5f03c4832e8e3c608c6cdb35,5,book,critical,B,75,goal,low,exp2trials,NULL
1687453462,4aa27d087f513ce1f33293f342d13be8,PennController,8,0,experiment,NULL,PennController,7,_Header_,End,1687453030099,5f03c4832e8e3c608c6cdb35,5f03c4832e8e3c608c6cdb35,5,book,critical,B,75,goal,low,exp2trials,NULL
1687453462,4aa27d087f513ce1f33293f342d13be8,PennController,8,0,experiment,NULL,Video,progression,buffer,0.005209,1687453033652,5f03c4832e8e3c608c6cdb35,5f03c4832e8e3c608c6cdb35,5,book,critical,B,75,goal,low,exp2trials,NULL
1687453462,4aa27d087f513ce1f33293f342d13be8,PennController,8,0,experiment,NULL,VideoScrubber,slider-input,SelectedFrame,25,1687453037939,5f03c4832e8e3c608c6cdb35,5f03c4832e8e3c608c6cdb35,5,book,critical,B,75,goal,low,exp2trials,NULL
1687453462,4aa27d087f513ce1f33293f342d13be8,PennController,8,0,experiment,NULL,PennController,7,_Trial_,End,1687453048345,5f03c4832e8e3c608c6cdb35,5f03c4832e8e3c608c6cdb35,5,book,critical,B,75,goal,low,exp2trials,NULL
1687453462,4aa27d087f513ce1f33293f342d13be8,PennController,29,0,experiment,NULL,PennController,28,_Trial_,Start,1687453048349,5f03c4832e8e3c608c6cdb35,5f03c4832e8e3c608c6cdb35,26,sandwich,filler,B,75,goal,GoalB,exp2trials,NULL
1687453462,4aa27d087f513ce1f33293f342d13be8,PennController,29,0,experiment,NULL,PennController,28,_Header_,Start,1687453048349,5f03c4832e8e3c608c6cdb35,5f03c4832e8e3c608c6cdb35,26,sandwich,filler,B,75,goal,GoalB,exp2trials,NULL
1687453462,4aa27d087f513ce1f33293f342d13be8,PennController,29,0,experiment,NULL,PennController,28,_Header_,End,1687453048349,5f03c4832e8e3c608c6cdb35,5f03c4832e8e3c608c6cdb35,26,sandwich,filler,B,75,goal,GoalB,exp2trials,NULL
1687453462,4aa27d087f513ce1f33293f342d13be8,PennController,29,0,experiment,NULL,Video,progression,buffer,0.005964,1687453051904,5f03c4832e8e3c608c6cdb35,5f03c4832e8e3c608c6cdb35,26,sandwich,filler,B,75,goal,GoalB,exp2trials,NULL
1687453462,4aa27d087f513ce1f33293f342d13be8,PennController,29,0,experiment,NULL,VideoScrubber,slider-input,SelectedFrame,80,1687453056945,5f03c4832e8e3c608c6cdb35,5f03c4832e8e3c608c6cdb35,26,sandwich,filler,B,75,goal,GoalB,exp2trials,NULL
1687453462,4aa27d087f513ce1f33293f342d13be8,PennController,29,0,experiment,NULL,PennController,28,_Trial_,End,1687453065293,5f03c4832e8e3c608c6cdb35,5f03c4832e8e3c608c6cdb35,26,sandwich,filler,B,75,goal,GoalB,exp2trials,NULL
1687453462,4aa27d087f513ce1f33293f342d13be8,PennController,11,0,experiment,NULL,PennController,10,_Trial_,Start,1687453065296,5f03c4832e8e3c608c6cdb35,5f03c4832e8e3c608c6cdb35,8,cucumber,critical,B,75,goal,low,exp2trials,NULL
1687453462,4aa27d087f513ce1f33293f342d13be8,PennController,11,0,experiment,NULL,PennController,10,_Header_,Start,1687453065296,5f03c4832e8e3c608c6cdb35,5f03c4832e8e3c608c6cdb35,8,cucumber,critical,B,75,goal,low,exp2trials,NULL
1687453462,4aa27d087f513ce1f33293f342d13be8,PennController,11,0,experiment,NULL,PennController,10,_Header_,End,1687453065296,5f03c4832e8e3c608c6cdb35,5f03c4832e8e3c608c6cdb35,8,cucumber,critical,B,75,goal,low,exp2trials,NULL
1687453462,4aa27d087f513ce1f33293f342d13be8,PennController,11,0,experiment,NULL,Video,progression,buffer,0.002454,1687453068852,5f03c4832e8e3c608c6cdb35,5f03c4832e8e3c608c6cdb35,8,cucumber,critical,B,75,goal,low,exp2trials,NULL
1687453462,4aa27d087f513ce1f33293f342d13be8,PennController,11,0,experiment,NULL,VideoScrubber,slider-input,SelectedFrame,81,1687453075943,5f03c4832e8e3c608c6cdb35,5f03c4832e8e3c608c6cdb35,8,cucumber,critical,B,75,goal,low,exp2trials,NULL
1687453462,4aa27d087f513ce1f33293f342d13be8,PennController,11,0,experiment,NULL,PennController,10,_Trial_,End,1687453086277,5f03c4832e8e3c608c6cdb35,5f03c4832e8e3c608c6cdb35,8,cucumber,critical,B,75,goal,low,exp2trials,NULL
1687453462,4aa27d087f513ce1f33293f342d13be8,PennController,25,0,experiment,NULL,PennController,24,_Trial_,Start,1687453086280,5f03c4832e8e3c608c6cdb35,5f03c4832e8e3c608c6cdb35,22,wall,filler,B,50,goal,GoalB,exp2trials,NULL
1687453462,4aa27d087f513ce1f33293f342d13be8,PennController,25,0,experiment,NULL,PennController,24,_Header_,Start,1687453086280,5f03c4832e8e3c608c6cdb35,5f03c4832e8e3c608c6cdb35,22,wall,filler,B,50,goal,GoalB,exp2trials,NULL
1687453462,4aa27d087f513ce1f33293f342d13be8,PennController,25,0,experiment,NULL,PennController,24,_Header_,End,1687453086280,5f03c4832e8e3c608c6cdb35,5f03c4832e8e3c608c6cdb35,22,wall,filler,B,50,goal,GoalB,exp2trials,NULL
1687453462,4aa27d087f513ce1f33293f342d13be8,PennController,25,0,experiment,NULL,Video,progression,buffer,0.006171,1687453089958,5f03c4832e8e3c608c6cdb35,5f03c4832e8e3c608c6cdb35,22,wall,filler,B,50,goal,GoalB,exp2trials,NULL
1687453462,4aa27d087f513ce1f33293f342d13be8,PennController,25,0,experiment,NULL,VideoScrubber,slider-input,SelectedFrame,50,1687453093948,5f03c4832e8e3c608c6cdb35,5f03c4832e8e3c608c6cdb35,22,wall,filler,B,50,goal,GoalB,exp2trials,NULL
1687453462,4aa27d087f513ce1f33293f342d13be8,PennController,25,0,experiment,NULL,PennController,24,_Trial_,End,1687453099265,5f03c4832e8e3c608c6cdb35,5f03c4832e8e3c608c6cdb35,22,wall,filler,B,50,goal,GoalB,exp2trials,NULL
1687453462,4aa27d087f513ce1f33293f342d13be8,PennController,10,0,experiment,NULL,PennController,9,_Trial_,Start,1687453099268,5f03c4832e8e3c608c6cdb35,5f03c4832e8e3c608c6cdb35,7,stack,critical,B,50,goal,low,exp2trials,NULL
1687453462,4aa27d087f513ce1f33293f342d13be8,PennController,10,0,experiment,NULL,PennController,9,_Header_,Start,1687453099268,5f03c4832e8e3c608c6cdb35,5f03c4832e8e3c608c6cdb35,7,stack,critical,B,50,goal,low,exp2trials,NULL
1687453462,4aa27d087f513ce1f33293f342d13be8,PennController,10,0,experiment,NULL,PennController,9,_Header_,End,1687453099268,5f03c4832e8e3c608c6cdb35,5f03c4832e8e3c608c6cdb35,7,stack,critical,B,50,goal,low,exp2trials,NULL
1687453462,4aa27d087f513ce1f33293f342d13be8,PennController,10,0,experiment,NULL,Video,progression,buffer,0.008386,1687453102957,5f03c4832e8e3c608c6cdb35,5f03c4832e8e3c608c6cdb35,7,stack,critical,B,50,goal,low,exp2trials,NULL
1687453462,4aa27d087f513ce1f33293f342d13be8,PennController,10,0,experiment,NULL,VideoScrubber,slider-input,SelectedFrame,50,1687453106943,5f03c4832e8e3c608c6cdb35,5f03c4832e8e3c608c6cdb35,7,stack,critical,B,50,goal,low,exp2trials,NULL
1687453462,4aa27d087f513ce1f33293f342d13be8,PennController,10,0,experiment,NULL,PennController,9,_Trial_,End,1687453113458,5f03c4832e8e3c608c6cdb35,5f03c4832e8e3c608c6cdb35,7,stack,critical,B,50,goal,low,exp2trials,NULL
1687453462,4aa27d087f513ce1f33293f342d13be8,PennController,16,0,experiment,NULL,PennController,15,_Trial_,Start,1687453113460,5f03c4832e8e3c608c6cdb35,5f03c4832e8e3c608c6cdb35,13,mix,critical,B,50,goal,low,exp2trials,NULL
1687453462,4aa27d087f513ce1f33293f342d13be8,PennController,16,0,experiment,NULL,PennController,15,_Header_,Start,1687453113460,5f03c4832e8e3c608c6cdb35,5f03c4832e8e3c608c6cdb35,13,mix,critical,B,50,goal,low,exp2trials,NULL
1687453462,4aa27d087f513ce1f33293f342d13be8,PennController,16,0,experiment,NULL,PennController,15,_Header_,End,1687453113460,5f03c4832e8e3c608c6cdb35,5f03c4832e8e3c608c6cdb35,13,mix,critical,B,50,goal,low,exp2trials,NULL
1687453462,4aa27d087f513ce1f33293f342d13be8,PennController,16,0,experiment,NULL,Video,progression,buffer,0.004125,1687453119949,5f03c4832e8e3c608c6cdb35,5f03c4832e8e3c608c6cdb35,13,mix,critical,B,50,goal,low,exp2trials,NULL
1687453462,4aa27d087f513ce1f33293f342d13be8,PennController,16,0,experiment,NULL,VideoScrubber,slider-input,SelectedFrame,60,1687453123949,5f03c4832e8e3c608c6cdb35,5f03c4832e8e3c608c6cdb35,13,mix,critical,B,50,goal,low,exp2trials,NULL
1687453462,4aa27d087f513ce1f33293f342d13be8,PennController,16,0,experiment,NULL,PennController,15,_Trial_,End,1687453135006,5f03c4832e8e3c608c6cdb35,5f03c4832e8e3c608c6cdb35,13,mix,critical,B,50,goal,low,exp2trials,NULL
1687453462,4aa27d087f513ce1f33293f342d13be8,PennController,28,0,experiment,NULL,PennController,27,_Trial_,Start,1687453135008,5f03c4832e8e3c608c6cdb35,5f03c4832e8e3c608c6cdb35,25,house,filler,B,50,goal,GoalA,exp2trials,NULL
1687453462,4aa27d087f513ce1f33293f342d13be8,PennController,28,0,experiment,NULL,PennController,27,_Header_,Start,1687453135008,5f03c4832e8e3c608c6cdb35,5f03c4832e8e3c608c6cdb35,25,house,filler,B,50,goal,GoalA,exp2trials,NULL
1687453462,4aa27d087f513ce1f33293f342d13be8,PennController,28,0,experiment,NULL,PennController,27,_Header_,End,1687453135008,5f03c4832e8e3c608c6cdb35,5f03c4832e8e3c608c6cdb35,25,house,filler,B,50,goal,GoalA,exp2trials,NULL
1687453462,4aa27d087f513ce1f33293f342d13be8,PennController,28,0,experiment,NULL,Video,progression,buffer,0.020191,1687453138563,5f03c4832e8e3c608c6cdb35,5f03c4832e8e3c608c6cdb35,25,house,filler,B,50,goal,GoalA,exp2trials,NULL
1687453462,4aa27d087f513ce1f33293f342d13be8,PennController,28,0,experiment,NULL,VideoScrubber,slider-input,SelectedFrame,50,1687453141943,5f03c4832e8e3c608c6cdb35,5f03c4832e8e3c608c6cdb35,25,house,filler,B,50,goal,GoalA,exp2trials,NULL
1687453462,4aa27d087f513ce1f33293f342d13be8,PennController,28,0,experiment,NULL,PennController,27,_Trial_,End,1687453152134,5f03c4832e8e3c608c6cdb35,5f03c4832e8e3c608c6cdb35,25,house,filler,B,50,goal,GoalA,exp2trials,NULL
1687453462,4aa27d087f513ce1f33293f342d13be8,PennController,22,0,experiment,NULL,PennController,21,_Trial_,Start,1687453152137,5f03c4832e8e3c608c6cdb35,5f03c4832e8e3c608c6cdb35,19,cup,filler,B,50,goal,GoalA,exp2trials,NULL
1687453462,4aa27d087f513ce1f33293f342d13be8,PennController,22,0,experiment,NULL,PennController,21,_Header_,Start,1687453152137,5f03c4832e8e3c608c6cdb35,5f03c4832e8e3c608c6cdb35,19,cup,filler,B,50,goal,GoalA,exp2trials,NULL
1687453462,4aa27d087f513ce1f33293f342d13be8,PennController,22,0,experiment,NULL,PennController,21,_Header_,End,1687453152137,5f03c4832e8e3c608c6cdb35,5f03c4832e8e3c608c6cdb35,19,cup,filler,B,50,goal,GoalA,exp2trials,NULL
1687453462,4aa27d087f513ce1f33293f342d13be8,PennController,22,0,experiment,NULL,Video,progression,buffer,0.005406,1687453155694,5f03c4832e8e3c608c6cdb35,5f03c4832e8e3c608c6cdb35,19,cup,filler,B,50,goal,GoalA,exp2trials,NULL
1687453462,4aa27d087f513ce1f33293f342d13be8,PennController,22,0,experiment,NULL,VideoScrubber,slider-input,SelectedFrame,35,1687453158937,5f03c4832e8e3c608c6cdb35,5f03c4832e8e3c608c6cdb35,19,cup,filler,B,50,goal,GoalA,exp2trials,NULL
1687453462,4aa27d087f513ce1f33293f342d13be8,PennController,22,0,experiment,NULL,PennController,21,_Trial_,End,1687453169114,5f03c4832e8e3c608c6cdb35,5f03c4832e8e3c608c6cdb35,19,cup,filler,B,50,goal,GoalA,exp2trials,NULL
1687453462,4aa27d087f513ce1f33293f342d13be8,PennController,7,0,experiment,NULL,PennController,6,_Trial_,Start,1687453169116,5f03c4832e8e3c608c6cdb35,5f03c4832e8e3c608c6cdb35,4,candy,critical,B,50,goal,low,exp2trials,NULL
1687453462,4aa27d087f513ce1f33293f342d13be8,PennController,7,0,experiment,NULL,PennController,6,_Header_,Start,1687453169116,5f03c4832e8e3c608c6cdb35,5f03c4832e8e3c608c6cdb35,4,candy,critical,B,50,goal,low,exp2trials,NULL
1687453462,4aa27d087f513ce1f33293f342d13be8,PennController,7,0,experiment,NULL,PennController,6,_Header_,End,1687453169116,5f03c4832e8e3c608c6cdb35,5f03c4832e8e3c608c6cdb35,4,candy,critical,B,50,goal,low,exp2trials,NULL
1687453462,4aa27d087f513ce1f33293f342d13be8,PennController,7,0,experiment,NULL,Video,progression,buffer,0.005424,1687453172665,5f03c4832e8e3c608c6cdb35,5f03c4832e8e3c608c6cdb35,4,candy,critical,B,50,goal,low,exp2trials,NULL
1687453462,4aa27d087f513ce1f33293f342d13be8,PennController,7,0,experiment,NULL,VideoScrubber,slider-input,SelectedFrame,50,1687453175943,5f03c4832e8e3c608c6cdb35,5f03c4832e8e3c608c6cdb35,4,candy,critical,B,50,goal,low,exp2trials,NULL
1687453462,4aa27d087f513ce1f33293f342d13be8,PennController,7,0,experiment,NULL,PennController,6,_Trial_,End,1687453187545,5f03c4832e8e3c608c6cdb35,5f03c4832e8e3c608c6cdb35,4,candy,critical,B,50,goal,low,exp2trials,NULL
1687453462,4aa27d087f513ce1f33293f342d13be8,PennController,20,0,experiment,NULL,PennController,19,_Trial_,Start,1687453187548,5f03c4832e8e3c608c6cdb35,5f03c4832e8e3c608c6cdb35,17,roll,critical,B,75,goal,low,exp2trials,NULL
1687453462,4aa27d087f513ce1f33293f342d13be8,PennController,20,0,experiment,NULL,PennController,19,_Header_,Start,1687453187548,5f03c4832e8e3c608c6cdb35,5f03c4832e8e3c608c6cdb35,17,roll,critical,B,75,goal,low,exp2trials,NULL
1687453462,4aa27d087f513ce1f33293f342d13be8,PennController,20,0,experiment,NULL,PennController,19,_Header_,End,1687453187549,5f03c4832e8e3c608c6cdb35,5f03c4832e8e3c608c6cdb35,17,roll,critical,B,75,goal,low,exp2trials,NULL
1687453462,4aa27d087f513ce1f33293f342d13be8,PennController,20,0,experiment,NULL,Video,progression,buffer,0.006606,1687453191106,5f03c4832e8e3c608c6cdb35,5f03c4832e8e3c608c6cdb35,17,roll,critical,B,75,goal,low,exp2trials,NULL
1687453462,4aa27d087f513ce1f33293f342d13be8,PennController,20,0,experiment,NULL,VideoScrubber,slider-input,SelectedFrame,75,1687453195943,5f03c4832e8e3c608c6cdb35,5f03c4832e8e3c608c6cdb35,17,roll,critical,B,75,goal,low,exp2trials,NULL
1687453462,4aa27d087f513ce1f33293f342d13be8,PennController,20,0,experiment,NULL,PennController,19,_Trial_,End,1687453202626,5f03c4832e8e3c608c6cdb35,5f03c4832e8e3c608c6cdb35,17,roll,critical,B,75,goal,low,exp2trials,NULL
1687453462,4aa27d087f513ce1f33293f342d13be8,PennController,19,0,experiment,NULL,PennController,18,_Trial_,Start,1687453202627,5f03c4832e8e3c608c6cdb35,5f03c4832e8e3c608c6cdb35,16,blinds,critical,B,50,goal,low,exp2trials,NULL
1687453462,4aa27d087f513ce1f33293f342d13be8,PennController,19,0,experiment,NULL,PennController,18,_Header_,Start,1687453202627,5f03c4832e8e3c608c6cdb35,5f03c4832e8e3c608c6cdb35,16,blinds,critical,B,50,goal,low,exp2trials,NULL
1687453462,4aa27d087f513ce1f33293f342d13be8,PennController,19,0,experiment,NULL,PennController,18,_Header_,End,1687453202627,5f03c4832e8e3c608c6cdb35,5f03c4832e8e3c608c6cdb35,16,blinds,critical,B,50,goal,low,exp2trials,NULL
1687453462,4aa27d087f513ce1f33293f342d13be8,PennController,19,0,experiment,NULL,Video,progression,buffer,0.005449,1687453207942,5f03c4832e8e3c608c6cdb35,5f03c4832e8e3c608c6cdb35,16,blinds,critical,B,50,goal,low,exp2trials,NULL
1687453462,4aa27d087f513ce1f33293f342d13be8,PennController,19,0,experiment,NULL,VideoScrubber,slider-input,SelectedFrame,60,1687453212936,5f03c4832e8e3c608c6cdb35,5f03c4832e8e3c608c6cdb35,16,blinds,critical,B,50,goal,low,exp2trials,NULL
1687453462,4aa27d087f513ce1f33293f342d13be8,PennController,19,0,experiment,NULL,PennController,18,_Trial_,End,1687453218510,5f03c4832e8e3c608c6cdb35,5f03c4832e8e3c608c6cdb35,16,blinds,critical,B,50,goal,low,exp2trials,NULL
1687453462,4aa27d087f513ce1f33293f342d13be8,PennController,12,0,experiment,NULL,PennController,11,_Trial_,Start,1687453218512,5f03c4832e8e3c608c6cdb35,5f03c4832e8e3c608c6cdb35,9,cake,critical,B,25,goal,low,exp2trials,NULL
1687453462,4aa27d087f513ce1f33293f342d13be8,PennController,12,0,experiment,NULL,PennController,11,_Header_,Start,1687453218512,5f03c4832e8e3c608c6cdb35,5f03c4832e8e3c608c6cdb35,9,cake,critical,B,25,goal,low,exp2trials,NULL
1687453462,4aa27d087f513ce1f33293f342d13be8,PennController,12,0,experiment,NULL,PennController,11,_Header_,End,1687453218512,5f03c4832e8e3c608c6cdb35,5f03c4832e8e3c608c6cdb35,9,cake,critical,B,25,goal,low,exp2trials,NULL
1687453462,4aa27d087f513ce1f33293f342d13be8,PennController,12,0,experiment,NULL,Video,progression,buffer,0.002736,1687453222945,5f03c4832e8e3c608c6cdb35,5f03c4832e8e3c608c6cdb35,9,cake,critical,B,25,goal,low,exp2trials,NULL
1687453462,4aa27d087f513ce1f33293f342d13be8,PennController,12,0,experiment,NULL,VideoScrubber,slider-input,SelectedFrame,24,1687453225941,5f03c4832e8e3c608c6cdb35,5f03c4832e8e3c608c6cdb35,9,cake,critical,B,25,goal,low,exp2trials,NULL
1687453462,4aa27d087f513ce1f33293f342d13be8,PennController,12,0,experiment,NULL,PennController,11,_Trial_,End,1687453243367,5f03c4832e8e3c608c6cdb35,5f03c4832e8e3c608c6cdb35,9,cake,critical,B,25,goal,low,exp2trials,NULL
1687453462,4aa27d087f513ce1f33293f342d13be8,PennController,5,0,experiment,NULL,PennController,4,_Trial_,Start,1687453243369,5f03c4832e8e3c608c6cdb35,5f03c4832e8e3c608c6cdb35,2,door,critical,B,75,goal,low,exp2trials,NULL
1687453462,4aa27d087f513ce1f33293f342d13be8,PennController,5,0,experiment,NULL,PennController,4,_Header_,Start,1687453243369,5f03c4832e8e3c608c6cdb35,5f03c4832e8e3c608c6cdb35,2,door,critical,B,75,goal,low,exp2trials,NULL
1687453462,4aa27d087f513ce1f33293f342d13be8,PennController,5,0,experiment,NULL,PennController,4,_Header_,End,1687453243369,5f03c4832e8e3c608c6cdb35,5f03c4832e8e3c608c6cdb35,2,door,critical,B,75,goal,low,exp2trials,NULL
1687453462,4aa27d087f513ce1f33293f342d13be8,PennController,5,0,experiment,NULL,Video,progression,buffer,0.010857,1687453246920,5f03c4832e8e3c608c6cdb35,5f03c4832e8e3c608c6cdb35,2,door,critical,B,75,goal,low,exp2trials,NULL
1687453462,4aa27d087f513ce1f33293f342d13be8,PennController,5,0,experiment,NULL,VideoScrubber,slider-input,SelectedFrame,65,1687453251941,5f03c4832e8e3c608c6cdb35,5f03c4832e8e3c608c6cdb35,2,door,critical,B,75,goal,low,exp2trials,NULL
1687453462,4aa27d087f513ce1f33293f342d13be8,PennController,5,0,experiment,NULL,PennController,4,_Trial_,End,1687453261943,5f03c4832e8e3c608c6cdb35,5f03c4832e8e3c608c6cdb35,2,door,critical,B,75,goal,low,exp2trials,NULL
1687453462,4aa27d087f513ce1f33293f342d13be8,PennController,21,0,experiment,NULL,PennController,20,_Trial_,Start,1687453261945,5f03c4832e8e3c608c6cdb35,5f03c4832e8e3c608c6cdb35,18,ball,critical,B,25,goal,low,exp2trials,NULL
1687453462,4aa27d087f513ce1f33293f342d13be8,PennController,21,0,experiment,NULL,PennController,20,_Header_,Start,1687453261945,5f03c4832e8e3c608c6cdb35,5f03c4832e8e3c608c6cdb35,18,ball,critical,B,25,goal,low,exp2trials,NULL
1687453462,4aa27d087f513ce1f33293f342d13be8,PennController,21,0,experiment,NULL,PennController,20,_Header_,End,1687453261945,5f03c4832e8e3c608c6cdb35,5f03c4832e8e3c608c6cdb35,18,ball,critical,B,25,goal,low,exp2trials,NULL
1687453462,4aa27d087f513ce1f33293f342d13be8,PennController,21,0,experiment,NULL,Video,progression,buffer,0.007324,1687453265502,5f03c4832e8e3c608c6cdb35,5f03c4832e8e3c608c6cdb35,18,ball,critical,B,25,goal,low,exp2trials,NULL
1687453462,4aa27d087f513ce1f33293f342d13be8,PennController,21,0,experiment,NULL,VideoScrubber,slider-input,SelectedFrame,30,1687453267950,5f03c4832e8e3c608c6cdb35,5f03c4832e8e3c608c6cdb35,18,ball,critical,B,25,goal,low,exp2trials,NULL
1687453462,4aa27d087f513ce1f33293f342d13be8,PennController,21,0,experiment,NULL,PennController,20,_Trial_,End,1687453274126,5f03c4832e8e3c608c6cdb35,5f03c4832e8e3c608c6cdb35,18,ball,critical,B,25,goal,low,exp2trials,NULL
1687453462,4aa27d087f513ce1f33293f342d13be8,PennController,9,0,experiment,NULL,PennController,8,_Trial_,Start,1687453274128,5f03c4832e8e3c608c6cdb35,5f03c4832e8e3c608c6cdb35,6,flower,critical,B,25,goal,low,exp2trials,NULL
1687453462,4aa27d087f513ce1f33293f342d13be8,PennController,9,0,experiment,NULL,PennController,8,_Header_,Start,1687453274128,5f03c4832e8e3c608c6cdb35,5f03c4832e8e3c608c6cdb35,6,flower,critical,B,25,goal,low,exp2trials,NULL
1687453462,4aa27d087f513ce1f33293f342d13be8,PennController,9,0,experiment,NULL,PennController,8,_Header_,End,1687453274128,5f03c4832e8e3c608c6cdb35,5f03c4832e8e3c608c6cdb35,6,flower,critical,B,25,goal,low,exp2trials,NULL
1687453462,4aa27d087f513ce1f33293f342d13be8,PennController,9,0,experiment,NULL,Video,progression,buffer,0.011327,1687453279963,5f03c4832e8e3c608c6cdb35,5f03c4832e8e3c608c6cdb35,6,flower,critical,B,25,goal,low,exp2trials,NULL
1687453462,4aa27d087f513ce1f33293f342d13be8,PennController,9,0,experiment,NULL,VideoScrubber,slider-input,SelectedFrame,30,1687453282937,5f03c4832e8e3c608c6cdb35,5f03c4832e8e3c608c6cdb35,6,flower,critical,B,25,goal,low,exp2trials,NULL
1687453462,4aa27d087f513ce1f33293f342d13be8,PennController,9,0,experiment,NULL,PennController,8,_Trial_,End,1687453290173,5f03c4832e8e3c608c6cdb35,5f03c4832e8e3c608c6cdb35,6,flower,critical,B,25,goal,low,exp2trials,NULL
1687453462,4aa27d087f513ce1f33293f342d13be8,PennController,4,0,experiment,NULL,PennController,3,_Trial_,Start,1687453290175,5f03c4832e8e3c608c6cdb35,5f03c4832e8e3c608c6cdb35,1,vase,critical,B,50,goal,low,exp2trials,NULL
1687453462,4aa27d087f513ce1f33293f342d13be8,PennController,4,0,experiment,NULL,PennController,3,_Header_,Start,1687453290175,5f03c4832e8e3c608c6cdb35,5f03c4832e8e3c608c6cdb35,1,vase,critical,B,50,goal,low,exp2trials,NULL
1687453462,4aa27d087f513ce1f33293f342d13be8,PennController,4,0,experiment,NULL,PennController,3,_Header_,End,1687453290175,5f03c4832e8e3c608c6cdb35,5f03c4832e8e3c608c6cdb35,1,vase,critical,B,50,goal,low,exp2trials,NULL
1687453462,4aa27d087f513ce1f33293f342d13be8,PennController,4,0,experiment,NULL,Video,progression,buffer,0.009601,1687453293958,5f03c4832e8e3c608c6cdb35,5f03c4832e8e3c608c6cdb35,1,vase,critical,B,50,goal,low,exp2trials,NULL
1687453462,4aa27d087f513ce1f33293f342d13be8,PennController,4,0,experiment,NULL,VideoScrubber,slider-input,SelectedFrame,50,1687453297943,5f03c4832e8e3c608c6cdb35,5f03c4832e8e3c608c6cdb35,1,vase,critical,B,50,goal,low,exp2trials,NULL
1687453462,4aa27d087f513ce1f33293f342d13be8,PennController,4,0,experiment,NULL,PennController,3,_Trial_,End,1687453304474,5f03c4832e8e3c608c6cdb35,5f03c4832e8e3c608c6cdb35,1,vase,critical,B,50,goal,low,exp2trials,NULL
1687453462,4aa27d087f513ce1f33293f342d13be8,PennController,18,0,experiment,NULL,PennController,17,_Trial_,Start,1687453304476,5f03c4832e8e3c608c6cdb35,5f03c4832e8e3c608c6cdb35,15,zip,critical,B,25,goal,low,exp2trials,NULL
1687453462,4aa27d087f513ce1f33293f342d13be8,PennController,18,0,experiment,NULL,PennController,17,_Header_,Start,1687453304476,5f03c4832e8e3c608c6cdb35,5f03c4832e8e3c608c6cdb35,15,zip,critical,B,25,goal,low,exp2trials,NULL
1687453462,4aa27d087f513ce1f33293f342d13be8,PennController,18,0,experiment,NULL,PennController,17,_Header_,End,1687453304476,5f03c4832e8e3c608c6cdb35,5f03c4832e8e3c608c6cdb35,15,zip,critical,B,25,goal,low,exp2trials,NULL
1687453462,4aa27d087f513ce1f33293f342d13be8,PennController,18,0,experiment,NULL,Video,progression,buffer,0.004904,1687453310947,5f03c4832e8e3c608c6cdb35,5f03c4832e8e3c608c6cdb35,15,zip,critical,B,25,goal,low,exp2trials,NULL
1687453462,4aa27d087f513ce1f33293f342d13be8,PennController,18,0,experiment,NULL,VideoScrubber,slider-input,SelectedFrame,30,1687453313950,5f03c4832e8e3c608c6cdb35,5f03c4832e8e3c608c6cdb35,15,zip,critical,B,25,goal,low,exp2trials,NULL
1687453462,4aa27d087f513ce1f33293f342d13be8,PennController,18,0,experiment,NULL,PennController,17,_Trial_,End,1687453323944,5f03c4832e8e3c608c6cdb35,5f03c4832e8e3c608c6cdb35,15,zip,critical,B,25,goal,low,exp2trials,NULL
1687453462,4aa27d087f513ce1f33293f342d13be8,PennController,27,0,experiment,NULL,PennController,26,_Trial_,Start,1687453323947,5f03c4832e8e3c608c6cdb35,5f03c4832e8e3c608c6cdb35,24,match,filler,B,25,goal,GoalB,exp2trials,NULL
1687453462,4aa27d087f513ce1f33293f342d13be8,PennController,27,0,experiment,NULL,PennController,26,_Header_,Start,1687453323947,5f03c4832e8e3c608c6cdb35,5f03c4832e8e3c608c6cdb35,24,match,filler,B,25,goal,GoalB,exp2trials,NULL
1687453462,4aa27d087f513ce1f33293f342d13be8,PennController,27,0,experiment,NULL,PennController,26,_Header_,End,1687453323947,5f03c4832e8e3c608c6cdb35,5f03c4832e8e3c608c6cdb35,24,match,filler,B,25,goal,GoalB,exp2trials,NULL
1687453462,4aa27d087f513ce1f33293f342d13be8,PennController,27,0,experiment,NULL,Video,progression,buffer,0.005638,1687453328956,5f03c4832e8e3c608c6cdb35,5f03c4832e8e3c608c6cdb35,24,match,filler,B,25,goal,GoalB,exp2trials,NULL
1687453462,4aa27d087f513ce1f33293f342d13be8,PennController,27,0,experiment,NULL,VideoScrubber,slider-input,SelectedFrame,25,1687453331936,5f03c4832e8e3c608c6cdb35,5f03c4832e8e3c608c6cdb35,24,match,filler,B,25,goal,GoalB,exp2trials,NULL
1687453462,4aa27d087f513ce1f33293f342d13be8,PennController,27,0,experiment,NULL,PennController,26,_Trial_,End,1687453334055,5f03c4832e8e3c608c6cdb35,5f03c4832e8e3c608c6cdb35,24,match,filler,B,25,goal,GoalB,exp2trials,NULL
1687453462,4aa27d087f513ce1f33293f342d13be8,PennController,6,0,experiment,NULL,PennController,5,_Trial_,Start,1687453334057,5f03c4832e8e3c608c6cdb35,5f03c4832e8e3c608c6cdb35,3,clean,critical,B,25,goal,low,exp2trials,NULL
1687453462,4aa27d087f513ce1f33293f342d13be8,PennController,6,0,experiment,NULL,PennController,5,_Header_,Start,1687453334057,5f03c4832e8e3c608c6cdb35,5f03c4832e8e3c608c6cdb35,3,clean,critical,B,25,goal,low,exp2trials,NULL
1687453462,4aa27d087f513ce1f33293f342d13be8,PennController,6,0,experiment,NULL,PennController,5,_Header_,End,1687453334057,5f03c4832e8e3c608c6cdb35,5f03c4832e8e3c608c6cdb35,3,clean,critical,B,25,goal,low,exp2trials,NULL
1687453462,4aa27d087f513ce1f33293f342d13be8,PennController,6,0,experiment,NULL,Video,progression,buffer,0.002484,1687453337618,5f03c4832e8e3c608c6cdb35,5f03c4832e8e3c608c6cdb35,3,clean,critical,B,25,goal,low,exp2trials,NULL
1687453462,4aa27d087f513ce1f33293f342d13be8,PennController,6,0,experiment,NULL,VideoScrubber,slider-input,SelectedFrame,20,1687453339942,5f03c4832e8e3c608c6cdb35,5f03c4832e8e3c608c6cdb35,3,clean,critical,B,25,goal,low,exp2trials,NULL
1687453462,4aa27d087f513ce1f33293f342d13be8,PennController,6,0,experiment,NULL,PennController,5,_Trial_,End,1687453347184,5f03c4832e8e3c608c6cdb35,5f03c4832e8e3c608c6cdb35,3,clean,critical,B,25,goal,low,exp2trials,NULL
1687453462,4aa27d087f513ce1f33293f342d13be8,PennController,17,0,experiment,NULL,PennController,16,_Trial_,Start,1687453347187,5f03c4832e8e3c608c6cdb35,5f03c4832e8e3c608c6cdb35,14,cover,critical,B,75,goal,low,exp2trials,NULL
1687453462,4aa27d087f513ce1f33293f342d13be8,PennController,17,0,experiment,NULL,PennController,16,_Header_,Start,1687453347187,5f03c4832e8e3c608c6cdb35,5f03c4832e8e3c608c6cdb35,14,cover,critical,B,75,goal,low,exp2trials,NULL
1687453462,4aa27d087f513ce1f33293f342d13be8,PennController,17,0,experiment,NULL,PennController,16,_Header_,End,1687453347187,5f03c4832e8e3c608c6cdb35,5f03c4832e8e3c608c6cdb35,14,cover,critical,B,75,goal,low,exp2trials,NULL
1687453462,4aa27d087f513ce1f33293f342d13be8,PennController,17,0,experiment,NULL,Video,progression,buffer,0.006287,1687453350730,5f03c4832e8e3c608c6cdb35,5f03c4832e8e3c608c6cdb35,14,cover,critical,B,75,goal,low,exp2trials,NULL
1687453462,4aa27d087f513ce1f33293f342d13be8,PennController,17,0,experiment,NULL,VideoScrubber,slider-input,SelectedFrame,69,1687453357936,5f03c4832e8e3c608c6cdb35,5f03c4832e8e3c608c6cdb35,14,cover,critical,B,75,goal,low,exp2trials,NULL
1687453462,4aa27d087f513ce1f33293f342d13be8,PennController,17,0,experiment,NULL,PennController,16,_Trial_,End,1687453371423,5f03c4832e8e3c608c6cdb35,5f03c4832e8e3c608c6cdb35,14,cover,critical,B,75,goal,low,exp2trials,NULL
1687453462,4aa27d087f513ce1f33293f342d13be8,PennController,26,0,experiment,NULL,PennController,25,_Trial_,Start,1687453371427,5f03c4832e8e3c608c6cdb35,5f03c4832e8e3c608c6cdb35,23,color,filler,B,75,goal,GoalA,exp2trials,NULL
1687453462,4aa27d087f513ce1f33293f342d13be8,PennController,26,0,experiment,NULL,PennController,25,_Header_,Start,1687453371427,5f03c4832e8e3c608c6cdb35,5f03c4832e8e3c608c6cdb35,23,color,filler,B,75,goal,GoalA,exp2trials,NULL
1687453462,4aa27d087f513ce1f33293f342d13be8,PennController,26,0,experiment,NULL,PennController,25,_Header_,End,1687453371427,5f03c4832e8e3c608c6cdb35,5f03c4832e8e3c608c6cdb35,23,color,filler,B,75,goal,GoalA,exp2trials,NULL
1687453462,4aa27d087f513ce1f33293f342d13be8,PennController,26,0,experiment,NULL,Video,progression,buffer,0.015464,1687453374998,5f03c4832e8e3c608c6cdb35,5f03c4832e8e3c608c6cdb35,23,color,filler,B,75,goal,GoalA,exp2trials,NULL
1687453462,4aa27d087f513ce1f33293f342d13be8,PennController,26,0,experiment,NULL,VideoScrubber,slider-input,SelectedFrame,80,1687453379938,5f03c4832e8e3c608c6cdb35,5f03c4832e8e3c608c6cdb35,23,color,filler,B,75,goal,GoalA,exp2trials,NULL
1687453462,4aa27d087f513ce1f33293f342d13be8,PennController,26,0,experiment,NULL,PennController,25,_Trial_,End,1687453389232,5f03c4832e8e3c608c6cdb35,5f03c4832e8e3c608c6cdb35,23,color,filler,B,75,goal,GoalA,exp2trials,NULL
1687453462,4aa27d087f513ce1f33293f342d13be8,PennController,23,0,experiment,NULL,PennController,22,_Trial_,Start,1687453389234,5f03c4832e8e3c608c6cdb35,5f03c4832e8e3c608c6cdb35,20,cat,filler,B,75,goal,GoalB,exp2trials,NULL
1687453462,4aa27d087f513ce1f33293f342d13be8,PennController,23,0,experiment,NULL,PennController,22,_Header_,Start,1687453389234,5f03c4832e8e3c608c6cdb35,5f03c4832e8e3c608c6cdb35,20,cat,filler,B,75,goal,GoalB,exp2trials,NULL
1687453462,4aa27d087f513ce1f33293f342d13be8,PennController,23,0,experiment,NULL,PennController,22,_Header_,End,1687453389234,5f03c4832e8e3c608c6cdb35,5f03c4832e8e3c608c6cdb35,20,cat,filler,B,75,goal,GoalB,exp2trials,NULL
1687453462,4aa27d087f513ce1f33293f342d13be8,PennController,23,0,experiment,NULL,Video,progression,buffer,0.002235,1687453392939,5f03c4832e8e3c608c6cdb35,5f03c4832e8e3c608c6cdb35,20,cat,filler,B,75,goal,GoalB,exp2trials,NULL
1687453462,4aa27d087f513ce1f33293f342d13be8,PennController,23,0,experiment,NULL,VideoScrubber,slider-input,SelectedFrame,75,1687453397949,5f03c4832e8e3c608c6cdb35,5f03c4832e8e3c608c6cdb35,20,cat,filler,B,75,goal,GoalB,exp2trials,NULL
1687453462,4aa27d087f513ce1f33293f342d13be8,PennController,23,0,experiment,NULL,PennController,22,_Trial_,End,1687453402033,5f03c4832e8e3c608c6cdb35,5f03c4832e8e3c608c6cdb35,20,cat,filler,B,75,goal,GoalB,exp2trials,NULL
1687453462,4aa27d087f513ce1f33293f342d13be8,PennController,30,0,experiment,NULL,PennController,29,_Trial_,Start,1687453402036,5f03c4832e8e3c608c6cdb35,5f03c4832e8e3c608c6cdb35,27,square,filler,B,25,goal,GoalA,exp2trials,NULL
1687453462,4aa27d087f513ce1f33293f342d13be8,PennController,30,0,experiment,NULL,PennController,29,_Header_,Start,1687453402036,5f03c4832e8e3c608c6cdb35,5f03c4832e8e3c608c6cdb35,27,square,filler,B,25,goal,GoalA,exp2trials,NULL
1687453462,4aa27d087f513ce1f33293f342d13be8,PennController,30,0,experiment,NULL,PennController,29,_Header_,End,1687453402036,5f03c4832e8e3c608c6cdb35,5f03c4832e8e3c608c6cdb35,27,square,filler,B,25,goal,GoalA,exp2trials,NULL
1687453462,4aa27d087f513ce1f33293f342d13be8,PennController,30,0,experiment,NULL,Video,progression,buffer,0.005292,1687453405951,5f03c4832e8e3c608c6cdb35,5f03c4832e8e3c608c6cdb35,27,square,filler,B,25,goal,GoalA,exp2trials,NULL
1687453462,4aa27d087f513ce1f33293f342d13be8,PennController,30,0,experiment,NULL,VideoScrubber,slider-input,SelectedFrame,55,1687453408947,5f03c4832e8e3c608c6cdb35,5f03c4832e8e3c608c6cdb35,27,square,filler,B,25,goal,GoalA,exp2trials,NULL
1687453462,4aa27d087f513ce1f33293f342d13be8,PennController,30,0,experiment,NULL,PennController,29,_Trial_,End,1687453418375,5f03c4832e8e3c608c6cdb35,5f03c4832e8e3c608c6cdb35,27,square,filler,B,25,goal,GoalA,exp2trials,NULL
1687453462,4aa27d087f513ce1f33293f342d13be8,PennController,15,0,experiment,NULL,PennController,14,_Trial_,Start,1687453418377,5f03c4832e8e3c608c6cdb35,5f03c4832e8e3c608c6cdb35,12,erase,critical,B,25,goal,low,exp2trials,NULL
1687453462,4aa27d087f513ce1f33293f342d13be8,PennController,15,0,experiment,NULL,PennController,14,_Header_,Start,1687453418377,5f03c4832e8e3c608c6cdb35,5f03c4832e8e3c608c6cdb35,12,erase,critical,B,25,goal,low,exp2trials,NULL
1687453462,4aa27d087f513ce1f33293f342d13be8,PennController,15,0,experiment,NULL,PennController,14,_Header_,End,1687453418377,5f03c4832e8e3c608c6cdb35,5f03c4832e8e3c608c6cdb35,12,erase,critical,B,25,goal,low,exp2trials,NULL
1687453462,4aa27d087f513ce1f33293f342d13be8,PennController,15,0,experiment,NULL,Video,progression,buffer,0.004721,1687453421934,5f03c4832e8e3c608c6cdb35,5f03c4832e8e3c608c6cdb35,12,erase,critical,B,25,goal,low,exp2trials,NULL
1687453462,4aa27d087f513ce1f33293f342d13be8,PennController,15,0,experiment,NULL,VideoScrubber,slider-input,SelectedFrame,42,1687453424949,5f03c4832e8e3c608c6cdb35,5f03c4832e8e3c608c6cdb35,12,erase,critical,B,25,goal,low,exp2trials,NULL
1687453462,4aa27d087f513ce1f33293f342d13be8,PennController,15,0,experiment,NULL,PennController,14,_Trial_,End,1687453433535,5f03c4832e8e3c608c6cdb35,5f03c4832e8e3c608c6cdb35,12,erase,critical,B,25,goal,low,exp2trials,NULL
1687453462,4aa27d087f513ce1f33293f342d13be8,PennController,13,0,experiment,NULL,PennController,12,_Trial_,Start,1687453433538,5f03c4832e8e3c608c6cdb35,5f03c4832e8e3c608c6cdb35,10,train,critical,B,50,goal,low,exp2trials,NULL
1687453462,4aa27d087f513ce1f33293f342d13be8,PennController,13,0,experiment,NULL,PennController,12,_Header_,Start,1687453433538,5f03c4832e8e3c608c6cdb35,5f03c4832e8e3c608c6cdb35,10,train,critical,B,50,goal,low,exp2trials,NULL
1687453462,4aa27d087f513ce1f33293f342d13be8,PennController,13,0,experiment,NULL,PennController,12,_Header_,End,1687453433538,5f03c4832e8e3c608c6cdb35,5f03c4832e8e3c608c6cdb35,10,train,critical,B,50,goal,low,exp2trials,NULL
1687453462,4aa27d087f513ce1f33293f342d13be8,PennController,13,0,experiment,NULL,Video,progression,buffer,0.005252,1687453437096,5f03c4832e8e3c608c6cdb35,5f03c4832e8e3c608c6cdb35,10,train,critical,B,50,goal,low,exp2trials,NULL
1687453462,4aa27d087f513ce1f33293f342d13be8,PennController,13,0,experiment,NULL,VideoScrubber,slider-input,SelectedFrame,40,1687453440939,5f03c4832e8e3c608c6cdb35,5f03c4832e8e3c608c6cdb35,10,train,critical,B,50,goal,low,exp2trials,NULL
1687453462,4aa27d087f513ce1f33293f342d13be8,PennController,13,0,experiment,NULL,PennController,12,_Trial_,End,1687453445931,5f03c4832e8e3c608c6cdb35,5f03c4832e8e3c608c6cdb35,10,train,critical,B,50,goal,low,exp2trials,NULL
1687453462,4aa27d087f513ce1f33293f342d13be8,PennController,31,0,experiment,NULL,PennController,30,_Trial_,Start,1687453445933,5f03c4832e8e3c608c6cdb35,5f03c4832e8e3c608c6cdb35,28,sort,filler,B,50,goal,GoalB,exp2trials,NULL
1687453462,4aa27d087f513ce1f33293f342d13be8,PennController,31,0,experiment,NULL,PennController,30,_Header_,Start,1687453445933,5f03c4832e8e3c608c6cdb35,5f03c4832e8e3c608c6cdb35,28,sort,filler,B,50,goal,GoalB,exp2trials,NULL
1687453462,4aa27d087f513ce1f33293f342d13be8,PennController,31,0,experiment,NULL,PennController,30,_Header_,End,1687453445933,5f03c4832e8e3c608c6cdb35,5f03c4832e8e3c608c6cdb35,28,sort,filler,B,50,goal,GoalB,exp2trials,NULL
1687453462,4aa27d087f513ce1f33293f342d13be8,PennController,31,0,experiment,NULL,Video,progression,buffer,0.004772,1687453450944,5f03c4832e8e3c608c6cdb35,5f03c4832e8e3c608c6cdb35,28,sort,filler,B,50,goal,GoalB,exp2trials,NULL
1687453462,4aa27d087f513ce1f33293f342d13be8,PennController,31,0,experiment,NULL,VideoScrubber,slider-input,SelectedFrame,55,1687453454949,5f03c4832e8e3c608c6cdb35,5f03c4832e8e3c608c6cdb35,28,sort,filler,B,50,goal,GoalB,exp2trials,NULL
1687453462,4aa27d087f513ce1f33293f342d13be8,PennController,31,0,experiment,NULL,PennController,30,_Trial_,End,1687453462248,5f03c4832e8e3c608c6cdb35,5f03c4832e8e3c608c6cdb35,28,sort,filler,B,50,goal,GoalB,exp2trials,NULL
