#
# Results on Thursday June 22 2023 17:01:15 UTC
# USER AGENT: Mozilla/5.0 (Windows NT 10.0; Win64; x64) AppleWebKit/537.36 (KHTML, like Gecko) Chrome/114.0.0.0 Safari/537.36
# Design number was non-random = 69
#
# Columns below this comment are as follows:
# 1. Results reception time.
# 2. MD5 hash of participant's IP address.
# 3. Controller name.
# 4. Order number of item.
# 5. Inner element number.
# 6. Label.
# 7. Latin Square Group.
# 8. PennElementType.
# 9. PennElementName.
# 10. Parameter.
# 11. Value.
# 12. EventTime.
# 13. ProlificID.
# 14. Comments.
1687453275,d2d7108b8fab8dfaae9924fc1f227c2c,PennController,2,0,consent,NULL,PennController,0,_Trial_,Start,1687452833624,55c09521fdf99b1b8c34379f,NULL
1687453275,d2d7108b8fab8dfaae9924fc1f227c2c,PennController,2,0,consent,NULL,PennController,0,_Header_,Start,1687452833624,55c09521fdf99b1b8c34379f,NULL
1687453275,d2d7108b8fab8dfaae9924fc1f227c2c,PennController,2,0,consent,NULL,PennController,0,_Header_,End,1687452833643,55c09521fdf99b1b8c34379f,NULL
1687453275,d2d7108b8fab8dfaae9924fc1f227c2c,PennController,2,0,consent,NULL,PennController,0,_Trial_,End,1687452852041,55c09521fdf99b1b8c34379f,NULL
# Columns below this comment are as follows:
# 14. ID.
# 15. Comments.
1687453275,d2d7108b8fab8dfaae9924fc1f227c2c,PennController,3,0,intro,NULL,PennController,1,_Trial_,Start,1687452852042,55c09521fdf99b1b8c34379f,55c09521fdf99b1b8c34379f,NULL
1687453275,d2d7108b8fab8dfaae9924fc1f227c2c,PennController,3,0,intro,NULL,PennController,1,_Header_,Start,1687452852042,55c09521fdf99b1b8c34379f,55c09521fdf99b1b8c34379f,NULL
1687453275,d2d7108b8fab8dfaae9924fc1f227c2c,PennController,3,0,intro,NULL,PennController,1,_Header_,End,1687452852043,55c09521fdf99b1b8c34379f,55c09521fdf99b1b8c34379f,NULL
1687453275,d2d7108b8fab8dfaae9924fc1f227c2c,PennController,3,0,intro,NULL,PennController,1,_Trial_,End,1687452879936,55c09521fdf99b1b8c34379f,55c09521fdf99b1b8c34379f,NULL
# Columns below this comment are as follows:
# 15. item_number.
# 16. item.
# 17. type.
# 18. Group.
# 19. prog.
# 20. condition.
# 21. height.
# 22. exp2trials.
# 23. Comments.
1687453275,d2d7108b8fab8dfaae9924fc1f227c2c,PennController,26,0,experiment,NULL,PennController,25,_Trial_,Start,1687452879937,55c09521fdf99b1b8c34379f,55c09521fdf99b1b8c34379f,23,color,filler,G,50,nogoal,none,exp2trials,NULL
1687453275,d2d7108b8fab8dfaae9924fc1f227c2c,PennController,26,0,experiment,NULL,PennController,25,_Header_,Start,1687452879937,55c09521fdf99b1b8c34379f,55c09521fdf99b1b8c34379f,23,color,filler,G,50,nogoal,none,exp2trials,NULL
1687453275,d2d7108b8fab8dfaae9924fc1f227c2c,PennController,26,0,experiment,NULL,PennController,25,_Header_,End,1687452879937,55c09521fdf99b1b8c34379f,55c09521fdf99b1b8c34379f,23,color,filler,G,50,nogoal,none,exp2trials,NULL
1687453275,d2d7108b8fab8dfaae9924fc1f227c2c,PennController,26,0,experiment,NULL,Video,progression,buffer,0.002287,1687452883455,55c09521fdf99b1b8c34379f,55c09521fdf99b1b8c34379f,23,color,filler,G,50,nogoal,none,exp2trials,NULL
1687453275,d2d7108b8fab8dfaae9924fc1f227c2c,PennController,26,0,experiment,NULL,VideoScrubber,slider-input,SelectedFrame,45,1687452886625,55c09521fdf99b1b8c34379f,55c09521fdf99b1b8c34379f,23,color,filler,G,50,nogoal,none,exp2trials,NULL
1687453275,d2d7108b8fab8dfaae9924fc1f227c2c,PennController,26,0,experiment,NULL,PennController,25,_Trial_,End,1687452895696,55c09521fdf99b1b8c34379f,55c09521fdf99b1b8c34379f,23,color,filler,G,50,nogoal,none,exp2trials,NULL
1687453275,d2d7108b8fab8dfaae9924fc1f227c2c,PennController,21,0,experiment,NULL,PennController,20,_Trial_,Start,1687452895697,55c09521fdf99b1b8c34379f,55c09521fdf99b1b8c34379f,18,ball,critical,G,75,nogoal,none,exp2trials,NULL
1687453275,d2d7108b8fab8dfaae9924fc1f227c2c,PennController,21,0,experiment,NULL,PennController,20,_Header_,Start,1687452895697,55c09521fdf99b1b8c34379f,55c09521fdf99b1b8c34379f,18,ball,critical,G,75,nogoal,none,exp2trials,NULL
1687453275,d2d7108b8fab8dfaae9924fc1f227c2c,PennController,21,0,experiment,NULL,PennController,20,_Header_,End,1687452895697,55c09521fdf99b1b8c34379f,55c09521fdf99b1b8c34379f,18,ball,critical,G,75,nogoal,none,exp2trials,NULL
1687453275,d2d7108b8fab8dfaae9924fc1f227c2c,PennController,21,0,experiment,NULL,Video,progression,buffer,0.001604,1687452899209,55c09521fdf99b1b8c34379f,55c09521fdf99b1b8c34379f,18,ball,critical,G,75,nogoal,none,exp2trials,NULL
1687453275,d2d7108b8fab8dfaae9924fc1f227c2c,PennController,21,0,experiment,NULL,VideoScrubber,slider-input,SelectedFrame,75,1687452903373,55c09521fdf99b1b8c34379f,55c09521fdf99b1b8c34379f,18,ball,critical,G,75,nogoal,none,exp2trials,NULL
1687453275,d2d7108b8fab8dfaae9924fc1f227c2c,PennController,21,0,experiment,NULL,PennController,20,_Trial_,End,1687452909127,55c09521fdf99b1b8c34379f,55c09521fdf99b1b8c34379f,18,ball,critical,G,75,nogoal,none,exp2trials,NULL
1687453275,d2d7108b8fab8dfaae9924fc1f227c2c,PennController,31,0,experiment,NULL,PennController,30,_Trial_,Start,1687452909127,55c09521fdf99b1b8c34379f,55c09521fdf99b1b8c34379f,28,sort,filler,G,25,nogoal,none,exp2trials,NULL
1687453275,d2d7108b8fab8dfaae9924fc1f227c2c,PennController,31,0,experiment,NULL,PennController,30,_Header_,Start,1687452909127,55c09521fdf99b1b8c34379f,55c09521fdf99b1b8c34379f,28,sort,filler,G,25,nogoal,none,exp2trials,NULL
1687453275,d2d7108b8fab8dfaae9924fc1f227c2c,PennController,31,0,experiment,NULL,PennController,30,_Header_,End,1687452909127,55c09521fdf99b1b8c34379f,55c09521fdf99b1b8c34379f,28,sort,filler,G,25,nogoal,none,exp2trials,NULL
1687453275,d2d7108b8fab8dfaae9924fc1f227c2c,PennController,31,0,experiment,NULL,Video,progression,buffer,0.001841,1687452912641,55c09521fdf99b1b8c34379f,55c09521fdf99b1b8c34379f,28,sort,filler,G,25,nogoal,none,exp2trials,NULL
1687453275,d2d7108b8fab8dfaae9924fc1f227c2c,PennController,31,0,experiment,NULL,VideoScrubber,slider-input,SelectedFrame,30,1687452914807,55c09521fdf99b1b8c34379f,55c09521fdf99b1b8c34379f,28,sort,filler,G,25,nogoal,none,exp2trials,NULL
1687453275,d2d7108b8fab8dfaae9924fc1f227c2c,PennController,31,0,experiment,NULL,PennController,30,_Trial_,End,1687452924702,55c09521fdf99b1b8c34379f,55c09521fdf99b1b8c34379f,28,sort,filler,G,25,nogoal,none,exp2trials,NULL
1687453275,d2d7108b8fab8dfaae9924fc1f227c2c,PennController,23,0,experiment,NULL,PennController,22,_Trial_,Start,1687452924703,55c09521fdf99b1b8c34379f,55c09521fdf99b1b8c34379f,20,cat,filler,G,50,nogoal,none,exp2trials,NULL
1687453275,d2d7108b8fab8dfaae9924fc1f227c2c,PennController,23,0,experiment,NULL,PennController,22,_Header_,Start,1687452924703,55c09521fdf99b1b8c34379f,55c09521fdf99b1b8c34379f,20,cat,filler,G,50,nogoal,none,exp2trials,NULL
1687453275,d2d7108b8fab8dfaae9924fc1f227c2c,PennController,23,0,experiment,NULL,PennController,22,_Header_,End,1687452924703,55c09521fdf99b1b8c34379f,55c09521fdf99b1b8c34379f,20,cat,filler,G,50,nogoal,none,exp2trials,NULL
1687453275,d2d7108b8fab8dfaae9924fc1f227c2c,PennController,23,0,experiment,NULL,Video,progression,buffer,0.001712,1687452928219,55c09521fdf99b1b8c34379f,55c09521fdf99b1b8c34379f,20,cat,filler,G,50,nogoal,none,exp2trials,NULL
1687453275,d2d7108b8fab8dfaae9924fc1f227c2c,PennController,23,0,experiment,NULL,VideoScrubber,slider-input,SelectedFrame,50,1687452931390,55c09521fdf99b1b8c34379f,55c09521fdf99b1b8c34379f,20,cat,filler,G,50,nogoal,none,exp2trials,NULL
1687453275,d2d7108b8fab8dfaae9924fc1f227c2c,PennController,23,0,experiment,NULL,PennController,22,_Trial_,End,1687452936359,55c09521fdf99b1b8c34379f,55c09521fdf99b1b8c34379f,20,cat,filler,G,50,nogoal,none,exp2trials,NULL
1687453275,d2d7108b8fab8dfaae9924fc1f227c2c,PennController,4,0,experiment,NULL,PennController,3,_Trial_,Start,1687452936359,55c09521fdf99b1b8c34379f,55c09521fdf99b1b8c34379f,1,vase,critical,G,25,nogoal,none,exp2trials,NULL
1687453275,d2d7108b8fab8dfaae9924fc1f227c2c,PennController,4,0,experiment,NULL,PennController,3,_Header_,Start,1687452936359,55c09521fdf99b1b8c34379f,55c09521fdf99b1b8c34379f,1,vase,critical,G,25,nogoal,none,exp2trials,NULL
1687453275,d2d7108b8fab8dfaae9924fc1f227c2c,PennController,4,0,experiment,NULL,PennController,3,_Header_,End,1687452936359,55c09521fdf99b1b8c34379f,55c09521fdf99b1b8c34379f,1,vase,critical,G,25,nogoal,none,exp2trials,NULL
1687453275,d2d7108b8fab8dfaae9924fc1f227c2c,PennController,4,0,experiment,NULL,Video,progression,buffer,0.002435,1687452939872,55c09521fdf99b1b8c34379f,55c09521fdf99b1b8c34379f,1,vase,critical,G,25,nogoal,none,exp2trials,NULL
1687453275,d2d7108b8fab8dfaae9924fc1f227c2c,PennController,4,0,experiment,NULL,VideoScrubber,slider-input,SelectedFrame,25,1687452942039,55c09521fdf99b1b8c34379f,55c09521fdf99b1b8c34379f,1,vase,critical,G,25,nogoal,none,exp2trials,NULL
1687453275,d2d7108b8fab8dfaae9924fc1f227c2c,PennController,4,0,experiment,NULL,PennController,3,_Trial_,End,1687452948726,55c09521fdf99b1b8c34379f,55c09521fdf99b1b8c34379f,1,vase,critical,G,25,nogoal,none,exp2trials,NULL
1687453275,d2d7108b8fab8dfaae9924fc1f227c2c,PennController,30,0,experiment,NULL,PennController,29,_Trial_,Start,1687452948727,55c09521fdf99b1b8c34379f,55c09521fdf99b1b8c34379f,27,square,filler,G,75,nogoal,none,exp2trials,NULL
1687453275,d2d7108b8fab8dfaae9924fc1f227c2c,PennController,30,0,experiment,NULL,PennController,29,_Header_,Start,1687452948727,55c09521fdf99b1b8c34379f,55c09521fdf99b1b8c34379f,27,square,filler,G,75,nogoal,none,exp2trials,NULL
1687453275,d2d7108b8fab8dfaae9924fc1f227c2c,PennController,30,0,experiment,NULL,PennController,29,_Header_,End,1687452948727,55c09521fdf99b1b8c34379f,55c09521fdf99b1b8c34379f,27,square,filler,G,75,nogoal,none,exp2trials,NULL
1687453275,d2d7108b8fab8dfaae9924fc1f227c2c,PennController,30,0,experiment,NULL,Video,progression,buffer,0.002202,1687452952244,55c09521fdf99b1b8c34379f,55c09521fdf99b1b8c34379f,27,square,filler,G,75,nogoal,none,exp2trials,NULL
1687453275,d2d7108b8fab8dfaae9924fc1f227c2c,PennController,30,0,experiment,NULL,VideoScrubber,slider-input,SelectedFrame,75,1687452956406,55c09521fdf99b1b8c34379f,55c09521fdf99b1b8c34379f,27,square,filler,G,75,nogoal,none,exp2trials,NULL
1687453275,d2d7108b8fab8dfaae9924fc1f227c2c,PennController,30,0,experiment,NULL,PennController,29,_Trial_,End,1687452966454,55c09521fdf99b1b8c34379f,55c09521fdf99b1b8c34379f,27,square,filler,G,75,nogoal,none,exp2trials,NULL
1687453275,d2d7108b8fab8dfaae9924fc1f227c2c,PennController,11,0,experiment,NULL,PennController,10,_Trial_,Start,1687452966455,55c09521fdf99b1b8c34379f,55c09521fdf99b1b8c34379f,8,cucumber,critical,G,50,nogoal,none,exp2trials,NULL
1687453275,d2d7108b8fab8dfaae9924fc1f227c2c,PennController,11,0,experiment,NULL,PennController,10,_Header_,Start,1687452966455,55c09521fdf99b1b8c34379f,55c09521fdf99b1b8c34379f,8,cucumber,critical,G,50,nogoal,none,exp2trials,NULL
1687453275,d2d7108b8fab8dfaae9924fc1f227c2c,PennController,11,0,experiment,NULL,PennController,10,_Header_,End,1687452966455,55c09521fdf99b1b8c34379f,55c09521fdf99b1b8c34379f,8,cucumber,critical,G,50,nogoal,none,exp2trials,NULL
1687453275,d2d7108b8fab8dfaae9924fc1f227c2c,PennController,11,0,experiment,NULL,Video,progression,buffer,0.001777,1687452969967,55c09521fdf99b1b8c34379f,55c09521fdf99b1b8c34379f,8,cucumber,critical,G,50,nogoal,none,exp2trials,NULL
1687453275,d2d7108b8fab8dfaae9924fc1f227c2c,PennController,11,0,experiment,NULL,VideoScrubber,slider-input,SelectedFrame,51,1687452974526,55c09521fdf99b1b8c34379f,55c09521fdf99b1b8c34379f,8,cucumber,critical,G,50,nogoal,none,exp2trials,NULL
1687453275,d2d7108b8fab8dfaae9924fc1f227c2c,PennController,11,0,experiment,NULL,PennController,10,_Trial_,End,1687452985814,55c09521fdf99b1b8c34379f,55c09521fdf99b1b8c34379f,8,cucumber,critical,G,50,nogoal,none,exp2trials,NULL
1687453275,d2d7108b8fab8dfaae9924fc1f227c2c,PennController,17,0,experiment,NULL,PennController,16,_Trial_,Start,1687452985815,55c09521fdf99b1b8c34379f,55c09521fdf99b1b8c34379f,14,cover,critical,G,50,nogoal,none,exp2trials,NULL
1687453275,d2d7108b8fab8dfaae9924fc1f227c2c,PennController,17,0,experiment,NULL,PennController,16,_Header_,Start,1687452985815,55c09521fdf99b1b8c34379f,55c09521fdf99b1b8c34379f,14,cover,critical,G,50,nogoal,none,exp2trials,NULL
1687453275,d2d7108b8fab8dfaae9924fc1f227c2c,PennController,17,0,experiment,NULL,PennController,16,_Header_,End,1687452985815,55c09521fdf99b1b8c34379f,55c09521fdf99b1b8c34379f,14,cover,critical,G,50,nogoal,none,exp2trials,NULL
1687453275,d2d7108b8fab8dfaae9924fc1f227c2c,PennController,17,0,experiment,NULL,Video,progression,buffer,0.001741,1687452989329,55c09521fdf99b1b8c34379f,55c09521fdf99b1b8c34379f,14,cover,critical,G,50,nogoal,none,exp2trials,NULL
1687453275,d2d7108b8fab8dfaae9924fc1f227c2c,PennController,17,0,experiment,NULL,VideoScrubber,slider-input,SelectedFrame,51,1687452993891,55c09521fdf99b1b8c34379f,55c09521fdf99b1b8c34379f,14,cover,critical,G,50,nogoal,none,exp2trials,NULL
1687453275,d2d7108b8fab8dfaae9924fc1f227c2c,PennController,17,0,experiment,NULL,PennController,16,_Trial_,End,1687453001054,55c09521fdf99b1b8c34379f,55c09521fdf99b1b8c34379f,14,cover,critical,G,50,nogoal,none,exp2trials,NULL
1687453275,d2d7108b8fab8dfaae9924fc1f227c2c,PennController,18,0,experiment,NULL,PennController,17,_Trial_,Start,1687453001054,55c09521fdf99b1b8c34379f,55c09521fdf99b1b8c34379f,15,zip,critical,G,75,nogoal,none,exp2trials,NULL
1687453275,d2d7108b8fab8dfaae9924fc1f227c2c,PennController,18,0,experiment,NULL,PennController,17,_Header_,Start,1687453001054,55c09521fdf99b1b8c34379f,55c09521fdf99b1b8c34379f,15,zip,critical,G,75,nogoal,none,exp2trials,NULL
1687453275,d2d7108b8fab8dfaae9924fc1f227c2c,PennController,18,0,experiment,NULL,PennController,17,_Header_,End,1687453001055,55c09521fdf99b1b8c34379f,55c09521fdf99b1b8c34379f,15,zip,critical,G,75,nogoal,none,exp2trials,NULL
1687453275,d2d7108b8fab8dfaae9924fc1f227c2c,PennController,18,0,experiment,NULL,Video,progression,buffer,0.002296,1687453004571,55c09521fdf99b1b8c34379f,55c09521fdf99b1b8c34379f,15,zip,critical,G,75,nogoal,none,exp2trials,NULL
1687453275,d2d7108b8fab8dfaae9924fc1f227c2c,PennController,18,0,experiment,NULL,VideoScrubber,slider-input,SelectedFrame,70,1687453007939,55c09521fdf99b1b8c34379f,55c09521fdf99b1b8c34379f,15,zip,critical,G,75,nogoal,none,exp2trials,NULL
1687453275,d2d7108b8fab8dfaae9924fc1f227c2c,PennController,18,0,experiment,NULL,PennController,17,_Trial_,End,1687453018589,55c09521fdf99b1b8c34379f,55c09521fdf99b1b8c34379f,15,zip,critical,G,75,nogoal,none,exp2trials,NULL
1687453275,d2d7108b8fab8dfaae9924fc1f227c2c,PennController,13,0,experiment,NULL,PennController,12,_Trial_,Start,1687453018590,55c09521fdf99b1b8c34379f,55c09521fdf99b1b8c34379f,10,train,critical,G,25,nogoal,none,exp2trials,NULL
1687453275,d2d7108b8fab8dfaae9924fc1f227c2c,PennController,13,0,experiment,NULL,PennController,12,_Header_,Start,1687453018590,55c09521fdf99b1b8c34379f,55c09521fdf99b1b8c34379f,10,train,critical,G,25,nogoal,none,exp2trials,NULL
1687453275,d2d7108b8fab8dfaae9924fc1f227c2c,PennController,13,0,experiment,NULL,PennController,12,_Header_,End,1687453018590,55c09521fdf99b1b8c34379f,55c09521fdf99b1b8c34379f,10,train,critical,G,25,nogoal,none,exp2trials,NULL
1687453275,d2d7108b8fab8dfaae9924fc1f227c2c,PennController,13,0,experiment,NULL,Video,progression,buffer,0.001642,1687453022101,55c09521fdf99b1b8c34379f,55c09521fdf99b1b8c34379f,10,train,critical,G,25,nogoal,none,exp2trials,NULL
1687453275,d2d7108b8fab8dfaae9924fc1f227c2c,PennController,13,0,experiment,NULL,VideoScrubber,slider-input,SelectedFrame,25,1687453024254,55c09521fdf99b1b8c34379f,55c09521fdf99b1b8c34379f,10,train,critical,G,25,nogoal,none,exp2trials,NULL
1687453275,d2d7108b8fab8dfaae9924fc1f227c2c,PennController,13,0,experiment,NULL,PennController,12,_Trial_,End,1687453028701,55c09521fdf99b1b8c34379f,55c09521fdf99b1b8c34379f,10,train,critical,G,25,nogoal,none,exp2trials,NULL
1687453275,d2d7108b8fab8dfaae9924fc1f227c2c,PennController,14,0,experiment,NULL,PennController,13,_Trial_,Start,1687453028701,55c09521fdf99b1b8c34379f,55c09521fdf99b1b8c34379f,11,beads,critical,G,50,nogoal,none,exp2trials,NULL
1687453275,d2d7108b8fab8dfaae9924fc1f227c2c,PennController,14,0,experiment,NULL,PennController,13,_Header_,Start,1687453028701,55c09521fdf99b1b8c34379f,55c09521fdf99b1b8c34379f,11,beads,critical,G,50,nogoal,none,exp2trials,NULL
1687453275,d2d7108b8fab8dfaae9924fc1f227c2c,PennController,14,0,experiment,NULL,PennController,13,_Header_,End,1687453028702,55c09521fdf99b1b8c34379f,55c09521fdf99b1b8c34379f,11,beads,critical,G,50,nogoal,none,exp2trials,NULL
1687453275,d2d7108b8fab8dfaae9924fc1f227c2c,PennController,14,0,experiment,NULL,Video,progression,buffer,0.001237,1687453032217,55c09521fdf99b1b8c34379f,55c09521fdf99b1b8c34379f,11,beads,critical,G,50,nogoal,none,exp2trials,NULL
1687453275,d2d7108b8fab8dfaae9924fc1f227c2c,PennController,14,0,experiment,NULL,VideoScrubber,slider-input,SelectedFrame,50,1687453035373,55c09521fdf99b1b8c34379f,55c09521fdf99b1b8c34379f,11,beads,critical,G,50,nogoal,none,exp2trials,NULL
1687453275,d2d7108b8fab8dfaae9924fc1f227c2c,PennController,14,0,experiment,NULL,PennController,13,_Trial_,End,1687453041925,55c09521fdf99b1b8c34379f,55c09521fdf99b1b8c34379f,11,beads,critical,G,50,nogoal,none,exp2trials,NULL
1687453275,d2d7108b8fab8dfaae9924fc1f227c2c,PennController,9,0,experiment,NULL,PennController,8,_Trial_,Start,1687453041926,55c09521fdf99b1b8c34379f,55c09521fdf99b1b8c34379f,6,flower,critical,G,75,nogoal,none,exp2trials,NULL
1687453275,d2d7108b8fab8dfaae9924fc1f227c2c,PennController,9,0,experiment,NULL,PennController,8,_Header_,Start,1687453041926,55c09521fdf99b1b8c34379f,55c09521fdf99b1b8c34379f,6,flower,critical,G,75,nogoal,none,exp2trials,NULL
1687453275,d2d7108b8fab8dfaae9924fc1f227c2c,PennController,9,0,experiment,NULL,PennController,8,_Header_,End,1687453041926,55c09521fdf99b1b8c34379f,55c09521fdf99b1b8c34379f,6,flower,critical,G,75,nogoal,none,exp2trials,NULL
1687453275,d2d7108b8fab8dfaae9924fc1f227c2c,PennController,9,0,experiment,NULL,Video,progression,buffer,0.001161,1687453045442,55c09521fdf99b1b8c34379f,55c09521fdf99b1b8c34379f,6,flower,critical,G,75,nogoal,none,exp2trials,NULL
1687453275,d2d7108b8fab8dfaae9924fc1f227c2c,PennController,9,0,experiment,NULL,VideoScrubber,slider-input,SelectedFrame,80,1687453049606,55c09521fdf99b1b8c34379f,55c09521fdf99b1b8c34379f,6,flower,critical,G,75,nogoal,none,exp2trials,NULL
1687453275,d2d7108b8fab8dfaae9924fc1f227c2c,PennController,9,0,experiment,NULL,PennController,8,_Trial_,End,1687453053829,55c09521fdf99b1b8c34379f,55c09521fdf99b1b8c34379f,6,flower,critical,G,75,nogoal,none,exp2trials,NULL
1687453275,d2d7108b8fab8dfaae9924fc1f227c2c,PennController,10,0,experiment,NULL,PennController,9,_Trial_,Start,1687453053830,55c09521fdf99b1b8c34379f,55c09521fdf99b1b8c34379f,7,stack,critical,G,25,nogoal,none,exp2trials,NULL
1687453275,d2d7108b8fab8dfaae9924fc1f227c2c,PennController,10,0,experiment,NULL,PennController,9,_Header_,Start,1687453053830,55c09521fdf99b1b8c34379f,55c09521fdf99b1b8c34379f,7,stack,critical,G,25,nogoal,none,exp2trials,NULL
1687453275,d2d7108b8fab8dfaae9924fc1f227c2c,PennController,10,0,experiment,NULL,PennController,9,_Header_,End,1687453053830,55c09521fdf99b1b8c34379f,55c09521fdf99b1b8c34379f,7,stack,critical,G,25,nogoal,none,exp2trials,NULL
1687453275,d2d7108b8fab8dfaae9924fc1f227c2c,PennController,10,0,experiment,NULL,Video,progression,buffer,0.003083,1687453057349,55c09521fdf99b1b8c34379f,55c09521fdf99b1b8c34379f,7,stack,critical,G,25,nogoal,none,exp2trials,NULL
1687453275,d2d7108b8fab8dfaae9924fc1f227c2c,PennController,10,0,experiment,NULL,VideoScrubber,slider-input,SelectedFrame,25,1687453059510,55c09521fdf99b1b8c34379f,55c09521fdf99b1b8c34379f,7,stack,critical,G,25,nogoal,none,exp2trials,NULL
1687453275,d2d7108b8fab8dfaae9924fc1f227c2c,PennController,10,0,experiment,NULL,PennController,9,_Trial_,End,1687453067021,55c09521fdf99b1b8c34379f,55c09521fdf99b1b8c34379f,7,stack,critical,G,25,nogoal,none,exp2trials,NULL
1687453275,d2d7108b8fab8dfaae9924fc1f227c2c,PennController,22,0,experiment,NULL,PennController,21,_Trial_,Start,1687453067022,55c09521fdf99b1b8c34379f,55c09521fdf99b1b8c34379f,19,cup,filler,G,25,nogoal,none,exp2trials,NULL
1687453275,d2d7108b8fab8dfaae9924fc1f227c2c,PennController,22,0,experiment,NULL,PennController,21,_Header_,Start,1687453067022,55c09521fdf99b1b8c34379f,55c09521fdf99b1b8c34379f,19,cup,filler,G,25,nogoal,none,exp2trials,NULL
1687453275,d2d7108b8fab8dfaae9924fc1f227c2c,PennController,22,0,experiment,NULL,PennController,21,_Header_,End,1687453067022,55c09521fdf99b1b8c34379f,55c09521fdf99b1b8c34379f,19,cup,filler,G,25,nogoal,none,exp2trials,NULL
1687453275,d2d7108b8fab8dfaae9924fc1f227c2c,PennController,22,0,experiment,NULL,Video,progression,buffer,0.00148,1687453070538,55c09521fdf99b1b8c34379f,55c09521fdf99b1b8c34379f,19,cup,filler,G,25,nogoal,none,exp2trials,NULL
1687453275,d2d7108b8fab8dfaae9924fc1f227c2c,PennController,22,0,experiment,NULL,VideoScrubber,slider-input,SelectedFrame,25,1687453072705,55c09521fdf99b1b8c34379f,55c09521fdf99b1b8c34379f,19,cup,filler,G,25,nogoal,none,exp2trials,NULL
1687453275,d2d7108b8fab8dfaae9924fc1f227c2c,PennController,22,0,experiment,NULL,PennController,21,_Trial_,End,1687453078478,55c09521fdf99b1b8c34379f,55c09521fdf99b1b8c34379f,19,cup,filler,G,25,nogoal,none,exp2trials,NULL
1687453275,d2d7108b8fab8dfaae9924fc1f227c2c,PennController,27,0,experiment,NULL,PennController,26,_Trial_,Start,1687453078478,55c09521fdf99b1b8c34379f,55c09521fdf99b1b8c34379f,24,match,filler,G,75,nogoal,none,exp2trials,NULL
1687453275,d2d7108b8fab8dfaae9924fc1f227c2c,PennController,27,0,experiment,NULL,PennController,26,_Header_,Start,1687453078478,55c09521fdf99b1b8c34379f,55c09521fdf99b1b8c34379f,24,match,filler,G,75,nogoal,none,exp2trials,NULL
1687453275,d2d7108b8fab8dfaae9924fc1f227c2c,PennController,27,0,experiment,NULL,PennController,26,_Header_,End,1687453078478,55c09521fdf99b1b8c34379f,55c09521fdf99b1b8c34379f,24,match,filler,G,75,nogoal,none,exp2trials,NULL
1687453275,d2d7108b8fab8dfaae9924fc1f227c2c,PennController,27,0,experiment,NULL,Video,progression,buffer,0.001618,1687453081992,55c09521fdf99b1b8c34379f,55c09521fdf99b1b8c34379f,24,match,filler,G,75,nogoal,none,exp2trials,NULL
1687453275,d2d7108b8fab8dfaae9924fc1f227c2c,PennController,27,0,experiment,NULL,VideoScrubber,slider-input,SelectedFrame,75,1687453086156,55c09521fdf99b1b8c34379f,55c09521fdf99b1b8c34379f,24,match,filler,G,75,nogoal,none,exp2trials,NULL
1687453275,d2d7108b8fab8dfaae9924fc1f227c2c,PennController,27,0,experiment,NULL,PennController,26,_Trial_,End,1687453093613,55c09521fdf99b1b8c34379f,55c09521fdf99b1b8c34379f,24,match,filler,G,75,nogoal,none,exp2trials,NULL
1687453275,d2d7108b8fab8dfaae9924fc1f227c2c,PennController,12,0,experiment,NULL,PennController,11,_Trial_,Start,1687453093614,55c09521fdf99b1b8c34379f,55c09521fdf99b1b8c34379f,9,cake,critical,G,75,nogoal,none,exp2trials,NULL
1687453275,d2d7108b8fab8dfaae9924fc1f227c2c,PennController,12,0,experiment,NULL,PennController,11,_Header_,Start,1687453093614,55c09521fdf99b1b8c34379f,55c09521fdf99b1b8c34379f,9,cake,critical,G,75,nogoal,none,exp2trials,NULL
1687453275,d2d7108b8fab8dfaae9924fc1f227c2c,PennController,12,0,experiment,NULL,PennController,11,_Header_,End,1687453093614,55c09521fdf99b1b8c34379f,55c09521fdf99b1b8c34379f,9,cake,critical,G,75,nogoal,none,exp2trials,NULL
1687453275,d2d7108b8fab8dfaae9924fc1f227c2c,PennController,12,0,experiment,NULL,Video,progression,buffer,0.002272,1687453097126,55c09521fdf99b1b8c34379f,55c09521fdf99b1b8c34379f,9,cake,critical,G,75,nogoal,none,exp2trials,NULL
1687453275,d2d7108b8fab8dfaae9924fc1f227c2c,PennController,12,0,experiment,NULL,VideoScrubber,slider-input,SelectedFrame,78,1687453103289,55c09521fdf99b1b8c34379f,55c09521fdf99b1b8c34379f,9,cake,critical,G,75,nogoal,none,exp2trials,NULL
1687453275,d2d7108b8fab8dfaae9924fc1f227c2c,PennController,12,0,experiment,NULL,PennController,11,_Trial_,End,1687453108957,55c09521fdf99b1b8c34379f,55c09521fdf99b1b8c34379f,9,cake,critical,G,75,nogoal,none,exp2trials,NULL
1687453275,d2d7108b8fab8dfaae9924fc1f227c2c,PennController,25,0,experiment,NULL,PennController,24,_Trial_,Start,1687453108958,55c09521fdf99b1b8c34379f,55c09521fdf99b1b8c34379f,22,wall,filler,G,25,nogoal,none,exp2trials,NULL
1687453275,d2d7108b8fab8dfaae9924fc1f227c2c,PennController,25,0,experiment,NULL,PennController,24,_Header_,Start,1687453108958,55c09521fdf99b1b8c34379f,55c09521fdf99b1b8c34379f,22,wall,filler,G,25,nogoal,none,exp2trials,NULL
1687453275,d2d7108b8fab8dfaae9924fc1f227c2c,PennController,25,0,experiment,NULL,PennController,24,_Header_,End,1687453108958,55c09521fdf99b1b8c34379f,55c09521fdf99b1b8c34379f,22,wall,filler,G,25,nogoal,none,exp2trials,NULL
1687453275,d2d7108b8fab8dfaae9924fc1f227c2c,PennController,25,0,experiment,NULL,Video,progression,buffer,0.00127,1687453112468,55c09521fdf99b1b8c34379f,55c09521fdf99b1b8c34379f,22,wall,filler,G,25,nogoal,none,exp2trials,NULL
1687453275,d2d7108b8fab8dfaae9924fc1f227c2c,PennController,25,0,experiment,NULL,VideoScrubber,slider-input,SelectedFrame,25,1687453114623,55c09521fdf99b1b8c34379f,55c09521fdf99b1b8c34379f,22,wall,filler,G,25,nogoal,none,exp2trials,NULL
1687453275,d2d7108b8fab8dfaae9924fc1f227c2c,PennController,25,0,experiment,NULL,PennController,24,_Trial_,End,1687453118661,55c09521fdf99b1b8c34379f,55c09521fdf99b1b8c34379f,22,wall,filler,G,25,nogoal,none,exp2trials,NULL
1687453275,d2d7108b8fab8dfaae9924fc1f227c2c,PennController,5,0,experiment,NULL,PennController,4,_Trial_,Start,1687453118662,55c09521fdf99b1b8c34379f,55c09521fdf99b1b8c34379f,2,door,critical,G,50,nogoal,none,exp2trials,NULL
1687453275,d2d7108b8fab8dfaae9924fc1f227c2c,PennController,5,0,experiment,NULL,PennController,4,_Header_,Start,1687453118662,55c09521fdf99b1b8c34379f,55c09521fdf99b1b8c34379f,2,door,critical,G,50,nogoal,none,exp2trials,NULL
1687453275,d2d7108b8fab8dfaae9924fc1f227c2c,PennController,5,0,experiment,NULL,PennController,4,_Header_,End,1687453118662,55c09521fdf99b1b8c34379f,55c09521fdf99b1b8c34379f,2,door,critical,G,50,nogoal,none,exp2trials,NULL
1687453275,d2d7108b8fab8dfaae9924fc1f227c2c,PennController,5,0,experiment,NULL,Video,progression,buffer,0.002393,1687453122177,55c09521fdf99b1b8c34379f,55c09521fdf99b1b8c34379f,2,door,critical,G,50,nogoal,none,exp2trials,NULL
1687453275,d2d7108b8fab8dfaae9924fc1f227c2c,PennController,5,0,experiment,NULL,VideoScrubber,slider-input,SelectedFrame,40,1687453125338,55c09521fdf99b1b8c34379f,55c09521fdf99b1b8c34379f,2,door,critical,G,50,nogoal,none,exp2trials,NULL
1687453275,d2d7108b8fab8dfaae9924fc1f227c2c,PennController,5,0,experiment,NULL,PennController,4,_Trial_,End,1687453134245,55c09521fdf99b1b8c34379f,55c09521fdf99b1b8c34379f,2,door,critical,G,50,nogoal,none,exp2trials,NULL
1687453275,d2d7108b8fab8dfaae9924fc1f227c2c,PennController,29,0,experiment,NULL,PennController,28,_Trial_,Start,1687453134245,55c09521fdf99b1b8c34379f,55c09521fdf99b1b8c34379f,26,sandwich,filler,G,50,nogoal,none,exp2trials,NULL
1687453275,d2d7108b8fab8dfaae9924fc1f227c2c,PennController,29,0,experiment,NULL,PennController,28,_Header_,Start,1687453134245,55c09521fdf99b1b8c34379f,55c09521fdf99b1b8c34379f,26,sandwich,filler,G,50,nogoal,none,exp2trials,NULL
1687453275,d2d7108b8fab8dfaae9924fc1f227c2c,PennController,29,0,experiment,NULL,PennController,28,_Header_,End,1687453134245,55c09521fdf99b1b8c34379f,55c09521fdf99b1b8c34379f,26,sandwich,filler,G,50,nogoal,none,exp2trials,NULL
1687453275,d2d7108b8fab8dfaae9924fc1f227c2c,PennController,29,0,experiment,NULL,Video,progression,buffer,0.001229,1687453137760,55c09521fdf99b1b8c34379f,55c09521fdf99b1b8c34379f,26,sandwich,filler,G,50,nogoal,none,exp2trials,NULL
1687453275,d2d7108b8fab8dfaae9924fc1f227c2c,PennController,29,0,experiment,NULL,VideoScrubber,slider-input,SelectedFrame,40,1687453140925,55c09521fdf99b1b8c34379f,55c09521fdf99b1b8c34379f,26,sandwich,filler,G,50,nogoal,none,exp2trials,NULL
1687453275,d2d7108b8fab8dfaae9924fc1f227c2c,PennController,29,0,experiment,NULL,PennController,28,_Trial_,End,1687453147405,55c09521fdf99b1b8c34379f,55c09521fdf99b1b8c34379f,26,sandwich,filler,G,50,nogoal,none,exp2trials,NULL
1687453275,d2d7108b8fab8dfaae9924fc1f227c2c,PennController,20,0,experiment,NULL,PennController,19,_Trial_,Start,1687453147405,55c09521fdf99b1b8c34379f,55c09521fdf99b1b8c34379f,17,roll,critical,G,50,nogoal,none,exp2trials,NULL
1687453275,d2d7108b8fab8dfaae9924fc1f227c2c,PennController,20,0,experiment,NULL,PennController,19,_Header_,Start,1687453147405,55c09521fdf99b1b8c34379f,55c09521fdf99b1b8c34379f,17,roll,critical,G,50,nogoal,none,exp2trials,NULL
1687453275,d2d7108b8fab8dfaae9924fc1f227c2c,PennController,20,0,experiment,NULL,PennController,19,_Header_,End,1687453147405,55c09521fdf99b1b8c34379f,55c09521fdf99b1b8c34379f,17,roll,critical,G,50,nogoal,none,exp2trials,NULL
1687453275,d2d7108b8fab8dfaae9924fc1f227c2c,PennController,20,0,experiment,NULL,Video,progression,buffer,0.002375,1687453150921,55c09521fdf99b1b8c34379f,55c09521fdf99b1b8c34379f,17,roll,critical,G,50,nogoal,none,exp2trials,NULL
1687453275,d2d7108b8fab8dfaae9924fc1f227c2c,PennController,20,0,experiment,NULL,VideoScrubber,slider-input,SelectedFrame,50,1687453154088,55c09521fdf99b1b8c34379f,55c09521fdf99b1b8c34379f,17,roll,critical,G,50,nogoal,none,exp2trials,NULL
1687453275,d2d7108b8fab8dfaae9924fc1f227c2c,PennController,20,0,experiment,NULL,PennController,19,_Trial_,End,1687453162245,55c09521fdf99b1b8c34379f,55c09521fdf99b1b8c34379f,17,roll,critical,G,50,nogoal,none,exp2trials,NULL
1687453275,d2d7108b8fab8dfaae9924fc1f227c2c,PennController,19,0,experiment,NULL,PennController,18,_Trial_,Start,1687453162246,55c09521fdf99b1b8c34379f,55c09521fdf99b1b8c34379f,16,blinds,critical,G,25,nogoal,none,exp2trials,NULL
1687453275,d2d7108b8fab8dfaae9924fc1f227c2c,PennController,19,0,experiment,NULL,PennController,18,_Header_,Start,1687453162246,55c09521fdf99b1b8c34379f,55c09521fdf99b1b8c34379f,16,blinds,critical,G,25,nogoal,none,exp2trials,NULL
1687453275,d2d7108b8fab8dfaae9924fc1f227c2c,PennController,19,0,experiment,NULL,PennController,18,_Header_,End,1687453162246,55c09521fdf99b1b8c34379f,55c09521fdf99b1b8c34379f,16,blinds,critical,G,25,nogoal,none,exp2trials,NULL
1687453275,d2d7108b8fab8dfaae9924fc1f227c2c,PennController,19,0,experiment,NULL,Video,progression,buffer,0.001578,1687453165757,55c09521fdf99b1b8c34379f,55c09521fdf99b1b8c34379f,16,blinds,critical,G,25,nogoal,none,exp2trials,NULL
1687453275,d2d7108b8fab8dfaae9924fc1f227c2c,PennController,19,0,experiment,NULL,VideoScrubber,slider-input,SelectedFrame,21,1687453168522,55c09521fdf99b1b8c34379f,55c09521fdf99b1b8c34379f,16,blinds,critical,G,25,nogoal,none,exp2trials,NULL
1687453275,d2d7108b8fab8dfaae9924fc1f227c2c,PennController,19,0,experiment,NULL,PennController,18,_Trial_,End,1687453173397,55c09521fdf99b1b8c34379f,55c09521fdf99b1b8c34379f,16,blinds,critical,G,25,nogoal,none,exp2trials,NULL
1687453275,d2d7108b8fab8dfaae9924fc1f227c2c,PennController,6,0,experiment,NULL,PennController,5,_Trial_,Start,1687453173398,55c09521fdf99b1b8c34379f,55c09521fdf99b1b8c34379f,3,clean,critical,G,75,nogoal,none,exp2trials,NULL
1687453275,d2d7108b8fab8dfaae9924fc1f227c2c,PennController,6,0,experiment,NULL,PennController,5,_Header_,Start,1687453173398,55c09521fdf99b1b8c34379f,55c09521fdf99b1b8c34379f,3,clean,critical,G,75,nogoal,none,exp2trials,NULL
1687453275,d2d7108b8fab8dfaae9924fc1f227c2c,PennController,6,0,experiment,NULL,PennController,5,_Header_,End,1687453173398,55c09521fdf99b1b8c34379f,55c09521fdf99b1b8c34379f,3,clean,critical,G,75,nogoal,none,exp2trials,NULL
1687453275,d2d7108b8fab8dfaae9924fc1f227c2c,PennController,6,0,experiment,NULL,Video,progression,buffer,0.001299,1687453176909,55c09521fdf99b1b8c34379f,55c09521fdf99b1b8c34379f,3,clean,critical,G,75,nogoal,none,exp2trials,NULL
1687453275,d2d7108b8fab8dfaae9924fc1f227c2c,PennController,6,0,experiment,NULL,VideoScrubber,slider-input,SelectedFrame,60,1687453181074,55c09521fdf99b1b8c34379f,55c09521fdf99b1b8c34379f,3,clean,critical,G,75,nogoal,none,exp2trials,NULL
1687453275,d2d7108b8fab8dfaae9924fc1f227c2c,PennController,6,0,experiment,NULL,PennController,5,_Trial_,End,1687453192364,55c09521fdf99b1b8c34379f,55c09521fdf99b1b8c34379f,3,clean,critical,G,75,nogoal,none,exp2trials,NULL
1687453275,d2d7108b8fab8dfaae9924fc1f227c2c,PennController,7,0,experiment,NULL,PennController,6,_Trial_,Start,1687453192365,55c09521fdf99b1b8c34379f,55c09521fdf99b1b8c34379f,4,candy,critical,G,25,nogoal,none,exp2trials,NULL
1687453275,d2d7108b8fab8dfaae9924fc1f227c2c,PennController,7,0,experiment,NULL,PennController,6,_Header_,Start,1687453192365,55c09521fdf99b1b8c34379f,55c09521fdf99b1b8c34379f,4,candy,critical,G,25,nogoal,none,exp2trials,NULL
1687453275,d2d7108b8fab8dfaae9924fc1f227c2c,PennController,7,0,experiment,NULL,PennController,6,_Header_,End,1687453192365,55c09521fdf99b1b8c34379f,55c09521fdf99b1b8c34379f,4,candy,critical,G,25,nogoal,none,exp2trials,NULL
1687453275,d2d7108b8fab8dfaae9924fc1f227c2c,PennController,7,0,experiment,NULL,Video,progression,buffer,0.001256,1687453195879,55c09521fdf99b1b8c34379f,55c09521fdf99b1b8c34379f,4,candy,critical,G,25,nogoal,none,exp2trials,NULL
1687453275,d2d7108b8fab8dfaae9924fc1f227c2c,PennController,7,0,experiment,NULL,VideoScrubber,slider-input,SelectedFrame,20,1687453198041,55c09521fdf99b1b8c34379f,55c09521fdf99b1b8c34379f,4,candy,critical,G,25,nogoal,none,exp2trials,NULL
1687453275,d2d7108b8fab8dfaae9924fc1f227c2c,PennController,7,0,experiment,NULL,PennController,6,_Trial_,End,1687453203308,55c09521fdf99b1b8c34379f,55c09521fdf99b1b8c34379f,4,candy,critical,G,25,nogoal,none,exp2trials,NULL
1687453275,d2d7108b8fab8dfaae9924fc1f227c2c,PennController,16,0,experiment,NULL,PennController,15,_Trial_,Start,1687453203309,55c09521fdf99b1b8c34379f,55c09521fdf99b1b8c34379f,13,mix,critical,G,25,nogoal,none,exp2trials,NULL
1687453275,d2d7108b8fab8dfaae9924fc1f227c2c,PennController,16,0,experiment,NULL,PennController,15,_Header_,Start,1687453203309,55c09521fdf99b1b8c34379f,55c09521fdf99b1b8c34379f,13,mix,critical,G,25,nogoal,none,exp2trials,NULL
1687453275,d2d7108b8fab8dfaae9924fc1f227c2c,PennController,16,0,experiment,NULL,PennController,15,_Header_,End,1687453203309,55c09521fdf99b1b8c34379f,55c09521fdf99b1b8c34379f,13,mix,critical,G,25,nogoal,none,exp2trials,NULL
1687453275,d2d7108b8fab8dfaae9924fc1f227c2c,PennController,16,0,experiment,NULL,Video,progression,buffer,0.002795,1687453206825,55c09521fdf99b1b8c34379f,55c09521fdf99b1b8c34379f,13,mix,critical,G,25,nogoal,none,exp2trials,NULL
1687453275,d2d7108b8fab8dfaae9924fc1f227c2c,PennController,16,0,experiment,NULL,VideoScrubber,slider-input,SelectedFrame,15,1687453208993,55c09521fdf99b1b8c34379f,55c09521fdf99b1b8c34379f,13,mix,critical,G,25,nogoal,none,exp2trials,NULL
1687453275,d2d7108b8fab8dfaae9924fc1f227c2c,PennController,16,0,experiment,NULL,PennController,15,_Trial_,End,1687453215085,55c09521fdf99b1b8c34379f,55c09521fdf99b1b8c34379f,13,mix,critical,G,25,nogoal,none,exp2trials,NULL
1687453275,d2d7108b8fab8dfaae9924fc1f227c2c,PennController,24,0,experiment,NULL,PennController,23,_Trial_,Start,1687453215085,55c09521fdf99b1b8c34379f,55c09521fdf99b1b8c34379f,21,visit,filler,G,75,nogoal,none,exp2trials,NULL
1687453275,d2d7108b8fab8dfaae9924fc1f227c2c,PennController,24,0,experiment,NULL,PennController,23,_Header_,Start,1687453215085,55c09521fdf99b1b8c34379f,55c09521fdf99b1b8c34379f,21,visit,filler,G,75,nogoal,none,exp2trials,NULL
1687453275,d2d7108b8fab8dfaae9924fc1f227c2c,PennController,24,0,experiment,NULL,PennController,23,_Header_,End,1687453215085,55c09521fdf99b1b8c34379f,55c09521fdf99b1b8c34379f,21,visit,filler,G,75,nogoal,none,exp2trials,NULL
1687453275,d2d7108b8fab8dfaae9924fc1f227c2c,PennController,24,0,experiment,NULL,Video,progression,buffer,0.001586,1687453218596,55c09521fdf99b1b8c34379f,55c09521fdf99b1b8c34379f,21,visit,filler,G,75,nogoal,none,exp2trials,NULL
1687453275,d2d7108b8fab8dfaae9924fc1f227c2c,PennController,24,0,experiment,NULL,VideoScrubber,slider-input,SelectedFrame,70,1687453222755,55c09521fdf99b1b8c34379f,55c09521fdf99b1b8c34379f,21,visit,filler,G,75,nogoal,none,exp2trials,NULL
1687453275,d2d7108b8fab8dfaae9924fc1f227c2c,PennController,24,0,experiment,NULL,PennController,23,_Trial_,End,1687453228628,55c09521fdf99b1b8c34379f,55c09521fdf99b1b8c34379f,21,visit,filler,G,75,nogoal,none,exp2trials,NULL
1687453275,d2d7108b8fab8dfaae9924fc1f227c2c,PennController,15,0,experiment,NULL,PennController,14,_Trial_,Start,1687453228629,55c09521fdf99b1b8c34379f,55c09521fdf99b1b8c34379f,12,erase,critical,G,75,nogoal,none,exp2trials,NULL
1687453275,d2d7108b8fab8dfaae9924fc1f227c2c,PennController,15,0,experiment,NULL,PennController,14,_Header_,Start,1687453228629,55c09521fdf99b1b8c34379f,55c09521fdf99b1b8c34379f,12,erase,critical,G,75,nogoal,none,exp2trials,NULL
1687453275,d2d7108b8fab8dfaae9924fc1f227c2c,PennController,15,0,experiment,NULL,PennController,14,_Header_,End,1687453228629,55c09521fdf99b1b8c34379f,55c09521fdf99b1b8c34379f,12,erase,critical,G,75,nogoal,none,exp2trials,NULL
1687453275,d2d7108b8fab8dfaae9924fc1f227c2c,PennController,15,0,experiment,NULL,Video,progression,buffer,0.001735,1687453232143,55c09521fdf99b1b8c34379f,55c09521fdf99b1b8c34379f,12,erase,critical,G,75,nogoal,none,exp2trials,NULL
1687453275,d2d7108b8fab8dfaae9924fc1f227c2c,PennController,15,0,experiment,NULL,VideoScrubber,slider-input,SelectedFrame,75,1687453238311,55c09521fdf99b1b8c34379f,55c09521fdf99b1b8c34379f,12,erase,critical,G,75,nogoal,none,exp2trials,NULL
1687453275,d2d7108b8fab8dfaae9924fc1f227c2c,PennController,15,0,experiment,NULL,PennController,14,_Trial_,End,1687453242228,55c09521fdf99b1b8c34379f,55c09521fdf99b1b8c34379f,12,erase,critical,G,75,nogoal,none,exp2trials,NULL
1687453275,d2d7108b8fab8dfaae9924fc1f227c2c,PennController,32,0,experiment,NULL,PennController,31,_Trial_,Start,1687453242229,55c09521fdf99b1b8c34379f,55c09521fdf99b1b8c34379f,29,frog,filler,G,50,nogoal,none,exp2trials,NULL
1687453275,d2d7108b8fab8dfaae9924fc1f227c2c,PennController,32,0,experiment,NULL,PennController,31,_Header_,Start,1687453242229,55c09521fdf99b1b8c34379f,55c09521fdf99b1b8c34379f,29,frog,filler,G,50,nogoal,none,exp2trials,NULL
1687453275,d2d7108b8fab8dfaae9924fc1f227c2c,PennController,32,0,experiment,NULL,PennController,31,_Header_,End,1687453242229,55c09521fdf99b1b8c34379f,55c09521fdf99b1b8c34379f,29,frog,filler,G,50,nogoal,none,exp2trials,NULL
1687453275,d2d7108b8fab8dfaae9924fc1f227c2c,PennController,32,0,experiment,NULL,Video,progression,buffer,0.00162,1687453245746,55c09521fdf99b1b8c34379f,55c09521fdf99b1b8c34379f,29,frog,filler,G,50,nogoal,none,exp2trials,NULL
1687453275,d2d7108b8fab8dfaae9924fc1f227c2c,PennController,32,0,experiment,NULL,VideoScrubber,slider-input,SelectedFrame,55,1687453248908,55c09521fdf99b1b8c34379f,55c09521fdf99b1b8c34379f,29,frog,filler,G,50,nogoal,none,exp2trials,NULL
1687453275,d2d7108b8fab8dfaae9924fc1f227c2c,PennController,32,0,experiment,NULL,PennController,31,_Trial_,End,1687453253380,55c09521fdf99b1b8c34379f,55c09521fdf99b1b8c34379f,29,frog,filler,G,50,nogoal,none,exp2trials,NULL
1687453275,d2d7108b8fab8dfaae9924fc1f227c2c,PennController,28,0,experiment,NULL,PennController,27,_Trial_,Start,1687453253381,55c09521fdf99b1b8c34379f,55c09521fdf99b1b8c34379f,25,house,filler,G,25,nogoal,none,exp2trials,NULL
1687453275,d2d7108b8fab8dfaae9924fc1f227c2c,PennController,28,0,experiment,NULL,PennController,27,_Header_,Start,1687453253381,55c09521fdf99b1b8c34379f,55c09521fdf99b1b8c34379f,25,house,filler,G,25,nogoal,none,exp2trials,NULL
1687453275,d2d7108b8fab8dfaae9924fc1f227c2c,PennController,28,0,experiment,NULL,PennController,27,_Header_,End,1687453253381,55c09521fdf99b1b8c34379f,55c09521fdf99b1b8c34379f,25,house,filler,G,25,nogoal,none,exp2trials,NULL
1687453275,d2d7108b8fab8dfaae9924fc1f227c2c,PennController,28,0,experiment,NULL,Video,progression,buffer,0.00184,1687453256898,55c09521fdf99b1b8c34379f,55c09521fdf99b1b8c34379f,25,house,filler,G,25,nogoal,none,exp2trials,NULL
1687453275,d2d7108b8fab8dfaae9924fc1f227c2c,PennController,28,0,experiment,NULL,VideoScrubber,slider-input,SelectedFrame,25,1687453259060,55c09521fdf99b1b8c34379f,55c09521fdf99b1b8c34379f,25,house,filler,G,25,nogoal,none,exp2trials,NULL
1687453275,d2d7108b8fab8dfaae9924fc1f227c2c,PennController,28,0,experiment,NULL,PennController,27,_Trial_,End,1687453263292,55c09521fdf99b1b8c34379f,55c09521fdf99b1b8c34379f,25,house,filler,G,25,nogoal,none,exp2trials,NULL
1687453275,d2d7108b8fab8dfaae9924fc1f227c2c,PennController,8,0,experiment,NULL,PennController,7,_Trial_,Start,1687453263293,55c09521fdf99b1b8c34379f,55c09521fdf99b1b8c34379f,5,book,critical,G,50,nogoal,none,exp2trials,NULL
1687453275,d2d7108b8fab8dfaae9924fc1f227c2c,PennController,8,0,experiment,NULL,PennController,7,_Header_,Start,1687453263293,55c09521fdf99b1b8c34379f,55c09521fdf99b1b8c34379f,5,book,critical,G,50,nogoal,none,exp2trials,NULL
1687453275,d2d7108b8fab8dfaae9924fc1f227c2c,PennController,8,0,experiment,NULL,PennController,7,_Header_,End,1687453263293,55c09521fdf99b1b8c34379f,55c09521fdf99b1b8c34379f,5,book,critical,G,50,nogoal,none,exp2trials,NULL
1687453275,d2d7108b8fab8dfaae9924fc1f227c2c,PennController,8,0,experiment,NULL,Video,progression,buffer,0.001899,1687453266806,55c09521fdf99b1b8c34379f,55c09521fdf99b1b8c34379f,5,book,critical,G,50,nogoal,none,exp2trials,NULL
1687453275,d2d7108b8fab8dfaae9924fc1f227c2c,PennController,8,0,experiment,NULL,VideoScrubber,slider-input,SelectedFrame,40,1687453269976,55c09521fdf99b1b8c34379f,55c09521fdf99b1b8c34379f,5,book,critical,G,50,nogoal,none,exp2trials,NULL
1687453275,d2d7108b8fab8dfaae9924fc1f227c2c,PennController,8,0,experiment,NULL,PennController,7,_Trial_,End,1687453276492,55c09521fdf99b1b8c34379f,55c09521fdf99b1b8c34379f,5,book,critical,G,50,nogoal,none,exp2trials,NULL
