#
# Results on Wednesday April 26 2023 16:04:47 UTC
# USER AGENT: Mozilla/5.0 (Macintosh; Intel Mac OS X 10_15_7) AppleWebKit/537.36 (KHTML, like Gecko) Chrome/110.0.0.0 Safari/537.36
# Design number was non-random = 15
#
# Columns below this comment are as follows:
# 1. Results reception time.
# 2. MD5 hash of participant's IP address.
# 3. Controller name.
# 4. Order number of item.
# 5. Inner element number.
# 6. Label.
# 7. Latin Square Group.
# 8. PennElementType.
# 9. PennElementName.
# 10. Parameter.
# 11. Value.
# 12. EventTime.
# 13. sonaID.
# 14. Comments.
1682525087,b94aa998c358129c8d3cc17b4f21fff9,PennController,2,0,consent,NULL,PennController,0,_Trial_,Start,1682524764729,sonaID,NULL
1682525087,b94aa998c358129c8d3cc17b4f21fff9,PennController,2,0,consent,NULL,PennController,0,_Header_,Start,1682524764729,sonaID,NULL
1682525087,b94aa998c358129c8d3cc17b4f21fff9,PennController,2,0,consent,NULL,PennController,0,_Header_,End,1682524764729,sonaID,NULL
1682525087,b94aa998c358129c8d3cc17b4f21fff9,PennController,2,0,consent,NULL,PennController,0,_Trial_,End,1682524767237,sonaID,NULL
# Columns below this comment are as follows:
# 14. ID.
# 15. Comments.
1682525087,b94aa998c358129c8d3cc17b4f21fff9,PennController,3,0,intro,NULL,PennController,1,_Trial_,Start,1682524767238,sonaID,undefined,NULL
1682525087,b94aa998c358129c8d3cc17b4f21fff9,PennController,3,0,intro,NULL,PennController,1,_Header_,Start,1682524767238,sonaID,undefined,NULL
1682525087,b94aa998c358129c8d3cc17b4f21fff9,PennController,3,0,intro,NULL,PennController,1,_Header_,End,1682524767238,sonaID,undefined,NULL
1682525087,b94aa998c358129c8d3cc17b4f21fff9,PennController,3,0,intro,NULL,TextInput,inputID,EnterReturn,25379392,1682524779349,sonaID,undefined,NULL
1682525087,b94aa998c358129c8d3cc17b4f21fff9,PennController,3,0,intro,NULL,TextInput,inputID,Final,25379392,1682524779361,sonaID,undefined,NULL
1682525087,b94aa998c358129c8d3cc17b4f21fff9,PennController,3,0,intro,NULL,TextInput,inputID,First,,1682524775934,sonaID,undefined,2
1682525087,b94aa998c358129c8d3cc17b4f21fff9,PennController,3,0,intro,NULL,PennController,1,_Trial_,End,1682524779361,sonaID,undefined,NULL
# Columns below this comment are as follows:
# 15. item_number.
# 16. item.
# 17. type.
# 18. Group.
# 19. prog.
# 20. prev_image.
# 21. next_image.
# 22. height.
# 23. memory-momentum10.
# 24. Comments.
1682525087,b94aa998c358129c8d3cc17b4f21fff9,PennController,4,0,experiment,NULL,PennController,3,_Trial_,Start,1682524779362,sonaID,undefined,1,vase,critical,D,50,vase10.jpg,vase40.jpg,high,memory-momentum10,NULL
1682525087,b94aa998c358129c8d3cc17b4f21fff9,PennController,4,0,experiment,NULL,PennController,3,_Header_,Start,1682524779362,sonaID,undefined,1,vase,critical,D,50,vase10.jpg,vase40.jpg,high,memory-momentum10,NULL
1682525087,b94aa998c358129c8d3cc17b4f21fff9,PennController,4,0,experiment,NULL,PennController,3,_Header_,End,1682524779362,sonaID,undefined,1,vase,critical,D,50,vase10.jpg,vase40.jpg,high,memory-momentum10,NULL
1682525087,b94aa998c358129c8d3cc17b4f21fff9,PennController,4,0,experiment,NULL,Canvas,canvas6,Print,NA,1682524786053,sonaID,undefined,1,vase,critical,D,50,vase10.jpg,vase40.jpg,high,memory-momentum10,NULL
1682525087,b94aa998c358129c8d3cc17b4f21fff9,PennController,4,0,experiment,NULL,Video,progression,buffer,0.001887,1682524782888,sonaID,undefined,1,vase,critical,D,50,vase10.jpg,vase40.jpg,high,memory-momentum10,NULL
1682525087,b94aa998c358129c8d3cc17b4f21fff9,PennController,4,0,experiment,NULL,Selector,choice,Selection,option2,1682524788399,sonaID,undefined,1,vase,critical,D,50,vase10.jpg,vase40.jpg,high,memory-momentum10,option1;option2
1682525087,b94aa998c358129c8d3cc17b4f21fff9,PennController,4,0,experiment,NULL,PennController,3,_Trial_,End,1682524788400,sonaID,undefined,1,vase,critical,D,50,vase10.jpg,vase40.jpg,high,memory-momentum10,NULL
1682525087,b94aa998c358129c8d3cc17b4f21fff9,PennController,10,0,experiment,NULL,PennController,9,_Trial_,Start,1682524788400,sonaID,undefined,7,stack,critical,D,25,stack15.jpg,stack35.jpg,high,memory-momentum10,NULL
1682525087,b94aa998c358129c8d3cc17b4f21fff9,PennController,10,0,experiment,NULL,PennController,9,_Header_,Start,1682524788400,sonaID,undefined,7,stack,critical,D,25,stack15.jpg,stack35.jpg,high,memory-momentum10,NULL
1682525087,b94aa998c358129c8d3cc17b4f21fff9,PennController,10,0,experiment,NULL,PennController,9,_Header_,End,1682524788401,sonaID,undefined,7,stack,critical,D,25,stack15.jpg,stack35.jpg,high,memory-momentum10,NULL
1682525087,b94aa998c358129c8d3cc17b4f21fff9,PennController,10,0,experiment,NULL,Canvas,canvas6,Print,NA,1682524794093,sonaID,undefined,7,stack,critical,D,25,stack15.jpg,stack35.jpg,high,memory-momentum10,NULL
1682525087,b94aa998c358129c8d3cc17b4f21fff9,PennController,10,0,experiment,NULL,Video,progression,buffer,0.000691,1682524791919,sonaID,undefined,7,stack,critical,D,25,stack15.jpg,stack35.jpg,high,memory-momentum10,NULL
1682525087,b94aa998c358129c8d3cc17b4f21fff9,PennController,10,0,experiment,NULL,Selector,choice,Selection,option1,1682524795949,sonaID,undefined,7,stack,critical,D,25,stack15.jpg,stack35.jpg,high,memory-momentum10,option1;option2
1682525087,b94aa998c358129c8d3cc17b4f21fff9,PennController,10,0,experiment,NULL,PennController,9,_Trial_,End,1682524795949,sonaID,undefined,7,stack,critical,D,25,stack15.jpg,stack35.jpg,high,memory-momentum10,NULL
1682525087,b94aa998c358129c8d3cc17b4f21fff9,PennController,16,0,experiment,NULL,PennController,15,_Trial_,Start,1682524795950,sonaID,undefined,13,mix,critical,D,25,mix15.jpg,mix35.jpg,high,memory-momentum10,NULL
1682525087,b94aa998c358129c8d3cc17b4f21fff9,PennController,16,0,experiment,NULL,PennController,15,_Header_,Start,1682524795950,sonaID,undefined,13,mix,critical,D,25,mix15.jpg,mix35.jpg,high,memory-momentum10,NULL
1682525087,b94aa998c358129c8d3cc17b4f21fff9,PennController,16,0,experiment,NULL,PennController,15,_Header_,End,1682524795950,sonaID,undefined,13,mix,critical,D,25,mix15.jpg,mix35.jpg,high,memory-momentum10,NULL
1682525087,b94aa998c358129c8d3cc17b4f21fff9,PennController,16,0,experiment,NULL,Canvas,canvas6,Print,NA,1682524801637,sonaID,undefined,13,mix,critical,D,25,mix15.jpg,mix35.jpg,high,memory-momentum10,NULL
1682525087,b94aa998c358129c8d3cc17b4f21fff9,PennController,16,0,experiment,NULL,Video,progression,buffer,0.001666,1682524799466,sonaID,undefined,13,mix,critical,D,25,mix15.jpg,mix35.jpg,high,memory-momentum10,NULL
1682525087,b94aa998c358129c8d3cc17b4f21fff9,PennController,16,0,experiment,NULL,Selector,choice,Selection,option1,1682524803117,sonaID,undefined,13,mix,critical,D,25,mix15.jpg,mix35.jpg,high,memory-momentum10,option2;option1
1682525087,b94aa998c358129c8d3cc17b4f21fff9,PennController,16,0,experiment,NULL,PennController,15,_Trial_,End,1682524803118,sonaID,undefined,13,mix,critical,D,25,mix15.jpg,mix35.jpg,high,memory-momentum10,NULL
1682525087,b94aa998c358129c8d3cc17b4f21fff9,PennController,13,0,experiment,NULL,PennController,12,_Trial_,Start,1682524803118,sonaID,undefined,10,train,critical,D,25,train15.jpg,train35.jpg,low ,memory-momentum10,NULL
1682525087,b94aa998c358129c8d3cc17b4f21fff9,PennController,13,0,experiment,NULL,PennController,12,_Header_,Start,1682524803118,sonaID,undefined,10,train,critical,D,25,train15.jpg,train35.jpg,low ,memory-momentum10,NULL
1682525087,b94aa998c358129c8d3cc17b4f21fff9,PennController,13,0,experiment,NULL,PennController,12,_Header_,End,1682524803119,sonaID,undefined,10,train,critical,D,25,train15.jpg,train35.jpg,low ,memory-momentum10,NULL
1682525087,b94aa998c358129c8d3cc17b4f21fff9,PennController,13,0,experiment,NULL,Canvas,canvas6,Print,NA,1682524808808,sonaID,undefined,10,train,critical,D,25,train15.jpg,train35.jpg,low ,memory-momentum10,NULL
1682525087,b94aa998c358129c8d3cc17b4f21fff9,PennController,13,0,experiment,NULL,Video,progression,buffer,0.002515,1682524806639,sonaID,undefined,10,train,critical,D,25,train15.jpg,train35.jpg,low ,memory-momentum10,NULL
1682525087,b94aa998c358129c8d3cc17b4f21fff9,PennController,13,0,experiment,NULL,Selector,choice,Selection,option1,1682524810034,sonaID,undefined,10,train,critical,D,25,train15.jpg,train35.jpg,low ,memory-momentum10,option1;option2
1682525087,b94aa998c358129c8d3cc17b4f21fff9,PennController,13,0,experiment,NULL,PennController,12,_Trial_,End,1682524810035,sonaID,undefined,10,train,critical,D,25,train15.jpg,train35.jpg,low ,memory-momentum10,NULL
1682525087,b94aa998c358129c8d3cc17b4f21fff9,PennController,12,0,experiment,NULL,PennController,11,_Trial_,Start,1682524810035,sonaID,undefined,9,cake,critical,D,75,cake66.jpg,cake84.jpg,high,memory-momentum10,NULL
1682525087,b94aa998c358129c8d3cc17b4f21fff9,PennController,12,0,experiment,NULL,PennController,11,_Header_,Start,1682524810035,sonaID,undefined,9,cake,critical,D,75,cake66.jpg,cake84.jpg,high,memory-momentum10,NULL
1682525087,b94aa998c358129c8d3cc17b4f21fff9,PennController,12,0,experiment,NULL,PennController,11,_Header_,End,1682524810035,sonaID,undefined,9,cake,critical,D,75,cake66.jpg,cake84.jpg,high,memory-momentum10,NULL
1682525087,b94aa998c358129c8d3cc17b4f21fff9,PennController,12,0,experiment,NULL,Canvas,canvas6,Print,NA,1682524819719,sonaID,undefined,9,cake,critical,D,75,cake66.jpg,cake84.jpg,high,memory-momentum10,NULL
1682525087,b94aa998c358129c8d3cc17b4f21fff9,PennController,12,0,experiment,NULL,Video,progression,buffer,0.002741,1682524813556,sonaID,undefined,9,cake,critical,D,75,cake66.jpg,cake84.jpg,high,memory-momentum10,NULL
1682525087,b94aa998c358129c8d3cc17b4f21fff9,PennController,12,0,experiment,NULL,Selector,choice,Selection,option2,1682524822415,sonaID,undefined,9,cake,critical,D,75,cake66.jpg,cake84.jpg,high,memory-momentum10,option2;option1
1682525087,b94aa998c358129c8d3cc17b4f21fff9,PennController,12,0,experiment,NULL,PennController,11,_Trial_,End,1682524822416,sonaID,undefined,9,cake,critical,D,75,cake66.jpg,cake84.jpg,high,memory-momentum10,NULL
1682525087,b94aa998c358129c8d3cc17b4f21fff9,PennController,8,0,experiment,NULL,PennController,7,_Trial_,Start,1682524822417,sonaID,undefined,5,book,critical,D,50,book40.jpg,book60.jpg,high,memory-momentum10,NULL
1682525087,b94aa998c358129c8d3cc17b4f21fff9,PennController,8,0,experiment,NULL,PennController,7,_Header_,Start,1682524822417,sonaID,undefined,5,book,critical,D,50,book40.jpg,book60.jpg,high,memory-momentum10,NULL
1682525087,b94aa998c358129c8d3cc17b4f21fff9,PennController,8,0,experiment,NULL,PennController,7,_Header_,End,1682524822417,sonaID,undefined,5,book,critical,D,50,book40.jpg,book60.jpg,high,memory-momentum10,NULL
1682525087,b94aa998c358129c8d3cc17b4f21fff9,PennController,8,0,experiment,NULL,Canvas,canvas6,Print,NA,1682524829105,sonaID,undefined,5,book,critical,D,50,book40.jpg,book60.jpg,high,memory-momentum10,NULL
1682525087,b94aa998c358129c8d3cc17b4f21fff9,PennController,8,0,experiment,NULL,Video,progression,buffer,0.003006,1682524825940,sonaID,undefined,5,book,critical,D,50,book40.jpg,book60.jpg,high,memory-momentum10,NULL
1682525087,b94aa998c358129c8d3cc17b4f21fff9,PennController,8,0,experiment,NULL,Selector,choice,Selection,option1,1682524832915,sonaID,undefined,5,book,critical,D,50,book40.jpg,book60.jpg,high,memory-momentum10,option1;option2
1682525087,b94aa998c358129c8d3cc17b4f21fff9,PennController,8,0,experiment,NULL,PennController,7,_Trial_,End,1682524832916,sonaID,undefined,5,book,critical,D,50,book40.jpg,book60.jpg,high,memory-momentum10,NULL
1682525087,b94aa998c358129c8d3cc17b4f21fff9,PennController,20,0,experiment,NULL,PennController,19,_Trial_,Start,1682524832916,sonaID,undefined,17,roll,critical,D,50,roll40.jpg,roll60.jpg,high,memory-momentum10,NULL
1682525087,b94aa998c358129c8d3cc17b4f21fff9,PennController,20,0,experiment,NULL,PennController,19,_Header_,Start,1682524832916,sonaID,undefined,17,roll,critical,D,50,roll40.jpg,roll60.jpg,high,memory-momentum10,NULL
1682525087,b94aa998c358129c8d3cc17b4f21fff9,PennController,20,0,experiment,NULL,PennController,19,_Header_,End,1682524832916,sonaID,undefined,17,roll,critical,D,50,roll40.jpg,roll60.jpg,high,memory-momentum10,NULL
1682525087,b94aa998c358129c8d3cc17b4f21fff9,PennController,20,0,experiment,NULL,Canvas,canvas6,Print,NA,1682524839605,sonaID,undefined,17,roll,critical,D,50,roll40.jpg,roll60.jpg,high,memory-momentum10,NULL
1682525087,b94aa998c358129c8d3cc17b4f21fff9,PennController,20,0,experiment,NULL,Video,progression,buffer,0.001139,1682524836433,sonaID,undefined,17,roll,critical,D,50,roll40.jpg,roll60.jpg,high,memory-momentum10,NULL
1682525087,b94aa998c358129c8d3cc17b4f21fff9,PennController,20,0,experiment,NULL,Selector,choice,Selection,option2,1682524841015,sonaID,undefined,17,roll,critical,D,50,roll40.jpg,roll60.jpg,high,memory-momentum10,option1;option2
1682525087,b94aa998c358129c8d3cc17b4f21fff9,PennController,20,0,experiment,NULL,PennController,19,_Trial_,End,1682524841016,sonaID,undefined,17,roll,critical,D,50,roll40.jpg,roll60.jpg,high,memory-momentum10,NULL
1682525087,b94aa998c358129c8d3cc17b4f21fff9,PennController,7,0,experiment,NULL,PennController,6,_Trial_,Start,1682524841017,sonaID,undefined,4,candy,critical,D,25,candy15.jpg,candy35.jpg,low ,memory-momentum10,NULL
1682525087,b94aa998c358129c8d3cc17b4f21fff9,PennController,7,0,experiment,NULL,PennController,6,_Header_,Start,1682524841017,sonaID,undefined,4,candy,critical,D,25,candy15.jpg,candy35.jpg,low ,memory-momentum10,NULL
1682525087,b94aa998c358129c8d3cc17b4f21fff9,PennController,7,0,experiment,NULL,PennController,6,_Header_,End,1682524841017,sonaID,undefined,4,candy,critical,D,25,candy15.jpg,candy35.jpg,low ,memory-momentum10,NULL
1682525087,b94aa998c358129c8d3cc17b4f21fff9,PennController,7,0,experiment,NULL,Canvas,canvas6,Print,NA,1682524846702,sonaID,undefined,4,candy,critical,D,25,candy15.jpg,candy35.jpg,low ,memory-momentum10,NULL
1682525087,b94aa998c358129c8d3cc17b4f21fff9,PennController,7,0,experiment,NULL,Video,progression,buffer,0.00234,1682524844541,sonaID,undefined,4,candy,critical,D,25,candy15.jpg,candy35.jpg,low ,memory-momentum10,NULL
1682525087,b94aa998c358129c8d3cc17b4f21fff9,PennController,7,0,experiment,NULL,Selector,choice,Selection,option2,1682524847882,sonaID,undefined,4,candy,critical,D,25,candy15.jpg,candy35.jpg,low ,memory-momentum10,option1;option2
1682525087,b94aa998c358129c8d3cc17b4f21fff9,PennController,7,0,experiment,NULL,PennController,6,_Trial_,End,1682524847882,sonaID,undefined,4,candy,critical,D,25,candy15.jpg,candy35.jpg,low ,memory-momentum10,NULL
1682525087,b94aa998c358129c8d3cc17b4f21fff9,PennController,23,0,experiment,NULL,PennController,22,_Trial_,Start,1682524847883,sonaID,undefined,20,cat,filler,D,50,cat40.jpg,cat60.jpg,GoalA,memory-momentum10,NULL
1682525087,b94aa998c358129c8d3cc17b4f21fff9,PennController,23,0,experiment,NULL,PennController,22,_Header_,Start,1682524847883,sonaID,undefined,20,cat,filler,D,50,cat40.jpg,cat60.jpg,GoalA,memory-momentum10,NULL
1682525087,b94aa998c358129c8d3cc17b4f21fff9,PennController,23,0,experiment,NULL,PennController,22,_Header_,End,1682524847883,sonaID,undefined,20,cat,filler,D,50,cat40.jpg,cat60.jpg,GoalA,memory-momentum10,NULL
1682525087,b94aa998c358129c8d3cc17b4f21fff9,PennController,23,0,experiment,NULL,Canvas,canvas6,Print,NA,1682524854569,sonaID,undefined,20,cat,filler,D,50,cat40.jpg,cat60.jpg,GoalA,memory-momentum10,NULL
1682525087,b94aa998c358129c8d3cc17b4f21fff9,PennController,23,0,experiment,NULL,Video,progression,buffer,0.002939,1682524851407,sonaID,undefined,20,cat,filler,D,50,cat40.jpg,cat60.jpg,GoalA,memory-momentum10,NULL
1682525087,b94aa998c358129c8d3cc17b4f21fff9,PennController,23,0,experiment,NULL,Selector,choice,Selection,option2,1682524855532,sonaID,undefined,20,cat,filler,D,50,cat40.jpg,cat60.jpg,GoalA,memory-momentum10,option1;option2
1682525087,b94aa998c358129c8d3cc17b4f21fff9,PennController,23,0,experiment,NULL,PennController,22,_Trial_,End,1682524855532,sonaID,undefined,20,cat,filler,D,50,cat40.jpg,cat60.jpg,GoalA,memory-momentum10,NULL
1682525087,b94aa998c358129c8d3cc17b4f21fff9,PennController,6,0,experiment,NULL,PennController,5,_Trial_,Start,1682524855533,sonaID,undefined,3,clean,critical,D,75,clean65.jpg,clean85.jpg,high,memory-momentum10,NULL
1682525087,b94aa998c358129c8d3cc17b4f21fff9,PennController,6,0,experiment,NULL,PennController,5,_Header_,Start,1682524855533,sonaID,undefined,3,clean,critical,D,75,clean65.jpg,clean85.jpg,high,memory-momentum10,NULL
1682525087,b94aa998c358129c8d3cc17b4f21fff9,PennController,6,0,experiment,NULL,PennController,5,_Header_,End,1682524855533,sonaID,undefined,3,clean,critical,D,75,clean65.jpg,clean85.jpg,high,memory-momentum10,NULL
1682525087,b94aa998c358129c8d3cc17b4f21fff9,PennController,6,0,experiment,NULL,Canvas,canvas6,Print,NA,1682524863220,sonaID,undefined,3,clean,critical,D,75,clean65.jpg,clean85.jpg,high,memory-momentum10,NULL
1682525087,b94aa998c358129c8d3cc17b4f21fff9,PennController,6,0,experiment,NULL,Video,progression,buffer,0.00167,1682524859048,sonaID,undefined,3,clean,critical,D,75,clean65.jpg,clean85.jpg,high,memory-momentum10,NULL
1682525087,b94aa998c358129c8d3cc17b4f21fff9,PennController,6,0,experiment,NULL,Selector,choice,Selection,option1,1682524864835,sonaID,undefined,3,clean,critical,D,75,clean65.jpg,clean85.jpg,high,memory-momentum10,option1;option2
1682525087,b94aa998c358129c8d3cc17b4f21fff9,PennController,6,0,experiment,NULL,PennController,5,_Trial_,End,1682524864836,sonaID,undefined,3,clean,critical,D,75,clean65.jpg,clean85.jpg,high,memory-momentum10,NULL
1682525087,b94aa998c358129c8d3cc17b4f21fff9,PennController,31,0,experiment,NULL,PennController,30,_Trial_,Start,1682524864836,sonaID,undefined,28,sort,filler,D,25,sort15.jpg,sort35.jpg,GoalA,memory-momentum10,NULL
1682525087,b94aa998c358129c8d3cc17b4f21fff9,PennController,31,0,experiment,NULL,PennController,30,_Header_,Start,1682524864836,sonaID,undefined,28,sort,filler,D,25,sort15.jpg,sort35.jpg,GoalA,memory-momentum10,NULL
1682525087,b94aa998c358129c8d3cc17b4f21fff9,PennController,31,0,experiment,NULL,PennController,30,_Header_,End,1682524864836,sonaID,undefined,28,sort,filler,D,25,sort15.jpg,sort35.jpg,GoalA,memory-momentum10,NULL
1682525087,b94aa998c358129c8d3cc17b4f21fff9,PennController,31,0,experiment,NULL,Canvas,canvas6,Print,NA,1682524870535,sonaID,undefined,28,sort,filler,D,25,sort15.jpg,sort35.jpg,GoalA,memory-momentum10,NULL
1682525087,b94aa998c358129c8d3cc17b4f21fff9,PennController,31,0,experiment,NULL,Video,progression,buffer,0.002415,1682524868361,sonaID,undefined,28,sort,filler,D,25,sort15.jpg,sort35.jpg,GoalA,memory-momentum10,NULL
1682525087,b94aa998c358129c8d3cc17b4f21fff9,PennController,31,0,experiment,NULL,Selector,choice,Selection,option1,1682524872115,sonaID,undefined,28,sort,filler,D,25,sort15.jpg,sort35.jpg,GoalA,memory-momentum10,option1;option2
1682525087,b94aa998c358129c8d3cc17b4f21fff9,PennController,31,0,experiment,NULL,PennController,30,_Trial_,End,1682524872116,sonaID,undefined,28,sort,filler,D,25,sort15.jpg,sort35.jpg,GoalA,memory-momentum10,NULL
1682525087,b94aa998c358129c8d3cc17b4f21fff9,PennController,19,0,experiment,NULL,PennController,18,_Trial_,Start,1682524872116,sonaID,undefined,16,blinds,critical,D,25,blinds15.jpg,blinds33.jpg,low ,memory-momentum10,NULL
1682525087,b94aa998c358129c8d3cc17b4f21fff9,PennController,19,0,experiment,NULL,PennController,18,_Header_,Start,1682524872116,sonaID,undefined,16,blinds,critical,D,25,blinds15.jpg,blinds33.jpg,low ,memory-momentum10,NULL
1682525087,b94aa998c358129c8d3cc17b4f21fff9,PennController,19,0,experiment,NULL,PennController,18,_Header_,End,1682524872116,sonaID,undefined,16,blinds,critical,D,25,blinds15.jpg,blinds33.jpg,low ,memory-momentum10,NULL
1682525087,b94aa998c358129c8d3cc17b4f21fff9,PennController,19,0,experiment,NULL,Canvas,canvas6,Print,NA,1682524878400,sonaID,undefined,16,blinds,critical,D,25,blinds15.jpg,blinds33.jpg,low ,memory-momentum10,NULL
1682525087,b94aa998c358129c8d3cc17b4f21fff9,PennController,19,0,experiment,NULL,Video,progression,buffer,0.000792,1682524875630,sonaID,undefined,16,blinds,critical,D,25,blinds15.jpg,blinds33.jpg,low ,memory-momentum10,NULL
1682525087,b94aa998c358129c8d3cc17b4f21fff9,PennController,19,0,experiment,NULL,Selector,choice,Selection,option2,1682524879598,sonaID,undefined,16,blinds,critical,D,25,blinds15.jpg,blinds33.jpg,low ,memory-momentum10,option1;option2
1682525087,b94aa998c358129c8d3cc17b4f21fff9,PennController,19,0,experiment,NULL,PennController,18,_Trial_,End,1682524879598,sonaID,undefined,16,blinds,critical,D,25,blinds15.jpg,blinds33.jpg,low ,memory-momentum10,NULL
1682525087,b94aa998c358129c8d3cc17b4f21fff9,PennController,28,0,experiment,NULL,PennController,27,_Trial_,Start,1682524879599,sonaID,undefined,25,house,filler,D,25,house15.jpg,house35.jpg,GoalB,memory-momentum10,NULL
1682525087,b94aa998c358129c8d3cc17b4f21fff9,PennController,28,0,experiment,NULL,PennController,27,_Header_,Start,1682524879599,sonaID,undefined,25,house,filler,D,25,house15.jpg,house35.jpg,GoalB,memory-momentum10,NULL
1682525087,b94aa998c358129c8d3cc17b4f21fff9,PennController,28,0,experiment,NULL,PennController,27,_Header_,End,1682524879599,sonaID,undefined,25,house,filler,D,25,house15.jpg,house35.jpg,GoalB,memory-momentum10,NULL
1682525087,b94aa998c358129c8d3cc17b4f21fff9,PennController,28,0,experiment,NULL,Canvas,canvas6,Print,NA,1682524885288,sonaID,undefined,25,house,filler,D,25,house15.jpg,house35.jpg,GoalB,memory-momentum10,NULL
1682525087,b94aa998c358129c8d3cc17b4f21fff9,PennController,28,0,experiment,NULL,Video,progression,buffer,0.002673,1682524883122,sonaID,undefined,25,house,filler,D,25,house15.jpg,house35.jpg,GoalB,memory-momentum10,NULL
1682525087,b94aa998c358129c8d3cc17b4f21fff9,PennController,28,0,experiment,NULL,Selector,choice,Selection,option2,1682524885967,sonaID,undefined,25,house,filler,D,25,house15.jpg,house35.jpg,GoalB,memory-momentum10,option2;option1
1682525087,b94aa998c358129c8d3cc17b4f21fff9,PennController,28,0,experiment,NULL,PennController,27,_Trial_,End,1682524885967,sonaID,undefined,25,house,filler,D,25,house15.jpg,house35.jpg,GoalB,memory-momentum10,NULL
1682525087,b94aa998c358129c8d3cc17b4f21fff9,PennController,29,0,experiment,NULL,PennController,28,_Trial_,Start,1682524885968,sonaID,undefined,26,sandwich,filler,D,50,sandwich40.jpg,sandwich60.jpg,GoalA,memory-momentum10,NULL
1682525087,b94aa998c358129c8d3cc17b4f21fff9,PennController,29,0,experiment,NULL,PennController,28,_Header_,Start,1682524885968,sonaID,undefined,26,sandwich,filler,D,50,sandwich40.jpg,sandwich60.jpg,GoalA,memory-momentum10,NULL
1682525087,b94aa998c358129c8d3cc17b4f21fff9,PennController,29,0,experiment,NULL,PennController,28,_Header_,End,1682524885968,sonaID,undefined,26,sandwich,filler,D,50,sandwich40.jpg,sandwich60.jpg,GoalA,memory-momentum10,NULL
1682525087,b94aa998c358129c8d3cc17b4f21fff9,PennController,29,0,experiment,NULL,Canvas,canvas6,Print,NA,1682524892647,sonaID,undefined,26,sandwich,filler,D,50,sandwich40.jpg,sandwich60.jpg,GoalA,memory-momentum10,NULL
1682525087,b94aa998c358129c8d3cc17b4f21fff9,PennController,29,0,experiment,NULL,Video,progression,buffer,0.002967,1682524889486,sonaID,undefined,26,sandwich,filler,D,50,sandwich40.jpg,sandwich60.jpg,GoalA,memory-momentum10,NULL
1682525087,b94aa998c358129c8d3cc17b4f21fff9,PennController,29,0,experiment,NULL,Selector,choice,Selection,option1,1682524893898,sonaID,undefined,26,sandwich,filler,D,50,sandwich40.jpg,sandwich60.jpg,GoalA,memory-momentum10,option2;option1
1682525087,b94aa998c358129c8d3cc17b4f21fff9,PennController,29,0,experiment,NULL,PennController,28,_Trial_,End,1682524893899,sonaID,undefined,26,sandwich,filler,D,50,sandwich40.jpg,sandwich60.jpg,GoalA,memory-momentum10,NULL
1682525087,b94aa998c358129c8d3cc17b4f21fff9,PennController,17,0,experiment,NULL,PennController,16,_Trial_,Start,1682524893899,sonaID,undefined,14,cover,critical,D,50,cover42.jpg,cover60.jpg,low ,memory-momentum10,NULL
1682525087,b94aa998c358129c8d3cc17b4f21fff9,PennController,17,0,experiment,NULL,PennController,16,_Header_,Start,1682524893899,sonaID,undefined,14,cover,critical,D,50,cover42.jpg,cover60.jpg,low ,memory-momentum10,NULL
1682525087,b94aa998c358129c8d3cc17b4f21fff9,PennController,17,0,experiment,NULL,PennController,16,_Header_,End,1682524893899,sonaID,undefined,14,cover,critical,D,50,cover42.jpg,cover60.jpg,low ,memory-momentum10,NULL
1682525087,b94aa998c358129c8d3cc17b4f21fff9,PennController,17,0,experiment,NULL,Canvas,canvas6,Print,NA,1682524901983,sonaID,undefined,14,cover,critical,D,50,cover42.jpg,cover60.jpg,low ,memory-momentum10,NULL
1682525087,b94aa998c358129c8d3cc17b4f21fff9,PennController,17,0,experiment,NULL,Video,progression,buffer,0.003978,1682524897424,sonaID,undefined,14,cover,critical,D,50,cover42.jpg,cover60.jpg,low ,memory-momentum10,NULL
1682525087,b94aa998c358129c8d3cc17b4f21fff9,PennController,17,0,experiment,NULL,Selector,choice,Selection,option2,1682524903334,sonaID,undefined,14,cover,critical,D,50,cover42.jpg,cover60.jpg,low ,memory-momentum10,option2;option1
1682525087,b94aa998c358129c8d3cc17b4f21fff9,PennController,17,0,experiment,NULL,PennController,16,_Trial_,End,1682524903334,sonaID,undefined,14,cover,critical,D,50,cover42.jpg,cover60.jpg,low ,memory-momentum10,NULL
1682525087,b94aa998c358129c8d3cc17b4f21fff9,PennController,25,0,experiment,NULL,PennController,24,_Trial_,Start,1682524903334,sonaID,undefined,22,wall,filler,D,25,wall15.jpg,wall35.jpg,GoalA,memory-momentum10,NULL
1682525087,b94aa998c358129c8d3cc17b4f21fff9,PennController,25,0,experiment,NULL,PennController,24,_Header_,Start,1682524903334,sonaID,undefined,22,wall,filler,D,25,wall15.jpg,wall35.jpg,GoalA,memory-momentum10,NULL
1682525087,b94aa998c358129c8d3cc17b4f21fff9,PennController,25,0,experiment,NULL,PennController,24,_Header_,End,1682524903334,sonaID,undefined,22,wall,filler,D,25,wall15.jpg,wall35.jpg,GoalA,memory-momentum10,NULL
1682525087,b94aa998c358129c8d3cc17b4f21fff9,PennController,25,0,experiment,NULL,Canvas,canvas6,Print,NA,1682524909014,sonaID,undefined,22,wall,filler,D,25,wall15.jpg,wall35.jpg,GoalA,memory-momentum10,NULL
1682525087,b94aa998c358129c8d3cc17b4f21fff9,PennController,25,0,experiment,NULL,Video,progression,buffer,0.003165,1682524906856,sonaID,undefined,22,wall,filler,D,25,wall15.jpg,wall35.jpg,GoalA,memory-momentum10,NULL
1682525087,b94aa998c358129c8d3cc17b4f21fff9,PennController,25,0,experiment,NULL,Selector,choice,Selection,option1,1682524910885,sonaID,undefined,22,wall,filler,D,25,wall15.jpg,wall35.jpg,GoalA,memory-momentum10,option1;option2
1682525087,b94aa998c358129c8d3cc17b4f21fff9,PennController,25,0,experiment,NULL,PennController,24,_Trial_,End,1682524910886,sonaID,undefined,22,wall,filler,D,25,wall15.jpg,wall35.jpg,GoalA,memory-momentum10,NULL
1682525087,b94aa998c358129c8d3cc17b4f21fff9,PennController,27,0,experiment,NULL,PennController,26,_Trial_,Start,1682524910886,sonaID,undefined,24,match,filler,D,75,match65.jpg,match85.jpg,GoalA,memory-momentum10,NULL
1682525087,b94aa998c358129c8d3cc17b4f21fff9,PennController,27,0,experiment,NULL,PennController,26,_Header_,Start,1682524910886,sonaID,undefined,24,match,filler,D,75,match65.jpg,match85.jpg,GoalA,memory-momentum10,NULL
1682525087,b94aa998c358129c8d3cc17b4f21fff9,PennController,27,0,experiment,NULL,PennController,26,_Header_,End,1682524910886,sonaID,undefined,24,match,filler,D,75,match65.jpg,match85.jpg,GoalA,memory-momentum10,NULL
1682525087,b94aa998c358129c8d3cc17b4f21fff9,PennController,27,0,experiment,NULL,Canvas,canvas6,Print,NA,1682524918591,sonaID,undefined,24,match,filler,D,75,match65.jpg,match85.jpg,GoalA,memory-momentum10,NULL
1682525087,b94aa998c358129c8d3cc17b4f21fff9,PennController,27,0,experiment,NULL,Video,progression,buffer,0.003967,1682524914412,sonaID,undefined,24,match,filler,D,75,match65.jpg,match85.jpg,GoalA,memory-momentum10,NULL
1682525087,b94aa998c358129c8d3cc17b4f21fff9,PennController,27,0,experiment,NULL,Selector,choice,Selection,option2,1682524920598,sonaID,undefined,24,match,filler,D,75,match65.jpg,match85.jpg,GoalA,memory-momentum10,option2;option1
1682525087,b94aa998c358129c8d3cc17b4f21fff9,PennController,27,0,experiment,NULL,PennController,26,_Trial_,End,1682524920599,sonaID,undefined,24,match,filler,D,75,match65.jpg,match85.jpg,GoalA,memory-momentum10,NULL
1682525087,b94aa998c358129c8d3cc17b4f21fff9,PennController,5,0,experiment,NULL,PennController,4,_Trial_,Start,1682524920599,sonaID,undefined,2,door,critical,D,50,door40.jpg,door60.jpg,low ,memory-momentum10,NULL
1682525087,b94aa998c358129c8d3cc17b4f21fff9,PennController,5,0,experiment,NULL,PennController,4,_Header_,Start,1682524920599,sonaID,undefined,2,door,critical,D,50,door40.jpg,door60.jpg,low ,memory-momentum10,NULL
1682525087,b94aa998c358129c8d3cc17b4f21fff9,PennController,5,0,experiment,NULL,PennController,4,_Header_,End,1682524920599,sonaID,undefined,2,door,critical,D,50,door40.jpg,door60.jpg,low ,memory-momentum10,NULL
1682525087,b94aa998c358129c8d3cc17b4f21fff9,PennController,5,0,experiment,NULL,Canvas,canvas6,Print,NA,1682524927288,sonaID,undefined,2,door,critical,D,50,door40.jpg,door60.jpg,low ,memory-momentum10,NULL
1682525087,b94aa998c358129c8d3cc17b4f21fff9,PennController,5,0,experiment,NULL,Video,progression,buffer,0.002944,1682524924118,sonaID,undefined,2,door,critical,D,50,door40.jpg,door60.jpg,low ,memory-momentum10,NULL
1682525087,b94aa998c358129c8d3cc17b4f21fff9,PennController,5,0,experiment,NULL,Selector,choice,Selection,option2,1682524928684,sonaID,undefined,2,door,critical,D,50,door40.jpg,door60.jpg,low ,memory-momentum10,option1;option2
1682525087,b94aa998c358129c8d3cc17b4f21fff9,PennController,5,0,experiment,NULL,PennController,4,_Trial_,End,1682524928684,sonaID,undefined,2,door,critical,D,50,door40.jpg,door60.jpg,low ,memory-momentum10,NULL
1682525087,b94aa998c358129c8d3cc17b4f21fff9,PennController,26,0,experiment,NULL,PennController,25,_Trial_,Start,1682524928684,sonaID,undefined,23,color,filler,D,50,color40.jpg,color60.jpg,GoalB,memory-momentum10,NULL
1682525087,b94aa998c358129c8d3cc17b4f21fff9,PennController,26,0,experiment,NULL,PennController,25,_Header_,Start,1682524928684,sonaID,undefined,23,color,filler,D,50,color40.jpg,color60.jpg,GoalB,memory-momentum10,NULL
1682525087,b94aa998c358129c8d3cc17b4f21fff9,PennController,26,0,experiment,NULL,PennController,25,_Header_,End,1682524928684,sonaID,undefined,23,color,filler,D,50,color40.jpg,color60.jpg,GoalB,memory-momentum10,NULL
1682525087,b94aa998c358129c8d3cc17b4f21fff9,PennController,26,0,experiment,NULL,Canvas,canvas6,Print,NA,1682524935385,sonaID,undefined,23,color,filler,D,50,color40.jpg,color60.jpg,GoalB,memory-momentum10,NULL
1682525087,b94aa998c358129c8d3cc17b4f21fff9,PennController,26,0,experiment,NULL,Video,progression,buffer,0.002748,1682524932210,sonaID,undefined,23,color,filler,D,50,color40.jpg,color60.jpg,GoalB,memory-momentum10,NULL
1682525087,b94aa998c358129c8d3cc17b4f21fff9,PennController,26,0,experiment,NULL,Selector,choice,Selection,option2,1682524936565,sonaID,undefined,23,color,filler,D,50,color40.jpg,color60.jpg,GoalB,memory-momentum10,option1;option2
1682525087,b94aa998c358129c8d3cc17b4f21fff9,PennController,26,0,experiment,NULL,PennController,25,_Trial_,End,1682524936565,sonaID,undefined,23,color,filler,D,50,color40.jpg,color60.jpg,GoalB,memory-momentum10,NULL
1682525087,b94aa998c358129c8d3cc17b4f21fff9,PennController,14,0,experiment,NULL,PennController,13,_Trial_,Start,1682524936566,sonaID,undefined,11,beads,critical,D,50,beads40.jpg,beads60.jpg,high,memory-momentum10,NULL
1682525087,b94aa998c358129c8d3cc17b4f21fff9,PennController,14,0,experiment,NULL,PennController,13,_Header_,Start,1682524936566,sonaID,undefined,11,beads,critical,D,50,beads40.jpg,beads60.jpg,high,memory-momentum10,NULL
1682525087,b94aa998c358129c8d3cc17b4f21fff9,PennController,14,0,experiment,NULL,PennController,13,_Header_,End,1682524936566,sonaID,undefined,11,beads,critical,D,50,beads40.jpg,beads60.jpg,high,memory-momentum10,NULL
1682525087,b94aa998c358129c8d3cc17b4f21fff9,PennController,14,0,experiment,NULL,Canvas,canvas6,Print,NA,1682524943250,sonaID,undefined,11,beads,critical,D,50,beads40.jpg,beads60.jpg,high,memory-momentum10,NULL
1682525087,b94aa998c358129c8d3cc17b4f21fff9,PennController,14,0,experiment,NULL,Video,progression,buffer,0.001918,1682524940084,sonaID,undefined,11,beads,critical,D,50,beads40.jpg,beads60.jpg,high,memory-momentum10,NULL
1682525087,b94aa998c358129c8d3cc17b4f21fff9,PennController,14,0,experiment,NULL,Selector,choice,Selection,option1,1682524944800,sonaID,undefined,11,beads,critical,D,50,beads40.jpg,beads60.jpg,high,memory-momentum10,option1;option2
1682525087,b94aa998c358129c8d3cc17b4f21fff9,PennController,14,0,experiment,NULL,PennController,13,_Trial_,End,1682524944801,sonaID,undefined,11,beads,critical,D,50,beads40.jpg,beads60.jpg,high,memory-momentum10,NULL
1682525087,b94aa998c358129c8d3cc17b4f21fff9,PennController,32,0,experiment,NULL,PennController,31,_Trial_,Start,1682524944801,sonaID,undefined,29,frog,filler,D,50,frog40.jpg,frog60.jpg,GoalB,memory-momentum10,NULL
1682525087,b94aa998c358129c8d3cc17b4f21fff9,PennController,32,0,experiment,NULL,PennController,31,_Header_,Start,1682524944801,sonaID,undefined,29,frog,filler,D,50,frog40.jpg,frog60.jpg,GoalB,memory-momentum10,NULL
1682525087,b94aa998c358129c8d3cc17b4f21fff9,PennController,32,0,experiment,NULL,PennController,31,_Header_,End,1682524944801,sonaID,undefined,29,frog,filler,D,50,frog40.jpg,frog60.jpg,GoalB,memory-momentum10,NULL
1682525087,b94aa998c358129c8d3cc17b4f21fff9,PennController,32,0,experiment,NULL,Canvas,canvas6,Print,NA,1682524951481,sonaID,undefined,29,frog,filler,D,50,frog40.jpg,frog60.jpg,GoalB,memory-momentum10,NULL
1682525087,b94aa998c358129c8d3cc17b4f21fff9,PennController,32,0,experiment,NULL,Video,progression,buffer,0.00076,1682524948319,sonaID,undefined,29,frog,filler,D,50,frog40.jpg,frog60.jpg,GoalB,memory-momentum10,NULL
1682525087,b94aa998c358129c8d3cc17b4f21fff9,PennController,32,0,experiment,NULL,Selector,choice,Selection,option1,1682524952565,sonaID,undefined,29,frog,filler,D,50,frog40.jpg,frog60.jpg,GoalB,memory-momentum10,option2;option1
1682525087,b94aa998c358129c8d3cc17b4f21fff9,PennController,32,0,experiment,NULL,PennController,31,_Trial_,End,1682524952566,sonaID,undefined,29,frog,filler,D,50,frog40.jpg,frog60.jpg,GoalB,memory-momentum10,NULL
1682525087,b94aa998c358129c8d3cc17b4f21fff9,PennController,18,0,experiment,NULL,PennController,17,_Trial_,Start,1682524952566,sonaID,undefined,15,zip,critical,D,75,zip65.jpg,zip85.jpg,high,memory-momentum10,NULL
1682525087,b94aa998c358129c8d3cc17b4f21fff9,PennController,18,0,experiment,NULL,PennController,17,_Header_,Start,1682524952566,sonaID,undefined,15,zip,critical,D,75,zip65.jpg,zip85.jpg,high,memory-momentum10,NULL
1682525087,b94aa998c358129c8d3cc17b4f21fff9,PennController,18,0,experiment,NULL,PennController,17,_Header_,End,1682524952566,sonaID,undefined,15,zip,critical,D,75,zip65.jpg,zip85.jpg,high,memory-momentum10,NULL
1682525087,b94aa998c358129c8d3cc17b4f21fff9,PennController,18,0,experiment,NULL,Canvas,canvas6,Print,NA,1682524960253,sonaID,undefined,15,zip,critical,D,75,zip65.jpg,zip85.jpg,high,memory-momentum10,NULL
1682525087,b94aa998c358129c8d3cc17b4f21fff9,PennController,18,0,experiment,NULL,Video,progression,buffer,0.001568,1682524956083,sonaID,undefined,15,zip,critical,D,75,zip65.jpg,zip85.jpg,high,memory-momentum10,NULL
1682525087,b94aa998c358129c8d3cc17b4f21fff9,PennController,18,0,experiment,NULL,Selector,choice,Selection,option2,1682524961747,sonaID,undefined,15,zip,critical,D,75,zip65.jpg,zip85.jpg,high,memory-momentum10,option2;option1
1682525087,b94aa998c358129c8d3cc17b4f21fff9,PennController,18,0,experiment,NULL,PennController,17,_Trial_,End,1682524961748,sonaID,undefined,15,zip,critical,D,75,zip65.jpg,zip85.jpg,high,memory-momentum10,NULL
1682525087,b94aa998c358129c8d3cc17b4f21fff9,PennController,11,0,experiment,NULL,PennController,10,_Trial_,Start,1682524961748,sonaID,undefined,8,cucumber,critical,D,50,cucumber42.jpg,cucumber60.jpg,low ,memory-momentum10,NULL
1682525087,b94aa998c358129c8d3cc17b4f21fff9,PennController,11,0,experiment,NULL,PennController,10,_Header_,Start,1682524961748,sonaID,undefined,8,cucumber,critical,D,50,cucumber42.jpg,cucumber60.jpg,low ,memory-momentum10,NULL
1682525087,b94aa998c358129c8d3cc17b4f21fff9,PennController,11,0,experiment,NULL,PennController,10,_Header_,End,1682524961748,sonaID,undefined,8,cucumber,critical,D,50,cucumber42.jpg,cucumber60.jpg,low ,memory-momentum10,NULL
1682525087,b94aa998c358129c8d3cc17b4f21fff9,PennController,11,0,experiment,NULL,Canvas,canvas6,Print,NA,1682524969836,sonaID,undefined,8,cucumber,critical,D,50,cucumber42.jpg,cucumber60.jpg,low ,memory-momentum10,NULL
1682525087,b94aa998c358129c8d3cc17b4f21fff9,PennController,11,0,experiment,NULL,Video,progression,buffer,0.002409,1682524965273,sonaID,undefined,8,cucumber,critical,D,50,cucumber42.jpg,cucumber60.jpg,low ,memory-momentum10,NULL
1682525087,b94aa998c358129c8d3cc17b4f21fff9,PennController,11,0,experiment,NULL,Selector,choice,Selection,option2,1682524971218,sonaID,undefined,8,cucumber,critical,D,50,cucumber42.jpg,cucumber60.jpg,low ,memory-momentum10,option1;option2
1682525087,b94aa998c358129c8d3cc17b4f21fff9,PennController,11,0,experiment,NULL,PennController,10,_Trial_,End,1682524971218,sonaID,undefined,8,cucumber,critical,D,50,cucumber42.jpg,cucumber60.jpg,low ,memory-momentum10,NULL
1682525087,b94aa998c358129c8d3cc17b4f21fff9,PennController,9,0,experiment,NULL,PennController,8,_Trial_,Start,1682524971219,sonaID,undefined,6,flower,critical,D,75,flower65.jpg,flower85.jpg,low ,memory-momentum10,NULL
1682525087,b94aa998c358129c8d3cc17b4f21fff9,PennController,9,0,experiment,NULL,PennController,8,_Header_,Start,1682524971219,sonaID,undefined,6,flower,critical,D,75,flower65.jpg,flower85.jpg,low ,memory-momentum10,NULL
1682525087,b94aa998c358129c8d3cc17b4f21fff9,PennController,9,0,experiment,NULL,PennController,8,_Header_,End,1682524971219,sonaID,undefined,6,flower,critical,D,75,flower65.jpg,flower85.jpg,low ,memory-momentum10,NULL
1682525087,b94aa998c358129c8d3cc17b4f21fff9,PennController,9,0,experiment,NULL,Canvas,canvas6,Print,NA,1682524978900,sonaID,undefined,6,flower,critical,D,75,flower65.jpg,flower85.jpg,low ,memory-momentum10,NULL
1682525087,b94aa998c358129c8d3cc17b4f21fff9,PennController,9,0,experiment,NULL,Video,progression,buffer,0.001514,1682524974737,sonaID,undefined,6,flower,critical,D,75,flower65.jpg,flower85.jpg,low ,memory-momentum10,NULL
1682525087,b94aa998c358129c8d3cc17b4f21fff9,PennController,9,0,experiment,NULL,Selector,choice,Selection,option2,1682524980300,sonaID,undefined,6,flower,critical,D,75,flower65.jpg,flower85.jpg,low ,memory-momentum10,option2;option1
1682525087,b94aa998c358129c8d3cc17b4f21fff9,PennController,9,0,experiment,NULL,PennController,8,_Trial_,End,1682524980301,sonaID,undefined,6,flower,critical,D,75,flower65.jpg,flower85.jpg,low ,memory-momentum10,NULL
1682525087,b94aa998c358129c8d3cc17b4f21fff9,PennController,21,0,experiment,NULL,PennController,20,_Trial_,Start,1682524980301,sonaID,undefined,18,ball,critical,D,75,ball65.jpg,ball85.jpg,low ,memory-momentum10,NULL
1682525087,b94aa998c358129c8d3cc17b4f21fff9,PennController,21,0,experiment,NULL,PennController,20,_Header_,Start,1682524980301,sonaID,undefined,18,ball,critical,D,75,ball65.jpg,ball85.jpg,low ,memory-momentum10,NULL
1682525087,b94aa998c358129c8d3cc17b4f21fff9,PennController,21,0,experiment,NULL,PennController,20,_Header_,End,1682524980301,sonaID,undefined,18,ball,critical,D,75,ball65.jpg,ball85.jpg,low ,memory-momentum10,NULL
1682525087,b94aa998c358129c8d3cc17b4f21fff9,PennController,21,0,experiment,NULL,Canvas,canvas6,Print,NA,1682524987986,sonaID,undefined,18,ball,critical,D,75,ball65.jpg,ball85.jpg,low ,memory-momentum10,NULL
1682525087,b94aa998c358129c8d3cc17b4f21fff9,PennController,21,0,experiment,NULL,Video,progression,buffer,0.001305,1682524983817,sonaID,undefined,18,ball,critical,D,75,ball65.jpg,ball85.jpg,low ,memory-momentum10,NULL
1682525087,b94aa998c358129c8d3cc17b4f21fff9,PennController,21,0,experiment,NULL,Selector,choice,Selection,option2,1682524989281,sonaID,undefined,18,ball,critical,D,75,ball65.jpg,ball85.jpg,low ,memory-momentum10,option2;option1
1682525087,b94aa998c358129c8d3cc17b4f21fff9,PennController,21,0,experiment,NULL,PennController,20,_Trial_,End,1682524989281,sonaID,undefined,18,ball,critical,D,75,ball65.jpg,ball85.jpg,low ,memory-momentum10,NULL
1682525087,b94aa998c358129c8d3cc17b4f21fff9,PennController,22,0,experiment,NULL,PennController,21,_Trial_,Start,1682524989282,sonaID,undefined,19,cup,filler,D,25,cup15.jpg,cup35.jpg,GoalB,memory-momentum10,NULL
1682525087,b94aa998c358129c8d3cc17b4f21fff9,PennController,22,0,experiment,NULL,PennController,21,_Header_,Start,1682524989282,sonaID,undefined,19,cup,filler,D,25,cup15.jpg,cup35.jpg,GoalB,memory-momentum10,NULL
1682525087,b94aa998c358129c8d3cc17b4f21fff9,PennController,22,0,experiment,NULL,PennController,21,_Header_,End,1682524989282,sonaID,undefined,19,cup,filler,D,25,cup15.jpg,cup35.jpg,GoalB,memory-momentum10,NULL
1682525087,b94aa998c358129c8d3cc17b4f21fff9,PennController,22,0,experiment,NULL,Canvas,canvas6,Print,NA,1682524994970,sonaID,undefined,19,cup,filler,D,25,cup15.jpg,cup35.jpg,GoalB,memory-momentum10,NULL
1682525087,b94aa998c358129c8d3cc17b4f21fff9,PennController,22,0,experiment,NULL,Video,progression,buffer,0.005158,1682524992800,sonaID,undefined,19,cup,filler,D,25,cup15.jpg,cup35.jpg,GoalB,memory-momentum10,NULL
1682525087,b94aa998c358129c8d3cc17b4f21fff9,PennController,22,0,experiment,NULL,Selector,choice,Selection,option2,1682524996519,sonaID,undefined,19,cup,filler,D,25,cup15.jpg,cup35.jpg,GoalB,memory-momentum10,option2;option1
1682525087,b94aa998c358129c8d3cc17b4f21fff9,PennController,22,0,experiment,NULL,PennController,21,_Trial_,End,1682524996520,sonaID,undefined,19,cup,filler,D,25,cup15.jpg,cup35.jpg,GoalB,memory-momentum10,NULL
1682525087,b94aa998c358129c8d3cc17b4f21fff9,PennController,24,0,experiment,NULL,PennController,23,_Trial_,Start,1682524996520,sonaID,undefined,21,visit,filler,D,75,visit65.jpg,visit85.jpg,GoalB,memory-momentum10,NULL
1682525087,b94aa998c358129c8d3cc17b4f21fff9,PennController,24,0,experiment,NULL,PennController,23,_Header_,Start,1682524996520,sonaID,undefined,21,visit,filler,D,75,visit65.jpg,visit85.jpg,GoalB,memory-momentum10,NULL
1682525087,b94aa998c358129c8d3cc17b4f21fff9,PennController,24,0,experiment,NULL,PennController,23,_Header_,End,1682524996520,sonaID,undefined,21,visit,filler,D,75,visit65.jpg,visit85.jpg,GoalB,memory-momentum10,NULL
1682525087,b94aa998c358129c8d3cc17b4f21fff9,PennController,24,0,experiment,NULL,Canvas,canvas6,Print,NA,1682525004217,sonaID,undefined,21,visit,filler,D,75,visit65.jpg,visit85.jpg,GoalB,memory-momentum10,NULL
1682525087,b94aa998c358129c8d3cc17b4f21fff9,PennController,24,0,experiment,NULL,Video,progression,buffer,0.003397,1682525000043,sonaID,undefined,21,visit,filler,D,75,visit65.jpg,visit85.jpg,GoalB,memory-momentum10,NULL
1682525087,b94aa998c358129c8d3cc17b4f21fff9,PennController,24,0,experiment,NULL,Selector,choice,Selection,option2,1682525005347,sonaID,undefined,21,visit,filler,D,75,visit65.jpg,visit85.jpg,GoalB,memory-momentum10,option2;option1
1682525087,b94aa998c358129c8d3cc17b4f21fff9,PennController,24,0,experiment,NULL,PennController,23,_Trial_,End,1682525005348,sonaID,undefined,21,visit,filler,D,75,visit65.jpg,visit85.jpg,GoalB,memory-momentum10,NULL
1682525087,b94aa998c358129c8d3cc17b4f21fff9,PennController,15,0,experiment,NULL,PennController,14,_Trial_,Start,1682525005348,sonaID,undefined,12,erase,critical,D,75,erase66.jpg,erase84.jpg,low ,memory-momentum10,NULL
1682525087,b94aa998c358129c8d3cc17b4f21fff9,PennController,15,0,experiment,NULL,PennController,14,_Header_,Start,1682525005348,sonaID,undefined,12,erase,critical,D,75,erase66.jpg,erase84.jpg,low ,memory-momentum10,NULL
1682525087,b94aa998c358129c8d3cc17b4f21fff9,PennController,15,0,experiment,NULL,PennController,14,_Header_,End,1682525005348,sonaID,undefined,12,erase,critical,D,75,erase66.jpg,erase84.jpg,low ,memory-momentum10,NULL
1682525087,b94aa998c358129c8d3cc17b4f21fff9,PennController,15,0,experiment,NULL,Canvas,canvas6,Print,NA,1682525015036,sonaID,undefined,12,erase,critical,D,75,erase66.jpg,erase84.jpg,low ,memory-momentum10,NULL
1682525087,b94aa998c358129c8d3cc17b4f21fff9,PennController,15,0,experiment,NULL,Video,progression,buffer,0.002383,1682525008867,sonaID,undefined,12,erase,critical,D,75,erase66.jpg,erase84.jpg,low ,memory-momentum10,NULL
1682525087,b94aa998c358129c8d3cc17b4f21fff9,PennController,15,0,experiment,NULL,Selector,choice,Selection,option2,1682525016549,sonaID,undefined,12,erase,critical,D,75,erase66.jpg,erase84.jpg,low ,memory-momentum10,option2;option1
1682525087,b94aa998c358129c8d3cc17b4f21fff9,PennController,15,0,experiment,NULL,PennController,14,_Trial_,End,1682525016549,sonaID,undefined,12,erase,critical,D,75,erase66.jpg,erase84.jpg,low ,memory-momentum10,NULL
1682525087,b94aa998c358129c8d3cc17b4f21fff9,PennController,30,0,experiment,NULL,PennController,29,_PreloadFailed_,fixation.png,1682525076557,sonaID,undefined,27,rice,filler,D,75,square65.jpg,square85.jpg,GoalB,memory-momentum10,NULL
1682525087,b94aa998c358129c8d3cc17b4f21fff9,PennController,30,0,experiment,NULL,PennController,29,_PreloadFailed_,https://raw.githubusercontent.com/karenwli/rep-momentum/main/rice/rice00.jpg,1682525076558,sonaID,undefined,27,rice,filler,D,75,square65.jpg,square85.jpg,GoalB,memory-momentum10,NULL
1682525087,b94aa998c358129c8d3cc17b4f21fff9,PennController,30,0,experiment,NULL,PennController,29,_PreloadFailed_,https://video.wixstatic.com/video/7cb05b_41aae65ca27d43c3a89b5e46732d18ff/144p/mp4/file.mp4,1682525076558,sonaID,undefined,27,rice,filler,D,75,square65.jpg,square85.jpg,GoalB,memory-momentum10,NULL
1682525087,b94aa998c358129c8d3cc17b4f21fff9,PennController,30,0,experiment,NULL,PennController,29,_Trial_,Start,1682525076558,sonaID,undefined,27,rice,filler,D,75,square65.jpg,square85.jpg,GoalB,memory-momentum10,NULL
1682525087,b94aa998c358129c8d3cc17b4f21fff9,PennController,30,0,experiment,NULL,PennController,29,_Header_,Start,1682525076558,sonaID,undefined,27,rice,filler,D,75,square65.jpg,square85.jpg,GoalB,memory-momentum10,NULL
1682525087,b94aa998c358129c8d3cc17b4f21fff9,PennController,30,0,experiment,NULL,PennController,29,_Header_,End,1682525076558,sonaID,undefined,27,rice,filler,D,75,square65.jpg,square85.jpg,GoalB,memory-momentum10,NULL
1682525087,b94aa998c358129c8d3cc17b4f21fff9,PennController,30,0,experiment,NULL,Canvas,canvas6,Print,NA,1682525084251,sonaID,undefined,27,rice,filler,D,75,square65.jpg,square85.jpg,GoalB,memory-momentum10,NULL
1682525087,b94aa998c358129c8d3cc17b4f21fff9,PennController,30,0,experiment,NULL,Video,progression,buffer,0.001771,1682525080089,sonaID,undefined,27,rice,filler,D,75,square65.jpg,square85.jpg,GoalB,memory-momentum10,NULL
1682525087,b94aa998c358129c8d3cc17b4f21fff9,PennController,30,0,experiment,NULL,Selector,choice,Selection,option2,1682525087015,sonaID,undefined,27,rice,filler,D,75,square65.jpg,square85.jpg,GoalB,memory-momentum10,option2;option1
1682525087,b94aa998c358129c8d3cc17b4f21fff9,PennController,30,0,experiment,NULL,PennController,29,_Trial_,End,1682525087016,sonaID,undefined,27,rice,filler,D,75,square65.jpg,square85.jpg,GoalB,memory-momentum10,NULL
