#
# Results on Saturday April 29 2023 21:47:02 UTC
# USER AGENT: Mozilla/5.0 (Macintosh; Intel Mac OS X 10_15_7) AppleWebKit/537.36 (KHTML, like Gecko) Chrome/112.0.0.0 Safari/537.36
# Design number was non-random = 29
#
# Columns below this comment are as follows:
# 1. Results reception time.
# 2. MD5 hash of participant's IP address.
# 3. Controller name.
# 4. Order number of item.
# 5. Inner element number.
# 6. Label.
# 7. Latin Square Group.
# 8. PennElementType.
# 9. PennElementName.
# 10. Parameter.
# 11. Value.
# 12. EventTime.
# 13. sonaID.
# 14. Comments.
1682804822,feac677d8b6815e00012fb11c4d848d5,PennController,2,0,consent,NULL,PennController,0,_Trial_,Start,1682804462661,sonaID,NULL
1682804822,feac677d8b6815e00012fb11c4d848d5,PennController,2,0,consent,NULL,PennController,0,_Header_,Start,1682804462661,sonaID,NULL
1682804822,feac677d8b6815e00012fb11c4d848d5,PennController,2,0,consent,NULL,PennController,0,_Header_,End,1682804462661,sonaID,NULL
1682804822,feac677d8b6815e00012fb11c4d848d5,PennController,2,0,consent,NULL,PennController,0,_Trial_,End,1682804466524,sonaID,NULL
# Columns below this comment are as follows:
# 14. ID.
# 15. Comments.
1682804822,feac677d8b6815e00012fb11c4d848d5,PennController,3,0,intro,NULL,PennController,1,_Trial_,Start,1682804466527,sonaID,undefined,NULL
1682804822,feac677d8b6815e00012fb11c4d848d5,PennController,3,0,intro,NULL,PennController,1,_Header_,Start,1682804466527,sonaID,undefined,NULL
1682804822,feac677d8b6815e00012fb11c4d848d5,PennController,3,0,intro,NULL,PennController,1,_Header_,End,1682804466527,sonaID,undefined,NULL
1682804822,feac677d8b6815e00012fb11c4d848d5,PennController,3,0,intro,NULL,TextInput,inputID,EnterReturn,28277213,1682804471428,sonaID,undefined,NULL
1682804822,feac677d8b6815e00012fb11c4d848d5,PennController,3,0,intro,NULL,TextInput,inputID,Final,28277213,1682804471437,sonaID,undefined,NULL
1682804822,feac677d8b6815e00012fb11c4d848d5,PennController,3,0,intro,NULL,TextInput,inputID,First,,1682804468779,sonaID,undefined,2
1682804822,feac677d8b6815e00012fb11c4d848d5,PennController,3,0,intro,NULL,PennController,1,_Trial_,End,1682804471437,sonaID,undefined,NULL
# Columns below this comment are as follows:
# 15. item_number.
# 16. item.
# 17. type.
# 18. Group.
# 19. prog.
# 20. prev_image.
# 21. next_image.
# 22. height.
# 23. memory-momentum10.
# 24. Comments.
1682804822,feac677d8b6815e00012fb11c4d848d5,PennController,4,0,experiment,NULL,PennController,3,_Trial_,Start,1682804471439,sonaID,undefined,1,vase,critical,F,25,vase60.jpg,vase90.jpg,high,memory-momentum10,NULL
1682804822,feac677d8b6815e00012fb11c4d848d5,PennController,4,0,experiment,NULL,PennController,3,_Header_,Start,1682804471439,sonaID,undefined,1,vase,critical,F,25,vase60.jpg,vase90.jpg,high,memory-momentum10,NULL
1682804822,feac677d8b6815e00012fb11c4d848d5,PennController,4,0,experiment,NULL,PennController,3,_Header_,End,1682804471439,sonaID,undefined,1,vase,critical,F,25,vase60.jpg,vase90.jpg,high,memory-momentum10,NULL
1682804822,feac677d8b6815e00012fb11c4d848d5,PennController,4,0,experiment,NULL,Canvas,canvas6,Print,NA,1682804477141,sonaID,undefined,1,vase,critical,F,25,vase60.jpg,vase90.jpg,high,memory-momentum10,NULL
1682804822,feac677d8b6815e00012fb11c4d848d5,PennController,4,0,experiment,NULL,Video,progression,buffer,0.002125,1682804474976,sonaID,undefined,1,vase,critical,F,25,vase60.jpg,vase90.jpg,high,memory-momentum10,NULL
1682804822,feac677d8b6815e00012fb11c4d848d5,PennController,4,0,experiment,NULL,Selector,choice,Selection,option1,1682804481983,sonaID,undefined,1,vase,critical,F,25,vase60.jpg,vase90.jpg,high,memory-momentum10,option2;option1
1682804822,feac677d8b6815e00012fb11c4d848d5,PennController,4,0,experiment,NULL,PennController,3,_Trial_,End,1682804481986,sonaID,undefined,1,vase,critical,F,25,vase60.jpg,vase90.jpg,high,memory-momentum10,NULL
1682804822,feac677d8b6815e00012fb11c4d848d5,PennController,32,0,experiment,NULL,PennController,31,_Trial_,Start,1682804481988,sonaID,undefined,29,frog,filler,F,25,frog15.jpg,frog35.jpg,GoalB,memory-momentum10,NULL
1682804822,feac677d8b6815e00012fb11c4d848d5,PennController,32,0,experiment,NULL,PennController,31,_Header_,Start,1682804481988,sonaID,undefined,29,frog,filler,F,25,frog15.jpg,frog35.jpg,GoalB,memory-momentum10,NULL
1682804822,feac677d8b6815e00012fb11c4d848d5,PennController,32,0,experiment,NULL,PennController,31,_Header_,End,1682804481988,sonaID,undefined,29,frog,filler,F,25,frog15.jpg,frog35.jpg,GoalB,memory-momentum10,NULL
1682804822,feac677d8b6815e00012fb11c4d848d5,PennController,32,0,experiment,NULL,Canvas,canvas6,Print,NA,1682804487690,sonaID,undefined,29,frog,filler,F,25,frog15.jpg,frog35.jpg,GoalB,memory-momentum10,NULL
1682804822,feac677d8b6815e00012fb11c4d848d5,PennController,32,0,experiment,NULL,Video,progression,buffer,0.003388,1682804485515,sonaID,undefined,29,frog,filler,F,25,frog15.jpg,frog35.jpg,GoalB,memory-momentum10,NULL
1682804822,feac677d8b6815e00012fb11c4d848d5,PennController,32,0,experiment,NULL,Selector,choice,Selection,option2,1682804489733,sonaID,undefined,29,frog,filler,F,25,frog15.jpg,frog35.jpg,GoalB,memory-momentum10,option2;option1
1682804822,feac677d8b6815e00012fb11c4d848d5,PennController,32,0,experiment,NULL,PennController,31,_Trial_,End,1682804489735,sonaID,undefined,29,frog,filler,F,25,frog15.jpg,frog35.jpg,GoalB,memory-momentum10,NULL
1682804822,feac677d8b6815e00012fb11c4d848d5,PennController,21,0,experiment,NULL,PennController,20,_Trial_,Start,1682804489737,sonaID,undefined,18,ball,critical,F,50,ball40.jpg,ball60.jpg,low ,memory-momentum10,NULL
1682804822,feac677d8b6815e00012fb11c4d848d5,PennController,21,0,experiment,NULL,PennController,20,_Header_,Start,1682804489737,sonaID,undefined,18,ball,critical,F,50,ball40.jpg,ball60.jpg,low ,memory-momentum10,NULL
1682804822,feac677d8b6815e00012fb11c4d848d5,PennController,21,0,experiment,NULL,PennController,20,_Header_,End,1682804489737,sonaID,undefined,18,ball,critical,F,50,ball40.jpg,ball60.jpg,low ,memory-momentum10,NULL
1682804822,feac677d8b6815e00012fb11c4d848d5,PennController,21,0,experiment,NULL,Canvas,canvas6,Print,NA,1682804496424,sonaID,undefined,18,ball,critical,F,50,ball40.jpg,ball60.jpg,low ,memory-momentum10,NULL
1682804822,feac677d8b6815e00012fb11c4d848d5,PennController,21,0,experiment,NULL,Video,progression,buffer,0.002207,1682804493259,sonaID,undefined,18,ball,critical,F,50,ball40.jpg,ball60.jpg,low ,memory-momentum10,NULL
1682804822,feac677d8b6815e00012fb11c4d848d5,PennController,21,0,experiment,NULL,Selector,choice,Selection,option2,1682804500700,sonaID,undefined,18,ball,critical,F,50,ball40.jpg,ball60.jpg,low ,memory-momentum10,option1;option2
1682804822,feac677d8b6815e00012fb11c4d848d5,PennController,21,0,experiment,NULL,PennController,20,_Trial_,End,1682804500702,sonaID,undefined,18,ball,critical,F,50,ball40.jpg,ball60.jpg,low ,memory-momentum10,NULL
1682804822,feac677d8b6815e00012fb11c4d848d5,PennController,27,0,experiment,NULL,PennController,26,_Trial_,Start,1682804500704,sonaID,undefined,24,match,filler,F,50,match40.jpg,match60.jpg,GoalA,memory-momentum10,NULL
1682804822,feac677d8b6815e00012fb11c4d848d5,PennController,27,0,experiment,NULL,PennController,26,_Header_,Start,1682804500704,sonaID,undefined,24,match,filler,F,50,match40.jpg,match60.jpg,GoalA,memory-momentum10,NULL
1682804822,feac677d8b6815e00012fb11c4d848d5,PennController,27,0,experiment,NULL,PennController,26,_Header_,End,1682804500704,sonaID,undefined,24,match,filler,F,50,match40.jpg,match60.jpg,GoalA,memory-momentum10,NULL
1682804822,feac677d8b6815e00012fb11c4d848d5,PennController,27,0,experiment,NULL,Canvas,canvas6,Print,NA,1682804507390,sonaID,undefined,24,match,filler,F,50,match40.jpg,match60.jpg,GoalA,memory-momentum10,NULL
1682804822,feac677d8b6815e00012fb11c4d848d5,PennController,27,0,experiment,NULL,Video,progression,buffer,0.002851,1682804504225,sonaID,undefined,24,match,filler,F,50,match40.jpg,match60.jpg,GoalA,memory-momentum10,NULL
1682804822,feac677d8b6815e00012fb11c4d848d5,PennController,27,0,experiment,NULL,Selector,choice,Selection,option2,1682804514366,sonaID,undefined,24,match,filler,F,50,match40.jpg,match60.jpg,GoalA,memory-momentum10,option2;option1
1682804822,feac677d8b6815e00012fb11c4d848d5,PennController,27,0,experiment,NULL,PennController,26,_Trial_,End,1682804514368,sonaID,undefined,24,match,filler,F,50,match40.jpg,match60.jpg,GoalA,memory-momentum10,NULL
1682804822,feac677d8b6815e00012fb11c4d848d5,PennController,23,0,experiment,NULL,PennController,22,_Trial_,Start,1682804514370,sonaID,undefined,20,cat,filler,F,25,cat15.jpg,cat35.jpg,GoalA,memory-momentum10,NULL
1682804822,feac677d8b6815e00012fb11c4d848d5,PennController,23,0,experiment,NULL,PennController,22,_Header_,Start,1682804514370,sonaID,undefined,20,cat,filler,F,25,cat15.jpg,cat35.jpg,GoalA,memory-momentum10,NULL
1682804822,feac677d8b6815e00012fb11c4d848d5,PennController,23,0,experiment,NULL,PennController,22,_Header_,End,1682804514370,sonaID,undefined,20,cat,filler,F,25,cat15.jpg,cat35.jpg,GoalA,memory-momentum10,NULL
1682804822,feac677d8b6815e00012fb11c4d848d5,PennController,23,0,experiment,NULL,Canvas,canvas6,Print,NA,1682804520055,sonaID,undefined,20,cat,filler,F,25,cat15.jpg,cat35.jpg,GoalA,memory-momentum10,NULL
1682804822,feac677d8b6815e00012fb11c4d848d5,PennController,23,0,experiment,NULL,Video,progression,buffer,0.000627,1682804517889,sonaID,undefined,20,cat,filler,F,25,cat15.jpg,cat35.jpg,GoalA,memory-momentum10,NULL
1682804822,feac677d8b6815e00012fb11c4d848d5,PennController,23,0,experiment,NULL,Selector,choice,Selection,option2,1682804526866,sonaID,undefined,20,cat,filler,F,25,cat15.jpg,cat35.jpg,GoalA,memory-momentum10,option1;option2
1682804822,feac677d8b6815e00012fb11c4d848d5,PennController,23,0,experiment,NULL,PennController,22,_Trial_,End,1682804526868,sonaID,undefined,20,cat,filler,F,25,cat15.jpg,cat35.jpg,GoalA,memory-momentum10,NULL
1682804822,feac677d8b6815e00012fb11c4d848d5,PennController,17,0,experiment,NULL,PennController,16,_Trial_,Start,1682804526869,sonaID,undefined,14,cover,critical,F,25,cover15.jpg,cover33.jpg,low ,memory-momentum10,NULL
1682804822,feac677d8b6815e00012fb11c4d848d5,PennController,17,0,experiment,NULL,PennController,16,_Header_,Start,1682804526869,sonaID,undefined,14,cover,critical,F,25,cover15.jpg,cover33.jpg,low ,memory-momentum10,NULL
1682804822,feac677d8b6815e00012fb11c4d848d5,PennController,17,0,experiment,NULL,PennController,16,_Header_,End,1682804526869,sonaID,undefined,14,cover,critical,F,25,cover15.jpg,cover33.jpg,low ,memory-momentum10,NULL
1682804822,feac677d8b6815e00012fb11c4d848d5,PennController,17,0,experiment,NULL,Canvas,canvas6,Print,NA,1682804533160,sonaID,undefined,14,cover,critical,F,25,cover15.jpg,cover33.jpg,low ,memory-momentum10,NULL
1682804822,feac677d8b6815e00012fb11c4d848d5,PennController,17,0,experiment,NULL,Video,progression,buffer,0.003319,1682804530395,sonaID,undefined,14,cover,critical,F,25,cover15.jpg,cover33.jpg,low ,memory-momentum10,NULL
1682804822,feac677d8b6815e00012fb11c4d848d5,PennController,17,0,experiment,NULL,Selector,choice,Selection,option2,1682804539950,sonaID,undefined,14,cover,critical,F,25,cover15.jpg,cover33.jpg,low ,memory-momentum10,option2;option1
1682804822,feac677d8b6815e00012fb11c4d848d5,PennController,17,0,experiment,NULL,PennController,16,_Trial_,End,1682804539951,sonaID,undefined,14,cover,critical,F,25,cover15.jpg,cover33.jpg,low ,memory-momentum10,NULL
1682804822,feac677d8b6815e00012fb11c4d848d5,PennController,16,0,experiment,NULL,PennController,15,_Trial_,Start,1682804539952,sonaID,undefined,13,mix,critical,F,75,mix65.jpg,mix85.jpg,high,memory-momentum10,NULL
1682804822,feac677d8b6815e00012fb11c4d848d5,PennController,16,0,experiment,NULL,PennController,15,_Header_,Start,1682804539952,sonaID,undefined,13,mix,critical,F,75,mix65.jpg,mix85.jpg,high,memory-momentum10,NULL
1682804822,feac677d8b6815e00012fb11c4d848d5,PennController,16,0,experiment,NULL,PennController,15,_Header_,End,1682804539952,sonaID,undefined,13,mix,critical,F,75,mix65.jpg,mix85.jpg,high,memory-momentum10,NULL
1682804822,feac677d8b6815e00012fb11c4d848d5,PennController,16,0,experiment,NULL,Canvas,canvas6,Print,NA,1682804547642,sonaID,undefined,13,mix,critical,F,75,mix65.jpg,mix85.jpg,high,memory-momentum10,NULL
1682804822,feac677d8b6815e00012fb11c4d848d5,PennController,16,0,experiment,NULL,Video,progression,buffer,0.003482,1682804543476,sonaID,undefined,13,mix,critical,F,75,mix65.jpg,mix85.jpg,high,memory-momentum10,NULL
1682804822,feac677d8b6815e00012fb11c4d848d5,PennController,16,0,experiment,NULL,Selector,choice,Selection,option2,1682804550633,sonaID,undefined,13,mix,critical,F,75,mix65.jpg,mix85.jpg,high,memory-momentum10,option1;option2
1682804822,feac677d8b6815e00012fb11c4d848d5,PennController,16,0,experiment,NULL,PennController,15,_Trial_,End,1682804550635,sonaID,undefined,13,mix,critical,F,75,mix65.jpg,mix85.jpg,high,memory-momentum10,NULL
1682804822,feac677d8b6815e00012fb11c4d848d5,PennController,22,0,experiment,NULL,PennController,21,_Trial_,Start,1682804550637,sonaID,undefined,19,cup,filler,F,75,cup65.jpg,cup85.jpg,GoalB,memory-momentum10,NULL
1682804822,feac677d8b6815e00012fb11c4d848d5,PennController,22,0,experiment,NULL,PennController,21,_Header_,Start,1682804550637,sonaID,undefined,19,cup,filler,F,75,cup65.jpg,cup85.jpg,GoalB,memory-momentum10,NULL
1682804822,feac677d8b6815e00012fb11c4d848d5,PennController,22,0,experiment,NULL,PennController,21,_Header_,End,1682804550637,sonaID,undefined,19,cup,filler,F,75,cup65.jpg,cup85.jpg,GoalB,memory-momentum10,NULL
1682804822,feac677d8b6815e00012fb11c4d848d5,PennController,22,0,experiment,NULL,Canvas,canvas6,Print,NA,1682804558341,sonaID,undefined,19,cup,filler,F,75,cup65.jpg,cup85.jpg,GoalB,memory-momentum10,NULL
1682804822,feac677d8b6815e00012fb11c4d848d5,PennController,22,0,experiment,NULL,Video,progression,buffer,0.003311,1682804554166,sonaID,undefined,19,cup,filler,F,75,cup65.jpg,cup85.jpg,GoalB,memory-momentum10,NULL
1682804822,feac677d8b6815e00012fb11c4d848d5,PennController,22,0,experiment,NULL,Selector,choice,Selection,option1,1682804560183,sonaID,undefined,19,cup,filler,F,75,cup65.jpg,cup85.jpg,GoalB,memory-momentum10,option2;option1
1682804822,feac677d8b6815e00012fb11c4d848d5,PennController,22,0,experiment,NULL,PennController,21,_Trial_,End,1682804560185,sonaID,undefined,19,cup,filler,F,75,cup65.jpg,cup85.jpg,GoalB,memory-momentum10,NULL
1682804822,feac677d8b6815e00012fb11c4d848d5,PennController,9,0,experiment,NULL,PennController,8,_Trial_,Start,1682804560187,sonaID,undefined,6,flower,critical,F,50,flower40.jpg,flower60.jpg,low ,memory-momentum10,NULL
1682804822,feac677d8b6815e00012fb11c4d848d5,PennController,9,0,experiment,NULL,PennController,8,_Header_,Start,1682804560187,sonaID,undefined,6,flower,critical,F,50,flower40.jpg,flower60.jpg,low ,memory-momentum10,NULL
1682804822,feac677d8b6815e00012fb11c4d848d5,PennController,9,0,experiment,NULL,PennController,8,_Header_,End,1682804560187,sonaID,undefined,6,flower,critical,F,50,flower40.jpg,flower60.jpg,low ,memory-momentum10,NULL
1682804822,feac677d8b6815e00012fb11c4d848d5,PennController,9,0,experiment,NULL,Canvas,canvas6,Print,NA,1682804566892,sonaID,undefined,6,flower,critical,F,50,flower40.jpg,flower60.jpg,low ,memory-momentum10,NULL
1682804822,feac677d8b6815e00012fb11c4d848d5,PennController,9,0,experiment,NULL,Video,progression,buffer,0.004062,1682804563714,sonaID,undefined,6,flower,critical,F,50,flower40.jpg,flower60.jpg,low ,memory-momentum10,NULL
1682804822,feac677d8b6815e00012fb11c4d848d5,PennController,9,0,experiment,NULL,Selector,choice,Selection,option1,1682804568634,sonaID,undefined,6,flower,critical,F,50,flower40.jpg,flower60.jpg,low ,memory-momentum10,option1;option2
1682804822,feac677d8b6815e00012fb11c4d848d5,PennController,9,0,experiment,NULL,PennController,8,_Trial_,End,1682804568636,sonaID,undefined,6,flower,critical,F,50,flower40.jpg,flower60.jpg,low ,memory-momentum10,NULL
1682804822,feac677d8b6815e00012fb11c4d848d5,PennController,31,0,experiment,NULL,PennController,30,_Trial_,Start,1682804568637,sonaID,undefined,28,sort,filler,F,75,sort65.jpg,sort85.jpg,GoalA,memory-momentum10,NULL
1682804822,feac677d8b6815e00012fb11c4d848d5,PennController,31,0,experiment,NULL,PennController,30,_Header_,Start,1682804568637,sonaID,undefined,28,sort,filler,F,75,sort65.jpg,sort85.jpg,GoalA,memory-momentum10,NULL
1682804822,feac677d8b6815e00012fb11c4d848d5,PennController,31,0,experiment,NULL,PennController,30,_Header_,End,1682804568637,sonaID,undefined,28,sort,filler,F,75,sort65.jpg,sort85.jpg,GoalA,memory-momentum10,NULL
1682804822,feac677d8b6815e00012fb11c4d848d5,PennController,31,0,experiment,NULL,Canvas,canvas6,Print,NA,1682804576324,sonaID,undefined,28,sort,filler,F,75,sort65.jpg,sort85.jpg,GoalA,memory-momentum10,NULL
1682804822,feac677d8b6815e00012fb11c4d848d5,PennController,31,0,experiment,NULL,Video,progression,buffer,0.001967,1682804572159,sonaID,undefined,28,sort,filler,F,75,sort65.jpg,sort85.jpg,GoalA,memory-momentum10,NULL
1682804822,feac677d8b6815e00012fb11c4d848d5,PennController,31,0,experiment,NULL,Selector,choice,Selection,option2,1682804578365,sonaID,undefined,28,sort,filler,F,75,sort65.jpg,sort85.jpg,GoalA,memory-momentum10,option2;option1
1682804822,feac677d8b6815e00012fb11c4d848d5,PennController,31,0,experiment,NULL,PennController,30,_Trial_,End,1682804578367,sonaID,undefined,28,sort,filler,F,75,sort65.jpg,sort85.jpg,GoalA,memory-momentum10,NULL
1682804822,feac677d8b6815e00012fb11c4d848d5,PennController,20,0,experiment,NULL,PennController,19,_Trial_,Start,1682804578368,sonaID,undefined,17,roll,critical,F,25,roll15.jpg,roll35.jpg,high,memory-momentum10,NULL
1682804822,feac677d8b6815e00012fb11c4d848d5,PennController,20,0,experiment,NULL,PennController,19,_Header_,Start,1682804578368,sonaID,undefined,17,roll,critical,F,25,roll15.jpg,roll35.jpg,high,memory-momentum10,NULL
1682804822,feac677d8b6815e00012fb11c4d848d5,PennController,20,0,experiment,NULL,PennController,19,_Header_,End,1682804578368,sonaID,undefined,17,roll,critical,F,25,roll15.jpg,roll35.jpg,high,memory-momentum10,NULL
1682804822,feac677d8b6815e00012fb11c4d848d5,PennController,20,0,experiment,NULL,Canvas,canvas6,Print,NA,1682804584058,sonaID,undefined,17,roll,critical,F,25,roll15.jpg,roll35.jpg,high,memory-momentum10,NULL
1682804822,feac677d8b6815e00012fb11c4d848d5,PennController,20,0,experiment,NULL,Video,progression,buffer,0.002775,1682804581893,sonaID,undefined,17,roll,critical,F,25,roll15.jpg,roll35.jpg,high,memory-momentum10,NULL
1682804822,feac677d8b6815e00012fb11c4d848d5,PennController,20,0,experiment,NULL,Selector,choice,Selection,option1,1682804585716,sonaID,undefined,17,roll,critical,F,25,roll15.jpg,roll35.jpg,high,memory-momentum10,option1;option2
1682804822,feac677d8b6815e00012fb11c4d848d5,PennController,20,0,experiment,NULL,PennController,19,_Trial_,End,1682804585717,sonaID,undefined,17,roll,critical,F,25,roll15.jpg,roll35.jpg,high,memory-momentum10,NULL
1682804822,feac677d8b6815e00012fb11c4d848d5,PennController,14,0,experiment,NULL,PennController,13,_Trial_,Start,1682804585719,sonaID,undefined,11,beads,critical,F,25,beads15.jpg,beads35.jpg,high,memory-momentum10,NULL
1682804822,feac677d8b6815e00012fb11c4d848d5,PennController,14,0,experiment,NULL,PennController,13,_Header_,Start,1682804585719,sonaID,undefined,11,beads,critical,F,25,beads15.jpg,beads35.jpg,high,memory-momentum10,NULL
1682804822,feac677d8b6815e00012fb11c4d848d5,PennController,14,0,experiment,NULL,PennController,13,_Header_,End,1682804585719,sonaID,undefined,11,beads,critical,F,25,beads15.jpg,beads35.jpg,high,memory-momentum10,NULL
1682804822,feac677d8b6815e00012fb11c4d848d5,PennController,14,0,experiment,NULL,Canvas,canvas6,Print,NA,1682804591423,sonaID,undefined,11,beads,critical,F,25,beads15.jpg,beads35.jpg,high,memory-momentum10,NULL
1682804822,feac677d8b6815e00012fb11c4d848d5,PennController,14,0,experiment,NULL,Video,progression,buffer,0.003812,1682804589248,sonaID,undefined,11,beads,critical,F,25,beads15.jpg,beads35.jpg,high,memory-momentum10,NULL
1682804822,feac677d8b6815e00012fb11c4d848d5,PennController,14,0,experiment,NULL,Selector,choice,Selection,option1,1682804595466,sonaID,undefined,11,beads,critical,F,25,beads15.jpg,beads35.jpg,high,memory-momentum10,option2;option1
1682804822,feac677d8b6815e00012fb11c4d848d5,PennController,14,0,experiment,NULL,PennController,13,_Trial_,End,1682804595467,sonaID,undefined,11,beads,critical,F,25,beads15.jpg,beads35.jpg,high,memory-momentum10,NULL
1682804822,feac677d8b6815e00012fb11c4d848d5,PennController,8,0,experiment,NULL,PennController,7,_Trial_,Start,1682804595469,sonaID,undefined,5,book,critical,F,25,book15.jpg,book35.jpg,high,memory-momentum10,NULL
1682804822,feac677d8b6815e00012fb11c4d848d5,PennController,8,0,experiment,NULL,PennController,7,_Header_,Start,1682804595469,sonaID,undefined,5,book,critical,F,25,book15.jpg,book35.jpg,high,memory-momentum10,NULL
1682804822,feac677d8b6815e00012fb11c4d848d5,PennController,8,0,experiment,NULL,PennController,7,_Header_,End,1682804595469,sonaID,undefined,5,book,critical,F,25,book15.jpg,book35.jpg,high,memory-momentum10,NULL
1682804822,feac677d8b6815e00012fb11c4d848d5,PennController,8,0,experiment,NULL,Canvas,canvas6,Print,NA,1682804601172,sonaID,undefined,5,book,critical,F,25,book15.jpg,book35.jpg,high,memory-momentum10,NULL
1682804822,feac677d8b6815e00012fb11c4d848d5,PennController,8,0,experiment,NULL,Video,progression,buffer,0.004598,1682804599000,sonaID,undefined,5,book,critical,F,25,book15.jpg,book35.jpg,high,memory-momentum10,NULL
1682804822,feac677d8b6815e00012fb11c4d848d5,PennController,8,0,experiment,NULL,Selector,choice,Selection,option2,1682804605849,sonaID,undefined,5,book,critical,F,25,book15.jpg,book35.jpg,high,memory-momentum10,option1;option2
1682804822,feac677d8b6815e00012fb11c4d848d5,PennController,8,0,experiment,NULL,PennController,7,_Trial_,End,1682804605851,sonaID,undefined,5,book,critical,F,25,book15.jpg,book35.jpg,high,memory-momentum10,NULL
1682804822,feac677d8b6815e00012fb11c4d848d5,PennController,26,0,experiment,NULL,PennController,25,_Trial_,Start,1682804605853,sonaID,undefined,23,color,filler,F,25,color15.jpg,color35.jpg,GoalB,memory-momentum10,NULL
1682804822,feac677d8b6815e00012fb11c4d848d5,PennController,26,0,experiment,NULL,PennController,25,_Header_,Start,1682804605853,sonaID,undefined,23,color,filler,F,25,color15.jpg,color35.jpg,GoalB,memory-momentum10,NULL
1682804822,feac677d8b6815e00012fb11c4d848d5,PennController,26,0,experiment,NULL,PennController,25,_Header_,End,1682804605853,sonaID,undefined,23,color,filler,F,25,color15.jpg,color35.jpg,GoalB,memory-momentum10,NULL
1682804822,feac677d8b6815e00012fb11c4d848d5,PennController,26,0,experiment,NULL,Canvas,canvas6,Print,NA,1682804611539,sonaID,undefined,23,color,filler,F,25,color15.jpg,color35.jpg,GoalB,memory-momentum10,NULL
1682804822,feac677d8b6815e00012fb11c4d848d5,PennController,26,0,experiment,NULL,Video,progression,buffer,0.003888,1682804609378,sonaID,undefined,23,color,filler,F,25,color15.jpg,color35.jpg,GoalB,memory-momentum10,NULL
1682804822,feac677d8b6815e00012fb11c4d848d5,PennController,26,0,experiment,NULL,Selector,choice,Selection,option2,1682804614749,sonaID,undefined,23,color,filler,F,25,color15.jpg,color35.jpg,GoalB,memory-momentum10,option1;option2
1682804822,feac677d8b6815e00012fb11c4d848d5,PennController,26,0,experiment,NULL,PennController,25,_Trial_,End,1682804614751,sonaID,undefined,23,color,filler,F,25,color15.jpg,color35.jpg,GoalB,memory-momentum10,NULL
1682804822,feac677d8b6815e00012fb11c4d848d5,PennController,5,0,experiment,NULL,PennController,4,_Trial_,Start,1682804614752,sonaID,undefined,2,door,critical,F,25,door15.jpg,door35.jpg,low ,memory-momentum10,NULL
1682804822,feac677d8b6815e00012fb11c4d848d5,PennController,5,0,experiment,NULL,PennController,4,_Header_,Start,1682804614752,sonaID,undefined,2,door,critical,F,25,door15.jpg,door35.jpg,low ,memory-momentum10,NULL
1682804822,feac677d8b6815e00012fb11c4d848d5,PennController,5,0,experiment,NULL,PennController,4,_Header_,End,1682804614752,sonaID,undefined,2,door,critical,F,25,door15.jpg,door35.jpg,low ,memory-momentum10,NULL
1682804822,feac677d8b6815e00012fb11c4d848d5,PennController,5,0,experiment,NULL,Canvas,canvas6,Print,NA,1682804620460,sonaID,undefined,2,door,critical,F,25,door15.jpg,door35.jpg,low ,memory-momentum10,NULL
1682804822,feac677d8b6815e00012fb11c4d848d5,PennController,5,0,experiment,NULL,Video,progression,buffer,0.002648,1682804618282,sonaID,undefined,2,door,critical,F,25,door15.jpg,door35.jpg,low ,memory-momentum10,NULL
1682804822,feac677d8b6815e00012fb11c4d848d5,PennController,5,0,experiment,NULL,Selector,choice,Selection,option2,1682804622331,sonaID,undefined,2,door,critical,F,25,door15.jpg,door35.jpg,low ,memory-momentum10,option2;option1
1682804822,feac677d8b6815e00012fb11c4d848d5,PennController,5,0,experiment,NULL,PennController,4,_Trial_,End,1682804622332,sonaID,undefined,2,door,critical,F,25,door15.jpg,door35.jpg,low ,memory-momentum10,NULL
1682804822,feac677d8b6815e00012fb11c4d848d5,PennController,7,0,experiment,NULL,PennController,6,_Trial_,Start,1682804622334,sonaID,undefined,4,candy,critical,F,75,candy65.jpg,candy85.jpg,low ,memory-momentum10,NULL
1682804822,feac677d8b6815e00012fb11c4d848d5,PennController,7,0,experiment,NULL,PennController,6,_Header_,Start,1682804622334,sonaID,undefined,4,candy,critical,F,75,candy65.jpg,candy85.jpg,low ,memory-momentum10,NULL
1682804822,feac677d8b6815e00012fb11c4d848d5,PennController,7,0,experiment,NULL,PennController,6,_Header_,End,1682804622334,sonaID,undefined,4,candy,critical,F,75,candy65.jpg,candy85.jpg,low ,memory-momentum10,NULL
1682804822,feac677d8b6815e00012fb11c4d848d5,PennController,7,0,experiment,NULL,Canvas,canvas6,Print,NA,1682804630037,sonaID,undefined,4,candy,critical,F,75,candy65.jpg,candy85.jpg,low ,memory-momentum10,NULL
1682804822,feac677d8b6815e00012fb11c4d848d5,PennController,7,0,experiment,NULL,Video,progression,buffer,0.004749,1682804625866,sonaID,undefined,4,candy,critical,F,75,candy65.jpg,candy85.jpg,low ,memory-momentum10,NULL
1682804822,feac677d8b6815e00012fb11c4d848d5,PennController,7,0,experiment,NULL,Selector,choice,Selection,option1,1682804631882,sonaID,undefined,4,candy,critical,F,75,candy65.jpg,candy85.jpg,low ,memory-momentum10,option1;option2
1682804822,feac677d8b6815e00012fb11c4d848d5,PennController,7,0,experiment,NULL,PennController,6,_Trial_,End,1682804631884,sonaID,undefined,4,candy,critical,F,75,candy65.jpg,candy85.jpg,low ,memory-momentum10,NULL
1682804822,feac677d8b6815e00012fb11c4d848d5,PennController,19,0,experiment,NULL,PennController,18,_Trial_,Start,1682804631885,sonaID,undefined,16,blinds,critical,F,75,blinds66.jpg,blinds84.jpg,low ,memory-momentum10,NULL
1682804822,feac677d8b6815e00012fb11c4d848d5,PennController,19,0,experiment,NULL,PennController,18,_Header_,Start,1682804631885,sonaID,undefined,16,blinds,critical,F,75,blinds66.jpg,blinds84.jpg,low ,memory-momentum10,NULL
1682804822,feac677d8b6815e00012fb11c4d848d5,PennController,19,0,experiment,NULL,PennController,18,_Header_,End,1682804631885,sonaID,undefined,16,blinds,critical,F,75,blinds66.jpg,blinds84.jpg,low ,memory-momentum10,NULL
1682804822,feac677d8b6815e00012fb11c4d848d5,PennController,19,0,experiment,NULL,Canvas,canvas6,Print,NA,1682804641574,sonaID,undefined,16,blinds,critical,F,75,blinds66.jpg,blinds84.jpg,low ,memory-momentum10,NULL
1682804822,feac677d8b6815e00012fb11c4d848d5,PennController,19,0,experiment,NULL,Video,progression,buffer,0.003796,1682804635411,sonaID,undefined,16,blinds,critical,F,75,blinds66.jpg,blinds84.jpg,low ,memory-momentum10,NULL
1682804822,feac677d8b6815e00012fb11c4d848d5,PennController,19,0,experiment,NULL,Selector,choice,Selection,option2,1682804643650,sonaID,undefined,16,blinds,critical,F,75,blinds66.jpg,blinds84.jpg,low ,memory-momentum10,option2;option1
1682804822,feac677d8b6815e00012fb11c4d848d5,PennController,19,0,experiment,NULL,PennController,18,_Trial_,End,1682804643651,sonaID,undefined,16,blinds,critical,F,75,blinds66.jpg,blinds84.jpg,low ,memory-momentum10,NULL
1682804822,feac677d8b6815e00012fb11c4d848d5,PennController,25,0,experiment,NULL,PennController,24,_Trial_,Start,1682804643653,sonaID,undefined,22,wall,filler,F,75,wall65.jpg,wall85.jpg,GoalA,memory-momentum10,NULL
1682804822,feac677d8b6815e00012fb11c4d848d5,PennController,25,0,experiment,NULL,PennController,24,_Header_,Start,1682804643653,sonaID,undefined,22,wall,filler,F,75,wall65.jpg,wall85.jpg,GoalA,memory-momentum10,NULL
1682804822,feac677d8b6815e00012fb11c4d848d5,PennController,25,0,experiment,NULL,PennController,24,_Header_,End,1682804643653,sonaID,undefined,22,wall,filler,F,75,wall65.jpg,wall85.jpg,GoalA,memory-momentum10,NULL
1682804822,feac677d8b6815e00012fb11c4d848d5,PennController,25,0,experiment,NULL,Canvas,canvas6,Print,NA,1682804651358,sonaID,undefined,22,wall,filler,F,75,wall65.jpg,wall85.jpg,GoalA,memory-momentum10,NULL
1682804822,feac677d8b6815e00012fb11c4d848d5,PennController,25,0,experiment,NULL,Video,progression,buffer,0.003484,1682804647185,sonaID,undefined,22,wall,filler,F,75,wall65.jpg,wall85.jpg,GoalA,memory-momentum10,NULL
1682804822,feac677d8b6815e00012fb11c4d848d5,PennController,25,0,experiment,NULL,Selector,choice,Selection,option1,1682804653216,sonaID,undefined,22,wall,filler,F,75,wall65.jpg,wall85.jpg,GoalA,memory-momentum10,option2;option1
1682804822,feac677d8b6815e00012fb11c4d848d5,PennController,25,0,experiment,NULL,PennController,24,_Trial_,End,1682804653218,sonaID,undefined,22,wall,filler,F,75,wall65.jpg,wall85.jpg,GoalA,memory-momentum10,NULL
1682804822,feac677d8b6815e00012fb11c4d848d5,PennController,6,0,experiment,NULL,PennController,5,_Trial_,Start,1682804653220,sonaID,undefined,3,clean,critical,F,50,clean40.jpg,clean60.jpg,high,memory-momentum10,NULL
1682804822,feac677d8b6815e00012fb11c4d848d5,PennController,6,0,experiment,NULL,PennController,5,_Header_,Start,1682804653220,sonaID,undefined,3,clean,critical,F,50,clean40.jpg,clean60.jpg,high,memory-momentum10,NULL
1682804822,feac677d8b6815e00012fb11c4d848d5,PennController,6,0,experiment,NULL,PennController,5,_Header_,End,1682804653220,sonaID,undefined,3,clean,critical,F,50,clean40.jpg,clean60.jpg,high,memory-momentum10,NULL
1682804822,feac677d8b6815e00012fb11c4d848d5,PennController,6,0,experiment,NULL,Canvas,canvas6,Print,NA,1682804659905,sonaID,undefined,3,clean,critical,F,50,clean40.jpg,clean60.jpg,high,memory-momentum10,NULL
1682804822,feac677d8b6815e00012fb11c4d848d5,PennController,6,0,experiment,NULL,Video,progression,buffer,0.001861,1682804656739,sonaID,undefined,3,clean,critical,F,50,clean40.jpg,clean60.jpg,high,memory-momentum10,NULL
1682804822,feac677d8b6815e00012fb11c4d848d5,PennController,6,0,experiment,NULL,Selector,choice,Selection,option1,1682804661281,sonaID,undefined,3,clean,critical,F,50,clean40.jpg,clean60.jpg,high,memory-momentum10,option1;option2
1682804822,feac677d8b6815e00012fb11c4d848d5,PennController,6,0,experiment,NULL,PennController,5,_Trial_,End,1682804661282,sonaID,undefined,3,clean,critical,F,50,clean40.jpg,clean60.jpg,high,memory-momentum10,NULL
1682804822,feac677d8b6815e00012fb11c4d848d5,PennController,29,0,experiment,NULL,PennController,28,_Trial_,Start,1682804661282,sonaID,undefined,26,sandwich,filler,F,25,sandwich15.jpg,sandwich35.jpg,GoalA,memory-momentum10,NULL
1682804822,feac677d8b6815e00012fb11c4d848d5,PennController,29,0,experiment,NULL,PennController,28,_Header_,Start,1682804661282,sonaID,undefined,26,sandwich,filler,F,25,sandwich15.jpg,sandwich35.jpg,GoalA,memory-momentum10,NULL
1682804822,feac677d8b6815e00012fb11c4d848d5,PennController,29,0,experiment,NULL,PennController,28,_Header_,End,1682804661282,sonaID,undefined,26,sandwich,filler,F,25,sandwich15.jpg,sandwich35.jpg,GoalA,memory-momentum10,NULL
1682804822,feac677d8b6815e00012fb11c4d848d5,PennController,29,0,experiment,NULL,Canvas,canvas6,Print,NA,1682804666976,sonaID,undefined,26,sandwich,filler,F,25,sandwich15.jpg,sandwich35.jpg,GoalA,memory-momentum10,NULL
1682804822,feac677d8b6815e00012fb11c4d848d5,PennController,29,0,experiment,NULL,Video,progression,buffer,0.003892,1682804664809,sonaID,undefined,26,sandwich,filler,F,25,sandwich15.jpg,sandwich35.jpg,GoalA,memory-momentum10,NULL
1682804822,feac677d8b6815e00012fb11c4d848d5,PennController,29,0,experiment,NULL,Selector,choice,Selection,option1,1682804668531,sonaID,undefined,26,sandwich,filler,F,25,sandwich15.jpg,sandwich35.jpg,GoalA,memory-momentum10,option1;option2
1682804822,feac677d8b6815e00012fb11c4d848d5,PennController,29,0,experiment,NULL,PennController,28,_Trial_,End,1682804668532,sonaID,undefined,26,sandwich,filler,F,25,sandwich15.jpg,sandwich35.jpg,GoalA,memory-momentum10,NULL
1682804822,feac677d8b6815e00012fb11c4d848d5,PennController,13,0,experiment,NULL,PennController,12,_Trial_,Start,1682804668534,sonaID,undefined,10,train,critical,F,75,train65.jpg,train85.jpg,low ,memory-momentum10,NULL
1682804822,feac677d8b6815e00012fb11c4d848d5,PennController,13,0,experiment,NULL,PennController,12,_Header_,Start,1682804668534,sonaID,undefined,10,train,critical,F,75,train65.jpg,train85.jpg,low ,memory-momentum10,NULL
1682804822,feac677d8b6815e00012fb11c4d848d5,PennController,13,0,experiment,NULL,PennController,12,_Header_,End,1682804668534,sonaID,undefined,10,train,critical,F,75,train65.jpg,train85.jpg,low ,memory-momentum10,NULL
1682804822,feac677d8b6815e00012fb11c4d848d5,PennController,13,0,experiment,NULL,Canvas,canvas6,Print,NA,1682804676223,sonaID,undefined,10,train,critical,F,75,train65.jpg,train85.jpg,low ,memory-momentum10,NULL
1682804822,feac677d8b6815e00012fb11c4d848d5,PennController,13,0,experiment,NULL,Video,progression,buffer,0.002572,1682804672059,sonaID,undefined,10,train,critical,F,75,train65.jpg,train85.jpg,low ,memory-momentum10,NULL
1682804822,feac677d8b6815e00012fb11c4d848d5,PennController,13,0,experiment,NULL,Selector,choice,Selection,option1,1682804678517,sonaID,undefined,10,train,critical,F,75,train65.jpg,train85.jpg,low ,memory-momentum10,option2;option1
1682804822,feac677d8b6815e00012fb11c4d848d5,PennController,13,0,experiment,NULL,PennController,12,_Trial_,End,1682804678518,sonaID,undefined,10,train,critical,F,75,train65.jpg,train85.jpg,low ,memory-momentum10,NULL
1682804822,feac677d8b6815e00012fb11c4d848d5,PennController,18,0,experiment,NULL,PennController,17,_Trial_,Start,1682804678520,sonaID,undefined,15,zip,critical,F,50,zip40.jpg,zip60.jpg,high,memory-momentum10,NULL
1682804822,feac677d8b6815e00012fb11c4d848d5,PennController,18,0,experiment,NULL,PennController,17,_Header_,Start,1682804678520,sonaID,undefined,15,zip,critical,F,50,zip40.jpg,zip60.jpg,high,memory-momentum10,NULL
1682804822,feac677d8b6815e00012fb11c4d848d5,PennController,18,0,experiment,NULL,PennController,17,_Header_,End,1682804678520,sonaID,undefined,15,zip,critical,F,50,zip40.jpg,zip60.jpg,high,memory-momentum10,NULL
1682804822,feac677d8b6815e00012fb11c4d848d5,PennController,18,0,experiment,NULL,Canvas,canvas6,Print,NA,1682804685206,sonaID,undefined,15,zip,critical,F,50,zip40.jpg,zip60.jpg,high,memory-momentum10,NULL
1682804822,feac677d8b6815e00012fb11c4d848d5,PennController,18,0,experiment,NULL,Video,progression,buffer,0.003959,1682804682043,sonaID,undefined,15,zip,critical,F,50,zip40.jpg,zip60.jpg,high,memory-momentum10,NULL
1682804822,feac677d8b6815e00012fb11c4d848d5,PennController,18,0,experiment,NULL,Selector,choice,Selection,option2,1682804687552,sonaID,undefined,15,zip,critical,F,50,zip40.jpg,zip60.jpg,high,memory-momentum10,option1;option2
1682804822,feac677d8b6815e00012fb11c4d848d5,PennController,18,0,experiment,NULL,PennController,17,_Trial_,End,1682804687553,sonaID,undefined,15,zip,critical,F,50,zip40.jpg,zip60.jpg,high,memory-momentum10,NULL
1682804822,feac677d8b6815e00012fb11c4d848d5,PennController,10,0,experiment,NULL,PennController,9,_Trial_,Start,1682804687555,sonaID,undefined,7,stack,critical,F,75,stack65.jpg,stack85.jpg,high,memory-momentum10,NULL
1682804822,feac677d8b6815e00012fb11c4d848d5,PennController,10,0,experiment,NULL,PennController,9,_Header_,Start,1682804687555,sonaID,undefined,7,stack,critical,F,75,stack65.jpg,stack85.jpg,high,memory-momentum10,NULL
1682804822,feac677d8b6815e00012fb11c4d848d5,PennController,10,0,experiment,NULL,PennController,9,_Header_,End,1682804687555,sonaID,undefined,7,stack,critical,F,75,stack65.jpg,stack85.jpg,high,memory-momentum10,NULL
1682804822,feac677d8b6815e00012fb11c4d848d5,PennController,10,0,experiment,NULL,Canvas,canvas6,Print,NA,1682804695252,sonaID,undefined,7,stack,critical,F,75,stack65.jpg,stack85.jpg,high,memory-momentum10,NULL
1682804822,feac677d8b6815e00012fb11c4d848d5,PennController,10,0,experiment,NULL,Video,progression,buffer,0.004704,1682804691085,sonaID,undefined,7,stack,critical,F,75,stack65.jpg,stack85.jpg,high,memory-momentum10,NULL
1682804822,feac677d8b6815e00012fb11c4d848d5,PennController,10,0,experiment,NULL,Selector,choice,Selection,option1,1682804697049,sonaID,undefined,7,stack,critical,F,75,stack65.jpg,stack85.jpg,high,memory-momentum10,option2;option1
1682804822,feac677d8b6815e00012fb11c4d848d5,PennController,10,0,experiment,NULL,PennController,9,_Trial_,End,1682804697051,sonaID,undefined,7,stack,critical,F,75,stack65.jpg,stack85.jpg,high,memory-momentum10,NULL
1682804822,feac677d8b6815e00012fb11c4d848d5,PennController,11,0,experiment,NULL,PennController,10,_Trial_,Start,1682804697053,sonaID,undefined,8,cucumber,critical,F,25,cucumber15.jpg,cucumber33.jpg,low ,memory-momentum10,NULL
1682804822,feac677d8b6815e00012fb11c4d848d5,PennController,11,0,experiment,NULL,PennController,10,_Header_,Start,1682804697053,sonaID,undefined,8,cucumber,critical,F,25,cucumber15.jpg,cucumber33.jpg,low ,memory-momentum10,NULL
1682804822,feac677d8b6815e00012fb11c4d848d5,PennController,11,0,experiment,NULL,PennController,10,_Header_,End,1682804697053,sonaID,undefined,8,cucumber,critical,F,25,cucumber15.jpg,cucumber33.jpg,low ,memory-momentum10,NULL
1682804822,feac677d8b6815e00012fb11c4d848d5,PennController,11,0,experiment,NULL,Canvas,canvas6,Print,NA,1682804703357,sonaID,undefined,8,cucumber,critical,F,25,cucumber15.jpg,cucumber33.jpg,low ,memory-momentum10,NULL
1682804822,feac677d8b6815e00012fb11c4d848d5,PennController,11,0,experiment,NULL,Video,progression,buffer,0.003524,1682804700585,sonaID,undefined,8,cucumber,critical,F,25,cucumber15.jpg,cucumber33.jpg,low ,memory-momentum10,NULL
1682804822,feac677d8b6815e00012fb11c4d848d5,PennController,11,0,experiment,NULL,Selector,choice,Selection,option1,1682804705115,sonaID,undefined,8,cucumber,critical,F,25,cucumber15.jpg,cucumber33.jpg,low ,memory-momentum10,option1;option2
1682804822,feac677d8b6815e00012fb11c4d848d5,PennController,11,0,experiment,NULL,PennController,10,_Trial_,End,1682804705117,sonaID,undefined,8,cucumber,critical,F,25,cucumber15.jpg,cucumber33.jpg,low ,memory-momentum10,NULL
1682804822,feac677d8b6815e00012fb11c4d848d5,PennController,28,0,experiment,NULL,PennController,27,_Trial_,Start,1682804705118,sonaID,undefined,25,house,filler,F,75,house65.jpg,house85.jpg,GoalB,memory-momentum10,NULL
1682804822,feac677d8b6815e00012fb11c4d848d5,PennController,28,0,experiment,NULL,PennController,27,_Header_,Start,1682804705118,sonaID,undefined,25,house,filler,F,75,house65.jpg,house85.jpg,GoalB,memory-momentum10,NULL
1682804822,feac677d8b6815e00012fb11c4d848d5,PennController,28,0,experiment,NULL,PennController,27,_Header_,End,1682804705118,sonaID,undefined,25,house,filler,F,75,house65.jpg,house85.jpg,GoalB,memory-momentum10,NULL
1682804822,feac677d8b6815e00012fb11c4d848d5,PennController,28,0,experiment,NULL,Canvas,canvas6,Print,NA,1682804712804,sonaID,undefined,25,house,filler,F,75,house65.jpg,house85.jpg,GoalB,memory-momentum10,NULL
1682804822,feac677d8b6815e00012fb11c4d848d5,PennController,28,0,experiment,NULL,Video,progression,buffer,0.004179,1682804708644,sonaID,undefined,25,house,filler,F,75,house65.jpg,house85.jpg,GoalB,memory-momentum10,NULL
1682804822,feac677d8b6815e00012fb11c4d848d5,PennController,28,0,experiment,NULL,Selector,choice,Selection,option2,1682804714233,sonaID,undefined,25,house,filler,F,75,house65.jpg,house85.jpg,GoalB,memory-momentum10,option2;option1
1682804822,feac677d8b6815e00012fb11c4d848d5,PennController,28,0,experiment,NULL,PennController,27,_Trial_,End,1682804714234,sonaID,undefined,25,house,filler,F,75,house65.jpg,house85.jpg,GoalB,memory-momentum10,NULL
1682804822,feac677d8b6815e00012fb11c4d848d5,PennController,24,0,experiment,NULL,PennController,23,_Trial_,Start,1682804714236,sonaID,undefined,21,visit,filler,F,50,visit40.jpg,visit60.jpg,GoalB,memory-momentum10,NULL
1682804822,feac677d8b6815e00012fb11c4d848d5,PennController,24,0,experiment,NULL,PennController,23,_Header_,Start,1682804714236,sonaID,undefined,21,visit,filler,F,50,visit40.jpg,visit60.jpg,GoalB,memory-momentum10,NULL
1682804822,feac677d8b6815e00012fb11c4d848d5,PennController,24,0,experiment,NULL,PennController,23,_Header_,End,1682804714236,sonaID,undefined,21,visit,filler,F,50,visit40.jpg,visit60.jpg,GoalB,memory-momentum10,NULL
1682804822,feac677d8b6815e00012fb11c4d848d5,PennController,24,0,experiment,NULL,Canvas,canvas6,Print,NA,1682804720943,sonaID,undefined,21,visit,filler,F,50,visit40.jpg,visit60.jpg,GoalB,memory-momentum10,NULL
1682804822,feac677d8b6815e00012fb11c4d848d5,PennController,24,0,experiment,NULL,Video,progression,buffer,0.003726,1682804717765,sonaID,undefined,21,visit,filler,F,50,visit40.jpg,visit60.jpg,GoalB,memory-momentum10,NULL
1682804822,feac677d8b6815e00012fb11c4d848d5,PennController,24,0,experiment,NULL,Selector,choice,Selection,option1,1682804723482,sonaID,undefined,21,visit,filler,F,50,visit40.jpg,visit60.jpg,GoalB,memory-momentum10,option2;option1
1682804822,feac677d8b6815e00012fb11c4d848d5,PennController,24,0,experiment,NULL,PennController,23,_Trial_,End,1682804723483,sonaID,undefined,21,visit,filler,F,50,visit40.jpg,visit60.jpg,GoalB,memory-momentum10,NULL
1682804822,feac677d8b6815e00012fb11c4d848d5,PennController,12,0,experiment,NULL,PennController,11,_Trial_,Start,1682804723485,sonaID,undefined,9,cake,critical,F,50,cake42.jpg,cake60.jpg,high,memory-momentum10,NULL
1682804822,feac677d8b6815e00012fb11c4d848d5,PennController,12,0,experiment,NULL,PennController,11,_Header_,Start,1682804723485,sonaID,undefined,9,cake,critical,F,50,cake42.jpg,cake60.jpg,high,memory-momentum10,NULL
1682804822,feac677d8b6815e00012fb11c4d848d5,PennController,12,0,experiment,NULL,PennController,11,_Header_,End,1682804723485,sonaID,undefined,9,cake,critical,F,50,cake42.jpg,cake60.jpg,high,memory-momentum10,NULL
1682804822,feac677d8b6815e00012fb11c4d848d5,PennController,12,0,experiment,NULL,Canvas,canvas6,Print,NA,1682804731571,sonaID,undefined,9,cake,critical,F,50,cake42.jpg,cake60.jpg,high,memory-momentum10,NULL
1682804822,feac677d8b6815e00012fb11c4d848d5,PennController,12,0,experiment,NULL,Video,progression,buffer,0.001885,1682804727006,sonaID,undefined,9,cake,critical,F,50,cake42.jpg,cake60.jpg,high,memory-momentum10,NULL
1682804822,feac677d8b6815e00012fb11c4d848d5,PennController,12,0,experiment,NULL,Selector,choice,Selection,option2,1682804733148,sonaID,undefined,9,cake,critical,F,50,cake42.jpg,cake60.jpg,high,memory-momentum10,option2;option1
1682804822,feac677d8b6815e00012fb11c4d848d5,PennController,12,0,experiment,NULL,PennController,11,_Trial_,End,1682804733149,sonaID,undefined,9,cake,critical,F,50,cake42.jpg,cake60.jpg,high,memory-momentum10,NULL
1682804822,feac677d8b6815e00012fb11c4d848d5,PennController,30,0,experiment,NULL,PennController,29,_PreloadFailed_,fixation.png,1682804793156,sonaID,undefined,27,rice,filler,F,50,square40.jpg,square60.jpg,GoalB,memory-momentum10,NULL
1682804822,feac677d8b6815e00012fb11c4d848d5,PennController,30,0,experiment,NULL,PennController,29,_PreloadFailed_,https://raw.githubusercontent.com/karenwli/rep-momentum/main/rice/rice00.jpg,1682804793156,sonaID,undefined,27,rice,filler,F,50,square40.jpg,square60.jpg,GoalB,memory-momentum10,NULL
1682804822,feac677d8b6815e00012fb11c4d848d5,PennController,30,0,experiment,NULL,PennController,29,_PreloadFailed_,https://video.wixstatic.com/video/7cb05b_171840eb277a4ada98d979b740149974/144p/mp4/file.mp4,1682804793156,sonaID,undefined,27,rice,filler,F,50,square40.jpg,square60.jpg,GoalB,memory-momentum10,NULL
1682804822,feac677d8b6815e00012fb11c4d848d5,PennController,30,0,experiment,NULL,PennController,29,_Trial_,Start,1682804793156,sonaID,undefined,27,rice,filler,F,50,square40.jpg,square60.jpg,GoalB,memory-momentum10,NULL
1682804822,feac677d8b6815e00012fb11c4d848d5,PennController,30,0,experiment,NULL,PennController,29,_Header_,Start,1682804793156,sonaID,undefined,27,rice,filler,F,50,square40.jpg,square60.jpg,GoalB,memory-momentum10,NULL
1682804822,feac677d8b6815e00012fb11c4d848d5,PennController,30,0,experiment,NULL,PennController,29,_Header_,End,1682804793156,sonaID,undefined,27,rice,filler,F,50,square40.jpg,square60.jpg,GoalB,memory-momentum10,NULL
1682804822,feac677d8b6815e00012fb11c4d848d5,PennController,30,0,experiment,NULL,Canvas,canvas6,Print,NA,1682804799852,sonaID,undefined,27,rice,filler,F,50,square40.jpg,square60.jpg,GoalB,memory-momentum10,NULL
1682804822,feac677d8b6815e00012fb11c4d848d5,PennController,30,0,experiment,NULL,Video,progression,buffer,0.003232,1682804796684,sonaID,undefined,27,rice,filler,F,50,square40.jpg,square60.jpg,GoalB,memory-momentum10,NULL
1682804822,feac677d8b6815e00012fb11c4d848d5,PennController,30,0,experiment,NULL,Selector,choice,Selection,option2,1682804811715,sonaID,undefined,27,rice,filler,F,50,square40.jpg,square60.jpg,GoalB,memory-momentum10,option2;option1
1682804822,feac677d8b6815e00012fb11c4d848d5,PennController,30,0,experiment,NULL,PennController,29,_Trial_,End,1682804811716,sonaID,undefined,27,rice,filler,F,50,square40.jpg,square60.jpg,GoalB,memory-momentum10,NULL
1682804822,feac677d8b6815e00012fb11c4d848d5,PennController,15,0,experiment,NULL,PennController,14,_Trial_,Start,1682804811718,sonaID,undefined,12,erase,critical,F,50,erase42.jpg,erase60.jpg,low ,memory-momentum10,NULL
1682804822,feac677d8b6815e00012fb11c4d848d5,PennController,15,0,experiment,NULL,PennController,14,_Header_,Start,1682804811718,sonaID,undefined,12,erase,critical,F,50,erase42.jpg,erase60.jpg,low ,memory-momentum10,NULL
1682804822,feac677d8b6815e00012fb11c4d848d5,PennController,15,0,experiment,NULL,PennController,14,_Header_,End,1682804811718,sonaID,undefined,12,erase,critical,F,50,erase42.jpg,erase60.jpg,low ,memory-momentum10,NULL
1682804822,feac677d8b6815e00012fb11c4d848d5,PennController,15,0,experiment,NULL,Canvas,canvas6,Print,NA,1682804819822,sonaID,undefined,12,erase,critical,F,50,erase42.jpg,erase60.jpg,low ,memory-momentum10,NULL
1682804822,feac677d8b6815e00012fb11c4d848d5,PennController,15,0,experiment,NULL,Video,progression,buffer,0.003923,1682804815249,sonaID,undefined,12,erase,critical,F,50,erase42.jpg,erase60.jpg,low ,memory-momentum10,NULL
1682804822,feac677d8b6815e00012fb11c4d848d5,PennController,15,0,experiment,NULL,Selector,choice,Selection,option2,1682804822666,sonaID,undefined,12,erase,critical,F,50,erase42.jpg,erase60.jpg,low ,memory-momentum10,option2;option1
1682804822,feac677d8b6815e00012fb11c4d848d5,PennController,15,0,experiment,NULL,PennController,14,_Trial_,End,1682804822667,sonaID,undefined,12,erase,critical,F,50,erase42.jpg,erase60.jpg,low ,memory-momentum10,NULL
