#
# Results on Wednesday April 26 2023 00:46:56 UTC
# USER AGENT: Mozilla/5.0 (X11; CrOS x86_64 14541.0.0) AppleWebKit/537.36 (KHTML, like Gecko) Chrome/112.0.0.0 Safari/537.36
# Design number was non-random = 12
#
# Columns below this comment are as follows:
# 1. Results reception time.
# 2. MD5 hash of participant's IP address.
# 3. Controller name.
# 4. Order number of item.
# 5. Inner element number.
# 6. Label.
# 7. Latin Square Group.
# 8. PennElementType.
# 9. PennElementName.
# 10. Parameter.
# 11. Value.
# 12. EventTime.
# 13. sonaID.
# 14. Comments.
1682470016,186a39432283e774484001685b5a1e5c,PennController,2,0,consent,NULL,PennController,0,_Trial_,Start,1682469449792,sonaID,NULL
1682470016,186a39432283e774484001685b5a1e5c,PennController,2,0,consent,NULL,PennController,0,_Header_,Start,1682469449792,sonaID,NULL
1682470016,186a39432283e774484001685b5a1e5c,PennController,2,0,consent,NULL,PennController,0,_Header_,End,1682469449792,sonaID,NULL
1682470016,186a39432283e774484001685b5a1e5c,PennController,2,0,consent,NULL,PennController,0,_Trial_,End,1682469569665,sonaID,NULL
# Columns below this comment are as follows:
# 14. ID.
# 15. Comments.
1682470016,186a39432283e774484001685b5a1e5c,PennController,3,0,intro,NULL,PennController,1,_Trial_,Start,1682469569671,sonaID,undefined,NULL
1682470016,186a39432283e774484001685b5a1e5c,PennController,3,0,intro,NULL,PennController,1,_Header_,Start,1682469569671,sonaID,undefined,NULL
1682470016,186a39432283e774484001685b5a1e5c,PennController,3,0,intro,NULL,PennController,1,_Header_,End,1682469569671,sonaID,undefined,NULL
1682470016,186a39432283e774484001685b5a1e5c,PennController,3,0,intro,NULL,TextInput,inputID,EnterReturn,55293435,1682469658077,sonaID,undefined,NULL
1682470016,186a39432283e774484001685b5a1e5c,PennController,3,0,intro,NULL,TextInput,inputID,Final,55293435,1682469658119,sonaID,undefined,NULL
1682470016,186a39432283e774484001685b5a1e5c,PennController,3,0,intro,NULL,TextInput,inputID,First,,1682469646818,sonaID,undefined,5
1682470016,186a39432283e774484001685b5a1e5c,PennController,3,0,intro,NULL,PennController,1,_Trial_,End,1682469658131,sonaID,undefined,NULL
# Columns below this comment are as follows:
# 15. item_number.
# 16. item.
# 17. type.
# 18. Group.
# 19. prog.
# 20. prev_image.
# 21. next_image.
# 22. height.
# 23. memory-momentum10.
# 24. Comments.
1682470016,186a39432283e774484001685b5a1e5c,PennController,22,0,experiment,NULL,PennController,21,_Trial_,Start,1682469658133,sonaID,undefined,19,cup,filler,A,25,cup15.jpg,cup35.jpg,GoalA,memory-momentum10,NULL
1682470016,186a39432283e774484001685b5a1e5c,PennController,22,0,experiment,NULL,PennController,21,_Header_,Start,1682469658133,sonaID,undefined,19,cup,filler,A,25,cup15.jpg,cup35.jpg,GoalA,memory-momentum10,NULL
1682470016,186a39432283e774484001685b5a1e5c,PennController,22,0,experiment,NULL,PennController,21,_Header_,End,1682469658134,sonaID,undefined,19,cup,filler,A,25,cup15.jpg,cup35.jpg,GoalA,memory-momentum10,NULL
1682470016,186a39432283e774484001685b5a1e5c,PennController,22,0,experiment,NULL,Canvas,canvas6,Print,NA,1682469663894,sonaID,undefined,19,cup,filler,A,25,cup15.jpg,cup35.jpg,GoalA,memory-momentum10,NULL
1682470016,186a39432283e774484001685b5a1e5c,PennController,22,0,experiment,NULL,Video,progression,buffer,0.010799,1682469661735,sonaID,undefined,19,cup,filler,A,25,cup15.jpg,cup35.jpg,GoalA,memory-momentum10,NULL
1682470016,186a39432283e774484001685b5a1e5c,PennController,22,0,experiment,NULL,Selector,choice,Selection,option2,1682469670014,sonaID,undefined,19,cup,filler,A,25,cup15.jpg,cup35.jpg,GoalA,memory-momentum10,option2;option1
1682470016,186a39432283e774484001685b5a1e5c,PennController,22,0,experiment,NULL,PennController,21,_Trial_,End,1682469670023,sonaID,undefined,19,cup,filler,A,25,cup15.jpg,cup35.jpg,GoalA,memory-momentum10,NULL
1682470016,186a39432283e774484001685b5a1e5c,PennController,21,0,experiment,NULL,PennController,20,_Trial_,Start,1682469670030,sonaID,undefined,18,ball,critical,A,75,ball65.jpg,ball85.jpg,high,memory-momentum10,NULL
1682470016,186a39432283e774484001685b5a1e5c,PennController,21,0,experiment,NULL,PennController,20,_Header_,Start,1682469670030,sonaID,undefined,18,ball,critical,A,75,ball65.jpg,ball85.jpg,high,memory-momentum10,NULL
1682470016,186a39432283e774484001685b5a1e5c,PennController,21,0,experiment,NULL,PennController,20,_Header_,End,1682469670030,sonaID,undefined,18,ball,critical,A,75,ball65.jpg,ball85.jpg,high,memory-momentum10,NULL
1682470016,186a39432283e774484001685b5a1e5c,PennController,21,0,experiment,NULL,Canvas,canvas6,Print,NA,1682469677737,sonaID,undefined,18,ball,critical,A,75,ball65.jpg,ball85.jpg,high,memory-momentum10,NULL
1682470016,186a39432283e774484001685b5a1e5c,PennController,21,0,experiment,NULL,Video,progression,buffer,0.008515,1682469673569,sonaID,undefined,18,ball,critical,A,75,ball65.jpg,ball85.jpg,high,memory-momentum10,NULL
1682470016,186a39432283e774484001685b5a1e5c,PennController,21,0,experiment,NULL,Selector,choice,Selection,option2,1682469681714,sonaID,undefined,18,ball,critical,A,75,ball65.jpg,ball85.jpg,high,memory-momentum10,option2;option1
1682470016,186a39432283e774484001685b5a1e5c,PennController,21,0,experiment,NULL,PennController,20,_Trial_,End,1682469681716,sonaID,undefined,18,ball,critical,A,75,ball65.jpg,ball85.jpg,high,memory-momentum10,NULL
1682470016,186a39432283e774484001685b5a1e5c,PennController,8,0,experiment,NULL,PennController,7,_Trial_,Start,1682469681719,sonaID,undefined,5,book,critical,A,50,book40.jpg,book60.jpg,low ,memory-momentum10,NULL
1682470016,186a39432283e774484001685b5a1e5c,PennController,8,0,experiment,NULL,PennController,7,_Header_,Start,1682469681719,sonaID,undefined,5,book,critical,A,50,book40.jpg,book60.jpg,low ,memory-momentum10,NULL
1682470016,186a39432283e774484001685b5a1e5c,PennController,8,0,experiment,NULL,PennController,7,_Header_,End,1682469681719,sonaID,undefined,5,book,critical,A,50,book40.jpg,book60.jpg,low ,memory-momentum10,NULL
1682470016,186a39432283e774484001685b5a1e5c,PennController,8,0,experiment,NULL,Canvas,canvas6,Print,NA,1682469688423,sonaID,undefined,5,book,critical,A,50,book40.jpg,book60.jpg,low ,memory-momentum10,NULL
1682470016,186a39432283e774484001685b5a1e5c,PennController,8,0,experiment,NULL,Video,progression,buffer,0.004745,1682469685253,sonaID,undefined,5,book,critical,A,50,book40.jpg,book60.jpg,low ,memory-momentum10,NULL
1682470016,186a39432283e774484001685b5a1e5c,PennController,8,0,experiment,NULL,Selector,choice,Selection,option2,1682469691013,sonaID,undefined,5,book,critical,A,50,book40.jpg,book60.jpg,low ,memory-momentum10,option1;option2
1682470016,186a39432283e774484001685b5a1e5c,PennController,8,0,experiment,NULL,PennController,7,_Trial_,End,1682469691018,sonaID,undefined,5,book,critical,A,50,book40.jpg,book60.jpg,low ,memory-momentum10,NULL
1682470016,186a39432283e774484001685b5a1e5c,PennController,10,0,experiment,NULL,PennController,9,_Trial_,Start,1682469691024,sonaID,undefined,7,stack,critical,A,25,stack15.jpg,stack35.jpg,low ,memory-momentum10,NULL
1682470016,186a39432283e774484001685b5a1e5c,PennController,10,0,experiment,NULL,PennController,9,_Header_,Start,1682469691024,sonaID,undefined,7,stack,critical,A,25,stack15.jpg,stack35.jpg,low ,memory-momentum10,NULL
1682470016,186a39432283e774484001685b5a1e5c,PennController,10,0,experiment,NULL,PennController,9,_Header_,End,1682469691027,sonaID,undefined,7,stack,critical,A,25,stack15.jpg,stack35.jpg,low ,memory-momentum10,NULL
1682470016,186a39432283e774484001685b5a1e5c,PennController,10,0,experiment,NULL,Canvas,canvas6,Print,NA,1682469696725,sonaID,undefined,7,stack,critical,A,25,stack15.jpg,stack35.jpg,low ,memory-momentum10,NULL
1682470016,186a39432283e774484001685b5a1e5c,PennController,10,0,experiment,NULL,Video,progression,buffer,0.007972,1682469694563,sonaID,undefined,7,stack,critical,A,25,stack15.jpg,stack35.jpg,low ,memory-momentum10,NULL
1682470016,186a39432283e774484001685b5a1e5c,PennController,10,0,experiment,NULL,Selector,choice,Selection,option1,1682469698744,sonaID,undefined,7,stack,critical,A,25,stack15.jpg,stack35.jpg,low ,memory-momentum10,option1;option2
1682470016,186a39432283e774484001685b5a1e5c,PennController,10,0,experiment,NULL,PennController,9,_Trial_,End,1682469698747,sonaID,undefined,7,stack,critical,A,25,stack15.jpg,stack35.jpg,low ,memory-momentum10,NULL
1682470016,186a39432283e774484001685b5a1e5c,PennController,9,0,experiment,NULL,PennController,8,_Trial_,Start,1682469698748,sonaID,undefined,6,flower,critical,A,75,flower65.jpg,flower85.jpg,high,memory-momentum10,NULL
1682470016,186a39432283e774484001685b5a1e5c,PennController,9,0,experiment,NULL,PennController,8,_Header_,Start,1682469698748,sonaID,undefined,6,flower,critical,A,75,flower65.jpg,flower85.jpg,high,memory-momentum10,NULL
1682470016,186a39432283e774484001685b5a1e5c,PennController,9,0,experiment,NULL,PennController,8,_Header_,End,1682469698749,sonaID,undefined,6,flower,critical,A,75,flower65.jpg,flower85.jpg,high,memory-momentum10,NULL
1682470016,186a39432283e774484001685b5a1e5c,PennController,9,0,experiment,NULL,Canvas,canvas6,Print,NA,1682469706443,sonaID,undefined,6,flower,critical,A,75,flower65.jpg,flower85.jpg,high,memory-momentum10,NULL
1682470016,186a39432283e774484001685b5a1e5c,PennController,9,0,experiment,NULL,Video,progression,buffer,0.005714,1682469702281,sonaID,undefined,6,flower,critical,A,75,flower65.jpg,flower85.jpg,high,memory-momentum10,NULL
1682470016,186a39432283e774484001685b5a1e5c,PennController,9,0,experiment,NULL,Selector,choice,Selection,option2,1682469710035,sonaID,undefined,6,flower,critical,A,75,flower65.jpg,flower85.jpg,high,memory-momentum10,option2;option1
1682470016,186a39432283e774484001685b5a1e5c,PennController,9,0,experiment,NULL,PennController,8,_Trial_,End,1682469710038,sonaID,undefined,6,flower,critical,A,75,flower65.jpg,flower85.jpg,high,memory-momentum10,NULL
1682470016,186a39432283e774484001685b5a1e5c,PennController,19,0,experiment,NULL,PennController,18,_Trial_,Start,1682469710046,sonaID,undefined,16,blinds,critical,A,25,blinds15.jpg,blinds33.jpg,high,memory-momentum10,NULL
1682470016,186a39432283e774484001685b5a1e5c,PennController,19,0,experiment,NULL,PennController,18,_Header_,Start,1682469710046,sonaID,undefined,16,blinds,critical,A,25,blinds15.jpg,blinds33.jpg,high,memory-momentum10,NULL
1682470016,186a39432283e774484001685b5a1e5c,PennController,19,0,experiment,NULL,PennController,18,_Header_,End,1682469710046,sonaID,undefined,16,blinds,critical,A,25,blinds15.jpg,blinds33.jpg,high,memory-momentum10,NULL
1682470016,186a39432283e774484001685b5a1e5c,PennController,19,0,experiment,NULL,Canvas,canvas6,Print,NA,1682469716355,sonaID,undefined,16,blinds,critical,A,25,blinds15.jpg,blinds33.jpg,high,memory-momentum10,NULL
1682470016,186a39432283e774484001685b5a1e5c,PennController,19,0,experiment,NULL,Video,progression,buffer,0.008122,1682469713591,sonaID,undefined,16,blinds,critical,A,25,blinds15.jpg,blinds33.jpg,high,memory-momentum10,NULL
1682470016,186a39432283e774484001685b5a1e5c,PennController,19,0,experiment,NULL,Selector,choice,Selection,option2,1682469718449,sonaID,undefined,16,blinds,critical,A,25,blinds15.jpg,blinds33.jpg,high,memory-momentum10,option1;option2
1682470016,186a39432283e774484001685b5a1e5c,PennController,19,0,experiment,NULL,PennController,18,_Trial_,End,1682469718452,sonaID,undefined,16,blinds,critical,A,25,blinds15.jpg,blinds33.jpg,high,memory-momentum10,NULL
1682470016,186a39432283e774484001685b5a1e5c,PennController,29,0,experiment,NULL,PennController,28,_Trial_,Start,1682469718453,sonaID,undefined,26,sandwich,filler,A,50,sandwich40.jpg,sandwich60.jpg,GoalB,memory-momentum10,NULL
1682470016,186a39432283e774484001685b5a1e5c,PennController,29,0,experiment,NULL,PennController,28,_Header_,Start,1682469718453,sonaID,undefined,26,sandwich,filler,A,50,sandwich40.jpg,sandwich60.jpg,GoalB,memory-momentum10,NULL
1682470016,186a39432283e774484001685b5a1e5c,PennController,29,0,experiment,NULL,PennController,28,_Header_,End,1682469718454,sonaID,undefined,26,sandwich,filler,A,50,sandwich40.jpg,sandwich60.jpg,GoalB,memory-momentum10,NULL
1682470016,186a39432283e774484001685b5a1e5c,PennController,29,0,experiment,NULL,Canvas,canvas6,Print,NA,1682469725157,sonaID,undefined,26,sandwich,filler,A,50,sandwich40.jpg,sandwich60.jpg,GoalB,memory-momentum10,NULL
1682470016,186a39432283e774484001685b5a1e5c,PennController,29,0,experiment,NULL,Video,progression,buffer,0.009805,1682469721992,sonaID,undefined,26,sandwich,filler,A,50,sandwich40.jpg,sandwich60.jpg,GoalB,memory-momentum10,NULL
1682470016,186a39432283e774484001685b5a1e5c,PennController,29,0,experiment,NULL,Selector,choice,Selection,option1,1682469726821,sonaID,undefined,26,sandwich,filler,A,50,sandwich40.jpg,sandwich60.jpg,GoalB,memory-momentum10,option2;option1
1682470016,186a39432283e774484001685b5a1e5c,PennController,29,0,experiment,NULL,PennController,28,_Trial_,End,1682469726823,sonaID,undefined,26,sandwich,filler,A,50,sandwich40.jpg,sandwich60.jpg,GoalB,memory-momentum10,NULL
1682470016,186a39432283e774484001685b5a1e5c,PennController,11,0,experiment,NULL,PennController,10,_Trial_,Start,1682469726826,sonaID,undefined,8,cucumber,critical,A,50,cucumber42.jpg,cucumber60.jpg,high,memory-momentum10,NULL
1682470016,186a39432283e774484001685b5a1e5c,PennController,11,0,experiment,NULL,PennController,10,_Header_,Start,1682469726826,sonaID,undefined,8,cucumber,critical,A,50,cucumber42.jpg,cucumber60.jpg,high,memory-momentum10,NULL
1682470016,186a39432283e774484001685b5a1e5c,PennController,11,0,experiment,NULL,PennController,10,_Header_,End,1682469726826,sonaID,undefined,8,cucumber,critical,A,50,cucumber42.jpg,cucumber60.jpg,high,memory-momentum10,NULL
1682470016,186a39432283e774484001685b5a1e5c,PennController,11,0,experiment,NULL,Canvas,canvas6,Print,NA,1682469734929,sonaID,undefined,8,cucumber,critical,A,50,cucumber42.jpg,cucumber60.jpg,high,memory-momentum10,NULL
1682470016,186a39432283e774484001685b5a1e5c,PennController,11,0,experiment,NULL,Video,progression,buffer,0.010509,1682469730360,sonaID,undefined,8,cucumber,critical,A,50,cucumber42.jpg,cucumber60.jpg,high,memory-momentum10,NULL
1682470016,186a39432283e774484001685b5a1e5c,PennController,11,0,experiment,NULL,Selector,choice,Selection,option1,1682469738204,sonaID,undefined,8,cucumber,critical,A,50,cucumber42.jpg,cucumber60.jpg,high,memory-momentum10,option1;option2
1682470016,186a39432283e774484001685b5a1e5c,PennController,11,0,experiment,NULL,PennController,10,_Trial_,End,1682469738207,sonaID,undefined,8,cucumber,critical,A,50,cucumber42.jpg,cucumber60.jpg,high,memory-momentum10,NULL
1682470016,186a39432283e774484001685b5a1e5c,PennController,24,0,experiment,NULL,PennController,23,_Trial_,Start,1682469738209,sonaID,undefined,21,visit,filler,A,75,visit65.jpg,visit85.jpg,GoalA,memory-momentum10,NULL
1682470016,186a39432283e774484001685b5a1e5c,PennController,24,0,experiment,NULL,PennController,23,_Header_,Start,1682469738209,sonaID,undefined,21,visit,filler,A,75,visit65.jpg,visit85.jpg,GoalA,memory-momentum10,NULL
1682470016,186a39432283e774484001685b5a1e5c,PennController,24,0,experiment,NULL,PennController,23,_Header_,End,1682469738209,sonaID,undefined,21,visit,filler,A,75,visit65.jpg,visit85.jpg,GoalA,memory-momentum10,NULL
1682470016,186a39432283e774484001685b5a1e5c,PennController,24,0,experiment,NULL,Canvas,canvas6,Print,NA,1682469745920,sonaID,undefined,21,visit,filler,A,75,visit65.jpg,visit85.jpg,GoalA,memory-momentum10,NULL
1682470016,186a39432283e774484001685b5a1e5c,PennController,24,0,experiment,NULL,Video,progression,buffer,0.009252,1682469741743,sonaID,undefined,21,visit,filler,A,75,visit65.jpg,visit85.jpg,GoalA,memory-momentum10,NULL
1682470016,186a39432283e774484001685b5a1e5c,PennController,24,0,experiment,NULL,Selector,choice,Selection,option2,1682469748853,sonaID,undefined,21,visit,filler,A,75,visit65.jpg,visit85.jpg,GoalA,memory-momentum10,option1;option2
1682470016,186a39432283e774484001685b5a1e5c,PennController,24,0,experiment,NULL,PennController,23,_Trial_,End,1682469748859,sonaID,undefined,21,visit,filler,A,75,visit65.jpg,visit85.jpg,GoalA,memory-momentum10,NULL
1682470016,186a39432283e774484001685b5a1e5c,PennController,5,0,experiment,NULL,PennController,4,_Trial_,Start,1682469748861,sonaID,undefined,2,door,critical,A,50,door40.jpg,door60.jpg,high,memory-momentum10,NULL
1682470016,186a39432283e774484001685b5a1e5c,PennController,5,0,experiment,NULL,PennController,4,_Header_,Start,1682469748861,sonaID,undefined,2,door,critical,A,50,door40.jpg,door60.jpg,high,memory-momentum10,NULL
1682470016,186a39432283e774484001685b5a1e5c,PennController,5,0,experiment,NULL,PennController,4,_Header_,End,1682469748862,sonaID,undefined,2,door,critical,A,50,door40.jpg,door60.jpg,high,memory-momentum10,NULL
1682470016,186a39432283e774484001685b5a1e5c,PennController,5,0,experiment,NULL,Canvas,canvas6,Print,NA,1682469755570,sonaID,undefined,2,door,critical,A,50,door40.jpg,door60.jpg,high,memory-momentum10,NULL
1682470016,186a39432283e774484001685b5a1e5c,PennController,5,0,experiment,NULL,Video,progression,buffer,0.01774,1682469752412,sonaID,undefined,2,door,critical,A,50,door40.jpg,door60.jpg,high,memory-momentum10,NULL
1682470016,186a39432283e774484001685b5a1e5c,PennController,5,0,experiment,NULL,Selector,choice,Selection,option2,1682469759275,sonaID,undefined,2,door,critical,A,50,door40.jpg,door60.jpg,high,memory-momentum10,option1;option2
1682470016,186a39432283e774484001685b5a1e5c,PennController,5,0,experiment,NULL,PennController,4,_Trial_,End,1682469759277,sonaID,undefined,2,door,critical,A,50,door40.jpg,door60.jpg,high,memory-momentum10,NULL
1682470016,186a39432283e774484001685b5a1e5c,PennController,26,0,experiment,NULL,PennController,25,_Trial_,Start,1682469759280,sonaID,undefined,23,color,filler,A,50,color40.jpg,color60.jpg,GoalA,memory-momentum10,NULL
1682470016,186a39432283e774484001685b5a1e5c,PennController,26,0,experiment,NULL,PennController,25,_Header_,Start,1682469759280,sonaID,undefined,23,color,filler,A,50,color40.jpg,color60.jpg,GoalA,memory-momentum10,NULL
1682470016,186a39432283e774484001685b5a1e5c,PennController,26,0,experiment,NULL,PennController,25,_Header_,End,1682469759280,sonaID,undefined,23,color,filler,A,50,color40.jpg,color60.jpg,GoalA,memory-momentum10,NULL
1682470016,186a39432283e774484001685b5a1e5c,PennController,26,0,experiment,NULL,Canvas,canvas6,Print,NA,1682469765973,sonaID,undefined,23,color,filler,A,50,color40.jpg,color60.jpg,GoalA,memory-momentum10,NULL
1682470016,186a39432283e774484001685b5a1e5c,PennController,26,0,experiment,NULL,Video,progression,buffer,0.00763,1682469762809,sonaID,undefined,23,color,filler,A,50,color40.jpg,color60.jpg,GoalA,memory-momentum10,NULL
1682470016,186a39432283e774484001685b5a1e5c,PennController,26,0,experiment,NULL,Selector,choice,Selection,option2,1682469768929,sonaID,undefined,23,color,filler,A,50,color40.jpg,color60.jpg,GoalA,memory-momentum10,option1;option2
1682470016,186a39432283e774484001685b5a1e5c,PennController,26,0,experiment,NULL,PennController,25,_Trial_,End,1682469768932,sonaID,undefined,23,color,filler,A,50,color40.jpg,color60.jpg,GoalA,memory-momentum10,NULL
1682470016,186a39432283e774484001685b5a1e5c,PennController,20,0,experiment,NULL,PennController,19,_Trial_,Start,1682469768934,sonaID,undefined,17,roll,critical,A,50,roll40.jpg,roll60.jpg,low ,memory-momentum10,NULL
1682470016,186a39432283e774484001685b5a1e5c,PennController,20,0,experiment,NULL,PennController,19,_Header_,Start,1682469768934,sonaID,undefined,17,roll,critical,A,50,roll40.jpg,roll60.jpg,low ,memory-momentum10,NULL
1682470016,186a39432283e774484001685b5a1e5c,PennController,20,0,experiment,NULL,PennController,19,_Header_,End,1682469768935,sonaID,undefined,17,roll,critical,A,50,roll40.jpg,roll60.jpg,low ,memory-momentum10,NULL
1682470016,186a39432283e774484001685b5a1e5c,PennController,20,0,experiment,NULL,Canvas,canvas6,Print,NA,1682469775644,sonaID,undefined,17,roll,critical,A,50,roll40.jpg,roll60.jpg,low ,memory-momentum10,NULL
1682470016,186a39432283e774484001685b5a1e5c,PennController,20,0,experiment,NULL,Video,progression,buffer,0.011715,1682469772474,sonaID,undefined,17,roll,critical,A,50,roll40.jpg,roll60.jpg,low ,memory-momentum10,NULL
1682470016,186a39432283e774484001685b5a1e5c,PennController,20,0,experiment,NULL,Selector,choice,Selection,option1,1682469780290,sonaID,undefined,17,roll,critical,A,50,roll40.jpg,roll60.jpg,low ,memory-momentum10,option2;option1
1682470016,186a39432283e774484001685b5a1e5c,PennController,20,0,experiment,NULL,PennController,19,_Trial_,End,1682469780294,sonaID,undefined,17,roll,critical,A,50,roll40.jpg,roll60.jpg,low ,memory-momentum10,NULL
1682470016,186a39432283e774484001685b5a1e5c,PennController,17,0,experiment,NULL,PennController,16,_Trial_,Start,1682469780296,sonaID,undefined,14,cover,critical,A,50,cover42.jpg,cover60.jpg,high,memory-momentum10,NULL
1682470016,186a39432283e774484001685b5a1e5c,PennController,17,0,experiment,NULL,PennController,16,_Header_,Start,1682469780296,sonaID,undefined,14,cover,critical,A,50,cover42.jpg,cover60.jpg,high,memory-momentum10,NULL
1682470016,186a39432283e774484001685b5a1e5c,PennController,17,0,experiment,NULL,PennController,16,_Header_,End,1682469780296,sonaID,undefined,14,cover,critical,A,50,cover42.jpg,cover60.jpg,high,memory-momentum10,NULL
1682470016,186a39432283e774484001685b5a1e5c,PennController,17,0,experiment,NULL,Canvas,canvas6,Print,NA,1682469788402,sonaID,undefined,14,cover,critical,A,50,cover42.jpg,cover60.jpg,high,memory-momentum10,NULL
1682470016,186a39432283e774484001685b5a1e5c,PennController,17,0,experiment,NULL,Video,progression,buffer,0.008049,1682469783829,sonaID,undefined,14,cover,critical,A,50,cover42.jpg,cover60.jpg,high,memory-momentum10,NULL
1682470016,186a39432283e774484001685b5a1e5c,PennController,17,0,experiment,NULL,Selector,choice,Selection,option1,1682469791530,sonaID,undefined,14,cover,critical,A,50,cover42.jpg,cover60.jpg,high,memory-momentum10,option2;option1
1682470016,186a39432283e774484001685b5a1e5c,PennController,17,0,experiment,NULL,PennController,16,_Trial_,End,1682469791534,sonaID,undefined,14,cover,critical,A,50,cover42.jpg,cover60.jpg,high,memory-momentum10,NULL
1682470016,186a39432283e774484001685b5a1e5c,PennController,32,0,experiment,NULL,PennController,31,_Trial_,Start,1682469791535,sonaID,undefined,29,frog,filler,A,50,frog40.jpg,frog60.jpg,GoalA,memory-momentum10,NULL
1682470016,186a39432283e774484001685b5a1e5c,PennController,32,0,experiment,NULL,PennController,31,_Header_,Start,1682469791535,sonaID,undefined,29,frog,filler,A,50,frog40.jpg,frog60.jpg,GoalA,memory-momentum10,NULL
1682470016,186a39432283e774484001685b5a1e5c,PennController,32,0,experiment,NULL,PennController,31,_Header_,End,1682469791536,sonaID,undefined,29,frog,filler,A,50,frog40.jpg,frog60.jpg,GoalA,memory-momentum10,NULL
1682470016,186a39432283e774484001685b5a1e5c,PennController,32,0,experiment,NULL,Canvas,canvas6,Print,NA,1682469798242,sonaID,undefined,29,frog,filler,A,50,frog40.jpg,frog60.jpg,GoalA,memory-momentum10,NULL
1682470016,186a39432283e774484001685b5a1e5c,PennController,32,0,experiment,NULL,Video,progression,buffer,0.00865,1682469795069,sonaID,undefined,29,frog,filler,A,50,frog40.jpg,frog60.jpg,GoalA,memory-momentum10,NULL
1682470016,186a39432283e774484001685b5a1e5c,PennController,32,0,experiment,NULL,Selector,choice,Selection,option2,1682469803597,sonaID,undefined,29,frog,filler,A,50,frog40.jpg,frog60.jpg,GoalA,memory-momentum10,option2;option1
1682470016,186a39432283e774484001685b5a1e5c,PennController,32,0,experiment,NULL,PennController,31,_Trial_,End,1682469803602,sonaID,undefined,29,frog,filler,A,50,frog40.jpg,frog60.jpg,GoalA,memory-momentum10,NULL
1682470016,186a39432283e774484001685b5a1e5c,PennController,7,0,experiment,NULL,PennController,6,_Trial_,Start,1682469803604,sonaID,undefined,4,candy,critical,A,25,candy15.jpg,candy35.jpg,high,memory-momentum10,NULL
1682470016,186a39432283e774484001685b5a1e5c,PennController,7,0,experiment,NULL,PennController,6,_Header_,Start,1682469803604,sonaID,undefined,4,candy,critical,A,25,candy15.jpg,candy35.jpg,high,memory-momentum10,NULL
1682470016,186a39432283e774484001685b5a1e5c,PennController,7,0,experiment,NULL,PennController,6,_Header_,End,1682469803605,sonaID,undefined,4,candy,critical,A,25,candy15.jpg,candy35.jpg,high,memory-momentum10,NULL
1682470016,186a39432283e774484001685b5a1e5c,PennController,7,0,experiment,NULL,Canvas,canvas6,Print,NA,1682469809311,sonaID,undefined,4,candy,critical,A,25,candy15.jpg,candy35.jpg,high,memory-momentum10,NULL
1682470016,186a39432283e774484001685b5a1e5c,PennController,7,0,experiment,NULL,Video,progression,buffer,0.007056,1682469807139,sonaID,undefined,4,candy,critical,A,25,candy15.jpg,candy35.jpg,high,memory-momentum10,NULL
1682470016,186a39432283e774484001685b5a1e5c,PennController,7,0,experiment,NULL,Selector,choice,Selection,option2,1682469810745,sonaID,undefined,4,candy,critical,A,25,candy15.jpg,candy35.jpg,high,memory-momentum10,option2;option1
1682470016,186a39432283e774484001685b5a1e5c,PennController,7,0,experiment,NULL,PennController,6,_Trial_,End,1682469810747,sonaID,undefined,4,candy,critical,A,25,candy15.jpg,candy35.jpg,high,memory-momentum10,NULL
1682470016,186a39432283e774484001685b5a1e5c,PennController,25,0,experiment,NULL,PennController,24,_Trial_,Start,1682469810749,sonaID,undefined,22,wall,filler,A,25,wall15.jpg,wall35.jpg,GoalB,memory-momentum10,NULL
1682470016,186a39432283e774484001685b5a1e5c,PennController,25,0,experiment,NULL,PennController,24,_Header_,Start,1682469810749,sonaID,undefined,22,wall,filler,A,25,wall15.jpg,wall35.jpg,GoalB,memory-momentum10,NULL
1682470016,186a39432283e774484001685b5a1e5c,PennController,25,0,experiment,NULL,PennController,24,_Header_,End,1682469810756,sonaID,undefined,22,wall,filler,A,25,wall15.jpg,wall35.jpg,GoalB,memory-momentum10,NULL
1682470016,186a39432283e774484001685b5a1e5c,PennController,25,0,experiment,NULL,Canvas,canvas6,Print,NA,1682469816473,sonaID,undefined,22,wall,filler,A,25,wall15.jpg,wall35.jpg,GoalB,memory-momentum10,NULL
1682470016,186a39432283e774484001685b5a1e5c,PennController,25,0,experiment,NULL,Video,progression,buffer,0.007906,1682469814291,sonaID,undefined,22,wall,filler,A,25,wall15.jpg,wall35.jpg,GoalB,memory-momentum10,NULL
1682470016,186a39432283e774484001685b5a1e5c,PennController,25,0,experiment,NULL,Selector,choice,Selection,option2,1682469819168,sonaID,undefined,22,wall,filler,A,25,wall15.jpg,wall35.jpg,GoalB,memory-momentum10,option1;option2
1682470016,186a39432283e774484001685b5a1e5c,PennController,25,0,experiment,NULL,PennController,24,_Trial_,End,1682469819171,sonaID,undefined,22,wall,filler,A,25,wall15.jpg,wall35.jpg,GoalB,memory-momentum10,NULL
1682470016,186a39432283e774484001685b5a1e5c,PennController,4,0,experiment,NULL,PennController,3,_Trial_,Start,1682469819180,sonaID,undefined,1,vase,critical,A,25,vase15.jpg,vase35.jpg,low ,memory-momentum10,NULL
1682470016,186a39432283e774484001685b5a1e5c,PennController,4,0,experiment,NULL,PennController,3,_Header_,Start,1682469819180,sonaID,undefined,1,vase,critical,A,25,vase15.jpg,vase35.jpg,low ,memory-momentum10,NULL
1682470016,186a39432283e774484001685b5a1e5c,PennController,4,0,experiment,NULL,PennController,3,_Header_,End,1682469819181,sonaID,undefined,1,vase,critical,A,25,vase15.jpg,vase35.jpg,low ,memory-momentum10,NULL
1682470016,186a39432283e774484001685b5a1e5c,PennController,4,0,experiment,NULL,Canvas,canvas6,Print,NA,1682469824885,sonaID,undefined,1,vase,critical,A,25,vase15.jpg,vase35.jpg,low ,memory-momentum10,NULL
1682470016,186a39432283e774484001685b5a1e5c,PennController,4,0,experiment,NULL,Video,progression,buffer,0.010547,1682469822715,sonaID,undefined,1,vase,critical,A,25,vase15.jpg,vase35.jpg,low ,memory-momentum10,NULL
1682470016,186a39432283e774484001685b5a1e5c,PennController,4,0,experiment,NULL,Selector,choice,Selection,option2,1682469826217,sonaID,undefined,1,vase,critical,A,25,vase15.jpg,vase35.jpg,low ,memory-momentum10,option2;option1
1682470016,186a39432283e774484001685b5a1e5c,PennController,4,0,experiment,NULL,PennController,3,_Trial_,End,1682469826220,sonaID,undefined,1,vase,critical,A,25,vase15.jpg,vase35.jpg,low ,memory-momentum10,NULL
1682470016,186a39432283e774484001685b5a1e5c,PennController,15,0,experiment,NULL,PennController,14,_Trial_,Start,1682469826222,sonaID,undefined,12,erase,critical,A,75,erase66.jpg,erase84.jpg,high,memory-momentum10,NULL
1682470016,186a39432283e774484001685b5a1e5c,PennController,15,0,experiment,NULL,PennController,14,_Header_,Start,1682469826222,sonaID,undefined,12,erase,critical,A,75,erase66.jpg,erase84.jpg,high,memory-momentum10,NULL
1682470016,186a39432283e774484001685b5a1e5c,PennController,15,0,experiment,NULL,PennController,14,_Header_,End,1682469826222,sonaID,undefined,12,erase,critical,A,75,erase66.jpg,erase84.jpg,high,memory-momentum10,NULL
1682470016,186a39432283e774484001685b5a1e5c,PennController,15,0,experiment,NULL,Canvas,canvas6,Print,NA,1682469835922,sonaID,undefined,12,erase,critical,A,75,erase66.jpg,erase84.jpg,high,memory-momentum10,NULL
1682470016,186a39432283e774484001685b5a1e5c,PennController,15,0,experiment,NULL,Video,progression,buffer,0.000943,1682469829755,sonaID,undefined,12,erase,critical,A,75,erase66.jpg,erase84.jpg,high,memory-momentum10,NULL
1682470016,186a39432283e774484001685b5a1e5c,PennController,15,0,experiment,NULL,Selector,choice,Selection,option2,1682469837667,sonaID,undefined,12,erase,critical,A,75,erase66.jpg,erase84.jpg,high,memory-momentum10,option2;option1
1682470016,186a39432283e774484001685b5a1e5c,PennController,15,0,experiment,NULL,PennController,14,_Trial_,End,1682469837670,sonaID,undefined,12,erase,critical,A,75,erase66.jpg,erase84.jpg,high,memory-momentum10,NULL
1682470016,186a39432283e774484001685b5a1e5c,PennController,13,0,experiment,NULL,PennController,12,_Trial_,Start,1682469837672,sonaID,undefined,10,train,critical,A,25,train15.jpg,train35.jpg,high,memory-momentum10,NULL
1682470016,186a39432283e774484001685b5a1e5c,PennController,13,0,experiment,NULL,PennController,12,_Header_,Start,1682469837672,sonaID,undefined,10,train,critical,A,25,train15.jpg,train35.jpg,high,memory-momentum10,NULL
1682470016,186a39432283e774484001685b5a1e5c,PennController,13,0,experiment,NULL,PennController,12,_Header_,End,1682469837672,sonaID,undefined,10,train,critical,A,25,train15.jpg,train35.jpg,high,memory-momentum10,NULL
1682470016,186a39432283e774484001685b5a1e5c,PennController,13,0,experiment,NULL,Canvas,canvas6,Print,NA,1682469843363,sonaID,undefined,10,train,critical,A,25,train15.jpg,train35.jpg,high,memory-momentum10,NULL
1682470016,186a39432283e774484001685b5a1e5c,PennController,13,0,experiment,NULL,Video,progression,buffer,0.009174,1682469841202,sonaID,undefined,10,train,critical,A,25,train15.jpg,train35.jpg,high,memory-momentum10,NULL
1682470016,186a39432283e774484001685b5a1e5c,PennController,13,0,experiment,NULL,Selector,choice,Selection,option1,1682469847787,sonaID,undefined,10,train,critical,A,25,train15.jpg,train35.jpg,high,memory-momentum10,option2;option1
1682470016,186a39432283e774484001685b5a1e5c,PennController,13,0,experiment,NULL,PennController,12,_Trial_,End,1682469847790,sonaID,undefined,10,train,critical,A,25,train15.jpg,train35.jpg,high,memory-momentum10,NULL
1682470016,186a39432283e774484001685b5a1e5c,PennController,28,0,experiment,NULL,PennController,27,_Trial_,Start,1682469847792,sonaID,undefined,25,house,filler,A,25,house15.jpg,house35.jpg,GoalA,memory-momentum10,NULL
1682470016,186a39432283e774484001685b5a1e5c,PennController,28,0,experiment,NULL,PennController,27,_Header_,Start,1682469847792,sonaID,undefined,25,house,filler,A,25,house15.jpg,house35.jpg,GoalA,memory-momentum10,NULL
1682470016,186a39432283e774484001685b5a1e5c,PennController,28,0,experiment,NULL,PennController,27,_Header_,End,1682469847792,sonaID,undefined,25,house,filler,A,25,house15.jpg,house35.jpg,GoalA,memory-momentum10,NULL
1682470016,186a39432283e774484001685b5a1e5c,PennController,28,0,experiment,NULL,Canvas,canvas6,Print,NA,1682469853497,sonaID,undefined,25,house,filler,A,25,house15.jpg,house35.jpg,GoalA,memory-momentum10,NULL
1682470016,186a39432283e774484001685b5a1e5c,PennController,28,0,experiment,NULL,Video,progression,buffer,0.007431,1682469851328,sonaID,undefined,25,house,filler,A,25,house15.jpg,house35.jpg,GoalA,memory-momentum10,NULL
1682470016,186a39432283e774484001685b5a1e5c,PennController,28,0,experiment,NULL,Selector,choice,Selection,option2,1682469856243,sonaID,undefined,25,house,filler,A,25,house15.jpg,house35.jpg,GoalA,memory-momentum10,option2;option1
1682470016,186a39432283e774484001685b5a1e5c,PennController,28,0,experiment,NULL,PennController,27,_Trial_,End,1682469856250,sonaID,undefined,25,house,filler,A,25,house15.jpg,house35.jpg,GoalA,memory-momentum10,NULL
1682470016,186a39432283e774484001685b5a1e5c,PennController,18,0,experiment,NULL,PennController,17,_Trial_,Start,1682469856252,sonaID,undefined,15,zip,critical,A,75,zip65.jpg,zip85.jpg,low ,memory-momentum10,NULL
1682470016,186a39432283e774484001685b5a1e5c,PennController,18,0,experiment,NULL,PennController,17,_Header_,Start,1682469856252,sonaID,undefined,15,zip,critical,A,75,zip65.jpg,zip85.jpg,low ,memory-momentum10,NULL
1682470016,186a39432283e774484001685b5a1e5c,PennController,18,0,experiment,NULL,PennController,17,_Header_,End,1682469856252,sonaID,undefined,15,zip,critical,A,75,zip65.jpg,zip85.jpg,low ,memory-momentum10,NULL
1682470016,186a39432283e774484001685b5a1e5c,PennController,18,0,experiment,NULL,Canvas,canvas6,Print,NA,1682469863951,sonaID,undefined,15,zip,critical,A,75,zip65.jpg,zip85.jpg,low ,memory-momentum10,NULL
1682470016,186a39432283e774484001685b5a1e5c,PennController,18,0,experiment,NULL,Video,progression,buffer,0.009317,1682469859785,sonaID,undefined,15,zip,critical,A,75,zip65.jpg,zip85.jpg,low ,memory-momentum10,NULL
1682470016,186a39432283e774484001685b5a1e5c,PennController,18,0,experiment,NULL,Selector,choice,Selection,option2,1682469867045,sonaID,undefined,15,zip,critical,A,75,zip65.jpg,zip85.jpg,low ,memory-momentum10,option2;option1
1682470016,186a39432283e774484001685b5a1e5c,PennController,18,0,experiment,NULL,PennController,17,_Trial_,End,1682469867047,sonaID,undefined,15,zip,critical,A,75,zip65.jpg,zip85.jpg,low ,memory-momentum10,NULL
1682470016,186a39432283e774484001685b5a1e5c,PennController,6,0,experiment,NULL,PennController,5,_Trial_,Start,1682469867049,sonaID,undefined,3,clean,critical,A,75,clean65.jpg,clean85.jpg,low ,memory-momentum10,NULL
1682470016,186a39432283e774484001685b5a1e5c,PennController,6,0,experiment,NULL,PennController,5,_Header_,Start,1682469867049,sonaID,undefined,3,clean,critical,A,75,clean65.jpg,clean85.jpg,low ,memory-momentum10,NULL
1682470016,186a39432283e774484001685b5a1e5c,PennController,6,0,experiment,NULL,PennController,5,_Header_,End,1682469867049,sonaID,undefined,3,clean,critical,A,75,clean65.jpg,clean85.jpg,low ,memory-momentum10,NULL
1682470016,186a39432283e774484001685b5a1e5c,PennController,6,0,experiment,NULL,Canvas,canvas6,Print,NA,1682469874757,sonaID,undefined,3,clean,critical,A,75,clean65.jpg,clean85.jpg,low ,memory-momentum10,NULL
1682470016,186a39432283e774484001685b5a1e5c,PennController,6,0,experiment,NULL,Video,progression,buffer,0.00937,1682469870589,sonaID,undefined,3,clean,critical,A,75,clean65.jpg,clean85.jpg,low ,memory-momentum10,NULL
1682470016,186a39432283e774484001685b5a1e5c,PennController,6,0,experiment,NULL,Selector,choice,Selection,option1,1682469875910,sonaID,undefined,3,clean,critical,A,75,clean65.jpg,clean85.jpg,low ,memory-momentum10,option1;option2
1682470016,186a39432283e774484001685b5a1e5c,PennController,6,0,experiment,NULL,PennController,5,_Trial_,End,1682469875913,sonaID,undefined,3,clean,critical,A,75,clean65.jpg,clean85.jpg,low ,memory-momentum10,NULL
1682470016,186a39432283e774484001685b5a1e5c,PennController,30,0,experiment,NULL,PennController,29,_PreloadFailed_,fixation.png,1682469935924,sonaID,undefined,27,rice,filler,A,75,square65.jpg,square85.jpg,GoalA,memory-momentum10,NULL
1682470016,186a39432283e774484001685b5a1e5c,PennController,30,0,experiment,NULL,PennController,29,_PreloadFailed_,https://raw.githubusercontent.com/karenwli/rep-momentum/main/rice/rice00.jpg,1682469935924,sonaID,undefined,27,rice,filler,A,75,square65.jpg,square85.jpg,GoalA,memory-momentum10,NULL
1682470016,186a39432283e774484001685b5a1e5c,PennController,30,0,experiment,NULL,PennController,29,_PreloadFailed_,https://video.wixstatic.com/video/7cb05b_41aae65ca27d43c3a89b5e46732d18ff/144p/mp4/file.mp4,1682469935924,sonaID,undefined,27,rice,filler,A,75,square65.jpg,square85.jpg,GoalA,memory-momentum10,NULL
1682470016,186a39432283e774484001685b5a1e5c,PennController,30,0,experiment,NULL,PennController,29,_Trial_,Start,1682469935924,sonaID,undefined,27,rice,filler,A,75,square65.jpg,square85.jpg,GoalA,memory-momentum10,NULL
1682470016,186a39432283e774484001685b5a1e5c,PennController,30,0,experiment,NULL,PennController,29,_Header_,Start,1682469935924,sonaID,undefined,27,rice,filler,A,75,square65.jpg,square85.jpg,GoalA,memory-momentum10,NULL
1682470016,186a39432283e774484001685b5a1e5c,PennController,30,0,experiment,NULL,PennController,29,_Header_,End,1682469935924,sonaID,undefined,27,rice,filler,A,75,square65.jpg,square85.jpg,GoalA,memory-momentum10,NULL
1682470016,186a39432283e774484001685b5a1e5c,PennController,30,0,experiment,NULL,Canvas,canvas6,Print,NA,1682469943621,sonaID,undefined,27,rice,filler,A,75,square65.jpg,square85.jpg,GoalA,memory-momentum10,NULL
1682470016,186a39432283e774484001685b5a1e5c,PennController,30,0,experiment,NULL,Video,progression,buffer,0.005484,1682469939454,sonaID,undefined,27,rice,filler,A,75,square65.jpg,square85.jpg,GoalA,memory-momentum10,NULL
1682470016,186a39432283e774484001685b5a1e5c,PennController,30,0,experiment,NULL,Selector,choice,Selection,option2,1682469962104,sonaID,undefined,27,rice,filler,A,75,square65.jpg,square85.jpg,GoalA,memory-momentum10,option1;option2
1682470016,186a39432283e774484001685b5a1e5c,PennController,30,0,experiment,NULL,PennController,29,_Trial_,End,1682469962107,sonaID,undefined,27,rice,filler,A,75,square65.jpg,square85.jpg,GoalA,memory-momentum10,NULL
1682470016,186a39432283e774484001685b5a1e5c,PennController,14,0,experiment,NULL,PennController,13,_Trial_,Start,1682469962109,sonaID,undefined,11,beads,critical,A,50,beads40.jpg,beads60.jpg,low ,memory-momentum10,NULL
1682470016,186a39432283e774484001685b5a1e5c,PennController,14,0,experiment,NULL,PennController,13,_Header_,Start,1682469962109,sonaID,undefined,11,beads,critical,A,50,beads40.jpg,beads60.jpg,low ,memory-momentum10,NULL
1682470016,186a39432283e774484001685b5a1e5c,PennController,14,0,experiment,NULL,PennController,13,_Header_,End,1682469962109,sonaID,undefined,11,beads,critical,A,50,beads40.jpg,beads60.jpg,low ,memory-momentum10,NULL
1682470016,186a39432283e774484001685b5a1e5c,PennController,14,0,experiment,NULL,Canvas,canvas6,Print,NA,1682469968817,sonaID,undefined,11,beads,critical,A,50,beads40.jpg,beads60.jpg,low ,memory-momentum10,NULL
1682470016,186a39432283e774484001685b5a1e5c,PennController,14,0,experiment,NULL,Video,progression,buffer,0.00659,1682469965640,sonaID,undefined,11,beads,critical,A,50,beads40.jpg,beads60.jpg,low ,memory-momentum10,NULL
1682470016,186a39432283e774484001685b5a1e5c,PennController,14,0,experiment,NULL,Selector,choice,Selection,option2,1682469970481,sonaID,undefined,11,beads,critical,A,50,beads40.jpg,beads60.jpg,low ,memory-momentum10,option2;option1
1682470016,186a39432283e774484001685b5a1e5c,PennController,14,0,experiment,NULL,PennController,13,_Trial_,End,1682469970483,sonaID,undefined,11,beads,critical,A,50,beads40.jpg,beads60.jpg,low ,memory-momentum10,NULL
1682470016,186a39432283e774484001685b5a1e5c,PennController,23,0,experiment,NULL,PennController,22,_Trial_,Start,1682469970503,sonaID,undefined,20,cat,filler,A,50,cat40.jpg,cat60.jpg,GoalB,memory-momentum10,NULL
1682470016,186a39432283e774484001685b5a1e5c,PennController,23,0,experiment,NULL,PennController,22,_Header_,Start,1682469970503,sonaID,undefined,20,cat,filler,A,50,cat40.jpg,cat60.jpg,GoalB,memory-momentum10,NULL
1682470016,186a39432283e774484001685b5a1e5c,PennController,23,0,experiment,NULL,PennController,22,_Header_,End,1682469970504,sonaID,undefined,20,cat,filler,A,50,cat40.jpg,cat60.jpg,GoalB,memory-momentum10,NULL
1682470016,186a39432283e774484001685b5a1e5c,PennController,23,0,experiment,NULL,Canvas,canvas6,Print,NA,1682469977203,sonaID,undefined,20,cat,filler,A,50,cat40.jpg,cat60.jpg,GoalB,memory-momentum10,NULL
1682470016,186a39432283e774484001685b5a1e5c,PennController,23,0,experiment,NULL,Video,progression,buffer,0.009464,1682469974038,sonaID,undefined,20,cat,filler,A,50,cat40.jpg,cat60.jpg,GoalB,memory-momentum10,NULL
1682470016,186a39432283e774484001685b5a1e5c,PennController,23,0,experiment,NULL,Selector,choice,Selection,option2,1682469978278,sonaID,undefined,20,cat,filler,A,50,cat40.jpg,cat60.jpg,GoalB,memory-momentum10,option1;option2
1682470016,186a39432283e774484001685b5a1e5c,PennController,23,0,experiment,NULL,PennController,22,_Trial_,End,1682469978280,sonaID,undefined,20,cat,filler,A,50,cat40.jpg,cat60.jpg,GoalB,memory-momentum10,NULL
1682470016,186a39432283e774484001685b5a1e5c,PennController,31,0,experiment,NULL,PennController,30,_Trial_,Start,1682469978282,sonaID,undefined,28,sort,filler,A,25,sort15.jpg,sort35.jpg,GoalB,memory-momentum10,NULL
1682470016,186a39432283e774484001685b5a1e5c,PennController,31,0,experiment,NULL,PennController,30,_Header_,Start,1682469978282,sonaID,undefined,28,sort,filler,A,25,sort15.jpg,sort35.jpg,GoalB,memory-momentum10,NULL
1682470016,186a39432283e774484001685b5a1e5c,PennController,31,0,experiment,NULL,PennController,30,_Header_,End,1682469978282,sonaID,undefined,28,sort,filler,A,25,sort15.jpg,sort35.jpg,GoalB,memory-momentum10,NULL
1682470016,186a39432283e774484001685b5a1e5c,PennController,31,0,experiment,NULL,Canvas,canvas6,Print,NA,1682469983978,sonaID,undefined,28,sort,filler,A,25,sort15.jpg,sort35.jpg,GoalB,memory-momentum10,NULL
1682470016,186a39432283e774484001685b5a1e5c,PennController,31,0,experiment,NULL,Video,progression,buffer,0.00517,1682469981810,sonaID,undefined,28,sort,filler,A,25,sort15.jpg,sort35.jpg,GoalB,memory-momentum10,NULL
1682470016,186a39432283e774484001685b5a1e5c,PennController,31,0,experiment,NULL,Selector,choice,Selection,option1,1682469985917,sonaID,undefined,28,sort,filler,A,25,sort15.jpg,sort35.jpg,GoalB,memory-momentum10,option2;option1
1682470016,186a39432283e774484001685b5a1e5c,PennController,31,0,experiment,NULL,PennController,30,_Trial_,End,1682469985920,sonaID,undefined,28,sort,filler,A,25,sort15.jpg,sort35.jpg,GoalB,memory-momentum10,NULL
1682470016,186a39432283e774484001685b5a1e5c,PennController,16,0,experiment,NULL,PennController,15,_Trial_,Start,1682469985921,sonaID,undefined,13,mix,critical,A,25,mix15.jpg,mix35.jpg,low ,memory-momentum10,NULL
1682470016,186a39432283e774484001685b5a1e5c,PennController,16,0,experiment,NULL,PennController,15,_Header_,Start,1682469985921,sonaID,undefined,13,mix,critical,A,25,mix15.jpg,mix35.jpg,low ,memory-momentum10,NULL
1682470016,186a39432283e774484001685b5a1e5c,PennController,16,0,experiment,NULL,PennController,15,_Header_,End,1682469985921,sonaID,undefined,13,mix,critical,A,25,mix15.jpg,mix35.jpg,low ,memory-momentum10,NULL
1682470016,186a39432283e774484001685b5a1e5c,PennController,16,0,experiment,NULL,Canvas,canvas6,Print,NA,1682469991627,sonaID,undefined,13,mix,critical,A,25,mix15.jpg,mix35.jpg,low ,memory-momentum10,NULL
1682470016,186a39432283e774484001685b5a1e5c,PennController,16,0,experiment,NULL,Video,progression,buffer,0.010379,1682469989457,sonaID,undefined,13,mix,critical,A,25,mix15.jpg,mix35.jpg,low ,memory-momentum10,NULL
1682470016,186a39432283e774484001685b5a1e5c,PennController,16,0,experiment,NULL,Selector,choice,Selection,option2,1682469994365,sonaID,undefined,13,mix,critical,A,25,mix15.jpg,mix35.jpg,low ,memory-momentum10,option2;option1
1682470016,186a39432283e774484001685b5a1e5c,PennController,16,0,experiment,NULL,PennController,15,_Trial_,End,1682469994368,sonaID,undefined,13,mix,critical,A,25,mix15.jpg,mix35.jpg,low ,memory-momentum10,NULL
1682470016,186a39432283e774484001685b5a1e5c,PennController,12,0,experiment,NULL,PennController,11,_Trial_,Start,1682469994370,sonaID,undefined,9,cake,critical,A,75,cake66.jpg,cake84.jpg,low ,memory-momentum10,NULL
1682470016,186a39432283e774484001685b5a1e5c,PennController,12,0,experiment,NULL,PennController,11,_Header_,Start,1682469994370,sonaID,undefined,9,cake,critical,A,75,cake66.jpg,cake84.jpg,low ,memory-momentum10,NULL
1682470016,186a39432283e774484001685b5a1e5c,PennController,12,0,experiment,NULL,PennController,11,_Header_,End,1682469994373,sonaID,undefined,9,cake,critical,A,75,cake66.jpg,cake84.jpg,low ,memory-momentum10,NULL
1682470016,186a39432283e774484001685b5a1e5c,PennController,12,0,experiment,NULL,Canvas,canvas6,Print,NA,1682470004084,sonaID,undefined,9,cake,critical,A,75,cake66.jpg,cake84.jpg,low ,memory-momentum10,NULL
1682470016,186a39432283e774484001685b5a1e5c,PennController,12,0,experiment,NULL,Video,progression,buffer,0.009197,1682469997908,sonaID,undefined,9,cake,critical,A,75,cake66.jpg,cake84.jpg,low ,memory-momentum10,NULL
1682470016,186a39432283e774484001685b5a1e5c,PennController,12,0,experiment,NULL,Selector,choice,Selection,option1,1682470006492,sonaID,undefined,9,cake,critical,A,75,cake66.jpg,cake84.jpg,low ,memory-momentum10,option2;option1
1682470016,186a39432283e774484001685b5a1e5c,PennController,12,0,experiment,NULL,PennController,11,_Trial_,End,1682470006495,sonaID,undefined,9,cake,critical,A,75,cake66.jpg,cake84.jpg,low ,memory-momentum10,NULL
1682470016,186a39432283e774484001685b5a1e5c,PennController,27,0,experiment,NULL,PennController,26,_Trial_,Start,1682470006497,sonaID,undefined,24,match,filler,A,75,match65.jpg,match85.jpg,GoalB,memory-momentum10,NULL
1682470016,186a39432283e774484001685b5a1e5c,PennController,27,0,experiment,NULL,PennController,26,_Header_,Start,1682470006497,sonaID,undefined,24,match,filler,A,75,match65.jpg,match85.jpg,GoalB,memory-momentum10,NULL
1682470016,186a39432283e774484001685b5a1e5c,PennController,27,0,experiment,NULL,PennController,26,_Header_,End,1682470006497,sonaID,undefined,24,match,filler,A,75,match65.jpg,match85.jpg,GoalB,memory-momentum10,NULL
1682470016,186a39432283e774484001685b5a1e5c,PennController,27,0,experiment,NULL,Canvas,canvas6,Print,NA,1682470014211,sonaID,undefined,24,match,filler,A,75,match65.jpg,match85.jpg,GoalB,memory-momentum10,NULL
1682470016,186a39432283e774484001685b5a1e5c,PennController,27,0,experiment,NULL,Video,progression,buffer,0.00944,1682470010038,sonaID,undefined,24,match,filler,A,75,match65.jpg,match85.jpg,GoalB,memory-momentum10,NULL
1682470016,186a39432283e774484001685b5a1e5c,PennController,27,0,experiment,NULL,Selector,choice,Selection,option1,1682470016203,sonaID,undefined,24,match,filler,A,75,match65.jpg,match85.jpg,GoalB,memory-momentum10,option1;option2
1682470016,186a39432283e774484001685b5a1e5c,PennController,27,0,experiment,NULL,PennController,26,_Trial_,End,1682470016206,sonaID,undefined,24,match,filler,A,75,match65.jpg,match85.jpg,GoalB,memory-momentum10,NULL
