#
# Results on Tuesday April 25 2023 19:35:40 UTC
# USER AGENT: Mozilla/5.0 (Macintosh; Intel Mac OS X 10_15_7) AppleWebKit/537.36 (KHTML, like Gecko) Chrome/112.0.0.0 Safari/537.36
# Design number was non-random = 9
#
# Columns below this comment are as follows:
# 1. Results reception time.
# 2. MD5 hash of participant's IP address.
# 3. Controller name.
# 4. Order number of item.
# 5. Inner element number.
# 6. Label.
# 7. Latin Square Group.
# 8. PennElementType.
# 9. PennElementName.
# 10. Parameter.
# 11. Value.
# 12. EventTime.
# 13. sonaID.
# 14. Comments.
1682451340,75d6408d61cb48ce53fd65382a0ab004,PennController,2,0,consent,NULL,PennController,0,_Trial_,Start,1682450950067,sonaID,NULL
1682451340,75d6408d61cb48ce53fd65382a0ab004,PennController,2,0,consent,NULL,PennController,0,_Header_,Start,1682450950067,sonaID,NULL
1682451340,75d6408d61cb48ce53fd65382a0ab004,PennController,2,0,consent,NULL,PennController,0,_Header_,End,1682450950067,sonaID,NULL
1682451340,75d6408d61cb48ce53fd65382a0ab004,PennController,2,0,consent,NULL,PennController,0,_Trial_,End,1682451003915,sonaID,NULL
# Columns below this comment are as follows:
# 14. ID.
# 15. Comments.
1682451340,75d6408d61cb48ce53fd65382a0ab004,PennController,3,0,intro,NULL,PennController,1,_Trial_,Start,1682451003917,sonaID,undefined,NULL
1682451340,75d6408d61cb48ce53fd65382a0ab004,PennController,3,0,intro,NULL,PennController,1,_Header_,Start,1682451003917,sonaID,undefined,NULL
1682451340,75d6408d61cb48ce53fd65382a0ab004,PennController,3,0,intro,NULL,PennController,1,_Header_,End,1682451003917,sonaID,undefined,NULL
1682451340,75d6408d61cb48ce53fd65382a0ab004,PennController,3,0,intro,NULL,TextInput,inputID,EnterReturn,18552748,1682451011119,sonaID,undefined,NULL
1682451340,75d6408d61cb48ce53fd65382a0ab004,PennController,3,0,intro,NULL,TextInput,inputID,Final,18552748,1682451011139,sonaID,undefined,NULL
1682451340,75d6408d61cb48ce53fd65382a0ab004,PennController,3,0,intro,NULL,TextInput,inputID,First,,1682451006825,sonaID,undefined,1
1682451340,75d6408d61cb48ce53fd65382a0ab004,PennController,3,0,intro,NULL,PennController,1,_Trial_,End,1682451011139,sonaID,undefined,NULL
# Columns below this comment are as follows:
# 15. item_number.
# 16. item.
# 17. type.
# 18. Group.
# 19. prog.
# 20. prev_image.
# 21. next_image.
# 22. height.
# 23. memory-momentum10.
# 24. Comments.
1682451340,75d6408d61cb48ce53fd65382a0ab004,PennController,20,0,experiment,NULL,PennController,19,_Trial_,Start,1682451011140,sonaID,undefined,17,roll,critical,D,50,roll40.jpg,roll60.jpg,high,memory-momentum10,NULL
1682451340,75d6408d61cb48ce53fd65382a0ab004,PennController,20,0,experiment,NULL,PennController,19,_Header_,Start,1682451011140,sonaID,undefined,17,roll,critical,D,50,roll40.jpg,roll60.jpg,high,memory-momentum10,NULL
1682451340,75d6408d61cb48ce53fd65382a0ab004,PennController,20,0,experiment,NULL,PennController,19,_Header_,End,1682451011140,sonaID,undefined,17,roll,critical,D,50,roll40.jpg,roll60.jpg,high,memory-momentum10,NULL
1682451340,75d6408d61cb48ce53fd65382a0ab004,PennController,20,0,experiment,NULL,Canvas,canvas6,Print,NA,1682451017867,sonaID,undefined,17,roll,critical,D,50,roll40.jpg,roll60.jpg,high,memory-momentum10,NULL
1682451340,75d6408d61cb48ce53fd65382a0ab004,PennController,20,0,experiment,NULL,Video,progression,buffer,0,1682451014678,sonaID,undefined,17,roll,critical,D,50,roll40.jpg,roll60.jpg,high,memory-momentum10,NULL
1682451340,75d6408d61cb48ce53fd65382a0ab004,PennController,20,0,experiment,NULL,Selector,choice,Selection,option1,1682451020606,sonaID,undefined,17,roll,critical,D,50,roll40.jpg,roll60.jpg,high,memory-momentum10,option1;option2
1682451340,75d6408d61cb48ce53fd65382a0ab004,PennController,20,0,experiment,NULL,PennController,19,_Trial_,End,1682451020609,sonaID,undefined,17,roll,critical,D,50,roll40.jpg,roll60.jpg,high,memory-momentum10,NULL
1682451340,75d6408d61cb48ce53fd65382a0ab004,PennController,8,0,experiment,NULL,PennController,7,_Trial_,Start,1682451020611,sonaID,undefined,5,book,critical,D,50,book40.jpg,book60.jpg,high,memory-momentum10,NULL
1682451340,75d6408d61cb48ce53fd65382a0ab004,PennController,8,0,experiment,NULL,PennController,7,_Header_,Start,1682451020611,sonaID,undefined,5,book,critical,D,50,book40.jpg,book60.jpg,high,memory-momentum10,NULL
1682451340,75d6408d61cb48ce53fd65382a0ab004,PennController,8,0,experiment,NULL,PennController,7,_Header_,End,1682451020611,sonaID,undefined,5,book,critical,D,50,book40.jpg,book60.jpg,high,memory-momentum10,NULL
1682451340,75d6408d61cb48ce53fd65382a0ab004,PennController,8,0,experiment,NULL,Canvas,canvas6,Print,NA,1682451027301,sonaID,undefined,5,book,critical,D,50,book40.jpg,book60.jpg,high,memory-momentum10,NULL
1682451340,75d6408d61cb48ce53fd65382a0ab004,PennController,8,0,experiment,NULL,Video,progression,buffer,0.002555,1682451024133,sonaID,undefined,5,book,critical,D,50,book40.jpg,book60.jpg,high,memory-momentum10,NULL
1682451340,75d6408d61cb48ce53fd65382a0ab004,PennController,8,0,experiment,NULL,Selector,choice,Selection,option2,1682451029045,sonaID,undefined,5,book,critical,D,50,book40.jpg,book60.jpg,high,memory-momentum10,option2;option1
1682451340,75d6408d61cb48ce53fd65382a0ab004,PennController,8,0,experiment,NULL,PennController,7,_Trial_,End,1682451029047,sonaID,undefined,5,book,critical,D,50,book40.jpg,book60.jpg,high,memory-momentum10,NULL
1682451340,75d6408d61cb48ce53fd65382a0ab004,PennController,15,0,experiment,NULL,PennController,14,_Trial_,Start,1682451029049,sonaID,undefined,12,erase,critical,D,75,erase66.jpg,erase84.jpg,low ,memory-momentum10,NULL
1682451340,75d6408d61cb48ce53fd65382a0ab004,PennController,15,0,experiment,NULL,PennController,14,_Header_,Start,1682451029049,sonaID,undefined,12,erase,critical,D,75,erase66.jpg,erase84.jpg,low ,memory-momentum10,NULL
1682451340,75d6408d61cb48ce53fd65382a0ab004,PennController,15,0,experiment,NULL,PennController,14,_Header_,End,1682451029049,sonaID,undefined,12,erase,critical,D,75,erase66.jpg,erase84.jpg,low ,memory-momentum10,NULL
1682451340,75d6408d61cb48ce53fd65382a0ab004,PennController,15,0,experiment,NULL,Canvas,canvas6,Print,NA,1682451038750,sonaID,undefined,12,erase,critical,D,75,erase66.jpg,erase84.jpg,low ,memory-momentum10,NULL
1682451340,75d6408d61cb48ce53fd65382a0ab004,PennController,15,0,experiment,NULL,Video,progression,buffer,0.002518,1682451032572,sonaID,undefined,12,erase,critical,D,75,erase66.jpg,erase84.jpg,low ,memory-momentum10,NULL
1682451340,75d6408d61cb48ce53fd65382a0ab004,PennController,15,0,experiment,NULL,Selector,choice,Selection,option2,1682451042225,sonaID,undefined,12,erase,critical,D,75,erase66.jpg,erase84.jpg,low ,memory-momentum10,option1;option2
1682451340,75d6408d61cb48ce53fd65382a0ab004,PennController,15,0,experiment,NULL,PennController,14,_Trial_,End,1682451042226,sonaID,undefined,12,erase,critical,D,75,erase66.jpg,erase84.jpg,low ,memory-momentum10,NULL
1682451340,75d6408d61cb48ce53fd65382a0ab004,PennController,29,0,experiment,NULL,PennController,28,_Trial_,Start,1682451042228,sonaID,undefined,26,sandwich,filler,D,50,sandwich40.jpg,sandwich60.jpg,GoalA,memory-momentum10,NULL
1682451340,75d6408d61cb48ce53fd65382a0ab004,PennController,29,0,experiment,NULL,PennController,28,_Header_,Start,1682451042228,sonaID,undefined,26,sandwich,filler,D,50,sandwich40.jpg,sandwich60.jpg,GoalA,memory-momentum10,NULL
1682451340,75d6408d61cb48ce53fd65382a0ab004,PennController,29,0,experiment,NULL,PennController,28,_Header_,End,1682451042228,sonaID,undefined,26,sandwich,filler,D,50,sandwich40.jpg,sandwich60.jpg,GoalA,memory-momentum10,NULL
1682451340,75d6408d61cb48ce53fd65382a0ab004,PennController,29,0,experiment,NULL,Canvas,canvas6,Print,NA,1682451048935,sonaID,undefined,26,sandwich,filler,D,50,sandwich40.jpg,sandwich60.jpg,GoalA,memory-momentum10,NULL
1682451340,75d6408d61cb48ce53fd65382a0ab004,PennController,29,0,experiment,NULL,Video,progression,buffer,0.002552,1682451045755,sonaID,undefined,26,sandwich,filler,D,50,sandwich40.jpg,sandwich60.jpg,GoalA,memory-momentum10,NULL
1682451340,75d6408d61cb48ce53fd65382a0ab004,PennController,29,0,experiment,NULL,Selector,choice,Selection,option1,1682451050094,sonaID,undefined,26,sandwich,filler,D,50,sandwich40.jpg,sandwich60.jpg,GoalA,memory-momentum10,option1;option2
1682451340,75d6408d61cb48ce53fd65382a0ab004,PennController,29,0,experiment,NULL,PennController,28,_Trial_,End,1682451050096,sonaID,undefined,26,sandwich,filler,D,50,sandwich40.jpg,sandwich60.jpg,GoalA,memory-momentum10,NULL
1682451340,75d6408d61cb48ce53fd65382a0ab004,PennController,31,0,experiment,NULL,PennController,30,_Trial_,Start,1682451050098,sonaID,undefined,28,sort,filler,D,25,sort15.jpg,sort35.jpg,GoalA,memory-momentum10,NULL
1682451340,75d6408d61cb48ce53fd65382a0ab004,PennController,31,0,experiment,NULL,PennController,30,_Header_,Start,1682451050098,sonaID,undefined,28,sort,filler,D,25,sort15.jpg,sort35.jpg,GoalA,memory-momentum10,NULL
1682451340,75d6408d61cb48ce53fd65382a0ab004,PennController,31,0,experiment,NULL,PennController,30,_Header_,End,1682451050098,sonaID,undefined,28,sort,filler,D,25,sort15.jpg,sort35.jpg,GoalA,memory-momentum10,NULL
1682451340,75d6408d61cb48ce53fd65382a0ab004,PennController,31,0,experiment,NULL,Canvas,canvas6,Print,NA,1682451055796,sonaID,undefined,28,sort,filler,D,25,sort15.jpg,sort35.jpg,GoalA,memory-momentum10,NULL
1682451340,75d6408d61cb48ce53fd65382a0ab004,PennController,31,0,experiment,NULL,Video,progression,buffer,0.004705,1682451053628,sonaID,undefined,28,sort,filler,D,25,sort15.jpg,sort35.jpg,GoalA,memory-momentum10,NULL
1682451340,75d6408d61cb48ce53fd65382a0ab004,PennController,31,0,experiment,NULL,Selector,choice,Selection,option1,1682451060682,sonaID,undefined,28,sort,filler,D,25,sort15.jpg,sort35.jpg,GoalA,memory-momentum10,option2;option1
1682451340,75d6408d61cb48ce53fd65382a0ab004,PennController,31,0,experiment,NULL,PennController,30,_Trial_,End,1682451060684,sonaID,undefined,28,sort,filler,D,25,sort15.jpg,sort35.jpg,GoalA,memory-momentum10,NULL
1682451340,75d6408d61cb48ce53fd65382a0ab004,PennController,16,0,experiment,NULL,PennController,15,_Trial_,Start,1682451060686,sonaID,undefined,13,mix,critical,D,25,mix15.jpg,mix35.jpg,high,memory-momentum10,NULL
1682451340,75d6408d61cb48ce53fd65382a0ab004,PennController,16,0,experiment,NULL,PennController,15,_Header_,Start,1682451060686,sonaID,undefined,13,mix,critical,D,25,mix15.jpg,mix35.jpg,high,memory-momentum10,NULL
1682451340,75d6408d61cb48ce53fd65382a0ab004,PennController,16,0,experiment,NULL,PennController,15,_Header_,End,1682451060686,sonaID,undefined,13,mix,critical,D,25,mix15.jpg,mix35.jpg,high,memory-momentum10,NULL
1682451340,75d6408d61cb48ce53fd65382a0ab004,PennController,16,0,experiment,NULL,Canvas,canvas6,Print,NA,1682451066383,sonaID,undefined,13,mix,critical,D,25,mix15.jpg,mix35.jpg,high,memory-momentum10,NULL
1682451340,75d6408d61cb48ce53fd65382a0ab004,PennController,16,0,experiment,NULL,Video,progression,buffer,0.003394,1682451064213,sonaID,undefined,13,mix,critical,D,25,mix15.jpg,mix35.jpg,high,memory-momentum10,NULL
1682451340,75d6408d61cb48ce53fd65382a0ab004,PennController,16,0,experiment,NULL,Selector,choice,Selection,option1,1682451067856,sonaID,undefined,13,mix,critical,D,25,mix15.jpg,mix35.jpg,high,memory-momentum10,option2;option1
1682451340,75d6408d61cb48ce53fd65382a0ab004,PennController,16,0,experiment,NULL,PennController,15,_Trial_,End,1682451067858,sonaID,undefined,13,mix,critical,D,25,mix15.jpg,mix35.jpg,high,memory-momentum10,NULL
1682451340,75d6408d61cb48ce53fd65382a0ab004,PennController,5,0,experiment,NULL,PennController,4,_Trial_,Start,1682451067860,sonaID,undefined,2,door,critical,D,50,door40.jpg,door60.jpg,low ,memory-momentum10,NULL
1682451340,75d6408d61cb48ce53fd65382a0ab004,PennController,5,0,experiment,NULL,PennController,4,_Header_,Start,1682451067860,sonaID,undefined,2,door,critical,D,50,door40.jpg,door60.jpg,low ,memory-momentum10,NULL
1682451340,75d6408d61cb48ce53fd65382a0ab004,PennController,5,0,experiment,NULL,PennController,4,_Header_,End,1682451067860,sonaID,undefined,2,door,critical,D,50,door40.jpg,door60.jpg,low ,memory-momentum10,NULL
1682451340,75d6408d61cb48ce53fd65382a0ab004,PennController,5,0,experiment,NULL,Canvas,canvas6,Print,NA,1682451074581,sonaID,undefined,2,door,critical,D,50,door40.jpg,door60.jpg,low ,memory-momentum10,NULL
1682451340,75d6408d61cb48ce53fd65382a0ab004,PennController,5,0,experiment,NULL,Video,progression,buffer,0,1682451071386,sonaID,undefined,2,door,critical,D,50,door40.jpg,door60.jpg,low ,memory-momentum10,NULL
1682451340,75d6408d61cb48ce53fd65382a0ab004,PennController,5,0,experiment,NULL,Selector,choice,Selection,option2,1682451077164,sonaID,undefined,2,door,critical,D,50,door40.jpg,door60.jpg,low ,memory-momentum10,option2;option1
1682451340,75d6408d61cb48ce53fd65382a0ab004,PennController,5,0,experiment,NULL,PennController,4,_Trial_,End,1682451077165,sonaID,undefined,2,door,critical,D,50,door40.jpg,door60.jpg,low ,memory-momentum10,NULL
1682451340,75d6408d61cb48ce53fd65382a0ab004,PennController,18,0,experiment,NULL,PennController,17,_Trial_,Start,1682451077166,sonaID,undefined,15,zip,critical,D,75,zip65.jpg,zip85.jpg,high,memory-momentum10,NULL
1682451340,75d6408d61cb48ce53fd65382a0ab004,PennController,18,0,experiment,NULL,PennController,17,_Header_,Start,1682451077166,sonaID,undefined,15,zip,critical,D,75,zip65.jpg,zip85.jpg,high,memory-momentum10,NULL
1682451340,75d6408d61cb48ce53fd65382a0ab004,PennController,18,0,experiment,NULL,PennController,17,_Header_,End,1682451077166,sonaID,undefined,15,zip,critical,D,75,zip65.jpg,zip85.jpg,high,memory-momentum10,NULL
1682451340,75d6408d61cb48ce53fd65382a0ab004,PennController,18,0,experiment,NULL,Canvas,canvas6,Print,NA,1682451084867,sonaID,undefined,15,zip,critical,D,75,zip65.jpg,zip85.jpg,high,memory-momentum10,NULL
1682451340,75d6408d61cb48ce53fd65382a0ab004,PennController,18,0,experiment,NULL,Video,progression,buffer,0.003569,1682451080692,sonaID,undefined,15,zip,critical,D,75,zip65.jpg,zip85.jpg,high,memory-momentum10,NULL
1682451340,75d6408d61cb48ce53fd65382a0ab004,PennController,18,0,experiment,NULL,Selector,choice,Selection,option2,1682451087427,sonaID,undefined,15,zip,critical,D,75,zip65.jpg,zip85.jpg,high,memory-momentum10,option2;option1
1682451340,75d6408d61cb48ce53fd65382a0ab004,PennController,18,0,experiment,NULL,PennController,17,_Trial_,End,1682451087430,sonaID,undefined,15,zip,critical,D,75,zip65.jpg,zip85.jpg,high,memory-momentum10,NULL
1682451340,75d6408d61cb48ce53fd65382a0ab004,PennController,30,0,experiment,NULL,PennController,29,_PreloadFailed_,fixation.png,1682451147439,sonaID,undefined,27,rice,filler,D,75,square65.jpg,square85.jpg,GoalB,memory-momentum10,NULL
1682451340,75d6408d61cb48ce53fd65382a0ab004,PennController,30,0,experiment,NULL,PennController,29,_PreloadFailed_,https://raw.githubusercontent.com/karenwli/rep-momentum/main/rice/rice00.jpg,1682451147439,sonaID,undefined,27,rice,filler,D,75,square65.jpg,square85.jpg,GoalB,memory-momentum10,NULL
1682451340,75d6408d61cb48ce53fd65382a0ab004,PennController,30,0,experiment,NULL,PennController,29,_PreloadFailed_,https://video.wixstatic.com/video/7cb05b_41aae65ca27d43c3a89b5e46732d18ff/144p/mp4/file.mp4,1682451147439,sonaID,undefined,27,rice,filler,D,75,square65.jpg,square85.jpg,GoalB,memory-momentum10,NULL
1682451340,75d6408d61cb48ce53fd65382a0ab004,PennController,30,0,experiment,NULL,PennController,29,_Trial_,Start,1682451147439,sonaID,undefined,27,rice,filler,D,75,square65.jpg,square85.jpg,GoalB,memory-momentum10,NULL
1682451340,75d6408d61cb48ce53fd65382a0ab004,PennController,30,0,experiment,NULL,PennController,29,_Header_,Start,1682451147439,sonaID,undefined,27,rice,filler,D,75,square65.jpg,square85.jpg,GoalB,memory-momentum10,NULL
1682451340,75d6408d61cb48ce53fd65382a0ab004,PennController,30,0,experiment,NULL,PennController,29,_Header_,End,1682451147439,sonaID,undefined,27,rice,filler,D,75,square65.jpg,square85.jpg,GoalB,memory-momentum10,NULL
1682451340,75d6408d61cb48ce53fd65382a0ab004,PennController,30,0,experiment,NULL,Canvas,canvas6,Print,NA,1682451155133,sonaID,undefined,27,rice,filler,D,75,square65.jpg,square85.jpg,GoalB,memory-momentum10,NULL
1682451340,75d6408d61cb48ce53fd65382a0ab004,PennController,30,0,experiment,NULL,Video,progression,buffer,0.002492,1682451150963,sonaID,undefined,27,rice,filler,D,75,square65.jpg,square85.jpg,GoalB,memory-momentum10,NULL
1682451340,75d6408d61cb48ce53fd65382a0ab004,PennController,30,0,experiment,NULL,Selector,choice,Selection,option2,1682451162559,sonaID,undefined,27,rice,filler,D,75,square65.jpg,square85.jpg,GoalB,memory-momentum10,option2;option1
1682451340,75d6408d61cb48ce53fd65382a0ab004,PennController,30,0,experiment,NULL,PennController,29,_Trial_,End,1682451162561,sonaID,undefined,27,rice,filler,D,75,square65.jpg,square85.jpg,GoalB,memory-momentum10,NULL
1682451340,75d6408d61cb48ce53fd65382a0ab004,PennController,6,0,experiment,NULL,PennController,5,_Trial_,Start,1682451162563,sonaID,undefined,3,clean,critical,D,75,clean65.jpg,clean85.jpg,high,memory-momentum10,NULL
1682451340,75d6408d61cb48ce53fd65382a0ab004,PennController,6,0,experiment,NULL,PennController,5,_Header_,Start,1682451162563,sonaID,undefined,3,clean,critical,D,75,clean65.jpg,clean85.jpg,high,memory-momentum10,NULL
1682451340,75d6408d61cb48ce53fd65382a0ab004,PennController,6,0,experiment,NULL,PennController,5,_Header_,End,1682451162563,sonaID,undefined,3,clean,critical,D,75,clean65.jpg,clean85.jpg,high,memory-momentum10,NULL
1682451340,75d6408d61cb48ce53fd65382a0ab004,PennController,6,0,experiment,NULL,Canvas,canvas6,Print,NA,1682451170269,sonaID,undefined,3,clean,critical,D,75,clean65.jpg,clean85.jpg,high,memory-momentum10,NULL
1682451340,75d6408d61cb48ce53fd65382a0ab004,PennController,6,0,experiment,NULL,Video,progression,buffer,0.003226,1682451166091,sonaID,undefined,3,clean,critical,D,75,clean65.jpg,clean85.jpg,high,memory-momentum10,NULL
1682451340,75d6408d61cb48ce53fd65382a0ab004,PennController,6,0,experiment,NULL,Selector,choice,Selection,option1,1682451171781,sonaID,undefined,3,clean,critical,D,75,clean65.jpg,clean85.jpg,high,memory-momentum10,option2;option1
1682451340,75d6408d61cb48ce53fd65382a0ab004,PennController,6,0,experiment,NULL,PennController,5,_Trial_,End,1682451171783,sonaID,undefined,3,clean,critical,D,75,clean65.jpg,clean85.jpg,high,memory-momentum10,NULL
1682451340,75d6408d61cb48ce53fd65382a0ab004,PennController,10,0,experiment,NULL,PennController,9,_Trial_,Start,1682451171785,sonaID,undefined,7,stack,critical,D,25,stack15.jpg,stack35.jpg,high,memory-momentum10,NULL
1682451340,75d6408d61cb48ce53fd65382a0ab004,PennController,10,0,experiment,NULL,PennController,9,_Header_,Start,1682451171785,sonaID,undefined,7,stack,critical,D,25,stack15.jpg,stack35.jpg,high,memory-momentum10,NULL
1682451340,75d6408d61cb48ce53fd65382a0ab004,PennController,10,0,experiment,NULL,PennController,9,_Header_,End,1682451171785,sonaID,undefined,7,stack,critical,D,25,stack15.jpg,stack35.jpg,high,memory-momentum10,NULL
1682451340,75d6408d61cb48ce53fd65382a0ab004,PennController,10,0,experiment,NULL,Canvas,canvas6,Print,NA,1682451177483,sonaID,undefined,7,stack,critical,D,25,stack15.jpg,stack35.jpg,high,memory-momentum10,NULL
1682451340,75d6408d61cb48ce53fd65382a0ab004,PennController,10,0,experiment,NULL,Video,progression,buffer,0.002777,1682451175305,sonaID,undefined,7,stack,critical,D,25,stack15.jpg,stack35.jpg,high,memory-momentum10,NULL
1682451340,75d6408d61cb48ce53fd65382a0ab004,PennController,10,0,experiment,NULL,Selector,choice,Selection,option1,1682451179397,sonaID,undefined,7,stack,critical,D,25,stack15.jpg,stack35.jpg,high,memory-momentum10,option1;option2
1682451340,75d6408d61cb48ce53fd65382a0ab004,PennController,10,0,experiment,NULL,PennController,9,_Trial_,End,1682451179400,sonaID,undefined,7,stack,critical,D,25,stack15.jpg,stack35.jpg,high,memory-momentum10,NULL
1682451340,75d6408d61cb48ce53fd65382a0ab004,PennController,12,0,experiment,NULL,PennController,11,_Trial_,Start,1682451179402,sonaID,undefined,9,cake,critical,D,75,cake66.jpg,cake84.jpg,high,memory-momentum10,NULL
1682451340,75d6408d61cb48ce53fd65382a0ab004,PennController,12,0,experiment,NULL,PennController,11,_Header_,Start,1682451179402,sonaID,undefined,9,cake,critical,D,75,cake66.jpg,cake84.jpg,high,memory-momentum10,NULL
1682451340,75d6408d61cb48ce53fd65382a0ab004,PennController,12,0,experiment,NULL,PennController,11,_Header_,End,1682451179402,sonaID,undefined,9,cake,critical,D,75,cake66.jpg,cake84.jpg,high,memory-momentum10,NULL
1682451340,75d6408d61cb48ce53fd65382a0ab004,PennController,12,0,experiment,NULL,Canvas,canvas6,Print,NA,1682451189095,sonaID,undefined,9,cake,critical,D,75,cake66.jpg,cake84.jpg,high,memory-momentum10,NULL
1682451340,75d6408d61cb48ce53fd65382a0ab004,PennController,12,0,experiment,NULL,Video,progression,buffer,0.003803,1682451182930,sonaID,undefined,9,cake,critical,D,75,cake66.jpg,cake84.jpg,high,memory-momentum10,NULL
1682451340,75d6408d61cb48ce53fd65382a0ab004,PennController,12,0,experiment,NULL,Selector,choice,Selection,option1,1682451192426,sonaID,undefined,9,cake,critical,D,75,cake66.jpg,cake84.jpg,high,memory-momentum10,option1;option2
1682451340,75d6408d61cb48ce53fd65382a0ab004,PennController,12,0,experiment,NULL,PennController,11,_Trial_,End,1682451192428,sonaID,undefined,9,cake,critical,D,75,cake66.jpg,cake84.jpg,high,memory-momentum10,NULL
1682451340,75d6408d61cb48ce53fd65382a0ab004,PennController,11,0,experiment,NULL,PennController,10,_Trial_,Start,1682451192430,sonaID,undefined,8,cucumber,critical,D,50,cucumber42.jpg,cucumber60.jpg,low ,memory-momentum10,NULL
1682451340,75d6408d61cb48ce53fd65382a0ab004,PennController,11,0,experiment,NULL,PennController,10,_Header_,Start,1682451192430,sonaID,undefined,8,cucumber,critical,D,50,cucumber42.jpg,cucumber60.jpg,low ,memory-momentum10,NULL
1682451340,75d6408d61cb48ce53fd65382a0ab004,PennController,11,0,experiment,NULL,PennController,10,_Header_,End,1682451192430,sonaID,undefined,8,cucumber,critical,D,50,cucumber42.jpg,cucumber60.jpg,low ,memory-momentum10,NULL
1682451340,75d6408d61cb48ce53fd65382a0ab004,PennController,11,0,experiment,NULL,Canvas,canvas6,Print,NA,1682451200530,sonaID,undefined,8,cucumber,critical,D,50,cucumber42.jpg,cucumber60.jpg,low ,memory-momentum10,NULL
1682451340,75d6408d61cb48ce53fd65382a0ab004,PennController,11,0,experiment,NULL,Video,progression,buffer,0.001859,1682451195952,sonaID,undefined,8,cucumber,critical,D,50,cucumber42.jpg,cucumber60.jpg,low ,memory-momentum10,NULL
1682451340,75d6408d61cb48ce53fd65382a0ab004,PennController,11,0,experiment,NULL,Selector,choice,Selection,option2,1682451203013,sonaID,undefined,8,cucumber,critical,D,50,cucumber42.jpg,cucumber60.jpg,low ,memory-momentum10,option1;option2
1682451340,75d6408d61cb48ce53fd65382a0ab004,PennController,11,0,experiment,NULL,PennController,10,_Trial_,End,1682451203015,sonaID,undefined,8,cucumber,critical,D,50,cucumber42.jpg,cucumber60.jpg,low ,memory-momentum10,NULL
1682451340,75d6408d61cb48ce53fd65382a0ab004,PennController,17,0,experiment,NULL,PennController,16,_Trial_,Start,1682451203016,sonaID,undefined,14,cover,critical,D,50,cover42.jpg,cover60.jpg,low ,memory-momentum10,NULL
1682451340,75d6408d61cb48ce53fd65382a0ab004,PennController,17,0,experiment,NULL,PennController,16,_Header_,Start,1682451203016,sonaID,undefined,14,cover,critical,D,50,cover42.jpg,cover60.jpg,low ,memory-momentum10,NULL
1682451340,75d6408d61cb48ce53fd65382a0ab004,PennController,17,0,experiment,NULL,PennController,16,_Header_,End,1682451203016,sonaID,undefined,14,cover,critical,D,50,cover42.jpg,cover60.jpg,low ,memory-momentum10,NULL
1682451340,75d6408d61cb48ce53fd65382a0ab004,PennController,17,0,experiment,NULL,Canvas,canvas6,Print,NA,1682451211111,sonaID,undefined,14,cover,critical,D,50,cover42.jpg,cover60.jpg,low ,memory-momentum10,NULL
1682451340,75d6408d61cb48ce53fd65382a0ab004,PennController,17,0,experiment,NULL,Video,progression,buffer,0.002854,1682451206540,sonaID,undefined,14,cover,critical,D,50,cover42.jpg,cover60.jpg,low ,memory-momentum10,NULL
1682451340,75d6408d61cb48ce53fd65382a0ab004,PennController,17,0,experiment,NULL,Selector,choice,Selection,option2,1682451215207,sonaID,undefined,14,cover,critical,D,50,cover42.jpg,cover60.jpg,low ,memory-momentum10,option2;option1
1682451340,75d6408d61cb48ce53fd65382a0ab004,PennController,17,0,experiment,NULL,PennController,16,_Trial_,End,1682451215209,sonaID,undefined,14,cover,critical,D,50,cover42.jpg,cover60.jpg,low ,memory-momentum10,NULL
1682451340,75d6408d61cb48ce53fd65382a0ab004,PennController,22,0,experiment,NULL,PennController,21,_Trial_,Start,1682451215211,sonaID,undefined,19,cup,filler,D,25,cup15.jpg,cup35.jpg,GoalB,memory-momentum10,NULL
1682451340,75d6408d61cb48ce53fd65382a0ab004,PennController,22,0,experiment,NULL,PennController,21,_Header_,Start,1682451215211,sonaID,undefined,19,cup,filler,D,25,cup15.jpg,cup35.jpg,GoalB,memory-momentum10,NULL
1682451340,75d6408d61cb48ce53fd65382a0ab004,PennController,22,0,experiment,NULL,PennController,21,_Header_,End,1682451215211,sonaID,undefined,19,cup,filler,D,25,cup15.jpg,cup35.jpg,GoalB,memory-momentum10,NULL
1682451340,75d6408d61cb48ce53fd65382a0ab004,PennController,22,0,experiment,NULL,Canvas,canvas6,Print,NA,1682451220915,sonaID,undefined,19,cup,filler,D,25,cup15.jpg,cup35.jpg,GoalB,memory-momentum10,NULL
1682451340,75d6408d61cb48ce53fd65382a0ab004,PennController,22,0,experiment,NULL,Video,progression,buffer,0.002961,1682451218741,sonaID,undefined,19,cup,filler,D,25,cup15.jpg,cup35.jpg,GoalB,memory-momentum10,NULL
1682451340,75d6408d61cb48ce53fd65382a0ab004,PennController,22,0,experiment,NULL,Selector,choice,Selection,option1,1682451222518,sonaID,undefined,19,cup,filler,D,25,cup15.jpg,cup35.jpg,GoalB,memory-momentum10,option1;option2
1682451340,75d6408d61cb48ce53fd65382a0ab004,PennController,22,0,experiment,NULL,PennController,21,_Trial_,End,1682451222519,sonaID,undefined,19,cup,filler,D,25,cup15.jpg,cup35.jpg,GoalB,memory-momentum10,NULL
1682451340,75d6408d61cb48ce53fd65382a0ab004,PennController,24,0,experiment,NULL,PennController,23,_Trial_,Start,1682451222520,sonaID,undefined,21,visit,filler,D,75,visit65.jpg,visit85.jpg,GoalB,memory-momentum10,NULL
1682451340,75d6408d61cb48ce53fd65382a0ab004,PennController,24,0,experiment,NULL,PennController,23,_Header_,Start,1682451222520,sonaID,undefined,21,visit,filler,D,75,visit65.jpg,visit85.jpg,GoalB,memory-momentum10,NULL
1682451340,75d6408d61cb48ce53fd65382a0ab004,PennController,24,0,experiment,NULL,PennController,23,_Header_,End,1682451222520,sonaID,undefined,21,visit,filler,D,75,visit65.jpg,visit85.jpg,GoalB,memory-momentum10,NULL
1682451340,75d6408d61cb48ce53fd65382a0ab004,PennController,24,0,experiment,NULL,Canvas,canvas6,Print,NA,1682451230209,sonaID,undefined,21,visit,filler,D,75,visit65.jpg,visit85.jpg,GoalB,memory-momentum10,NULL
1682451340,75d6408d61cb48ce53fd65382a0ab004,PennController,24,0,experiment,NULL,Video,progression,buffer,0.002151,1682451226037,sonaID,undefined,21,visit,filler,D,75,visit65.jpg,visit85.jpg,GoalB,memory-momentum10,NULL
1682451340,75d6408d61cb48ce53fd65382a0ab004,PennController,24,0,experiment,NULL,Selector,choice,Selection,option2,1682451231473,sonaID,undefined,21,visit,filler,D,75,visit65.jpg,visit85.jpg,GoalB,memory-momentum10,option1;option2
1682451340,75d6408d61cb48ce53fd65382a0ab004,PennController,24,0,experiment,NULL,PennController,23,_Trial_,End,1682451231475,sonaID,undefined,21,visit,filler,D,75,visit65.jpg,visit85.jpg,GoalB,memory-momentum10,NULL
1682451340,75d6408d61cb48ce53fd65382a0ab004,PennController,9,0,experiment,NULL,PennController,8,_Trial_,Start,1682451231476,sonaID,undefined,6,flower,critical,D,75,flower65.jpg,flower85.jpg,low ,memory-momentum10,NULL
1682451340,75d6408d61cb48ce53fd65382a0ab004,PennController,9,0,experiment,NULL,PennController,8,_Header_,Start,1682451231476,sonaID,undefined,6,flower,critical,D,75,flower65.jpg,flower85.jpg,low ,memory-momentum10,NULL
1682451340,75d6408d61cb48ce53fd65382a0ab004,PennController,9,0,experiment,NULL,PennController,8,_Header_,End,1682451231476,sonaID,undefined,6,flower,critical,D,75,flower65.jpg,flower85.jpg,low ,memory-momentum10,NULL
1682451340,75d6408d61cb48ce53fd65382a0ab004,PennController,9,0,experiment,NULL,Canvas,canvas6,Print,NA,1682451239157,sonaID,undefined,6,flower,critical,D,75,flower65.jpg,flower85.jpg,low ,memory-momentum10,NULL
1682451340,75d6408d61cb48ce53fd65382a0ab004,PennController,9,0,experiment,NULL,Video,progression,buffer,0.001794,1682451234990,sonaID,undefined,6,flower,critical,D,75,flower65.jpg,flower85.jpg,low ,memory-momentum10,NULL
1682451340,75d6408d61cb48ce53fd65382a0ab004,PennController,9,0,experiment,NULL,Selector,choice,Selection,option1,1682451241719,sonaID,undefined,6,flower,critical,D,75,flower65.jpg,flower85.jpg,low ,memory-momentum10,option1;option2
1682451340,75d6408d61cb48ce53fd65382a0ab004,PennController,9,0,experiment,NULL,PennController,8,_Trial_,End,1682451241720,sonaID,undefined,6,flower,critical,D,75,flower65.jpg,flower85.jpg,low ,memory-momentum10,NULL
1682451340,75d6408d61cb48ce53fd65382a0ab004,PennController,21,0,experiment,NULL,PennController,20,_Trial_,Start,1682451241721,sonaID,undefined,18,ball,critical,D,75,ball65.jpg,ball85.jpg,low ,memory-momentum10,NULL
1682451340,75d6408d61cb48ce53fd65382a0ab004,PennController,21,0,experiment,NULL,PennController,20,_Header_,Start,1682451241721,sonaID,undefined,18,ball,critical,D,75,ball65.jpg,ball85.jpg,low ,memory-momentum10,NULL
1682451340,75d6408d61cb48ce53fd65382a0ab004,PennController,21,0,experiment,NULL,PennController,20,_Header_,End,1682451241721,sonaID,undefined,18,ball,critical,D,75,ball65.jpg,ball85.jpg,low ,memory-momentum10,NULL
1682451340,75d6408d61cb48ce53fd65382a0ab004,PennController,21,0,experiment,NULL,Canvas,canvas6,Print,NA,1682451249414,sonaID,undefined,18,ball,critical,D,75,ball65.jpg,ball85.jpg,low ,memory-momentum10,NULL
1682451340,75d6408d61cb48ce53fd65382a0ab004,PennController,21,0,experiment,NULL,Video,progression,buffer,0.001219,1682451245245,sonaID,undefined,18,ball,critical,D,75,ball65.jpg,ball85.jpg,low ,memory-momentum10,NULL
1682451340,75d6408d61cb48ce53fd65382a0ab004,PennController,21,0,experiment,NULL,Selector,choice,Selection,option2,1682451250903,sonaID,undefined,18,ball,critical,D,75,ball65.jpg,ball85.jpg,low ,memory-momentum10,option1;option2
1682451340,75d6408d61cb48ce53fd65382a0ab004,PennController,21,0,experiment,NULL,PennController,20,_Trial_,End,1682451250905,sonaID,undefined,18,ball,critical,D,75,ball65.jpg,ball85.jpg,low ,memory-momentum10,NULL
1682451340,75d6408d61cb48ce53fd65382a0ab004,PennController,7,0,experiment,NULL,PennController,6,_Trial_,Start,1682451250906,sonaID,undefined,4,candy,critical,D,25,candy15.jpg,candy35.jpg,low ,memory-momentum10,NULL
1682451340,75d6408d61cb48ce53fd65382a0ab004,PennController,7,0,experiment,NULL,PennController,6,_Header_,Start,1682451250906,sonaID,undefined,4,candy,critical,D,25,candy15.jpg,candy35.jpg,low ,memory-momentum10,NULL
1682451340,75d6408d61cb48ce53fd65382a0ab004,PennController,7,0,experiment,NULL,PennController,6,_Header_,End,1682451250906,sonaID,undefined,4,candy,critical,D,25,candy15.jpg,candy35.jpg,low ,memory-momentum10,NULL
1682451340,75d6408d61cb48ce53fd65382a0ab004,PennController,7,0,experiment,NULL,Canvas,canvas6,Print,NA,1682451256597,sonaID,undefined,4,candy,critical,D,25,candy15.jpg,candy35.jpg,low ,memory-momentum10,NULL
1682451340,75d6408d61cb48ce53fd65382a0ab004,PennController,7,0,experiment,NULL,Video,progression,buffer,0.002596,1682451254430,sonaID,undefined,4,candy,critical,D,25,candy15.jpg,candy35.jpg,low ,memory-momentum10,NULL
1682451340,75d6408d61cb48ce53fd65382a0ab004,PennController,7,0,experiment,NULL,Selector,choice,Selection,option2,1682451258328,sonaID,undefined,4,candy,critical,D,25,candy15.jpg,candy35.jpg,low ,memory-momentum10,option2;option1
1682451340,75d6408d61cb48ce53fd65382a0ab004,PennController,7,0,experiment,NULL,PennController,6,_Trial_,End,1682451258330,sonaID,undefined,4,candy,critical,D,25,candy15.jpg,candy35.jpg,low ,memory-momentum10,NULL
1682451340,75d6408d61cb48ce53fd65382a0ab004,PennController,4,0,experiment,NULL,PennController,3,_Trial_,Start,1682451258331,sonaID,undefined,1,vase,critical,D,50,vase10.jpg,vase40.jpg,high,memory-momentum10,NULL
1682451340,75d6408d61cb48ce53fd65382a0ab004,PennController,4,0,experiment,NULL,PennController,3,_Header_,Start,1682451258331,sonaID,undefined,1,vase,critical,D,50,vase10.jpg,vase40.jpg,high,memory-momentum10,NULL
1682451340,75d6408d61cb48ce53fd65382a0ab004,PennController,4,0,experiment,NULL,PennController,3,_Header_,End,1682451258331,sonaID,undefined,1,vase,critical,D,50,vase10.jpg,vase40.jpg,high,memory-momentum10,NULL
1682451340,75d6408d61cb48ce53fd65382a0ab004,PennController,4,0,experiment,NULL,Canvas,canvas6,Print,NA,1682451265031,sonaID,undefined,1,vase,critical,D,50,vase10.jpg,vase40.jpg,high,memory-momentum10,NULL
1682451340,75d6408d61cb48ce53fd65382a0ab004,PennController,4,0,experiment,NULL,Video,progression,buffer,0.003624,1682451261858,sonaID,undefined,1,vase,critical,D,50,vase10.jpg,vase40.jpg,high,memory-momentum10,NULL
1682451340,75d6408d61cb48ce53fd65382a0ab004,PennController,4,0,experiment,NULL,Selector,choice,Selection,option2,1682451266170,sonaID,undefined,1,vase,critical,D,50,vase10.jpg,vase40.jpg,high,memory-momentum10,option2;option1
1682451340,75d6408d61cb48ce53fd65382a0ab004,PennController,4,0,experiment,NULL,PennController,3,_Trial_,End,1682451266172,sonaID,undefined,1,vase,critical,D,50,vase10.jpg,vase40.jpg,high,memory-momentum10,NULL
1682451340,75d6408d61cb48ce53fd65382a0ab004,PennController,13,0,experiment,NULL,PennController,12,_Trial_,Start,1682451266173,sonaID,undefined,10,train,critical,D,25,train15.jpg,train35.jpg,low ,memory-momentum10,NULL
1682451340,75d6408d61cb48ce53fd65382a0ab004,PennController,13,0,experiment,NULL,PennController,12,_Header_,Start,1682451266173,sonaID,undefined,10,train,critical,D,25,train15.jpg,train35.jpg,low ,memory-momentum10,NULL
1682451340,75d6408d61cb48ce53fd65382a0ab004,PennController,13,0,experiment,NULL,PennController,12,_Header_,End,1682451266173,sonaID,undefined,10,train,critical,D,25,train15.jpg,train35.jpg,low ,memory-momentum10,NULL
1682451340,75d6408d61cb48ce53fd65382a0ab004,PennController,13,0,experiment,NULL,Canvas,canvas6,Print,NA,1682451271863,sonaID,undefined,10,train,critical,D,25,train15.jpg,train35.jpg,low ,memory-momentum10,NULL
1682451340,75d6408d61cb48ce53fd65382a0ab004,PennController,13,0,experiment,NULL,Video,progression,buffer,0.002309,1682451269699,sonaID,undefined,10,train,critical,D,25,train15.jpg,train35.jpg,low ,memory-momentum10,NULL
1682451340,75d6408d61cb48ce53fd65382a0ab004,PennController,13,0,experiment,NULL,Selector,choice,Selection,option1,1682451273357,sonaID,undefined,10,train,critical,D,25,train15.jpg,train35.jpg,low ,memory-momentum10,option1;option2
1682451340,75d6408d61cb48ce53fd65382a0ab004,PennController,13,0,experiment,NULL,PennController,12,_Trial_,End,1682451273359,sonaID,undefined,10,train,critical,D,25,train15.jpg,train35.jpg,low ,memory-momentum10,NULL
1682451340,75d6408d61cb48ce53fd65382a0ab004,PennController,26,0,experiment,NULL,PennController,25,_Trial_,Start,1682451273360,sonaID,undefined,23,color,filler,D,50,color40.jpg,color60.jpg,GoalB,memory-momentum10,NULL
1682451340,75d6408d61cb48ce53fd65382a0ab004,PennController,26,0,experiment,NULL,PennController,25,_Header_,Start,1682451273360,sonaID,undefined,23,color,filler,D,50,color40.jpg,color60.jpg,GoalB,memory-momentum10,NULL
1682451340,75d6408d61cb48ce53fd65382a0ab004,PennController,26,0,experiment,NULL,PennController,25,_Header_,End,1682451273360,sonaID,undefined,23,color,filler,D,50,color40.jpg,color60.jpg,GoalB,memory-momentum10,NULL
1682451340,75d6408d61cb48ce53fd65382a0ab004,PennController,26,0,experiment,NULL,Canvas,canvas6,Print,NA,1682451280066,sonaID,undefined,23,color,filler,D,50,color40.jpg,color60.jpg,GoalB,memory-momentum10,NULL
1682451340,75d6408d61cb48ce53fd65382a0ab004,PennController,26,0,experiment,NULL,Video,progression,buffer,0.001998,1682451276884,sonaID,undefined,23,color,filler,D,50,color40.jpg,color60.jpg,GoalB,memory-momentum10,NULL
1682451340,75d6408d61cb48ce53fd65382a0ab004,PennController,26,0,experiment,NULL,Selector,choice,Selection,option1,1682451283158,sonaID,undefined,23,color,filler,D,50,color40.jpg,color60.jpg,GoalB,memory-momentum10,option2;option1
1682451340,75d6408d61cb48ce53fd65382a0ab004,PennController,26,0,experiment,NULL,PennController,25,_Trial_,End,1682451283160,sonaID,undefined,23,color,filler,D,50,color40.jpg,color60.jpg,GoalB,memory-momentum10,NULL
1682451340,75d6408d61cb48ce53fd65382a0ab004,PennController,19,0,experiment,NULL,PennController,18,_Trial_,Start,1682451283162,sonaID,undefined,16,blinds,critical,D,25,blinds15.jpg,blinds33.jpg,low ,memory-momentum10,NULL
1682451340,75d6408d61cb48ce53fd65382a0ab004,PennController,19,0,experiment,NULL,PennController,18,_Header_,Start,1682451283162,sonaID,undefined,16,blinds,critical,D,25,blinds15.jpg,blinds33.jpg,low ,memory-momentum10,NULL
1682451340,75d6408d61cb48ce53fd65382a0ab004,PennController,19,0,experiment,NULL,PennController,18,_Header_,End,1682451283162,sonaID,undefined,16,blinds,critical,D,25,blinds15.jpg,blinds33.jpg,low ,memory-momentum10,NULL
1682451340,75d6408d61cb48ce53fd65382a0ab004,PennController,19,0,experiment,NULL,Canvas,canvas6,Print,NA,1682451289460,sonaID,undefined,16,blinds,critical,D,25,blinds15.jpg,blinds33.jpg,low ,memory-momentum10,NULL
1682451340,75d6408d61cb48ce53fd65382a0ab004,PennController,19,0,experiment,NULL,Video,progression,buffer,0.003149,1682451286689,sonaID,undefined,16,blinds,critical,D,25,blinds15.jpg,blinds33.jpg,low ,memory-momentum10,NULL
1682451340,75d6408d61cb48ce53fd65382a0ab004,PennController,19,0,experiment,NULL,Selector,choice,Selection,option1,1682451291864,sonaID,undefined,16,blinds,critical,D,25,blinds15.jpg,blinds33.jpg,low ,memory-momentum10,option1;option2
1682451340,75d6408d61cb48ce53fd65382a0ab004,PennController,19,0,experiment,NULL,PennController,18,_Trial_,End,1682451291865,sonaID,undefined,16,blinds,critical,D,25,blinds15.jpg,blinds33.jpg,low ,memory-momentum10,NULL
1682451340,75d6408d61cb48ce53fd65382a0ab004,PennController,28,0,experiment,NULL,PennController,27,_Trial_,Start,1682451291866,sonaID,undefined,25,house,filler,D,25,house15.jpg,house35.jpg,GoalB,memory-momentum10,NULL
1682451340,75d6408d61cb48ce53fd65382a0ab004,PennController,28,0,experiment,NULL,PennController,27,_Header_,Start,1682451291866,sonaID,undefined,25,house,filler,D,25,house15.jpg,house35.jpg,GoalB,memory-momentum10,NULL
1682451340,75d6408d61cb48ce53fd65382a0ab004,PennController,28,0,experiment,NULL,PennController,27,_Header_,End,1682451291867,sonaID,undefined,25,house,filler,D,25,house15.jpg,house35.jpg,GoalB,memory-momentum10,NULL
1682451340,75d6408d61cb48ce53fd65382a0ab004,PennController,28,0,experiment,NULL,Canvas,canvas6,Print,NA,1682451297559,sonaID,undefined,25,house,filler,D,25,house15.jpg,house35.jpg,GoalB,memory-momentum10,NULL
1682451340,75d6408d61cb48ce53fd65382a0ab004,PennController,28,0,experiment,NULL,Video,progression,buffer,0.003243,1682451295390,sonaID,undefined,25,house,filler,D,25,house15.jpg,house35.jpg,GoalB,memory-momentum10,NULL
1682451340,75d6408d61cb48ce53fd65382a0ab004,PennController,28,0,experiment,NULL,Selector,choice,Selection,option1,1682451299095,sonaID,undefined,25,house,filler,D,25,house15.jpg,house35.jpg,GoalB,memory-momentum10,option2;option1
1682451340,75d6408d61cb48ce53fd65382a0ab004,PennController,28,0,experiment,NULL,PennController,27,_Trial_,End,1682451299096,sonaID,undefined,25,house,filler,D,25,house15.jpg,house35.jpg,GoalB,memory-momentum10,NULL
1682451340,75d6408d61cb48ce53fd65382a0ab004,PennController,27,0,experiment,NULL,PennController,26,_Trial_,Start,1682451299098,sonaID,undefined,24,match,filler,D,75,match65.jpg,match85.jpg,GoalA,memory-momentum10,NULL
1682451340,75d6408d61cb48ce53fd65382a0ab004,PennController,27,0,experiment,NULL,PennController,26,_Header_,Start,1682451299098,sonaID,undefined,24,match,filler,D,75,match65.jpg,match85.jpg,GoalA,memory-momentum10,NULL
1682451340,75d6408d61cb48ce53fd65382a0ab004,PennController,27,0,experiment,NULL,PennController,26,_Header_,End,1682451299098,sonaID,undefined,24,match,filler,D,75,match65.jpg,match85.jpg,GoalA,memory-momentum10,NULL
1682451340,75d6408d61cb48ce53fd65382a0ab004,PennController,27,0,experiment,NULL,Canvas,canvas6,Print,NA,1682451306795,sonaID,undefined,24,match,filler,D,75,match65.jpg,match85.jpg,GoalA,memory-momentum10,NULL
1682451340,75d6408d61cb48ce53fd65382a0ab004,PennController,27,0,experiment,NULL,Video,progression,buffer,0.003421,1682451302621,sonaID,undefined,24,match,filler,D,75,match65.jpg,match85.jpg,GoalA,memory-momentum10,NULL
1682451340,75d6408d61cb48ce53fd65382a0ab004,PennController,27,0,experiment,NULL,Selector,choice,Selection,option2,1682451308041,sonaID,undefined,24,match,filler,D,75,match65.jpg,match85.jpg,GoalA,memory-momentum10,option1;option2
1682451340,75d6408d61cb48ce53fd65382a0ab004,PennController,27,0,experiment,NULL,PennController,26,_Trial_,End,1682451308043,sonaID,undefined,24,match,filler,D,75,match65.jpg,match85.jpg,GoalA,memory-momentum10,NULL
1682451340,75d6408d61cb48ce53fd65382a0ab004,PennController,23,0,experiment,NULL,PennController,22,_Trial_,Start,1682451308044,sonaID,undefined,20,cat,filler,D,50,cat40.jpg,cat60.jpg,GoalA,memory-momentum10,NULL
1682451340,75d6408d61cb48ce53fd65382a0ab004,PennController,23,0,experiment,NULL,PennController,22,_Header_,Start,1682451308044,sonaID,undefined,20,cat,filler,D,50,cat40.jpg,cat60.jpg,GoalA,memory-momentum10,NULL
1682451340,75d6408d61cb48ce53fd65382a0ab004,PennController,23,0,experiment,NULL,PennController,22,_Header_,End,1682451308044,sonaID,undefined,20,cat,filler,D,50,cat40.jpg,cat60.jpg,GoalA,memory-momentum10,NULL
1682451340,75d6408d61cb48ce53fd65382a0ab004,PennController,23,0,experiment,NULL,Canvas,canvas6,Print,NA,1682451314747,sonaID,undefined,20,cat,filler,D,50,cat40.jpg,cat60.jpg,GoalA,memory-momentum10,NULL
1682451340,75d6408d61cb48ce53fd65382a0ab004,PennController,23,0,experiment,NULL,Video,progression,buffer,0.001795,1682451311567,sonaID,undefined,20,cat,filler,D,50,cat40.jpg,cat60.jpg,GoalA,memory-momentum10,NULL
1682451340,75d6408d61cb48ce53fd65382a0ab004,PennController,23,0,experiment,NULL,Selector,choice,Selection,option2,1682451316384,sonaID,undefined,20,cat,filler,D,50,cat40.jpg,cat60.jpg,GoalA,memory-momentum10,option1;option2
1682451340,75d6408d61cb48ce53fd65382a0ab004,PennController,23,0,experiment,NULL,PennController,22,_Trial_,End,1682451316386,sonaID,undefined,20,cat,filler,D,50,cat40.jpg,cat60.jpg,GoalA,memory-momentum10,NULL
1682451340,75d6408d61cb48ce53fd65382a0ab004,PennController,25,0,experiment,NULL,PennController,24,_Trial_,Start,1682451316388,sonaID,undefined,22,wall,filler,D,25,wall15.jpg,wall35.jpg,GoalA,memory-momentum10,NULL
1682451340,75d6408d61cb48ce53fd65382a0ab004,PennController,25,0,experiment,NULL,PennController,24,_Header_,Start,1682451316388,sonaID,undefined,22,wall,filler,D,25,wall15.jpg,wall35.jpg,GoalA,memory-momentum10,NULL
1682451340,75d6408d61cb48ce53fd65382a0ab004,PennController,25,0,experiment,NULL,PennController,24,_Header_,End,1682451316388,sonaID,undefined,22,wall,filler,D,25,wall15.jpg,wall35.jpg,GoalA,memory-momentum10,NULL
1682451340,75d6408d61cb48ce53fd65382a0ab004,PennController,25,0,experiment,NULL,Canvas,canvas6,Print,NA,1682451322081,sonaID,undefined,22,wall,filler,D,25,wall15.jpg,wall35.jpg,GoalA,memory-momentum10,NULL
1682451340,75d6408d61cb48ce53fd65382a0ab004,PennController,25,0,experiment,NULL,Video,progression,buffer,0.001911,1682451319912,sonaID,undefined,22,wall,filler,D,25,wall15.jpg,wall35.jpg,GoalA,memory-momentum10,NULL
1682451340,75d6408d61cb48ce53fd65382a0ab004,PennController,25,0,experiment,NULL,Selector,choice,Selection,option1,1682451323703,sonaID,undefined,22,wall,filler,D,25,wall15.jpg,wall35.jpg,GoalA,memory-momentum10,option2;option1
1682451340,75d6408d61cb48ce53fd65382a0ab004,PennController,25,0,experiment,NULL,PennController,24,_Trial_,End,1682451323705,sonaID,undefined,22,wall,filler,D,25,wall15.jpg,wall35.jpg,GoalA,memory-momentum10,NULL
1682451340,75d6408d61cb48ce53fd65382a0ab004,PennController,14,0,experiment,NULL,PennController,13,_Trial_,Start,1682451323707,sonaID,undefined,11,beads,critical,D,50,beads40.jpg,beads60.jpg,high,memory-momentum10,NULL
1682451340,75d6408d61cb48ce53fd65382a0ab004,PennController,14,0,experiment,NULL,PennController,13,_Header_,Start,1682451323707,sonaID,undefined,11,beads,critical,D,50,beads40.jpg,beads60.jpg,high,memory-momentum10,NULL
1682451340,75d6408d61cb48ce53fd65382a0ab004,PennController,14,0,experiment,NULL,PennController,13,_Header_,End,1682451323707,sonaID,undefined,11,beads,critical,D,50,beads40.jpg,beads60.jpg,high,memory-momentum10,NULL
1682451340,75d6408d61cb48ce53fd65382a0ab004,PennController,14,0,experiment,NULL,Canvas,canvas6,Print,NA,1682451330395,sonaID,undefined,11,beads,critical,D,50,beads40.jpg,beads60.jpg,high,memory-momentum10,NULL
1682451340,75d6408d61cb48ce53fd65382a0ab004,PennController,14,0,experiment,NULL,Video,progression,buffer,0.002013,1682451327228,sonaID,undefined,11,beads,critical,D,50,beads40.jpg,beads60.jpg,high,memory-momentum10,NULL
1682451340,75d6408d61cb48ce53fd65382a0ab004,PennController,14,0,experiment,NULL,Selector,choice,Selection,option1,1682451332180,sonaID,undefined,11,beads,critical,D,50,beads40.jpg,beads60.jpg,high,memory-momentum10,option2;option1
1682451340,75d6408d61cb48ce53fd65382a0ab004,PennController,14,0,experiment,NULL,PennController,13,_Trial_,End,1682451332182,sonaID,undefined,11,beads,critical,D,50,beads40.jpg,beads60.jpg,high,memory-momentum10,NULL
1682451340,75d6408d61cb48ce53fd65382a0ab004,PennController,32,0,experiment,NULL,PennController,31,_Trial_,Start,1682451332183,sonaID,undefined,29,frog,filler,D,50,frog40.jpg,frog60.jpg,GoalB,memory-momentum10,NULL
1682451340,75d6408d61cb48ce53fd65382a0ab004,PennController,32,0,experiment,NULL,PennController,31,_Header_,Start,1682451332183,sonaID,undefined,29,frog,filler,D,50,frog40.jpg,frog60.jpg,GoalB,memory-momentum10,NULL
1682451340,75d6408d61cb48ce53fd65382a0ab004,PennController,32,0,experiment,NULL,PennController,31,_Header_,End,1682451332183,sonaID,undefined,29,frog,filler,D,50,frog40.jpg,frog60.jpg,GoalB,memory-momentum10,NULL
1682451340,75d6408d61cb48ce53fd65382a0ab004,PennController,32,0,experiment,NULL,Canvas,canvas6,Print,NA,1682451338879,sonaID,undefined,29,frog,filler,D,50,frog40.jpg,frog60.jpg,GoalB,memory-momentum10,NULL
1682451340,75d6408d61cb48ce53fd65382a0ab004,PennController,32,0,experiment,NULL,Video,progression,buffer,0.003724,1682451335710,sonaID,undefined,29,frog,filler,D,50,frog40.jpg,frog60.jpg,GoalB,memory-momentum10,NULL
1682451340,75d6408d61cb48ce53fd65382a0ab004,PennController,32,0,experiment,NULL,Selector,choice,Selection,option1,1682451340118,sonaID,undefined,29,frog,filler,D,50,frog40.jpg,frog60.jpg,GoalB,memory-momentum10,option1;option2
1682451340,75d6408d61cb48ce53fd65382a0ab004,PennController,32,0,experiment,NULL,PennController,31,_Trial_,End,1682451340120,sonaID,undefined,29,frog,filler,D,50,frog40.jpg,frog60.jpg,GoalB,memory-momentum10,NULL
