#
# Results on Tuesday April 25 2023 14:24:23 UTC
# USER AGENT: Mozilla/5.0 (Macintosh; Intel Mac OS X 10_15_7) AppleWebKit/537.36 (KHTML, like Gecko) Chrome/112.0.0.0 Safari/537.36
# Design number was non-random = 7
#
# Columns below this comment are as follows:
# 1. Results reception time.
# 2. MD5 hash of participant's IP address.
# 3. Controller name.
# 4. Order number of item.
# 5. Inner element number.
# 6. Label.
# 7. Latin Square Group.
# 8. PennElementType.
# 9. PennElementName.
# 10. Parameter.
# 11. Value.
# 12. EventTime.
# 13. sonaID.
# 14. Comments.
1682432663,0ec5c82c1d6193b289aaf4ce324130ab,PennController,2,0,consent,NULL,PennController,0,_Trial_,Start,1682432269385,sonaID,NULL
1682432663,0ec5c82c1d6193b289aaf4ce324130ab,PennController,2,0,consent,NULL,PennController,0,_Header_,Start,1682432269385,sonaID,NULL
1682432663,0ec5c82c1d6193b289aaf4ce324130ab,PennController,2,0,consent,NULL,PennController,0,_Header_,End,1682432269385,sonaID,NULL
1682432663,0ec5c82c1d6193b289aaf4ce324130ab,PennController,2,0,consent,NULL,PennController,0,_Trial_,End,1682432316578,sonaID,NULL
# Columns below this comment are as follows:
# 14. ID.
# 15. Comments.
1682432663,0ec5c82c1d6193b289aaf4ce324130ab,PennController,3,0,intro,NULL,PennController,1,_Trial_,Start,1682432316581,sonaID,undefined,NULL
1682432663,0ec5c82c1d6193b289aaf4ce324130ab,PennController,3,0,intro,NULL,PennController,1,_Header_,Start,1682432316581,sonaID,undefined,NULL
1682432663,0ec5c82c1d6193b289aaf4ce324130ab,PennController,3,0,intro,NULL,PennController,1,_Header_,End,1682432316581,sonaID,undefined,NULL
1682432663,0ec5c82c1d6193b289aaf4ce324130ab,PennController,3,0,intro,NULL,TextInput,inputID,EnterReturn,59854819,1682432322097,sonaID,undefined,NULL
1682432663,0ec5c82c1d6193b289aaf4ce324130ab,PennController,3,0,intro,NULL,TextInput,inputID,Final,59854819,1682432322103,sonaID,undefined,NULL
1682432663,0ec5c82c1d6193b289aaf4ce324130ab,PennController,3,0,intro,NULL,TextInput,inputID,First,,1682432317964,sonaID,undefined,5
1682432663,0ec5c82c1d6193b289aaf4ce324130ab,PennController,3,0,intro,NULL,PennController,1,_Trial_,End,1682432322103,sonaID,undefined,NULL
# Columns below this comment are as follows:
# 15. item_number.
# 16. item.
# 17. type.
# 18. Group.
# 19. prog.
# 20. prev_image.
# 21. next_image.
# 22. height.
# 23. memory-momentum10.
# 24. Comments.
1682432663,0ec5c82c1d6193b289aaf4ce324130ab,PennController,26,0,experiment,NULL,PennController,25,_Trial_,Start,1682432322104,sonaID,undefined,23,color,filler,B,75,color65.jpg,color85.jpg,GoalB,memory-momentum10,NULL
1682432663,0ec5c82c1d6193b289aaf4ce324130ab,PennController,26,0,experiment,NULL,PennController,25,_Header_,Start,1682432322104,sonaID,undefined,23,color,filler,B,75,color65.jpg,color85.jpg,GoalB,memory-momentum10,NULL
1682432663,0ec5c82c1d6193b289aaf4ce324130ab,PennController,26,0,experiment,NULL,PennController,25,_Header_,End,1682432322104,sonaID,undefined,23,color,filler,B,75,color65.jpg,color85.jpg,GoalB,memory-momentum10,NULL
1682432663,0ec5c82c1d6193b289aaf4ce324130ab,PennController,26,0,experiment,NULL,Canvas,canvas6,Print,NA,1682432329832,sonaID,undefined,23,color,filler,B,75,color65.jpg,color85.jpg,GoalB,memory-momentum10,NULL
1682432663,0ec5c82c1d6193b289aaf4ce324130ab,PennController,26,0,experiment,NULL,Video,progression,buffer,0.002466,1682432325635,sonaID,undefined,23,color,filler,B,75,color65.jpg,color85.jpg,GoalB,memory-momentum10,NULL
1682432663,0ec5c82c1d6193b289aaf4ce324130ab,PennController,26,0,experiment,NULL,Selector,choice,Selection,option2,1682432332840,sonaID,undefined,23,color,filler,B,75,color65.jpg,color85.jpg,GoalB,memory-momentum10,option1;option2
1682432663,0ec5c82c1d6193b289aaf4ce324130ab,PennController,26,0,experiment,NULL,PennController,25,_Trial_,End,1682432332843,sonaID,undefined,23,color,filler,B,75,color65.jpg,color85.jpg,GoalB,memory-momentum10,NULL
1682432663,0ec5c82c1d6193b289aaf4ce324130ab,PennController,28,0,experiment,NULL,PennController,27,_Trial_,Start,1682432332844,sonaID,undefined,25,house,filler,B,50,house40.jpg,house60.jpg,GoalB,memory-momentum10,NULL
1682432663,0ec5c82c1d6193b289aaf4ce324130ab,PennController,28,0,experiment,NULL,PennController,27,_Header_,Start,1682432332844,sonaID,undefined,25,house,filler,B,50,house40.jpg,house60.jpg,GoalB,memory-momentum10,NULL
1682432663,0ec5c82c1d6193b289aaf4ce324130ab,PennController,28,0,experiment,NULL,PennController,27,_Header_,End,1682432332844,sonaID,undefined,25,house,filler,B,50,house40.jpg,house60.jpg,GoalB,memory-momentum10,NULL
1682432663,0ec5c82c1d6193b289aaf4ce324130ab,PennController,28,0,experiment,NULL,Canvas,canvas6,Print,NA,1682432339572,sonaID,undefined,25,house,filler,B,50,house40.jpg,house60.jpg,GoalB,memory-momentum10,NULL
1682432663,0ec5c82c1d6193b289aaf4ce324130ab,PennController,28,0,experiment,NULL,Video,progression,buffer,0.002751,1682432336380,sonaID,undefined,25,house,filler,B,50,house40.jpg,house60.jpg,GoalB,memory-momentum10,NULL
1682432663,0ec5c82c1d6193b289aaf4ce324130ab,PennController,28,0,experiment,NULL,Selector,choice,Selection,option2,1682432345837,sonaID,undefined,25,house,filler,B,50,house40.jpg,house60.jpg,GoalB,memory-momentum10,option1;option2
1682432663,0ec5c82c1d6193b289aaf4ce324130ab,PennController,28,0,experiment,NULL,PennController,27,_Trial_,End,1682432345839,sonaID,undefined,25,house,filler,B,50,house40.jpg,house60.jpg,GoalB,memory-momentum10,NULL
1682432663,0ec5c82c1d6193b289aaf4ce324130ab,PennController,23,0,experiment,NULL,PennController,22,_Trial_,Start,1682432345841,sonaID,undefined,20,cat,filler,B,75,cat65.jpg,cat85.jpg,GoalA,memory-momentum10,NULL
1682432663,0ec5c82c1d6193b289aaf4ce324130ab,PennController,23,0,experiment,NULL,PennController,22,_Header_,Start,1682432345841,sonaID,undefined,20,cat,filler,B,75,cat65.jpg,cat85.jpg,GoalA,memory-momentum10,NULL
1682432663,0ec5c82c1d6193b289aaf4ce324130ab,PennController,23,0,experiment,NULL,PennController,22,_Header_,End,1682432345841,sonaID,undefined,20,cat,filler,B,75,cat65.jpg,cat85.jpg,GoalA,memory-momentum10,NULL
1682432663,0ec5c82c1d6193b289aaf4ce324130ab,PennController,23,0,experiment,NULL,Canvas,canvas6,Print,NA,1682432353562,sonaID,undefined,20,cat,filler,B,75,cat65.jpg,cat85.jpg,GoalA,memory-momentum10,NULL
1682432663,0ec5c82c1d6193b289aaf4ce324130ab,PennController,23,0,experiment,NULL,Video,progression,buffer,0.003076,1682432349369,sonaID,undefined,20,cat,filler,B,75,cat65.jpg,cat85.jpg,GoalA,memory-momentum10,NULL
1682432663,0ec5c82c1d6193b289aaf4ce324130ab,PennController,23,0,experiment,NULL,Selector,choice,Selection,option2,1682432355558,sonaID,undefined,20,cat,filler,B,75,cat65.jpg,cat85.jpg,GoalA,memory-momentum10,option2;option1
1682432663,0ec5c82c1d6193b289aaf4ce324130ab,PennController,23,0,experiment,NULL,PennController,22,_Trial_,End,1682432355560,sonaID,undefined,20,cat,filler,B,75,cat65.jpg,cat85.jpg,GoalA,memory-momentum10,NULL
1682432663,0ec5c82c1d6193b289aaf4ce324130ab,PennController,11,0,experiment,NULL,PennController,10,_Trial_,Start,1682432355562,sonaID,undefined,8,cucumber,critical,B,75,cucumber66.jpg,cucumber84.jpg,high,memory-momentum10,NULL
1682432663,0ec5c82c1d6193b289aaf4ce324130ab,PennController,11,0,experiment,NULL,PennController,10,_Header_,Start,1682432355562,sonaID,undefined,8,cucumber,critical,B,75,cucumber66.jpg,cucumber84.jpg,high,memory-momentum10,NULL
1682432663,0ec5c82c1d6193b289aaf4ce324130ab,PennController,11,0,experiment,NULL,PennController,10,_Header_,End,1682432355562,sonaID,undefined,8,cucumber,critical,B,75,cucumber66.jpg,cucumber84.jpg,high,memory-momentum10,NULL
1682432663,0ec5c82c1d6193b289aaf4ce324130ab,PennController,11,0,experiment,NULL,Canvas,canvas6,Print,NA,1682432365287,sonaID,undefined,8,cucumber,critical,B,75,cucumber66.jpg,cucumber84.jpg,high,memory-momentum10,NULL
1682432663,0ec5c82c1d6193b289aaf4ce324130ab,PennController,11,0,experiment,NULL,Video,progression,buffer,0.003791,1682432359090,sonaID,undefined,8,cucumber,critical,B,75,cucumber66.jpg,cucumber84.jpg,high,memory-momentum10,NULL
1682432663,0ec5c82c1d6193b289aaf4ce324130ab,PennController,11,0,experiment,NULL,Selector,choice,Selection,option1,1682432370590,sonaID,undefined,8,cucumber,critical,B,75,cucumber66.jpg,cucumber84.jpg,high,memory-momentum10,option2;option1
1682432663,0ec5c82c1d6193b289aaf4ce324130ab,PennController,11,0,experiment,NULL,PennController,10,_Trial_,End,1682432370592,sonaID,undefined,8,cucumber,critical,B,75,cucumber66.jpg,cucumber84.jpg,high,memory-momentum10,NULL
1682432663,0ec5c82c1d6193b289aaf4ce324130ab,PennController,19,0,experiment,NULL,PennController,18,_Trial_,Start,1682432370594,sonaID,undefined,16,blinds,critical,B,50,blinds42.jpg,blinds60.jpg,high,memory-momentum10,NULL
1682432663,0ec5c82c1d6193b289aaf4ce324130ab,PennController,19,0,experiment,NULL,PennController,18,_Header_,Start,1682432370594,sonaID,undefined,16,blinds,critical,B,50,blinds42.jpg,blinds60.jpg,high,memory-momentum10,NULL
1682432663,0ec5c82c1d6193b289aaf4ce324130ab,PennController,19,0,experiment,NULL,PennController,18,_Header_,End,1682432370594,sonaID,undefined,16,blinds,critical,B,50,blinds42.jpg,blinds60.jpg,high,memory-momentum10,NULL
1682432663,0ec5c82c1d6193b289aaf4ce324130ab,PennController,19,0,experiment,NULL,Canvas,canvas6,Print,NA,1682432378717,sonaID,undefined,16,blinds,critical,B,50,blinds42.jpg,blinds60.jpg,high,memory-momentum10,NULL
1682432663,0ec5c82c1d6193b289aaf4ce324130ab,PennController,19,0,experiment,NULL,Video,progression,buffer,0.003045,1682432374124,sonaID,undefined,16,blinds,critical,B,50,blinds42.jpg,blinds60.jpg,high,memory-momentum10,NULL
1682432663,0ec5c82c1d6193b289aaf4ce324130ab,PennController,19,0,experiment,NULL,Selector,choice,Selection,option2,1682432380278,sonaID,undefined,16,blinds,critical,B,50,blinds42.jpg,blinds60.jpg,high,memory-momentum10,option2;option1
1682432663,0ec5c82c1d6193b289aaf4ce324130ab,PennController,19,0,experiment,NULL,PennController,18,_Trial_,End,1682432380279,sonaID,undefined,16,blinds,critical,B,50,blinds42.jpg,blinds60.jpg,high,memory-momentum10,NULL
1682432663,0ec5c82c1d6193b289aaf4ce324130ab,PennController,20,0,experiment,NULL,PennController,19,_Trial_,Start,1682432380281,sonaID,undefined,17,roll,critical,B,75,roll65.jpg,roll85.jpg,low ,memory-momentum10,NULL
1682432663,0ec5c82c1d6193b289aaf4ce324130ab,PennController,20,0,experiment,NULL,PennController,19,_Header_,Start,1682432380281,sonaID,undefined,17,roll,critical,B,75,roll65.jpg,roll85.jpg,low ,memory-momentum10,NULL
1682432663,0ec5c82c1d6193b289aaf4ce324130ab,PennController,20,0,experiment,NULL,PennController,19,_Header_,End,1682432380281,sonaID,undefined,17,roll,critical,B,75,roll65.jpg,roll85.jpg,low ,memory-momentum10,NULL
1682432663,0ec5c82c1d6193b289aaf4ce324130ab,PennController,20,0,experiment,NULL,Canvas,canvas6,Print,NA,1682432388006,sonaID,undefined,17,roll,critical,B,75,roll65.jpg,roll85.jpg,low ,memory-momentum10,NULL
1682432663,0ec5c82c1d6193b289aaf4ce324130ab,PennController,20,0,experiment,NULL,Video,progression,buffer,0.004695,1682432383810,sonaID,undefined,17,roll,critical,B,75,roll65.jpg,roll85.jpg,low ,memory-momentum10,NULL
1682432663,0ec5c82c1d6193b289aaf4ce324130ab,PennController,20,0,experiment,NULL,Selector,choice,Selection,option1,1682432392698,sonaID,undefined,17,roll,critical,B,75,roll65.jpg,roll85.jpg,low ,memory-momentum10,option2;option1
1682432663,0ec5c82c1d6193b289aaf4ce324130ab,PennController,20,0,experiment,NULL,PennController,19,_Trial_,End,1682432392699,sonaID,undefined,17,roll,critical,B,75,roll65.jpg,roll85.jpg,low ,memory-momentum10,NULL
1682432663,0ec5c82c1d6193b289aaf4ce324130ab,PennController,9,0,experiment,NULL,PennController,8,_Trial_,Start,1682432392701,sonaID,undefined,6,flower,critical,B,25,flower15.jpg,flower35.jpg,high,memory-momentum10,NULL
1682432663,0ec5c82c1d6193b289aaf4ce324130ab,PennController,9,0,experiment,NULL,PennController,8,_Header_,Start,1682432392701,sonaID,undefined,6,flower,critical,B,25,flower15.jpg,flower35.jpg,high,memory-momentum10,NULL
1682432663,0ec5c82c1d6193b289aaf4ce324130ab,PennController,9,0,experiment,NULL,PennController,8,_Header_,End,1682432392701,sonaID,undefined,6,flower,critical,B,25,flower15.jpg,flower35.jpg,high,memory-momentum10,NULL
1682432663,0ec5c82c1d6193b289aaf4ce324130ab,PennController,9,0,experiment,NULL,Canvas,canvas6,Print,NA,1682432398419,sonaID,undefined,6,flower,critical,B,25,flower15.jpg,flower35.jpg,high,memory-momentum10,NULL
1682432663,0ec5c82c1d6193b289aaf4ce324130ab,PennController,9,0,experiment,NULL,Video,progression,buffer,0.00271,1682432396228,sonaID,undefined,6,flower,critical,B,25,flower15.jpg,flower35.jpg,high,memory-momentum10,NULL
1682432663,0ec5c82c1d6193b289aaf4ce324130ab,PennController,9,0,experiment,NULL,Selector,choice,Selection,option2,1682432399472,sonaID,undefined,6,flower,critical,B,25,flower15.jpg,flower35.jpg,high,memory-momentum10,option2;option1
1682432663,0ec5c82c1d6193b289aaf4ce324130ab,PennController,9,0,experiment,NULL,PennController,8,_Trial_,End,1682432399474,sonaID,undefined,6,flower,critical,B,25,flower15.jpg,flower35.jpg,high,memory-momentum10,NULL
1682432663,0ec5c82c1d6193b289aaf4ce324130ab,PennController,10,0,experiment,NULL,PennController,9,_Trial_,Start,1682432399475,sonaID,undefined,7,stack,critical,B,50,stack40.jpg,stack60.jpg,low ,memory-momentum10,NULL
1682432663,0ec5c82c1d6193b289aaf4ce324130ab,PennController,10,0,experiment,NULL,PennController,9,_Header_,Start,1682432399475,sonaID,undefined,7,stack,critical,B,50,stack40.jpg,stack60.jpg,low ,memory-momentum10,NULL
1682432663,0ec5c82c1d6193b289aaf4ce324130ab,PennController,10,0,experiment,NULL,PennController,9,_Header_,End,1682432399475,sonaID,undefined,7,stack,critical,B,50,stack40.jpg,stack60.jpg,low ,memory-momentum10,NULL
1682432663,0ec5c82c1d6193b289aaf4ce324130ab,PennController,10,0,experiment,NULL,Canvas,canvas6,Print,NA,1682432406193,sonaID,undefined,7,stack,critical,B,50,stack40.jpg,stack60.jpg,low ,memory-momentum10,NULL
1682432663,0ec5c82c1d6193b289aaf4ce324130ab,PennController,10,0,experiment,NULL,Video,progression,buffer,0.003729,1682432403002,sonaID,undefined,7,stack,critical,B,50,stack40.jpg,stack60.jpg,low ,memory-momentum10,NULL
1682432663,0ec5c82c1d6193b289aaf4ce324130ab,PennController,10,0,experiment,NULL,Selector,choice,Selection,option2,1682432411477,sonaID,undefined,7,stack,critical,B,50,stack40.jpg,stack60.jpg,low ,memory-momentum10,option2;option1
1682432663,0ec5c82c1d6193b289aaf4ce324130ab,PennController,10,0,experiment,NULL,PennController,9,_Trial_,End,1682432411478,sonaID,undefined,7,stack,critical,B,50,stack40.jpg,stack60.jpg,low ,memory-momentum10,NULL
1682432663,0ec5c82c1d6193b289aaf4ce324130ab,PennController,25,0,experiment,NULL,PennController,24,_Trial_,Start,1682432411480,sonaID,undefined,22,wall,filler,B,50,wall40.jpg,wall60.jpg,GoalA,memory-momentum10,NULL
1682432663,0ec5c82c1d6193b289aaf4ce324130ab,PennController,25,0,experiment,NULL,PennController,24,_Header_,Start,1682432411480,sonaID,undefined,22,wall,filler,B,50,wall40.jpg,wall60.jpg,GoalA,memory-momentum10,NULL
1682432663,0ec5c82c1d6193b289aaf4ce324130ab,PennController,25,0,experiment,NULL,PennController,24,_Header_,End,1682432411480,sonaID,undefined,22,wall,filler,B,50,wall40.jpg,wall60.jpg,GoalA,memory-momentum10,NULL
1682432663,0ec5c82c1d6193b289aaf4ce324130ab,PennController,25,0,experiment,NULL,Canvas,canvas6,Print,NA,1682432418201,sonaID,undefined,22,wall,filler,B,50,wall40.jpg,wall60.jpg,GoalA,memory-momentum10,NULL
1682432663,0ec5c82c1d6193b289aaf4ce324130ab,PennController,25,0,experiment,NULL,Video,progression,buffer,0.003122,1682432415009,sonaID,undefined,22,wall,filler,B,50,wall40.jpg,wall60.jpg,GoalA,memory-momentum10,NULL
1682432663,0ec5c82c1d6193b289aaf4ce324130ab,PennController,25,0,experiment,NULL,Selector,choice,Selection,option2,1682432422973,sonaID,undefined,22,wall,filler,B,50,wall40.jpg,wall60.jpg,GoalA,memory-momentum10,option1;option2
1682432663,0ec5c82c1d6193b289aaf4ce324130ab,PennController,25,0,experiment,NULL,PennController,24,_Trial_,End,1682432422975,sonaID,undefined,22,wall,filler,B,50,wall40.jpg,wall60.jpg,GoalA,memory-momentum10,NULL
1682432663,0ec5c82c1d6193b289aaf4ce324130ab,PennController,17,0,experiment,NULL,PennController,16,_Trial_,Start,1682432422976,sonaID,undefined,14,cover,critical,B,75,cover66.jpg,cover84.jpg,high,memory-momentum10,NULL
1682432663,0ec5c82c1d6193b289aaf4ce324130ab,PennController,17,0,experiment,NULL,PennController,16,_Header_,Start,1682432422976,sonaID,undefined,14,cover,critical,B,75,cover66.jpg,cover84.jpg,high,memory-momentum10,NULL
1682432663,0ec5c82c1d6193b289aaf4ce324130ab,PennController,17,0,experiment,NULL,PennController,16,_Header_,End,1682432422976,sonaID,undefined,14,cover,critical,B,75,cover66.jpg,cover84.jpg,high,memory-momentum10,NULL
1682432663,0ec5c82c1d6193b289aaf4ce324130ab,PennController,17,0,experiment,NULL,Canvas,canvas6,Print,NA,1682432432705,sonaID,undefined,14,cover,critical,B,75,cover66.jpg,cover84.jpg,high,memory-momentum10,NULL
1682432663,0ec5c82c1d6193b289aaf4ce324130ab,PennController,17,0,experiment,NULL,Video,progression,buffer,0.004613,1682432426510,sonaID,undefined,14,cover,critical,B,75,cover66.jpg,cover84.jpg,high,memory-momentum10,NULL
1682432663,0ec5c82c1d6193b289aaf4ce324130ab,PennController,17,0,experiment,NULL,Selector,choice,Selection,option1,1682432435133,sonaID,undefined,14,cover,critical,B,75,cover66.jpg,cover84.jpg,high,memory-momentum10,option1;option2
1682432663,0ec5c82c1d6193b289aaf4ce324130ab,PennController,17,0,experiment,NULL,PennController,16,_Trial_,End,1682432435134,sonaID,undefined,14,cover,critical,B,75,cover66.jpg,cover84.jpg,high,memory-momentum10,NULL
1682432663,0ec5c82c1d6193b289aaf4ce324130ab,PennController,31,0,experiment,NULL,PennController,30,_Trial_,Start,1682432435136,sonaID,undefined,28,sort,filler,B,50,sort40.jpg,sort60.jpg,GoalA,memory-momentum10,NULL
1682432663,0ec5c82c1d6193b289aaf4ce324130ab,PennController,31,0,experiment,NULL,PennController,30,_Header_,Start,1682432435136,sonaID,undefined,28,sort,filler,B,50,sort40.jpg,sort60.jpg,GoalA,memory-momentum10,NULL
1682432663,0ec5c82c1d6193b289aaf4ce324130ab,PennController,31,0,experiment,NULL,PennController,30,_Header_,End,1682432435136,sonaID,undefined,28,sort,filler,B,50,sort40.jpg,sort60.jpg,GoalA,memory-momentum10,NULL
1682432663,0ec5c82c1d6193b289aaf4ce324130ab,PennController,31,0,experiment,NULL,Canvas,canvas6,Print,NA,1682432441850,sonaID,undefined,28,sort,filler,B,50,sort40.jpg,sort60.jpg,GoalA,memory-momentum10,NULL
1682432663,0ec5c82c1d6193b289aaf4ce324130ab,PennController,31,0,experiment,NULL,Video,progression,buffer,0.002732,1682432438665,sonaID,undefined,28,sort,filler,B,50,sort40.jpg,sort60.jpg,GoalA,memory-momentum10,NULL
1682432663,0ec5c82c1d6193b289aaf4ce324130ab,PennController,31,0,experiment,NULL,Selector,choice,Selection,option1,1682432444954,sonaID,undefined,28,sort,filler,B,50,sort40.jpg,sort60.jpg,GoalA,memory-momentum10,option1;option2
1682432663,0ec5c82c1d6193b289aaf4ce324130ab,PennController,31,0,experiment,NULL,PennController,30,_Trial_,End,1682432444955,sonaID,undefined,28,sort,filler,B,50,sort40.jpg,sort60.jpg,GoalA,memory-momentum10,NULL
1682432663,0ec5c82c1d6193b289aaf4ce324130ab,PennController,32,0,experiment,NULL,PennController,31,_Trial_,Start,1682432444956,sonaID,undefined,29,frog,filler,B,75,frog65.jpg,frog85.jpg,GoalB,memory-momentum10,NULL
1682432663,0ec5c82c1d6193b289aaf4ce324130ab,PennController,32,0,experiment,NULL,PennController,31,_Header_,Start,1682432444956,sonaID,undefined,29,frog,filler,B,75,frog65.jpg,frog85.jpg,GoalB,memory-momentum10,NULL
1682432663,0ec5c82c1d6193b289aaf4ce324130ab,PennController,32,0,experiment,NULL,PennController,31,_Header_,End,1682432444956,sonaID,undefined,29,frog,filler,B,75,frog65.jpg,frog85.jpg,GoalB,memory-momentum10,NULL
1682432663,0ec5c82c1d6193b289aaf4ce324130ab,PennController,32,0,experiment,NULL,Canvas,canvas6,Print,NA,1682432452672,sonaID,undefined,29,frog,filler,B,75,frog65.jpg,frog85.jpg,GoalB,memory-momentum10,NULL
1682432663,0ec5c82c1d6193b289aaf4ce324130ab,PennController,32,0,experiment,NULL,Video,progression,buffer,0.002904,1682432448482,sonaID,undefined,29,frog,filler,B,75,frog65.jpg,frog85.jpg,GoalB,memory-momentum10,NULL
1682432663,0ec5c82c1d6193b289aaf4ce324130ab,PennController,32,0,experiment,NULL,Selector,choice,Selection,option2,1682432455265,sonaID,undefined,29,frog,filler,B,75,frog65.jpg,frog85.jpg,GoalB,memory-momentum10,option2;option1
1682432663,0ec5c82c1d6193b289aaf4ce324130ab,PennController,32,0,experiment,NULL,PennController,31,_Trial_,End,1682432455267,sonaID,undefined,29,frog,filler,B,75,frog65.jpg,frog85.jpg,GoalB,memory-momentum10,NULL
1682432663,0ec5c82c1d6193b289aaf4ce324130ab,PennController,14,0,experiment,NULL,PennController,13,_Trial_,Start,1682432455268,sonaID,undefined,11,beads,critical,B,75,beads65.jpg,beads85.jpg,low ,memory-momentum10,NULL
1682432663,0ec5c82c1d6193b289aaf4ce324130ab,PennController,14,0,experiment,NULL,PennController,13,_Header_,Start,1682432455268,sonaID,undefined,11,beads,critical,B,75,beads65.jpg,beads85.jpg,low ,memory-momentum10,NULL
1682432663,0ec5c82c1d6193b289aaf4ce324130ab,PennController,14,0,experiment,NULL,PennController,13,_Header_,End,1682432455268,sonaID,undefined,11,beads,critical,B,75,beads65.jpg,beads85.jpg,low ,memory-momentum10,NULL
1682432663,0ec5c82c1d6193b289aaf4ce324130ab,PennController,14,0,experiment,NULL,Canvas,canvas6,Print,NA,1682432462995,sonaID,undefined,11,beads,critical,B,75,beads65.jpg,beads85.jpg,low ,memory-momentum10,NULL
1682432663,0ec5c82c1d6193b289aaf4ce324130ab,PennController,14,0,experiment,NULL,Video,progression,buffer,0.003168,1682432458796,sonaID,undefined,11,beads,critical,B,75,beads65.jpg,beads85.jpg,low ,memory-momentum10,NULL
1682432663,0ec5c82c1d6193b289aaf4ce324130ab,PennController,14,0,experiment,NULL,Selector,choice,Selection,option2,1682432465586,sonaID,undefined,11,beads,critical,B,75,beads65.jpg,beads85.jpg,low ,memory-momentum10,option2;option1
1682432663,0ec5c82c1d6193b289aaf4ce324130ab,PennController,14,0,experiment,NULL,PennController,13,_Trial_,End,1682432465587,sonaID,undefined,11,beads,critical,B,75,beads65.jpg,beads85.jpg,low ,memory-momentum10,NULL
1682432663,0ec5c82c1d6193b289aaf4ce324130ab,PennController,18,0,experiment,NULL,PennController,17,_Trial_,Start,1682432465588,sonaID,undefined,15,zip,critical,B,25,zip15.jpg,zip35.jpg,low ,memory-momentum10,NULL
1682432663,0ec5c82c1d6193b289aaf4ce324130ab,PennController,18,0,experiment,NULL,PennController,17,_Header_,Start,1682432465588,sonaID,undefined,15,zip,critical,B,25,zip15.jpg,zip35.jpg,low ,memory-momentum10,NULL
1682432663,0ec5c82c1d6193b289aaf4ce324130ab,PennController,18,0,experiment,NULL,PennController,17,_Header_,End,1682432465588,sonaID,undefined,15,zip,critical,B,25,zip15.jpg,zip35.jpg,low ,memory-momentum10,NULL
1682432663,0ec5c82c1d6193b289aaf4ce324130ab,PennController,18,0,experiment,NULL,Canvas,canvas6,Print,NA,1682432471318,sonaID,undefined,15,zip,critical,B,25,zip15.jpg,zip35.jpg,low ,memory-momentum10,NULL
1682432663,0ec5c82c1d6193b289aaf4ce324130ab,PennController,18,0,experiment,NULL,Video,progression,buffer,0.003911,1682432469121,sonaID,undefined,15,zip,critical,B,25,zip15.jpg,zip35.jpg,low ,memory-momentum10,NULL
1682432663,0ec5c82c1d6193b289aaf4ce324130ab,PennController,18,0,experiment,NULL,Selector,choice,Selection,option1,1682432472462,sonaID,undefined,15,zip,critical,B,25,zip15.jpg,zip35.jpg,low ,memory-momentum10,option1;option2
1682432663,0ec5c82c1d6193b289aaf4ce324130ab,PennController,18,0,experiment,NULL,PennController,17,_Trial_,End,1682432472463,sonaID,undefined,15,zip,critical,B,25,zip15.jpg,zip35.jpg,low ,memory-momentum10,NULL
1682432663,0ec5c82c1d6193b289aaf4ce324130ab,PennController,12,0,experiment,NULL,PennController,11,_Trial_,Start,1682432472465,sonaID,undefined,9,cake,critical,B,25,cake15.jpg,cake33.jpg,low ,memory-momentum10,NULL
1682432663,0ec5c82c1d6193b289aaf4ce324130ab,PennController,12,0,experiment,NULL,PennController,11,_Header_,Start,1682432472465,sonaID,undefined,9,cake,critical,B,25,cake15.jpg,cake33.jpg,low ,memory-momentum10,NULL
1682432663,0ec5c82c1d6193b289aaf4ce324130ab,PennController,12,0,experiment,NULL,PennController,11,_Header_,End,1682432472465,sonaID,undefined,9,cake,critical,B,25,cake15.jpg,cake33.jpg,low ,memory-momentum10,NULL
1682432663,0ec5c82c1d6193b289aaf4ce324130ab,PennController,12,0,experiment,NULL,Canvas,canvas6,Print,NA,1682432478775,sonaID,undefined,9,cake,critical,B,25,cake15.jpg,cake33.jpg,low ,memory-momentum10,NULL
1682432663,0ec5c82c1d6193b289aaf4ce324130ab,PennController,12,0,experiment,NULL,Video,progression,buffer,0.002662,1682432475985,sonaID,undefined,9,cake,critical,B,25,cake15.jpg,cake33.jpg,low ,memory-momentum10,NULL
1682432663,0ec5c82c1d6193b289aaf4ce324130ab,PennController,12,0,experiment,NULL,Selector,choice,Selection,option1,1682432482144,sonaID,undefined,9,cake,critical,B,25,cake15.jpg,cake33.jpg,low ,memory-momentum10,option1;option2
1682432663,0ec5c82c1d6193b289aaf4ce324130ab,PennController,12,0,experiment,NULL,PennController,11,_Trial_,End,1682432482146,sonaID,undefined,9,cake,critical,B,25,cake15.jpg,cake33.jpg,low ,memory-momentum10,NULL
1682432663,0ec5c82c1d6193b289aaf4ce324130ab,PennController,22,0,experiment,NULL,PennController,21,_Trial_,Start,1682432482148,sonaID,undefined,19,cup,filler,B,50,cup40.jpg,cup60.jpg,GoalB,memory-momentum10,NULL
1682432663,0ec5c82c1d6193b289aaf4ce324130ab,PennController,22,0,experiment,NULL,PennController,21,_Header_,Start,1682432482148,sonaID,undefined,19,cup,filler,B,50,cup40.jpg,cup60.jpg,GoalB,memory-momentum10,NULL
1682432663,0ec5c82c1d6193b289aaf4ce324130ab,PennController,22,0,experiment,NULL,PennController,21,_Header_,End,1682432482148,sonaID,undefined,19,cup,filler,B,50,cup40.jpg,cup60.jpg,GoalB,memory-momentum10,NULL
1682432663,0ec5c82c1d6193b289aaf4ce324130ab,PennController,22,0,experiment,NULL,Canvas,canvas6,Print,NA,1682432488872,sonaID,undefined,19,cup,filler,B,50,cup40.jpg,cup60.jpg,GoalB,memory-momentum10,NULL
1682432663,0ec5c82c1d6193b289aaf4ce324130ab,PennController,22,0,experiment,NULL,Video,progression,buffer,0.002401,1682432485671,sonaID,undefined,19,cup,filler,B,50,cup40.jpg,cup60.jpg,GoalB,memory-momentum10,NULL
1682432663,0ec5c82c1d6193b289aaf4ce324130ab,PennController,22,0,experiment,NULL,Selector,choice,Selection,option2,1682432490557,sonaID,undefined,19,cup,filler,B,50,cup40.jpg,cup60.jpg,GoalB,memory-momentum10,option2;option1
1682432663,0ec5c82c1d6193b289aaf4ce324130ab,PennController,22,0,experiment,NULL,PennController,21,_Trial_,End,1682432490559,sonaID,undefined,19,cup,filler,B,50,cup40.jpg,cup60.jpg,GoalB,memory-momentum10,NULL
1682432663,0ec5c82c1d6193b289aaf4ce324130ab,PennController,30,0,experiment,NULL,PennController,29,_PreloadFailed_,fixation.png,1682432550570,sonaID,undefined,27,rice,filler,B,25,square15.jpg,square35.jpg,GoalB,memory-momentum10,NULL
1682432663,0ec5c82c1d6193b289aaf4ce324130ab,PennController,30,0,experiment,NULL,PennController,29,_PreloadFailed_,https://raw.githubusercontent.com/karenwli/rep-momentum/main/rice/rice00.jpg,1682432550570,sonaID,undefined,27,rice,filler,B,25,square15.jpg,square35.jpg,GoalB,memory-momentum10,NULL
1682432663,0ec5c82c1d6193b289aaf4ce324130ab,PennController,30,0,experiment,NULL,PennController,29,_PreloadFailed_,https://video.wixstatic.com/video/7cb05b_7d016bdcb2fc4c0e9f9b8199c36c44b8/144p/mp4/file.mp4,1682432550570,sonaID,undefined,27,rice,filler,B,25,square15.jpg,square35.jpg,GoalB,memory-momentum10,NULL
1682432663,0ec5c82c1d6193b289aaf4ce324130ab,PennController,30,0,experiment,NULL,PennController,29,_Trial_,Start,1682432550571,sonaID,undefined,27,rice,filler,B,25,square15.jpg,square35.jpg,GoalB,memory-momentum10,NULL
1682432663,0ec5c82c1d6193b289aaf4ce324130ab,PennController,30,0,experiment,NULL,PennController,29,_Header_,Start,1682432550571,sonaID,undefined,27,rice,filler,B,25,square15.jpg,square35.jpg,GoalB,memory-momentum10,NULL
1682432663,0ec5c82c1d6193b289aaf4ce324130ab,PennController,30,0,experiment,NULL,PennController,29,_Header_,End,1682432550571,sonaID,undefined,27,rice,filler,B,25,square15.jpg,square35.jpg,GoalB,memory-momentum10,NULL
1682432663,0ec5c82c1d6193b289aaf4ce324130ab,PennController,30,0,experiment,NULL,Canvas,canvas6,Print,NA,1682432556300,sonaID,undefined,27,rice,filler,B,25,square15.jpg,square35.jpg,GoalB,memory-momentum10,NULL
1682432663,0ec5c82c1d6193b289aaf4ce324130ab,PennController,30,0,experiment,NULL,Video,progression,buffer,0.003439,1682432554104,sonaID,undefined,27,rice,filler,B,25,square15.jpg,square35.jpg,GoalB,memory-momentum10,NULL
1682432663,0ec5c82c1d6193b289aaf4ce324130ab,PennController,30,0,experiment,NULL,Selector,choice,Selection,option1,1682432561441,sonaID,undefined,27,rice,filler,B,25,square15.jpg,square35.jpg,GoalB,memory-momentum10,option2;option1
1682432663,0ec5c82c1d6193b289aaf4ce324130ab,PennController,30,0,experiment,NULL,PennController,29,_Trial_,End,1682432561443,sonaID,undefined,27,rice,filler,B,25,square15.jpg,square35.jpg,GoalB,memory-momentum10,NULL
1682432663,0ec5c82c1d6193b289aaf4ce324130ab,PennController,29,0,experiment,NULL,PennController,28,_Trial_,Start,1682432561444,sonaID,undefined,26,sandwich,filler,B,75,sandwich65.jpg,sandwich85.jpg,GoalA,memory-momentum10,NULL
1682432663,0ec5c82c1d6193b289aaf4ce324130ab,PennController,29,0,experiment,NULL,PennController,28,_Header_,Start,1682432561444,sonaID,undefined,26,sandwich,filler,B,75,sandwich65.jpg,sandwich85.jpg,GoalA,memory-momentum10,NULL
1682432663,0ec5c82c1d6193b289aaf4ce324130ab,PennController,29,0,experiment,NULL,PennController,28,_Header_,End,1682432561444,sonaID,undefined,26,sandwich,filler,B,75,sandwich65.jpg,sandwich85.jpg,GoalA,memory-momentum10,NULL
1682432663,0ec5c82c1d6193b289aaf4ce324130ab,PennController,29,0,experiment,NULL,Canvas,canvas6,Print,NA,1682432569164,sonaID,undefined,26,sandwich,filler,B,75,sandwich65.jpg,sandwich85.jpg,GoalA,memory-momentum10,NULL
1682432663,0ec5c82c1d6193b289aaf4ce324130ab,PennController,29,0,experiment,NULL,Video,progression,buffer,0.003963,1682432564972,sonaID,undefined,26,sandwich,filler,B,75,sandwich65.jpg,sandwich85.jpg,GoalA,memory-momentum10,NULL
1682432663,0ec5c82c1d6193b289aaf4ce324130ab,PennController,29,0,experiment,NULL,Selector,choice,Selection,option2,1682432570757,sonaID,undefined,26,sandwich,filler,B,75,sandwich65.jpg,sandwich85.jpg,GoalA,memory-momentum10,option1;option2
1682432663,0ec5c82c1d6193b289aaf4ce324130ab,PennController,29,0,experiment,NULL,PennController,28,_Trial_,End,1682432570758,sonaID,undefined,26,sandwich,filler,B,75,sandwich65.jpg,sandwich85.jpg,GoalA,memory-momentum10,NULL
1682432663,0ec5c82c1d6193b289aaf4ce324130ab,PennController,15,0,experiment,NULL,PennController,14,_Trial_,Start,1682432570760,sonaID,undefined,12,erase,critical,B,25,erase15.jpg,erase33.jpg,high,memory-momentum10,NULL
1682432663,0ec5c82c1d6193b289aaf4ce324130ab,PennController,15,0,experiment,NULL,PennController,14,_Header_,Start,1682432570760,sonaID,undefined,12,erase,critical,B,25,erase15.jpg,erase33.jpg,high,memory-momentum10,NULL
1682432663,0ec5c82c1d6193b289aaf4ce324130ab,PennController,15,0,experiment,NULL,PennController,14,_Header_,End,1682432570760,sonaID,undefined,12,erase,critical,B,25,erase15.jpg,erase33.jpg,high,memory-momentum10,NULL
1682432663,0ec5c82c1d6193b289aaf4ce324130ab,PennController,15,0,experiment,NULL,Canvas,canvas6,Print,NA,1682432577086,sonaID,undefined,12,erase,critical,B,25,erase15.jpg,erase33.jpg,high,memory-momentum10,NULL
1682432663,0ec5c82c1d6193b289aaf4ce324130ab,PennController,15,0,experiment,NULL,Video,progression,buffer,0.002722,1682432574290,sonaID,undefined,12,erase,critical,B,25,erase15.jpg,erase33.jpg,high,memory-momentum10,NULL
1682432663,0ec5c82c1d6193b289aaf4ce324130ab,PennController,15,0,experiment,NULL,Selector,choice,Selection,option2,1682432579038,sonaID,undefined,12,erase,critical,B,25,erase15.jpg,erase33.jpg,high,memory-momentum10,option1;option2
1682432663,0ec5c82c1d6193b289aaf4ce324130ab,PennController,15,0,experiment,NULL,PennController,14,_Trial_,End,1682432579042,sonaID,undefined,12,erase,critical,B,25,erase15.jpg,erase33.jpg,high,memory-momentum10,NULL
1682432663,0ec5c82c1d6193b289aaf4ce324130ab,PennController,13,0,experiment,NULL,PennController,12,_Trial_,Start,1682432579044,sonaID,undefined,10,train,critical,B,50,train40.jpg,train60.jpg,high,memory-momentum10,NULL
1682432663,0ec5c82c1d6193b289aaf4ce324130ab,PennController,13,0,experiment,NULL,PennController,12,_Header_,Start,1682432579044,sonaID,undefined,10,train,critical,B,50,train40.jpg,train60.jpg,high,memory-momentum10,NULL
1682432663,0ec5c82c1d6193b289aaf4ce324130ab,PennController,13,0,experiment,NULL,PennController,12,_Header_,End,1682432579044,sonaID,undefined,10,train,critical,B,50,train40.jpg,train60.jpg,high,memory-momentum10,NULL
1682432663,0ec5c82c1d6193b289aaf4ce324130ab,PennController,13,0,experiment,NULL,Canvas,canvas6,Print,NA,1682432585765,sonaID,undefined,10,train,critical,B,50,train40.jpg,train60.jpg,high,memory-momentum10,NULL
1682432663,0ec5c82c1d6193b289aaf4ce324130ab,PennController,13,0,experiment,NULL,Video,progression,buffer,0.003161,1682432582571,sonaID,undefined,10,train,critical,B,50,train40.jpg,train60.jpg,high,memory-momentum10,NULL
1682432663,0ec5c82c1d6193b289aaf4ce324130ab,PennController,13,0,experiment,NULL,Selector,choice,Selection,option2,1682432587228,sonaID,undefined,10,train,critical,B,50,train40.jpg,train60.jpg,high,memory-momentum10,option2;option1
1682432663,0ec5c82c1d6193b289aaf4ce324130ab,PennController,13,0,experiment,NULL,PennController,12,_Trial_,End,1682432587230,sonaID,undefined,10,train,critical,B,50,train40.jpg,train60.jpg,high,memory-momentum10,NULL
1682432663,0ec5c82c1d6193b289aaf4ce324130ab,PennController,16,0,experiment,NULL,PennController,15,_Trial_,Start,1682432587231,sonaID,undefined,13,mix,critical,B,50,mix40.jpg,mix60.jpg,low ,memory-momentum10,NULL
1682432663,0ec5c82c1d6193b289aaf4ce324130ab,PennController,16,0,experiment,NULL,PennController,15,_Header_,Start,1682432587231,sonaID,undefined,13,mix,critical,B,50,mix40.jpg,mix60.jpg,low ,memory-momentum10,NULL
1682432663,0ec5c82c1d6193b289aaf4ce324130ab,PennController,16,0,experiment,NULL,PennController,15,_Header_,End,1682432587231,sonaID,undefined,13,mix,critical,B,50,mix40.jpg,mix60.jpg,low ,memory-momentum10,NULL
1682432663,0ec5c82c1d6193b289aaf4ce324130ab,PennController,16,0,experiment,NULL,Canvas,canvas6,Print,NA,1682432593948,sonaID,undefined,13,mix,critical,B,50,mix40.jpg,mix60.jpg,low ,memory-momentum10,NULL
1682432663,0ec5c82c1d6193b289aaf4ce324130ab,PennController,16,0,experiment,NULL,Video,progression,buffer,0.004205,1682432590757,sonaID,undefined,13,mix,critical,B,50,mix40.jpg,mix60.jpg,low ,memory-momentum10,NULL
1682432663,0ec5c82c1d6193b289aaf4ce324130ab,PennController,16,0,experiment,NULL,Selector,choice,Selection,option1,1682432595633,sonaID,undefined,13,mix,critical,B,50,mix40.jpg,mix60.jpg,low ,memory-momentum10,option2;option1
1682432663,0ec5c82c1d6193b289aaf4ce324130ab,PennController,16,0,experiment,NULL,PennController,15,_Trial_,End,1682432595635,sonaID,undefined,13,mix,critical,B,50,mix40.jpg,mix60.jpg,low ,memory-momentum10,NULL
1682432663,0ec5c82c1d6193b289aaf4ce324130ab,PennController,7,0,experiment,NULL,PennController,6,_Trial_,Start,1682432595636,sonaID,undefined,4,candy,critical,B,50,candy40.jpg,candy60.jpg,high,memory-momentum10,NULL
1682432663,0ec5c82c1d6193b289aaf4ce324130ab,PennController,7,0,experiment,NULL,PennController,6,_Header_,Start,1682432595636,sonaID,undefined,4,candy,critical,B,50,candy40.jpg,candy60.jpg,high,memory-momentum10,NULL
1682432663,0ec5c82c1d6193b289aaf4ce324130ab,PennController,7,0,experiment,NULL,PennController,6,_Header_,End,1682432595636,sonaID,undefined,4,candy,critical,B,50,candy40.jpg,candy60.jpg,high,memory-momentum10,NULL
1682432663,0ec5c82c1d6193b289aaf4ce324130ab,PennController,7,0,experiment,NULL,Canvas,canvas6,Print,NA,1682432602364,sonaID,undefined,4,candy,critical,B,50,candy40.jpg,candy60.jpg,high,memory-momentum10,NULL
1682432663,0ec5c82c1d6193b289aaf4ce324130ab,PennController,7,0,experiment,NULL,Video,progression,buffer,0.003529,1682432599166,sonaID,undefined,4,candy,critical,B,50,candy40.jpg,candy60.jpg,high,memory-momentum10,NULL
1682432663,0ec5c82c1d6193b289aaf4ce324130ab,PennController,7,0,experiment,NULL,Selector,choice,Selection,option1,1682432603829,sonaID,undefined,4,candy,critical,B,50,candy40.jpg,candy60.jpg,high,memory-momentum10,option2;option1
1682432663,0ec5c82c1d6193b289aaf4ce324130ab,PennController,7,0,experiment,NULL,PennController,6,_Trial_,End,1682432603830,sonaID,undefined,4,candy,critical,B,50,candy40.jpg,candy60.jpg,high,memory-momentum10,NULL
1682432663,0ec5c82c1d6193b289aaf4ce324130ab,PennController,6,0,experiment,NULL,PennController,5,_Trial_,Start,1682432603831,sonaID,undefined,3,clean,critical,B,25,clean15.jpg,clean35.jpg,low ,memory-momentum10,NULL
1682432663,0ec5c82c1d6193b289aaf4ce324130ab,PennController,6,0,experiment,NULL,PennController,5,_Header_,Start,1682432603831,sonaID,undefined,3,clean,critical,B,25,clean15.jpg,clean35.jpg,low ,memory-momentum10,NULL
1682432663,0ec5c82c1d6193b289aaf4ce324130ab,PennController,6,0,experiment,NULL,PennController,5,_Header_,End,1682432603831,sonaID,undefined,3,clean,critical,B,25,clean15.jpg,clean35.jpg,low ,memory-momentum10,NULL
1682432663,0ec5c82c1d6193b289aaf4ce324130ab,PennController,6,0,experiment,NULL,Canvas,canvas6,Print,NA,1682432609549,sonaID,undefined,3,clean,critical,B,25,clean15.jpg,clean35.jpg,low ,memory-momentum10,NULL
1682432663,0ec5c82c1d6193b289aaf4ce324130ab,PennController,6,0,experiment,NULL,Video,progression,buffer,0.003171,1682432607360,sonaID,undefined,3,clean,critical,B,25,clean15.jpg,clean35.jpg,low ,memory-momentum10,NULL
1682432663,0ec5c82c1d6193b289aaf4ce324130ab,PennController,6,0,experiment,NULL,Selector,choice,Selection,option1,1682432612950,sonaID,undefined,3,clean,critical,B,25,clean15.jpg,clean35.jpg,low ,memory-momentum10,option2;option1
1682432663,0ec5c82c1d6193b289aaf4ce324130ab,PennController,6,0,experiment,NULL,PennController,5,_Trial_,End,1682432612951,sonaID,undefined,3,clean,critical,B,25,clean15.jpg,clean35.jpg,low ,memory-momentum10,NULL
1682432663,0ec5c82c1d6193b289aaf4ce324130ab,PennController,4,0,experiment,NULL,PennController,3,_Trial_,Start,1682432612953,sonaID,undefined,1,vase,critical,B,50,vase40.jpg,vase60.jpg,low ,memory-momentum10,NULL
1682432663,0ec5c82c1d6193b289aaf4ce324130ab,PennController,4,0,experiment,NULL,PennController,3,_Header_,Start,1682432612953,sonaID,undefined,1,vase,critical,B,50,vase40.jpg,vase60.jpg,low ,memory-momentum10,NULL
1682432663,0ec5c82c1d6193b289aaf4ce324130ab,PennController,4,0,experiment,NULL,PennController,3,_Header_,End,1682432612953,sonaID,undefined,1,vase,critical,B,50,vase40.jpg,vase60.jpg,low ,memory-momentum10,NULL
1682432663,0ec5c82c1d6193b289aaf4ce324130ab,PennController,4,0,experiment,NULL,Canvas,canvas6,Print,NA,1682432619669,sonaID,undefined,1,vase,critical,B,50,vase40.jpg,vase60.jpg,low ,memory-momentum10,NULL
1682432663,0ec5c82c1d6193b289aaf4ce324130ab,PennController,4,0,experiment,NULL,Video,progression,buffer,0.002512,1682432616478,sonaID,undefined,1,vase,critical,B,50,vase40.jpg,vase60.jpg,low ,memory-momentum10,NULL
1682432663,0ec5c82c1d6193b289aaf4ce324130ab,PennController,4,0,experiment,NULL,Selector,choice,Selection,option2,1682432621706,sonaID,undefined,1,vase,critical,B,50,vase40.jpg,vase60.jpg,low ,memory-momentum10,option2;option1
1682432663,0ec5c82c1d6193b289aaf4ce324130ab,PennController,4,0,experiment,NULL,PennController,3,_Trial_,End,1682432621708,sonaID,undefined,1,vase,critical,B,50,vase40.jpg,vase60.jpg,low ,memory-momentum10,NULL
1682432663,0ec5c82c1d6193b289aaf4ce324130ab,PennController,27,0,experiment,NULL,PennController,26,_Trial_,Start,1682432621710,sonaID,undefined,24,match,filler,B,25,match15.jpg,match35.jpg,GoalA,memory-momentum10,NULL
1682432663,0ec5c82c1d6193b289aaf4ce324130ab,PennController,27,0,experiment,NULL,PennController,26,_Header_,Start,1682432621710,sonaID,undefined,24,match,filler,B,25,match15.jpg,match35.jpg,GoalA,memory-momentum10,NULL
1682432663,0ec5c82c1d6193b289aaf4ce324130ab,PennController,27,0,experiment,NULL,PennController,26,_Header_,End,1682432621710,sonaID,undefined,24,match,filler,B,25,match15.jpg,match35.jpg,GoalA,memory-momentum10,NULL
1682432663,0ec5c82c1d6193b289aaf4ce324130ab,PennController,27,0,experiment,NULL,Canvas,canvas6,Print,NA,1682432627427,sonaID,undefined,24,match,filler,B,25,match15.jpg,match35.jpg,GoalA,memory-momentum10,NULL
1682432663,0ec5c82c1d6193b289aaf4ce324130ab,PennController,27,0,experiment,NULL,Video,progression,buffer,0.001818,1682432625232,sonaID,undefined,24,match,filler,B,25,match15.jpg,match35.jpg,GoalA,memory-momentum10,NULL
1682432663,0ec5c82c1d6193b289aaf4ce324130ab,PennController,27,0,experiment,NULL,Selector,choice,Selection,option1,1682432630279,sonaID,undefined,24,match,filler,B,25,match15.jpg,match35.jpg,GoalA,memory-momentum10,option2;option1
1682432663,0ec5c82c1d6193b289aaf4ce324130ab,PennController,27,0,experiment,NULL,PennController,26,_Trial_,End,1682432630280,sonaID,undefined,24,match,filler,B,25,match15.jpg,match35.jpg,GoalA,memory-momentum10,NULL
1682432663,0ec5c82c1d6193b289aaf4ce324130ab,PennController,5,0,experiment,NULL,PennController,4,_Trial_,Start,1682432630281,sonaID,undefined,2,door,critical,B,75,door65.jpg,door85.jpg,high,memory-momentum10,NULL
1682432663,0ec5c82c1d6193b289aaf4ce324130ab,PennController,5,0,experiment,NULL,PennController,4,_Header_,Start,1682432630281,sonaID,undefined,2,door,critical,B,75,door65.jpg,door85.jpg,high,memory-momentum10,NULL
1682432663,0ec5c82c1d6193b289aaf4ce324130ab,PennController,5,0,experiment,NULL,PennController,4,_Header_,End,1682432630281,sonaID,undefined,2,door,critical,B,75,door65.jpg,door85.jpg,high,memory-momentum10,NULL
1682432663,0ec5c82c1d6193b289aaf4ce324130ab,PennController,5,0,experiment,NULL,Canvas,canvas6,Print,NA,1682432638035,sonaID,undefined,2,door,critical,B,75,door65.jpg,door85.jpg,high,memory-momentum10,NULL
1682432663,0ec5c82c1d6193b289aaf4ce324130ab,PennController,5,0,experiment,NULL,Video,progression,buffer,0,1682432633808,sonaID,undefined,2,door,critical,B,75,door65.jpg,door85.jpg,high,memory-momentum10,NULL
1682432663,0ec5c82c1d6193b289aaf4ce324130ab,PennController,5,0,experiment,NULL,Selector,choice,Selection,option1,1682432639808,sonaID,undefined,2,door,critical,B,75,door65.jpg,door85.jpg,high,memory-momentum10,option1;option2
1682432663,0ec5c82c1d6193b289aaf4ce324130ab,PennController,5,0,experiment,NULL,PennController,4,_Trial_,End,1682432639809,sonaID,undefined,2,door,critical,B,75,door65.jpg,door85.jpg,high,memory-momentum10,NULL
1682432663,0ec5c82c1d6193b289aaf4ce324130ab,PennController,8,0,experiment,NULL,PennController,7,_Trial_,Start,1682432639811,sonaID,undefined,5,book,critical,B,75,book65.jpg,book85.jpg,low ,memory-momentum10,NULL
1682432663,0ec5c82c1d6193b289aaf4ce324130ab,PennController,8,0,experiment,NULL,PennController,7,_Header_,Start,1682432639811,sonaID,undefined,5,book,critical,B,75,book65.jpg,book85.jpg,low ,memory-momentum10,NULL
1682432663,0ec5c82c1d6193b289aaf4ce324130ab,PennController,8,0,experiment,NULL,PennController,7,_Header_,End,1682432639811,sonaID,undefined,5,book,critical,B,75,book65.jpg,book85.jpg,low ,memory-momentum10,NULL
1682432663,0ec5c82c1d6193b289aaf4ce324130ab,PennController,8,0,experiment,NULL,Canvas,canvas6,Print,NA,1682432647535,sonaID,undefined,5,book,critical,B,75,book65.jpg,book85.jpg,low ,memory-momentum10,NULL
1682432663,0ec5c82c1d6193b289aaf4ce324130ab,PennController,8,0,experiment,NULL,Video,progression,buffer,0.002648,1682432643336,sonaID,undefined,5,book,critical,B,75,book65.jpg,book85.jpg,low ,memory-momentum10,NULL
1682432663,0ec5c82c1d6193b289aaf4ce324130ab,PennController,8,0,experiment,NULL,Selector,choice,Selection,option1,1682432649275,sonaID,undefined,5,book,critical,B,75,book65.jpg,book85.jpg,low ,memory-momentum10,option1;option2
1682432663,0ec5c82c1d6193b289aaf4ce324130ab,PennController,8,0,experiment,NULL,PennController,7,_Trial_,End,1682432649276,sonaID,undefined,5,book,critical,B,75,book65.jpg,book85.jpg,low ,memory-momentum10,NULL
1682432663,0ec5c82c1d6193b289aaf4ce324130ab,PennController,21,0,experiment,NULL,PennController,20,_Trial_,Start,1682432649277,sonaID,undefined,18,ball,critical,B,25,ball15.jpg,ball35.jpg,high,memory-momentum10,NULL
1682432663,0ec5c82c1d6193b289aaf4ce324130ab,PennController,21,0,experiment,NULL,PennController,20,_Header_,Start,1682432649277,sonaID,undefined,18,ball,critical,B,25,ball15.jpg,ball35.jpg,high,memory-momentum10,NULL
1682432663,0ec5c82c1d6193b289aaf4ce324130ab,PennController,21,0,experiment,NULL,PennController,20,_Header_,End,1682432649277,sonaID,undefined,18,ball,critical,B,25,ball15.jpg,ball35.jpg,high,memory-momentum10,NULL
1682432663,0ec5c82c1d6193b289aaf4ce324130ab,PennController,21,0,experiment,NULL,Canvas,canvas6,Print,NA,1682432654998,sonaID,undefined,18,ball,critical,B,25,ball15.jpg,ball35.jpg,high,memory-momentum10,NULL
1682432663,0ec5c82c1d6193b289aaf4ce324130ab,PennController,21,0,experiment,NULL,Video,progression,buffer,0.003469,1682432652803,sonaID,undefined,18,ball,critical,B,25,ball15.jpg,ball35.jpg,high,memory-momentum10,NULL
1682432663,0ec5c82c1d6193b289aaf4ce324130ab,PennController,21,0,experiment,NULL,Selector,choice,Selection,option1,1682432655949,sonaID,undefined,18,ball,critical,B,25,ball15.jpg,ball35.jpg,high,memory-momentum10,option1;option2
1682432663,0ec5c82c1d6193b289aaf4ce324130ab,PennController,21,0,experiment,NULL,PennController,20,_Trial_,End,1682432655951,sonaID,undefined,18,ball,critical,B,25,ball15.jpg,ball35.jpg,high,memory-momentum10,NULL
1682432663,0ec5c82c1d6193b289aaf4ce324130ab,PennController,24,0,experiment,NULL,PennController,23,_Trial_,Start,1682432655952,sonaID,undefined,21,visit,filler,B,25,visit15.jpg,visit35.jpg,GoalB,memory-momentum10,NULL
1682432663,0ec5c82c1d6193b289aaf4ce324130ab,PennController,24,0,experiment,NULL,PennController,23,_Header_,Start,1682432655952,sonaID,undefined,21,visit,filler,B,25,visit15.jpg,visit35.jpg,GoalB,memory-momentum10,NULL
1682432663,0ec5c82c1d6193b289aaf4ce324130ab,PennController,24,0,experiment,NULL,PennController,23,_Header_,End,1682432655952,sonaID,undefined,21,visit,filler,B,25,visit15.jpg,visit35.jpg,GoalB,memory-momentum10,NULL
1682432663,0ec5c82c1d6193b289aaf4ce324130ab,PennController,24,0,experiment,NULL,Canvas,canvas6,Print,NA,1682432661675,sonaID,undefined,21,visit,filler,B,25,visit15.jpg,visit35.jpg,GoalB,memory-momentum10,NULL
1682432663,0ec5c82c1d6193b289aaf4ce324130ab,PennController,24,0,experiment,NULL,Video,progression,buffer,0.00293,1682432659478,sonaID,undefined,21,visit,filler,B,25,visit15.jpg,visit35.jpg,GoalB,memory-momentum10,NULL
1682432663,0ec5c82c1d6193b289aaf4ce324130ab,PennController,24,0,experiment,NULL,Selector,choice,Selection,option2,1682432663122,sonaID,undefined,21,visit,filler,B,25,visit15.jpg,visit35.jpg,GoalB,memory-momentum10,option2;option1
1682432663,0ec5c82c1d6193b289aaf4ce324130ab,PennController,24,0,experiment,NULL,PennController,23,_Trial_,End,1682432663124,sonaID,undefined,21,visit,filler,B,25,visit15.jpg,visit35.jpg,GoalB,memory-momentum10,NULL
