#
# Results on Wednesday April 26 2023 19:01:49 UTC
# USER AGENT: Mozilla/5.0 (Macintosh; Intel Mac OS X 10_15_7) AppleWebKit/605.1.15 (KHTML, like Gecko) Version/16.0 Safari/605.1.15
# Design number was non-random = 17
#
# Columns below this comment are as follows:
# 1. Results reception time.
# 2. MD5 hash of participant's IP address.
# 3. Controller name.
# 4. Order number of item.
# 5. Inner element number.
# 6. Label.
# 7. Latin Square Group.
# 8. PennElementType.
# 9. PennElementName.
# 10. Parameter.
# 11. Value.
# 12. EventTime.
# 13. sonaID.
# 14. Comments.
1682535709,14501728fc0ca6db1e4445627301e4b1,PennController,2,0,consent,NULL,PennController,0,_Header_,End,1682535363264,sonaID,NULL
1682535709,14501728fc0ca6db1e4445627301e4b1,PennController,2,0,consent,NULL,PennController,0,_Header_,Start,1682535363264,sonaID,NULL
1682535709,14501728fc0ca6db1e4445627301e4b1,PennController,2,0,consent,NULL,PennController,0,_Trial_,Start,1682535363264,sonaID,NULL
1682535709,14501728fc0ca6db1e4445627301e4b1,PennController,2,0,consent,NULL,PennController,0,_Trial_,End,1682535366092,sonaID,NULL
# Columns below this comment are as follows:
# 14. ID.
# 15. Comments.
1682535709,14501728fc0ca6db1e4445627301e4b1,PennController,3,0,intro,NULL,PennController,1,_Header_,End,1682535366094,sonaID,undefined,NULL
1682535709,14501728fc0ca6db1e4445627301e4b1,PennController,3,0,intro,NULL,PennController,1,_Header_,Start,1682535366094,sonaID,undefined,NULL
1682535709,14501728fc0ca6db1e4445627301e4b1,PennController,3,0,intro,NULL,PennController,1,_Trial_,Start,1682535366094,sonaID,undefined,NULL
1682535709,14501728fc0ca6db1e4445627301e4b1,PennController,3,0,intro,NULL,TextInput,inputID,First,,1682535369876,sonaID,undefined,7
1682535709,14501728fc0ca6db1e4445627301e4b1,PennController,3,0,intro,NULL,TextInput,inputID,EnterReturn,78600054,1682535372427,sonaID,undefined,NULL
1682535709,14501728fc0ca6db1e4445627301e4b1,PennController,3,0,intro,NULL,PennController,1,_Trial_,End,1682535372434,sonaID,undefined,NULL
1682535709,14501728fc0ca6db1e4445627301e4b1,PennController,3,0,intro,NULL,TextInput,inputID,Final,78600054,1682535372434,sonaID,undefined,NULL
# Columns below this comment are as follows:
# 15. item_number.
# 16. item.
# 17. type.
# 18. Group.
# 19. prog.
# 20. prev_image.
# 21. next_image.
# 22. height.
# 23. memory-momentum10.
# 24. Comments.
1682535709,14501728fc0ca6db1e4445627301e4b1,PennController,19,0,experiment,NULL,PennController,18,_Header_,End,1682535372437,sonaID,undefined,16,blinds,critical,F,75,blinds66.jpg,blinds84.jpg,low ,memory-momentum10,NULL
1682535709,14501728fc0ca6db1e4445627301e4b1,PennController,19,0,experiment,NULL,PennController,18,_Header_,Start,1682535372437,sonaID,undefined,16,blinds,critical,F,75,blinds66.jpg,blinds84.jpg,low ,memory-momentum10,NULL
1682535709,14501728fc0ca6db1e4445627301e4b1,PennController,19,0,experiment,NULL,PennController,18,_Trial_,Start,1682535372437,sonaID,undefined,16,blinds,critical,F,75,blinds66.jpg,blinds84.jpg,low ,memory-momentum10,NULL
1682535709,14501728fc0ca6db1e4445627301e4b1,PennController,19,0,experiment,NULL,Canvas,canvas6,Print,NA,1682535382213,sonaID,undefined,16,blinds,critical,F,75,blinds66.jpg,blinds84.jpg,low ,memory-momentum10,NULL
1682535709,14501728fc0ca6db1e4445627301e4b1,PennController,19,0,experiment,NULL,Selector,choice,Selection,option2,1682535384262,sonaID,undefined,16,blinds,critical,F,75,blinds66.jpg,blinds84.jpg,low ,memory-momentum10,option1;option2
1682535709,14501728fc0ca6db1e4445627301e4b1,PennController,19,0,experiment,NULL,PennController,18,_Trial_,End,1682535384267,sonaID,undefined,16,blinds,critical,F,75,blinds66.jpg,blinds84.jpg,low ,memory-momentum10,NULL
1682535709,14501728fc0ca6db1e4445627301e4b1,PennController,30,0,experiment,NULL,PennController,29,_PreloadFailed_,https://video.wixstatic.com/video/7cb05b_171840eb277a4ada98d979b740149974/144p/mp4/file.mp4,1682535444279,sonaID,undefined,27,rice,filler,F,50,square40.jpg,square60.jpg,GoalB,memory-momentum10,NULL
1682535709,14501728fc0ca6db1e4445627301e4b1,PennController,30,0,experiment,NULL,PennController,29,_PreloadFailed_,https://raw.githubusercontent.com/karenwli/rep-momentum/main/rice/rice00.jpg,1682535444279,sonaID,undefined,27,rice,filler,F,50,square40.jpg,square60.jpg,GoalB,memory-momentum10,NULL
1682535709,14501728fc0ca6db1e4445627301e4b1,PennController,30,0,experiment,NULL,PennController,29,_PreloadFailed_,fixation.png,1682535444279,sonaID,undefined,27,rice,filler,F,50,square40.jpg,square60.jpg,GoalB,memory-momentum10,NULL
1682535709,14501728fc0ca6db1e4445627301e4b1,PennController,30,0,experiment,NULL,PennController,29,_Header_,Start,1682535444281,sonaID,undefined,27,rice,filler,F,50,square40.jpg,square60.jpg,GoalB,memory-momentum10,NULL
1682535709,14501728fc0ca6db1e4445627301e4b1,PennController,30,0,experiment,NULL,PennController,29,_Trial_,Start,1682535444281,sonaID,undefined,27,rice,filler,F,50,square40.jpg,square60.jpg,GoalB,memory-momentum10,NULL
1682535709,14501728fc0ca6db1e4445627301e4b1,PennController,30,0,experiment,NULL,PennController,29,_Header_,End,1682535444282,sonaID,undefined,27,rice,filler,F,50,square40.jpg,square60.jpg,GoalB,memory-momentum10,NULL
1682535709,14501728fc0ca6db1e4445627301e4b1,PennController,30,0,experiment,NULL,Canvas,canvas6,Print,NA,1682535451093,sonaID,undefined,27,rice,filler,F,50,square40.jpg,square60.jpg,GoalB,memory-momentum10,NULL
1682535709,14501728fc0ca6db1e4445627301e4b1,PennController,30,0,experiment,NULL,Selector,choice,Selection,option2,1682535461088,sonaID,undefined,27,rice,filler,F,50,square40.jpg,square60.jpg,GoalB,memory-momentum10,option1;option2
1682535709,14501728fc0ca6db1e4445627301e4b1,PennController,30,0,experiment,NULL,PennController,29,_Trial_,End,1682535461093,sonaID,undefined,27,rice,filler,F,50,square40.jpg,square60.jpg,GoalB,memory-momentum10,NULL
1682535709,14501728fc0ca6db1e4445627301e4b1,PennController,10,0,experiment,NULL,PennController,9,_Header_,End,1682535461097,sonaID,undefined,7,stack,critical,F,75,stack65.jpg,stack85.jpg,high,memory-momentum10,NULL
1682535709,14501728fc0ca6db1e4445627301e4b1,PennController,10,0,experiment,NULL,PennController,9,_Header_,Start,1682535461097,sonaID,undefined,7,stack,critical,F,75,stack65.jpg,stack85.jpg,high,memory-momentum10,NULL
1682535709,14501728fc0ca6db1e4445627301e4b1,PennController,10,0,experiment,NULL,PennController,9,_Trial_,Start,1682535461097,sonaID,undefined,7,stack,critical,F,75,stack65.jpg,stack85.jpg,high,memory-momentum10,NULL
1682535709,14501728fc0ca6db1e4445627301e4b1,PennController,10,0,experiment,NULL,Canvas,canvas6,Print,NA,1682535468875,sonaID,undefined,7,stack,critical,F,75,stack65.jpg,stack85.jpg,high,memory-momentum10,NULL
1682535709,14501728fc0ca6db1e4445627301e4b1,PennController,10,0,experiment,NULL,Selector,choice,Selection,option2,1682535470636,sonaID,undefined,7,stack,critical,F,75,stack65.jpg,stack85.jpg,high,memory-momentum10,option1;option2
1682535709,14501728fc0ca6db1e4445627301e4b1,PennController,10,0,experiment,NULL,PennController,9,_Trial_,End,1682535470639,sonaID,undefined,7,stack,critical,F,75,stack65.jpg,stack85.jpg,high,memory-momentum10,NULL
1682535709,14501728fc0ca6db1e4445627301e4b1,PennController,5,0,experiment,NULL,PennController,4,_Header_,End,1682535470643,sonaID,undefined,2,door,critical,F,25,door15.jpg,door35.jpg,low ,memory-momentum10,NULL
1682535709,14501728fc0ca6db1e4445627301e4b1,PennController,5,0,experiment,NULL,PennController,4,_Header_,Start,1682535470643,sonaID,undefined,2,door,critical,F,25,door15.jpg,door35.jpg,low ,memory-momentum10,NULL
1682535709,14501728fc0ca6db1e4445627301e4b1,PennController,5,0,experiment,NULL,PennController,4,_Trial_,Start,1682535470643,sonaID,undefined,2,door,critical,F,25,door15.jpg,door35.jpg,low ,memory-momentum10,NULL
1682535709,14501728fc0ca6db1e4445627301e4b1,PennController,5,0,experiment,NULL,Canvas,canvas6,Print,NA,1682535476427,sonaID,undefined,2,door,critical,F,25,door15.jpg,door35.jpg,low ,memory-momentum10,NULL
1682535709,14501728fc0ca6db1e4445627301e4b1,PennController,5,0,experiment,NULL,Selector,choice,Selection,option2,1682535481121,sonaID,undefined,2,door,critical,F,25,door15.jpg,door35.jpg,low ,memory-momentum10,option2;option1
1682535709,14501728fc0ca6db1e4445627301e4b1,PennController,5,0,experiment,NULL,PennController,4,_Trial_,End,1682535481122,sonaID,undefined,2,door,critical,F,25,door15.jpg,door35.jpg,low ,memory-momentum10,NULL
1682535709,14501728fc0ca6db1e4445627301e4b1,PennController,25,0,experiment,NULL,PennController,24,_Header_,End,1682535481123,sonaID,undefined,22,wall,filler,F,75,wall65.jpg,wall85.jpg,GoalA,memory-momentum10,NULL
1682535709,14501728fc0ca6db1e4445627301e4b1,PennController,25,0,experiment,NULL,PennController,24,_Header_,Start,1682535481123,sonaID,undefined,22,wall,filler,F,75,wall65.jpg,wall85.jpg,GoalA,memory-momentum10,NULL
1682535709,14501728fc0ca6db1e4445627301e4b1,PennController,25,0,experiment,NULL,PennController,24,_Trial_,Start,1682535481123,sonaID,undefined,22,wall,filler,F,75,wall65.jpg,wall85.jpg,GoalA,memory-momentum10,NULL
1682535709,14501728fc0ca6db1e4445627301e4b1,PennController,25,0,experiment,NULL,Canvas,canvas6,Print,NA,1682535488897,sonaID,undefined,22,wall,filler,F,75,wall65.jpg,wall85.jpg,GoalA,memory-momentum10,NULL
1682535709,14501728fc0ca6db1e4445627301e4b1,PennController,25,0,experiment,NULL,Selector,choice,Selection,option1,1682535490996,sonaID,undefined,22,wall,filler,F,75,wall65.jpg,wall85.jpg,GoalA,memory-momentum10,option1;option2
1682535709,14501728fc0ca6db1e4445627301e4b1,PennController,25,0,experiment,NULL,PennController,24,_Trial_,End,1682535490997,sonaID,undefined,22,wall,filler,F,75,wall65.jpg,wall85.jpg,GoalA,memory-momentum10,NULL
1682535709,14501728fc0ca6db1e4445627301e4b1,PennController,22,0,experiment,NULL,PennController,21,_Header_,End,1682535490999,sonaID,undefined,19,cup,filler,F,75,cup65.jpg,cup85.jpg,GoalB,memory-momentum10,NULL
1682535709,14501728fc0ca6db1e4445627301e4b1,PennController,22,0,experiment,NULL,PennController,21,_Header_,Start,1682535490999,sonaID,undefined,19,cup,filler,F,75,cup65.jpg,cup85.jpg,GoalB,memory-momentum10,NULL
1682535709,14501728fc0ca6db1e4445627301e4b1,PennController,22,0,experiment,NULL,PennController,21,_Trial_,Start,1682535490999,sonaID,undefined,19,cup,filler,F,75,cup65.jpg,cup85.jpg,GoalB,memory-momentum10,NULL
1682535709,14501728fc0ca6db1e4445627301e4b1,PennController,22,0,experiment,NULL,Canvas,canvas6,Print,NA,1682535498778,sonaID,undefined,19,cup,filler,F,75,cup65.jpg,cup85.jpg,GoalB,memory-momentum10,NULL
1682535709,14501728fc0ca6db1e4445627301e4b1,PennController,22,0,experiment,NULL,Selector,choice,Selection,option1,1682535501708,sonaID,undefined,19,cup,filler,F,75,cup65.jpg,cup85.jpg,GoalB,memory-momentum10,option1;option2
1682535709,14501728fc0ca6db1e4445627301e4b1,PennController,22,0,experiment,NULL,PennController,21,_Trial_,End,1682535501712,sonaID,undefined,19,cup,filler,F,75,cup65.jpg,cup85.jpg,GoalB,memory-momentum10,NULL
1682535709,14501728fc0ca6db1e4445627301e4b1,PennController,6,0,experiment,NULL,PennController,5,_Header_,End,1682535501715,sonaID,undefined,3,clean,critical,F,50,clean40.jpg,clean60.jpg,high,memory-momentum10,NULL
1682535709,14501728fc0ca6db1e4445627301e4b1,PennController,6,0,experiment,NULL,PennController,5,_Header_,Start,1682535501715,sonaID,undefined,3,clean,critical,F,50,clean40.jpg,clean60.jpg,high,memory-momentum10,NULL
1682535709,14501728fc0ca6db1e4445627301e4b1,PennController,6,0,experiment,NULL,PennController,5,_Trial_,Start,1682535501715,sonaID,undefined,3,clean,critical,F,50,clean40.jpg,clean60.jpg,high,memory-momentum10,NULL
1682535709,14501728fc0ca6db1e4445627301e4b1,PennController,6,0,experiment,NULL,Canvas,canvas6,Print,NA,1682535508487,sonaID,undefined,3,clean,critical,F,50,clean40.jpg,clean60.jpg,high,memory-momentum10,NULL
1682535709,14501728fc0ca6db1e4445627301e4b1,PennController,6,0,experiment,NULL,Selector,choice,Selection,option2,1682535515214,sonaID,undefined,3,clean,critical,F,50,clean40.jpg,clean60.jpg,high,memory-momentum10,option1;option2
1682535709,14501728fc0ca6db1e4445627301e4b1,PennController,6,0,experiment,NULL,PennController,5,_Trial_,End,1682535515217,sonaID,undefined,3,clean,critical,F,50,clean40.jpg,clean60.jpg,high,memory-momentum10,NULL
1682535709,14501728fc0ca6db1e4445627301e4b1,PennController,9,0,experiment,NULL,PennController,8,_Header_,End,1682535515221,sonaID,undefined,6,flower,critical,F,50,flower40.jpg,flower60.jpg,low ,memory-momentum10,NULL
1682535709,14501728fc0ca6db1e4445627301e4b1,PennController,9,0,experiment,NULL,PennController,8,_Header_,Start,1682535515221,sonaID,undefined,6,flower,critical,F,50,flower40.jpg,flower60.jpg,low ,memory-momentum10,NULL
1682535709,14501728fc0ca6db1e4445627301e4b1,PennController,9,0,experiment,NULL,PennController,8,_Trial_,Start,1682535515221,sonaID,undefined,6,flower,critical,F,50,flower40.jpg,flower60.jpg,low ,memory-momentum10,NULL
1682535709,14501728fc0ca6db1e4445627301e4b1,PennController,9,0,experiment,NULL,Canvas,canvas6,Print,NA,1682535521990,sonaID,undefined,6,flower,critical,F,50,flower40.jpg,flower60.jpg,low ,memory-momentum10,NULL
1682535709,14501728fc0ca6db1e4445627301e4b1,PennController,9,0,experiment,NULL,Selector,choice,Selection,option1,1682535523609,sonaID,undefined,6,flower,critical,F,50,flower40.jpg,flower60.jpg,low ,memory-momentum10,option1;option2
1682535709,14501728fc0ca6db1e4445627301e4b1,PennController,9,0,experiment,NULL,PennController,8,_Trial_,End,1682535523613,sonaID,undefined,6,flower,critical,F,50,flower40.jpg,flower60.jpg,low ,memory-momentum10,NULL
1682535709,14501728fc0ca6db1e4445627301e4b1,PennController,16,0,experiment,NULL,PennController,15,_Header_,End,1682535523616,sonaID,undefined,13,mix,critical,F,75,mix65.jpg,mix85.jpg,high,memory-momentum10,NULL
1682535709,14501728fc0ca6db1e4445627301e4b1,PennController,16,0,experiment,NULL,PennController,15,_Header_,Start,1682535523616,sonaID,undefined,13,mix,critical,F,75,mix65.jpg,mix85.jpg,high,memory-momentum10,NULL
1682535709,14501728fc0ca6db1e4445627301e4b1,PennController,16,0,experiment,NULL,PennController,15,_Trial_,Start,1682535523616,sonaID,undefined,13,mix,critical,F,75,mix65.jpg,mix85.jpg,high,memory-momentum10,NULL
1682535709,14501728fc0ca6db1e4445627301e4b1,PennController,16,0,experiment,NULL,Canvas,canvas6,Print,NA,1682535531385,sonaID,undefined,13,mix,critical,F,75,mix65.jpg,mix85.jpg,high,memory-momentum10,NULL
1682535709,14501728fc0ca6db1e4445627301e4b1,PennController,16,0,experiment,NULL,Selector,choice,Selection,option2,1682535532814,sonaID,undefined,13,mix,critical,F,75,mix65.jpg,mix85.jpg,high,memory-momentum10,option2;option1
1682535709,14501728fc0ca6db1e4445627301e4b1,PennController,16,0,experiment,NULL,PennController,15,_Trial_,End,1682535532817,sonaID,undefined,13,mix,critical,F,75,mix65.jpg,mix85.jpg,high,memory-momentum10,NULL
1682535709,14501728fc0ca6db1e4445627301e4b1,PennController,24,0,experiment,NULL,PennController,23,_Header_,End,1682535532820,sonaID,undefined,21,visit,filler,F,50,visit40.jpg,visit60.jpg,GoalB,memory-momentum10,NULL
1682535709,14501728fc0ca6db1e4445627301e4b1,PennController,24,0,experiment,NULL,PennController,23,_Header_,Start,1682535532820,sonaID,undefined,21,visit,filler,F,50,visit40.jpg,visit60.jpg,GoalB,memory-momentum10,NULL
1682535709,14501728fc0ca6db1e4445627301e4b1,PennController,24,0,experiment,NULL,PennController,23,_Trial_,Start,1682535532820,sonaID,undefined,21,visit,filler,F,50,visit40.jpg,visit60.jpg,GoalB,memory-momentum10,NULL
1682535709,14501728fc0ca6db1e4445627301e4b1,PennController,24,0,experiment,NULL,Canvas,canvas6,Print,NA,1682535539598,sonaID,undefined,21,visit,filler,F,50,visit40.jpg,visit60.jpg,GoalB,memory-momentum10,NULL
1682535709,14501728fc0ca6db1e4445627301e4b1,PennController,24,0,experiment,NULL,Selector,choice,Selection,option2,1682535540810,sonaID,undefined,21,visit,filler,F,50,visit40.jpg,visit60.jpg,GoalB,memory-momentum10,option2;option1
1682535709,14501728fc0ca6db1e4445627301e4b1,PennController,24,0,experiment,NULL,PennController,23,_Trial_,End,1682535540813,sonaID,undefined,21,visit,filler,F,50,visit40.jpg,visit60.jpg,GoalB,memory-momentum10,NULL
1682535709,14501728fc0ca6db1e4445627301e4b1,PennController,17,0,experiment,NULL,PennController,16,_Header_,End,1682535540815,sonaID,undefined,14,cover,critical,F,25,cover15.jpg,cover33.jpg,low ,memory-momentum10,NULL
1682535709,14501728fc0ca6db1e4445627301e4b1,PennController,17,0,experiment,NULL,PennController,16,_Header_,Start,1682535540815,sonaID,undefined,14,cover,critical,F,25,cover15.jpg,cover33.jpg,low ,memory-momentum10,NULL
1682535709,14501728fc0ca6db1e4445627301e4b1,PennController,17,0,experiment,NULL,PennController,16,_Trial_,Start,1682535540815,sonaID,undefined,14,cover,critical,F,25,cover15.jpg,cover33.jpg,low ,memory-momentum10,NULL
1682535709,14501728fc0ca6db1e4445627301e4b1,PennController,17,0,experiment,NULL,Canvas,canvas6,Print,NA,1682535547182,sonaID,undefined,14,cover,critical,F,25,cover15.jpg,cover33.jpg,low ,memory-momentum10,NULL
1682535709,14501728fc0ca6db1e4445627301e4b1,PennController,17,0,experiment,NULL,Selector,choice,Selection,option2,1682535548488,sonaID,undefined,14,cover,critical,F,25,cover15.jpg,cover33.jpg,low ,memory-momentum10,option1;option2
1682535709,14501728fc0ca6db1e4445627301e4b1,PennController,17,0,experiment,NULL,PennController,16,_Trial_,End,1682535548496,sonaID,undefined,14,cover,critical,F,25,cover15.jpg,cover33.jpg,low ,memory-momentum10,NULL
1682535709,14501728fc0ca6db1e4445627301e4b1,PennController,14,0,experiment,NULL,PennController,13,_Trial_,Start,1682535548499,sonaID,undefined,11,beads,critical,F,25,beads15.jpg,beads35.jpg,high,memory-momentum10,NULL
1682535709,14501728fc0ca6db1e4445627301e4b1,PennController,14,0,experiment,NULL,PennController,13,_Header_,End,1682535548500,sonaID,undefined,11,beads,critical,F,25,beads15.jpg,beads35.jpg,high,memory-momentum10,NULL
1682535709,14501728fc0ca6db1e4445627301e4b1,PennController,14,0,experiment,NULL,PennController,13,_Header_,Start,1682535548500,sonaID,undefined,11,beads,critical,F,25,beads15.jpg,beads35.jpg,high,memory-momentum10,NULL
1682535709,14501728fc0ca6db1e4445627301e4b1,PennController,14,0,experiment,NULL,Canvas,canvas6,Print,NA,1682535554276,sonaID,undefined,11,beads,critical,F,25,beads15.jpg,beads35.jpg,high,memory-momentum10,NULL
1682535709,14501728fc0ca6db1e4445627301e4b1,PennController,14,0,experiment,NULL,Selector,choice,Selection,option2,1682535555591,sonaID,undefined,11,beads,critical,F,25,beads15.jpg,beads35.jpg,high,memory-momentum10,option1;option2
1682535709,14501728fc0ca6db1e4445627301e4b1,PennController,14,0,experiment,NULL,PennController,13,_Trial_,End,1682535555594,sonaID,undefined,11,beads,critical,F,25,beads15.jpg,beads35.jpg,high,memory-momentum10,NULL
1682535709,14501728fc0ca6db1e4445627301e4b1,PennController,32,0,experiment,NULL,PennController,31,_Header_,End,1682535555598,sonaID,undefined,29,frog,filler,F,25,frog15.jpg,frog35.jpg,GoalB,memory-momentum10,NULL
1682535709,14501728fc0ca6db1e4445627301e4b1,PennController,32,0,experiment,NULL,PennController,31,_Header_,Start,1682535555598,sonaID,undefined,29,frog,filler,F,25,frog15.jpg,frog35.jpg,GoalB,memory-momentum10,NULL
1682535709,14501728fc0ca6db1e4445627301e4b1,PennController,32,0,experiment,NULL,PennController,31,_Trial_,Start,1682535555598,sonaID,undefined,29,frog,filler,F,25,frog15.jpg,frog35.jpg,GoalB,memory-momentum10,NULL
1682535709,14501728fc0ca6db1e4445627301e4b1,PennController,32,0,experiment,NULL,Canvas,canvas6,Print,NA,1682535561375,sonaID,undefined,29,frog,filler,F,25,frog15.jpg,frog35.jpg,GoalB,memory-momentum10,NULL
1682535709,14501728fc0ca6db1e4445627301e4b1,PennController,32,0,experiment,NULL,Selector,choice,Selection,option2,1682535563283,sonaID,undefined,29,frog,filler,F,25,frog15.jpg,frog35.jpg,GoalB,memory-momentum10,option1;option2
1682535709,14501728fc0ca6db1e4445627301e4b1,PennController,32,0,experiment,NULL,PennController,31,_Trial_,End,1682535563288,sonaID,undefined,29,frog,filler,F,25,frog15.jpg,frog35.jpg,GoalB,memory-momentum10,NULL
1682535709,14501728fc0ca6db1e4445627301e4b1,PennController,4,0,experiment,NULL,PennController,3,_Header_,End,1682535563291,sonaID,undefined,1,vase,critical,F,25,vase60.jpg,vase90.jpg,high,memory-momentum10,NULL
1682535709,14501728fc0ca6db1e4445627301e4b1,PennController,4,0,experiment,NULL,PennController,3,_Header_,Start,1682535563291,sonaID,undefined,1,vase,critical,F,25,vase60.jpg,vase90.jpg,high,memory-momentum10,NULL
1682535709,14501728fc0ca6db1e4445627301e4b1,PennController,4,0,experiment,NULL,PennController,3,_Trial_,Start,1682535563291,sonaID,undefined,1,vase,critical,F,25,vase60.jpg,vase90.jpg,high,memory-momentum10,NULL
1682535709,14501728fc0ca6db1e4445627301e4b1,PennController,4,0,experiment,NULL,Canvas,canvas6,Print,NA,1682535569071,sonaID,undefined,1,vase,critical,F,25,vase60.jpg,vase90.jpg,high,memory-momentum10,NULL
1682535709,14501728fc0ca6db1e4445627301e4b1,PennController,4,0,experiment,NULL,Selector,choice,Selection,option1,1682535571080,sonaID,undefined,1,vase,critical,F,25,vase60.jpg,vase90.jpg,high,memory-momentum10,option2;option1
1682535709,14501728fc0ca6db1e4445627301e4b1,PennController,4,0,experiment,NULL,PennController,3,_Trial_,End,1682535571083,sonaID,undefined,1,vase,critical,F,25,vase60.jpg,vase90.jpg,high,memory-momentum10,NULL
1682535709,14501728fc0ca6db1e4445627301e4b1,PennController,18,0,experiment,NULL,PennController,17,_Header_,End,1682535571085,sonaID,undefined,15,zip,critical,F,50,zip40.jpg,zip60.jpg,high,memory-momentum10,NULL
1682535709,14501728fc0ca6db1e4445627301e4b1,PennController,18,0,experiment,NULL,PennController,17,_Header_,Start,1682535571085,sonaID,undefined,15,zip,critical,F,50,zip40.jpg,zip60.jpg,high,memory-momentum10,NULL
1682535709,14501728fc0ca6db1e4445627301e4b1,PennController,18,0,experiment,NULL,PennController,17,_Trial_,Start,1682535571085,sonaID,undefined,15,zip,critical,F,50,zip40.jpg,zip60.jpg,high,memory-momentum10,NULL
1682535709,14501728fc0ca6db1e4445627301e4b1,PennController,18,0,experiment,NULL,Canvas,canvas6,Print,NA,1682535577849,sonaID,undefined,15,zip,critical,F,50,zip40.jpg,zip60.jpg,high,memory-momentum10,NULL
1682535709,14501728fc0ca6db1e4445627301e4b1,PennController,18,0,experiment,NULL,Selector,choice,Selection,option2,1682535580596,sonaID,undefined,15,zip,critical,F,50,zip40.jpg,zip60.jpg,high,memory-momentum10,option1;option2
1682535709,14501728fc0ca6db1e4445627301e4b1,PennController,18,0,experiment,NULL,PennController,17,_Trial_,End,1682535580599,sonaID,undefined,15,zip,critical,F,50,zip40.jpg,zip60.jpg,high,memory-momentum10,NULL
1682535709,14501728fc0ca6db1e4445627301e4b1,PennController,13,0,experiment,NULL,PennController,12,_Header_,End,1682535580603,sonaID,undefined,10,train,critical,F,75,train65.jpg,train85.jpg,low ,memory-momentum10,NULL
1682535709,14501728fc0ca6db1e4445627301e4b1,PennController,13,0,experiment,NULL,PennController,12,_Header_,Start,1682535580603,sonaID,undefined,10,train,critical,F,75,train65.jpg,train85.jpg,low ,memory-momentum10,NULL
1682535709,14501728fc0ca6db1e4445627301e4b1,PennController,13,0,experiment,NULL,PennController,12,_Trial_,Start,1682535580603,sonaID,undefined,10,train,critical,F,75,train65.jpg,train85.jpg,low ,memory-momentum10,NULL
1682535709,14501728fc0ca6db1e4445627301e4b1,PennController,13,0,experiment,NULL,Canvas,canvas6,Print,NA,1682535588380,sonaID,undefined,10,train,critical,F,75,train65.jpg,train85.jpg,low ,memory-momentum10,NULL
1682535709,14501728fc0ca6db1e4445627301e4b1,PennController,13,0,experiment,NULL,Selector,choice,Selection,option2,1682535589748,sonaID,undefined,10,train,critical,F,75,train65.jpg,train85.jpg,low ,memory-momentum10,option1;option2
1682535709,14501728fc0ca6db1e4445627301e4b1,PennController,13,0,experiment,NULL,PennController,12,_Trial_,End,1682535589750,sonaID,undefined,10,train,critical,F,75,train65.jpg,train85.jpg,low ,memory-momentum10,NULL
1682535709,14501728fc0ca6db1e4445627301e4b1,PennController,11,0,experiment,NULL,PennController,10,_Header_,End,1682535589753,sonaID,undefined,8,cucumber,critical,F,25,cucumber15.jpg,cucumber33.jpg,low ,memory-momentum10,NULL
1682535709,14501728fc0ca6db1e4445627301e4b1,PennController,11,0,experiment,NULL,PennController,10,_Header_,Start,1682535589753,sonaID,undefined,8,cucumber,critical,F,25,cucumber15.jpg,cucumber33.jpg,low ,memory-momentum10,NULL
1682535709,14501728fc0ca6db1e4445627301e4b1,PennController,11,0,experiment,NULL,PennController,10,_Trial_,Start,1682535589753,sonaID,undefined,8,cucumber,critical,F,25,cucumber15.jpg,cucumber33.jpg,low ,memory-momentum10,NULL
1682535709,14501728fc0ca6db1e4445627301e4b1,PennController,11,0,experiment,NULL,Canvas,canvas6,Print,NA,1682535596139,sonaID,undefined,8,cucumber,critical,F,25,cucumber15.jpg,cucumber33.jpg,low ,memory-momentum10,NULL
1682535709,14501728fc0ca6db1e4445627301e4b1,PennController,11,0,experiment,NULL,Selector,choice,Selection,option2,1682535599418,sonaID,undefined,8,cucumber,critical,F,25,cucumber15.jpg,cucumber33.jpg,low ,memory-momentum10,option2;option1
1682535709,14501728fc0ca6db1e4445627301e4b1,PennController,11,0,experiment,NULL,PennController,10,_Trial_,End,1682535599422,sonaID,undefined,8,cucumber,critical,F,25,cucumber15.jpg,cucumber33.jpg,low ,memory-momentum10,NULL
1682535709,14501728fc0ca6db1e4445627301e4b1,PennController,7,0,experiment,NULL,PennController,6,_Header_,End,1682535599425,sonaID,undefined,4,candy,critical,F,75,candy65.jpg,candy85.jpg,low ,memory-momentum10,NULL
1682535709,14501728fc0ca6db1e4445627301e4b1,PennController,7,0,experiment,NULL,PennController,6,_Header_,Start,1682535599425,sonaID,undefined,4,candy,critical,F,75,candy65.jpg,candy85.jpg,low ,memory-momentum10,NULL
1682535709,14501728fc0ca6db1e4445627301e4b1,PennController,7,0,experiment,NULL,PennController,6,_Trial_,Start,1682535599425,sonaID,undefined,4,candy,critical,F,75,candy65.jpg,candy85.jpg,low ,memory-momentum10,NULL
1682535709,14501728fc0ca6db1e4445627301e4b1,PennController,7,0,experiment,NULL,Canvas,canvas6,Print,NA,1682535607195,sonaID,undefined,4,candy,critical,F,75,candy65.jpg,candy85.jpg,low ,memory-momentum10,NULL
1682535709,14501728fc0ca6db1e4445627301e4b1,PennController,7,0,experiment,NULL,Selector,choice,Selection,option1,1682535608761,sonaID,undefined,4,candy,critical,F,75,candy65.jpg,candy85.jpg,low ,memory-momentum10,option1;option2
1682535709,14501728fc0ca6db1e4445627301e4b1,PennController,7,0,experiment,NULL,PennController,6,_Trial_,End,1682535608763,sonaID,undefined,4,candy,critical,F,75,candy65.jpg,candy85.jpg,low ,memory-momentum10,NULL
1682535709,14501728fc0ca6db1e4445627301e4b1,PennController,27,0,experiment,NULL,PennController,26,_Header_,End,1682535608766,sonaID,undefined,24,match,filler,F,50,match40.jpg,match60.jpg,GoalA,memory-momentum10,NULL
1682535709,14501728fc0ca6db1e4445627301e4b1,PennController,27,0,experiment,NULL,PennController,26,_Header_,Start,1682535608766,sonaID,undefined,24,match,filler,F,50,match40.jpg,match60.jpg,GoalA,memory-momentum10,NULL
1682535709,14501728fc0ca6db1e4445627301e4b1,PennController,27,0,experiment,NULL,PennController,26,_Trial_,Start,1682535608766,sonaID,undefined,24,match,filler,F,50,match40.jpg,match60.jpg,GoalA,memory-momentum10,NULL
1682535709,14501728fc0ca6db1e4445627301e4b1,PennController,27,0,experiment,NULL,Canvas,canvas6,Print,NA,1682535615552,sonaID,undefined,24,match,filler,F,50,match40.jpg,match60.jpg,GoalA,memory-momentum10,NULL
1682535709,14501728fc0ca6db1e4445627301e4b1,PennController,27,0,experiment,NULL,Selector,choice,Selection,option1,1682535617719,sonaID,undefined,24,match,filler,F,50,match40.jpg,match60.jpg,GoalA,memory-momentum10,option2;option1
1682535709,14501728fc0ca6db1e4445627301e4b1,PennController,27,0,experiment,NULL,PennController,26,_Trial_,End,1682535617723,sonaID,undefined,24,match,filler,F,50,match40.jpg,match60.jpg,GoalA,memory-momentum10,NULL
1682535709,14501728fc0ca6db1e4445627301e4b1,PennController,12,0,experiment,NULL,PennController,11,_Header_,End,1682535617726,sonaID,undefined,9,cake,critical,F,50,cake42.jpg,cake60.jpg,high,memory-momentum10,NULL
1682535709,14501728fc0ca6db1e4445627301e4b1,PennController,12,0,experiment,NULL,PennController,11,_Header_,Start,1682535617726,sonaID,undefined,9,cake,critical,F,50,cake42.jpg,cake60.jpg,high,memory-momentum10,NULL
1682535709,14501728fc0ca6db1e4445627301e4b1,PennController,12,0,experiment,NULL,PennController,11,_Trial_,Start,1682535617726,sonaID,undefined,9,cake,critical,F,50,cake42.jpg,cake60.jpg,high,memory-momentum10,NULL
1682535709,14501728fc0ca6db1e4445627301e4b1,PennController,12,0,experiment,NULL,Canvas,canvas6,Print,NA,1682535625899,sonaID,undefined,9,cake,critical,F,50,cake42.jpg,cake60.jpg,high,memory-momentum10,NULL
1682535709,14501728fc0ca6db1e4445627301e4b1,PennController,12,0,experiment,NULL,Selector,choice,Selection,option1,1682535628420,sonaID,undefined,9,cake,critical,F,50,cake42.jpg,cake60.jpg,high,memory-momentum10,option2;option1
1682535709,14501728fc0ca6db1e4445627301e4b1,PennController,12,0,experiment,NULL,PennController,11,_Trial_,End,1682535628423,sonaID,undefined,9,cake,critical,F,50,cake42.jpg,cake60.jpg,high,memory-momentum10,NULL
1682535709,14501728fc0ca6db1e4445627301e4b1,PennController,29,0,experiment,NULL,PennController,28,_Header_,End,1682535628426,sonaID,undefined,26,sandwich,filler,F,25,sandwich15.jpg,sandwich35.jpg,GoalA,memory-momentum10,NULL
1682535709,14501728fc0ca6db1e4445627301e4b1,PennController,29,0,experiment,NULL,PennController,28,_Header_,Start,1682535628426,sonaID,undefined,26,sandwich,filler,F,25,sandwich15.jpg,sandwich35.jpg,GoalA,memory-momentum10,NULL
1682535709,14501728fc0ca6db1e4445627301e4b1,PennController,29,0,experiment,NULL,PennController,28,_Trial_,Start,1682535628426,sonaID,undefined,26,sandwich,filler,F,25,sandwich15.jpg,sandwich35.jpg,GoalA,memory-momentum10,NULL
1682535709,14501728fc0ca6db1e4445627301e4b1,PennController,29,0,experiment,NULL,Canvas,canvas6,Print,NA,1682535634202,sonaID,undefined,26,sandwich,filler,F,25,sandwich15.jpg,sandwich35.jpg,GoalA,memory-momentum10,NULL
1682535709,14501728fc0ca6db1e4445627301e4b1,PennController,29,0,experiment,NULL,Selector,choice,Selection,option1,1682535635425,sonaID,undefined,26,sandwich,filler,F,25,sandwich15.jpg,sandwich35.jpg,GoalA,memory-momentum10,option1;option2
1682535709,14501728fc0ca6db1e4445627301e4b1,PennController,29,0,experiment,NULL,PennController,28,_Trial_,End,1682535635427,sonaID,undefined,26,sandwich,filler,F,25,sandwich15.jpg,sandwich35.jpg,GoalA,memory-momentum10,NULL
1682535709,14501728fc0ca6db1e4445627301e4b1,PennController,26,0,experiment,NULL,PennController,25,_Header_,End,1682535635429,sonaID,undefined,23,color,filler,F,25,color15.jpg,color35.jpg,GoalB,memory-momentum10,NULL
1682535709,14501728fc0ca6db1e4445627301e4b1,PennController,26,0,experiment,NULL,PennController,25,_Header_,Start,1682535635429,sonaID,undefined,23,color,filler,F,25,color15.jpg,color35.jpg,GoalB,memory-momentum10,NULL
1682535709,14501728fc0ca6db1e4445627301e4b1,PennController,26,0,experiment,NULL,PennController,25,_Trial_,Start,1682535635429,sonaID,undefined,23,color,filler,F,25,color15.jpg,color35.jpg,GoalB,memory-momentum10,NULL
1682535709,14501728fc0ca6db1e4445627301e4b1,PennController,26,0,experiment,NULL,Canvas,canvas6,Print,NA,1682535641208,sonaID,undefined,23,color,filler,F,25,color15.jpg,color35.jpg,GoalB,memory-momentum10,NULL
1682535709,14501728fc0ca6db1e4445627301e4b1,PennController,26,0,experiment,NULL,Selector,choice,Selection,option1,1682535644100,sonaID,undefined,23,color,filler,F,25,color15.jpg,color35.jpg,GoalB,memory-momentum10,option2;option1
1682535709,14501728fc0ca6db1e4445627301e4b1,PennController,26,0,experiment,NULL,PennController,25,_Trial_,End,1682535644102,sonaID,undefined,23,color,filler,F,25,color15.jpg,color35.jpg,GoalB,memory-momentum10,NULL
1682535709,14501728fc0ca6db1e4445627301e4b1,PennController,28,0,experiment,NULL,PennController,27,_Header_,End,1682535644105,sonaID,undefined,25,house,filler,F,75,house65.jpg,house85.jpg,GoalB,memory-momentum10,NULL
1682535709,14501728fc0ca6db1e4445627301e4b1,PennController,28,0,experiment,NULL,PennController,27,_Header_,Start,1682535644105,sonaID,undefined,25,house,filler,F,75,house65.jpg,house85.jpg,GoalB,memory-momentum10,NULL
1682535709,14501728fc0ca6db1e4445627301e4b1,PennController,28,0,experiment,NULL,PennController,27,_Trial_,Start,1682535644105,sonaID,undefined,25,house,filler,F,75,house65.jpg,house85.jpg,GoalB,memory-momentum10,NULL
1682535709,14501728fc0ca6db1e4445627301e4b1,PennController,28,0,experiment,NULL,Canvas,canvas6,Print,NA,1682535651882,sonaID,undefined,25,house,filler,F,75,house65.jpg,house85.jpg,GoalB,memory-momentum10,NULL
1682535709,14501728fc0ca6db1e4445627301e4b1,PennController,28,0,experiment,NULL,Selector,choice,Selection,option1,1682535654398,sonaID,undefined,25,house,filler,F,75,house65.jpg,house85.jpg,GoalB,memory-momentum10,option2;option1
1682535709,14501728fc0ca6db1e4445627301e4b1,PennController,28,0,experiment,NULL,PennController,27,_Trial_,End,1682535654401,sonaID,undefined,25,house,filler,F,75,house65.jpg,house85.jpg,GoalB,memory-momentum10,NULL
1682535709,14501728fc0ca6db1e4445627301e4b1,PennController,21,0,experiment,NULL,PennController,20,_Header_,End,1682535654404,sonaID,undefined,18,ball,critical,F,50,ball40.jpg,ball60.jpg,low ,memory-momentum10,NULL
1682535709,14501728fc0ca6db1e4445627301e4b1,PennController,21,0,experiment,NULL,PennController,20,_Header_,Start,1682535654404,sonaID,undefined,18,ball,critical,F,50,ball40.jpg,ball60.jpg,low ,memory-momentum10,NULL
1682535709,14501728fc0ca6db1e4445627301e4b1,PennController,21,0,experiment,NULL,PennController,20,_Trial_,Start,1682535654404,sonaID,undefined,18,ball,critical,F,50,ball40.jpg,ball60.jpg,low ,memory-momentum10,NULL
1682535709,14501728fc0ca6db1e4445627301e4b1,PennController,21,0,experiment,NULL,Canvas,canvas6,Print,NA,1682535661176,sonaID,undefined,18,ball,critical,F,50,ball40.jpg,ball60.jpg,low ,memory-momentum10,NULL
1682535709,14501728fc0ca6db1e4445627301e4b1,PennController,21,0,experiment,NULL,Selector,choice,Selection,option2,1682535665669,sonaID,undefined,18,ball,critical,F,50,ball40.jpg,ball60.jpg,low ,memory-momentum10,option2;option1
1682535709,14501728fc0ca6db1e4445627301e4b1,PennController,21,0,experiment,NULL,PennController,20,_Trial_,End,1682535665671,sonaID,undefined,18,ball,critical,F,50,ball40.jpg,ball60.jpg,low ,memory-momentum10,NULL
1682535709,14501728fc0ca6db1e4445627301e4b1,PennController,31,0,experiment,NULL,PennController,30,_Header_,End,1682535665672,sonaID,undefined,28,sort,filler,F,75,sort65.jpg,sort85.jpg,GoalA,memory-momentum10,NULL
1682535709,14501728fc0ca6db1e4445627301e4b1,PennController,31,0,experiment,NULL,PennController,30,_Header_,Start,1682535665672,sonaID,undefined,28,sort,filler,F,75,sort65.jpg,sort85.jpg,GoalA,memory-momentum10,NULL
1682535709,14501728fc0ca6db1e4445627301e4b1,PennController,31,0,experiment,NULL,PennController,30,_Trial_,Start,1682535665672,sonaID,undefined,28,sort,filler,F,75,sort65.jpg,sort85.jpg,GoalA,memory-momentum10,NULL
1682535709,14501728fc0ca6db1e4445627301e4b1,PennController,31,0,experiment,NULL,Canvas,canvas6,Print,NA,1682535673441,sonaID,undefined,28,sort,filler,F,75,sort65.jpg,sort85.jpg,GoalA,memory-momentum10,NULL
1682535709,14501728fc0ca6db1e4445627301e4b1,PennController,31,0,experiment,NULL,Selector,choice,Selection,option2,1682535676567,sonaID,undefined,28,sort,filler,F,75,sort65.jpg,sort85.jpg,GoalA,memory-momentum10,option2;option1
1682535709,14501728fc0ca6db1e4445627301e4b1,PennController,31,0,experiment,NULL,PennController,30,_Trial_,End,1682535676571,sonaID,undefined,28,sort,filler,F,75,sort65.jpg,sort85.jpg,GoalA,memory-momentum10,NULL
1682535709,14501728fc0ca6db1e4445627301e4b1,PennController,15,0,experiment,NULL,PennController,14,_Header_,End,1682535676574,sonaID,undefined,12,erase,critical,F,50,erase42.jpg,erase60.jpg,low ,memory-momentum10,NULL
1682535709,14501728fc0ca6db1e4445627301e4b1,PennController,15,0,experiment,NULL,PennController,14,_Header_,Start,1682535676574,sonaID,undefined,12,erase,critical,F,50,erase42.jpg,erase60.jpg,low ,memory-momentum10,NULL
1682535709,14501728fc0ca6db1e4445627301e4b1,PennController,15,0,experiment,NULL,PennController,14,_Trial_,Start,1682535676574,sonaID,undefined,12,erase,critical,F,50,erase42.jpg,erase60.jpg,low ,memory-momentum10,NULL
1682535709,14501728fc0ca6db1e4445627301e4b1,PennController,15,0,experiment,NULL,Canvas,canvas6,Print,NA,1682535684750,sonaID,undefined,12,erase,critical,F,50,erase42.jpg,erase60.jpg,low ,memory-momentum10,NULL
1682535709,14501728fc0ca6db1e4445627301e4b1,PennController,15,0,experiment,NULL,Selector,choice,Selection,option2,1682535686484,sonaID,undefined,12,erase,critical,F,50,erase42.jpg,erase60.jpg,low ,memory-momentum10,option2;option1
1682535709,14501728fc0ca6db1e4445627301e4b1,PennController,15,0,experiment,NULL,PennController,14,_Trial_,End,1682535686487,sonaID,undefined,12,erase,critical,F,50,erase42.jpg,erase60.jpg,low ,memory-momentum10,NULL
1682535709,14501728fc0ca6db1e4445627301e4b1,PennController,8,0,experiment,NULL,PennController,7,_Header_,End,1682535686488,sonaID,undefined,5,book,critical,F,25,book15.jpg,book35.jpg,high,memory-momentum10,NULL
1682535709,14501728fc0ca6db1e4445627301e4b1,PennController,8,0,experiment,NULL,PennController,7,_Header_,Start,1682535686488,sonaID,undefined,5,book,critical,F,25,book15.jpg,book35.jpg,high,memory-momentum10,NULL
1682535709,14501728fc0ca6db1e4445627301e4b1,PennController,8,0,experiment,NULL,PennController,7,_Trial_,Start,1682535686488,sonaID,undefined,5,book,critical,F,25,book15.jpg,book35.jpg,high,memory-momentum10,NULL
1682535709,14501728fc0ca6db1e4445627301e4b1,PennController,8,0,experiment,NULL,Canvas,canvas6,Print,NA,1682535692248,sonaID,undefined,5,book,critical,F,25,book15.jpg,book35.jpg,high,memory-momentum10,NULL
1682535709,14501728fc0ca6db1e4445627301e4b1,PennController,8,0,experiment,NULL,Selector,choice,Selection,option2,1682535693969,sonaID,undefined,5,book,critical,F,25,book15.jpg,book35.jpg,high,memory-momentum10,option2;option1
1682535709,14501728fc0ca6db1e4445627301e4b1,PennController,8,0,experiment,NULL,PennController,7,_Trial_,End,1682535693972,sonaID,undefined,5,book,critical,F,25,book15.jpg,book35.jpg,high,memory-momentum10,NULL
1682535709,14501728fc0ca6db1e4445627301e4b1,PennController,20,0,experiment,NULL,PennController,19,_Header_,End,1682535693975,sonaID,undefined,17,roll,critical,F,25,roll15.jpg,roll35.jpg,high,memory-momentum10,NULL
1682535709,14501728fc0ca6db1e4445627301e4b1,PennController,20,0,experiment,NULL,PennController,19,_Header_,Start,1682535693975,sonaID,undefined,17,roll,critical,F,25,roll15.jpg,roll35.jpg,high,memory-momentum10,NULL
1682535709,14501728fc0ca6db1e4445627301e4b1,PennController,20,0,experiment,NULL,PennController,19,_Trial_,Start,1682535693975,sonaID,undefined,17,roll,critical,F,25,roll15.jpg,roll35.jpg,high,memory-momentum10,NULL
1682535709,14501728fc0ca6db1e4445627301e4b1,PennController,20,0,experiment,NULL,Canvas,canvas6,Print,NA,1682535699743,sonaID,undefined,17,roll,critical,F,25,roll15.jpg,roll35.jpg,high,memory-momentum10,NULL
1682535709,14501728fc0ca6db1e4445627301e4b1,PennController,20,0,experiment,NULL,Selector,choice,Selection,option1,1682535700876,sonaID,undefined,17,roll,critical,F,25,roll15.jpg,roll35.jpg,high,memory-momentum10,option2;option1
1682535709,14501728fc0ca6db1e4445627301e4b1,PennController,20,0,experiment,NULL,PennController,19,_Trial_,End,1682535700879,sonaID,undefined,17,roll,critical,F,25,roll15.jpg,roll35.jpg,high,memory-momentum10,NULL
1682535709,14501728fc0ca6db1e4445627301e4b1,PennController,23,0,experiment,NULL,PennController,22,_Header_,End,1682535700882,sonaID,undefined,20,cat,filler,F,25,cat15.jpg,cat35.jpg,GoalA,memory-momentum10,NULL
1682535709,14501728fc0ca6db1e4445627301e4b1,PennController,23,0,experiment,NULL,PennController,22,_Header_,Start,1682535700882,sonaID,undefined,20,cat,filler,F,25,cat15.jpg,cat35.jpg,GoalA,memory-momentum10,NULL
1682535709,14501728fc0ca6db1e4445627301e4b1,PennController,23,0,experiment,NULL,PennController,22,_Trial_,Start,1682535700882,sonaID,undefined,20,cat,filler,F,25,cat15.jpg,cat35.jpg,GoalA,memory-momentum10,NULL
1682535709,14501728fc0ca6db1e4445627301e4b1,PennController,23,0,experiment,NULL,Canvas,canvas6,Print,NA,1682535706692,sonaID,undefined,20,cat,filler,F,25,cat15.jpg,cat35.jpg,GoalA,memory-momentum10,NULL
1682535709,14501728fc0ca6db1e4445627301e4b1,PennController,23,0,experiment,NULL,Selector,choice,Selection,option1,1682535708931,sonaID,undefined,20,cat,filler,F,25,cat15.jpg,cat35.jpg,GoalA,memory-momentum10,option1;option2
1682535709,14501728fc0ca6db1e4445627301e4b1,PennController,23,0,experiment,NULL,PennController,22,_Trial_,End,1682535708934,sonaID,undefined,20,cat,filler,F,25,cat15.jpg,cat35.jpg,GoalA,memory-momentum10,NULL
