#
# Results on Tuesday April 25 2023 06:35:38 UTC
# USER AGENT: Mozilla/5.0 (Windows NT 10.0; Win64; x64) AppleWebKit/537.36 (KHTML, like Gecko) Chrome/111.0.0.0 Safari/537.36
# Design number was non-random = 6
#
# Columns below this comment are as follows:
# 1. Results reception time.
# 2. MD5 hash of participant's IP address.
# 3. Controller name.
# 4. Order number of item.
# 5. Inner element number.
# 6. Label.
# 7. Latin Square Group.
# 8. PennElementType.
# 9. PennElementName.
# 10. Parameter.
# 11. Value.
# 12. EventTime.
# 13. sonaID.
# 14. Comments.
1682404538,28980d5e2c4394e120097f4904f09dcd,PennController,2,0,consent,NULL,PennController,0,_Trial_,Start,1682404162865,sonaID,NULL
1682404538,28980d5e2c4394e120097f4904f09dcd,PennController,2,0,consent,NULL,PennController,0,_Header_,Start,1682404162865,sonaID,NULL
1682404538,28980d5e2c4394e120097f4904f09dcd,PennController,2,0,consent,NULL,PennController,0,_Header_,End,1682404162865,sonaID,NULL
1682404538,28980d5e2c4394e120097f4904f09dcd,PennController,2,0,consent,NULL,PennController,0,_Trial_,End,1682404166491,sonaID,NULL
# Columns below this comment are as follows:
# 14. ID.
# 15. Comments.
1682404538,28980d5e2c4394e120097f4904f09dcd,PennController,3,0,intro,NULL,PennController,1,_Trial_,Start,1682404166492,sonaID,undefined,NULL
1682404538,28980d5e2c4394e120097f4904f09dcd,PennController,3,0,intro,NULL,PennController,1,_Header_,Start,1682404166492,sonaID,undefined,NULL
1682404538,28980d5e2c4394e120097f4904f09dcd,PennController,3,0,intro,NULL,PennController,1,_Header_,End,1682404166493,sonaID,undefined,NULL
1682404538,28980d5e2c4394e120097f4904f09dcd,PennController,3,0,intro,NULL,TextInput,inputID,EnterReturn,60276458,1682404207321,sonaID,undefined,NULL
1682404538,28980d5e2c4394e120097f4904f09dcd,PennController,3,0,intro,NULL,TextInput,inputID,Final,60276458,1682404207342,sonaID,undefined,NULL
1682404538,28980d5e2c4394e120097f4904f09dcd,PennController,3,0,intro,NULL,TextInput,inputID,First,,1682404193054,sonaID,undefined,6
1682404538,28980d5e2c4394e120097f4904f09dcd,PennController,3,0,intro,NULL,PennController,1,_Trial_,End,1682404207342,sonaID,undefined,NULL
# Columns below this comment are as follows:
# 15. item_number.
# 16. item.
# 17. type.
# 18. Group.
# 19. prog.
# 20. prev_image.
# 21. next_image.
# 22. height.
# 23. memory-momentum10.
# 24. Comments.
1682404538,28980d5e2c4394e120097f4904f09dcd,PennController,30,0,experiment,NULL,PennController,29,_PreloadFailed_,fixation.png,1682404267347,sonaID,undefined,27,rice,filler,A,75,square65.jpg,square85.jpg,GoalA,memory-momentum10,NULL
1682404538,28980d5e2c4394e120097f4904f09dcd,PennController,30,0,experiment,NULL,PennController,29,_PreloadFailed_,https://raw.githubusercontent.com/karenwli/rep-momentum/main/rice/rice00.jpg,1682404267347,sonaID,undefined,27,rice,filler,A,75,square65.jpg,square85.jpg,GoalA,memory-momentum10,NULL
1682404538,28980d5e2c4394e120097f4904f09dcd,PennController,30,0,experiment,NULL,PennController,29,_PreloadFailed_,https://video.wixstatic.com/video/7cb05b_41aae65ca27d43c3a89b5e46732d18ff/144p/mp4/file.mp4,1682404267347,sonaID,undefined,27,rice,filler,A,75,square65.jpg,square85.jpg,GoalA,memory-momentum10,NULL
1682404538,28980d5e2c4394e120097f4904f09dcd,PennController,30,0,experiment,NULL,PennController,29,_Trial_,Start,1682404267347,sonaID,undefined,27,rice,filler,A,75,square65.jpg,square85.jpg,GoalA,memory-momentum10,NULL
1682404538,28980d5e2c4394e120097f4904f09dcd,PennController,30,0,experiment,NULL,PennController,29,_Header_,Start,1682404267347,sonaID,undefined,27,rice,filler,A,75,square65.jpg,square85.jpg,GoalA,memory-momentum10,NULL
1682404538,28980d5e2c4394e120097f4904f09dcd,PennController,30,0,experiment,NULL,PennController,29,_Header_,End,1682404267347,sonaID,undefined,27,rice,filler,A,75,square65.jpg,square85.jpg,GoalA,memory-momentum10,NULL
1682404538,28980d5e2c4394e120097f4904f09dcd,PennController,30,0,experiment,NULL,Canvas,canvas6,Print,NA,1682404275051,sonaID,undefined,27,rice,filler,A,75,square65.jpg,square85.jpg,GoalA,memory-momentum10,NULL
1682404538,28980d5e2c4394e120097f4904f09dcd,PennController,30,0,experiment,NULL,Video,progression,buffer,0.003158,1682404270888,sonaID,undefined,27,rice,filler,A,75,square65.jpg,square85.jpg,GoalA,memory-momentum10,NULL
1682404538,28980d5e2c4394e120097f4904f09dcd,PennController,30,0,experiment,NULL,Selector,choice,Selection,option1,1682404282781,sonaID,undefined,27,rice,filler,A,75,square65.jpg,square85.jpg,GoalA,memory-momentum10,option2;option1
1682404538,28980d5e2c4394e120097f4904f09dcd,PennController,30,0,experiment,NULL,PennController,29,_Trial_,End,1682404282784,sonaID,undefined,27,rice,filler,A,75,square65.jpg,square85.jpg,GoalA,memory-momentum10,NULL
1682404538,28980d5e2c4394e120097f4904f09dcd,PennController,4,0,experiment,NULL,PennController,3,_Trial_,Start,1682404282786,sonaID,undefined,1,vase,critical,A,25,vase15.jpg,vase35.jpg,low ,memory-momentum10,NULL
1682404538,28980d5e2c4394e120097f4904f09dcd,PennController,4,0,experiment,NULL,PennController,3,_Header_,Start,1682404282786,sonaID,undefined,1,vase,critical,A,25,vase15.jpg,vase35.jpg,low ,memory-momentum10,NULL
1682404538,28980d5e2c4394e120097f4904f09dcd,PennController,4,0,experiment,NULL,PennController,3,_Header_,End,1682404282786,sonaID,undefined,1,vase,critical,A,25,vase15.jpg,vase35.jpg,low ,memory-momentum10,NULL
1682404538,28980d5e2c4394e120097f4904f09dcd,PennController,4,0,experiment,NULL,Canvas,canvas6,Print,NA,1682404288480,sonaID,undefined,1,vase,critical,A,25,vase15.jpg,vase35.jpg,low ,memory-momentum10,NULL
1682404538,28980d5e2c4394e120097f4904f09dcd,PennController,4,0,experiment,NULL,Video,progression,buffer,0.003527,1682404286308,sonaID,undefined,1,vase,critical,A,25,vase15.jpg,vase35.jpg,low ,memory-momentum10,NULL
1682404538,28980d5e2c4394e120097f4904f09dcd,PennController,4,0,experiment,NULL,Selector,choice,Selection,option1,1682404292618,sonaID,undefined,1,vase,critical,A,25,vase15.jpg,vase35.jpg,low ,memory-momentum10,option1;option2
1682404538,28980d5e2c4394e120097f4904f09dcd,PennController,4,0,experiment,NULL,PennController,3,_Trial_,End,1682404292620,sonaID,undefined,1,vase,critical,A,25,vase15.jpg,vase35.jpg,low ,memory-momentum10,NULL
1682404538,28980d5e2c4394e120097f4904f09dcd,PennController,26,0,experiment,NULL,PennController,25,_Trial_,Start,1682404292623,sonaID,undefined,23,color,filler,A,50,color40.jpg,color60.jpg,GoalA,memory-momentum10,NULL
1682404538,28980d5e2c4394e120097f4904f09dcd,PennController,26,0,experiment,NULL,PennController,25,_Header_,Start,1682404292623,sonaID,undefined,23,color,filler,A,50,color40.jpg,color60.jpg,GoalA,memory-momentum10,NULL
1682404538,28980d5e2c4394e120097f4904f09dcd,PennController,26,0,experiment,NULL,PennController,25,_Header_,End,1682404292623,sonaID,undefined,23,color,filler,A,50,color40.jpg,color60.jpg,GoalA,memory-momentum10,NULL
1682404538,28980d5e2c4394e120097f4904f09dcd,PennController,26,0,experiment,NULL,Canvas,canvas6,Print,NA,1682404299319,sonaID,undefined,23,color,filler,A,50,color40.jpg,color60.jpg,GoalA,memory-momentum10,NULL
1682404538,28980d5e2c4394e120097f4904f09dcd,PennController,26,0,experiment,NULL,Video,progression,buffer,0.002731,1682404296148,sonaID,undefined,23,color,filler,A,50,color40.jpg,color60.jpg,GoalA,memory-momentum10,NULL
1682404538,28980d5e2c4394e120097f4904f09dcd,PennController,26,0,experiment,NULL,Selector,choice,Selection,option2,1682404302664,sonaID,undefined,23,color,filler,A,50,color40.jpg,color60.jpg,GoalA,memory-momentum10,option2;option1
1682404538,28980d5e2c4394e120097f4904f09dcd,PennController,26,0,experiment,NULL,PennController,25,_Trial_,End,1682404302666,sonaID,undefined,23,color,filler,A,50,color40.jpg,color60.jpg,GoalA,memory-momentum10,NULL
1682404538,28980d5e2c4394e120097f4904f09dcd,PennController,11,0,experiment,NULL,PennController,10,_Trial_,Start,1682404302669,sonaID,undefined,8,cucumber,critical,A,50,cucumber42.jpg,cucumber60.jpg,high,memory-momentum10,NULL
1682404538,28980d5e2c4394e120097f4904f09dcd,PennController,11,0,experiment,NULL,PennController,10,_Header_,Start,1682404302669,sonaID,undefined,8,cucumber,critical,A,50,cucumber42.jpg,cucumber60.jpg,high,memory-momentum10,NULL
1682404538,28980d5e2c4394e120097f4904f09dcd,PennController,11,0,experiment,NULL,PennController,10,_Header_,End,1682404302669,sonaID,undefined,8,cucumber,critical,A,50,cucumber42.jpg,cucumber60.jpg,high,memory-momentum10,NULL
1682404538,28980d5e2c4394e120097f4904f09dcd,PennController,11,0,experiment,NULL,Canvas,canvas6,Print,NA,1682404310759,sonaID,undefined,8,cucumber,critical,A,50,cucumber42.jpg,cucumber60.jpg,high,memory-momentum10,NULL
1682404538,28980d5e2c4394e120097f4904f09dcd,PennController,11,0,experiment,NULL,Video,progression,buffer,0.002636,1682404306191,sonaID,undefined,8,cucumber,critical,A,50,cucumber42.jpg,cucumber60.jpg,high,memory-momentum10,NULL
1682404538,28980d5e2c4394e120097f4904f09dcd,PennController,11,0,experiment,NULL,Selector,choice,Selection,option1,1682404313466,sonaID,undefined,8,cucumber,critical,A,50,cucumber42.jpg,cucumber60.jpg,high,memory-momentum10,option2;option1
1682404538,28980d5e2c4394e120097f4904f09dcd,PennController,11,0,experiment,NULL,PennController,10,_Trial_,End,1682404313468,sonaID,undefined,8,cucumber,critical,A,50,cucumber42.jpg,cucumber60.jpg,high,memory-momentum10,NULL
1682404538,28980d5e2c4394e120097f4904f09dcd,PennController,29,0,experiment,NULL,PennController,28,_Trial_,Start,1682404313471,sonaID,undefined,26,sandwich,filler,A,50,sandwich40.jpg,sandwich60.jpg,GoalB,memory-momentum10,NULL
1682404538,28980d5e2c4394e120097f4904f09dcd,PennController,29,0,experiment,NULL,PennController,28,_Header_,Start,1682404313471,sonaID,undefined,26,sandwich,filler,A,50,sandwich40.jpg,sandwich60.jpg,GoalB,memory-momentum10,NULL
1682404538,28980d5e2c4394e120097f4904f09dcd,PennController,29,0,experiment,NULL,PennController,28,_Header_,End,1682404313471,sonaID,undefined,26,sandwich,filler,A,50,sandwich40.jpg,sandwich60.jpg,GoalB,memory-momentum10,NULL
1682404538,28980d5e2c4394e120097f4904f09dcd,PennController,29,0,experiment,NULL,Canvas,canvas6,Print,NA,1682404320168,sonaID,undefined,26,sandwich,filler,A,50,sandwich40.jpg,sandwich60.jpg,GoalB,memory-momentum10,NULL
1682404538,28980d5e2c4394e120097f4904f09dcd,PennController,29,0,experiment,NULL,Video,progression,buffer,0.00569,1682404316998,sonaID,undefined,26,sandwich,filler,A,50,sandwich40.jpg,sandwich60.jpg,GoalB,memory-momentum10,NULL
1682404538,28980d5e2c4394e120097f4904f09dcd,PennController,29,0,experiment,NULL,Selector,choice,Selection,option2,1682404323664,sonaID,undefined,26,sandwich,filler,A,50,sandwich40.jpg,sandwich60.jpg,GoalB,memory-momentum10,option1;option2
1682404538,28980d5e2c4394e120097f4904f09dcd,PennController,29,0,experiment,NULL,PennController,28,_Trial_,End,1682404323667,sonaID,undefined,26,sandwich,filler,A,50,sandwich40.jpg,sandwich60.jpg,GoalB,memory-momentum10,NULL
1682404538,28980d5e2c4394e120097f4904f09dcd,PennController,27,0,experiment,NULL,PennController,26,_Trial_,Start,1682404323669,sonaID,undefined,24,match,filler,A,75,match65.jpg,match85.jpg,GoalB,memory-momentum10,NULL
1682404538,28980d5e2c4394e120097f4904f09dcd,PennController,27,0,experiment,NULL,PennController,26,_Header_,Start,1682404323669,sonaID,undefined,24,match,filler,A,75,match65.jpg,match85.jpg,GoalB,memory-momentum10,NULL
1682404538,28980d5e2c4394e120097f4904f09dcd,PennController,27,0,experiment,NULL,PennController,26,_Header_,End,1682404323669,sonaID,undefined,24,match,filler,A,75,match65.jpg,match85.jpg,GoalB,memory-momentum10,NULL
1682404538,28980d5e2c4394e120097f4904f09dcd,PennController,27,0,experiment,NULL,Canvas,canvas6,Print,NA,1682404331360,sonaID,undefined,24,match,filler,A,75,match65.jpg,match85.jpg,GoalB,memory-momentum10,NULL
1682404538,28980d5e2c4394e120097f4904f09dcd,PennController,27,0,experiment,NULL,Video,progression,buffer,0.003639,1682404327190,sonaID,undefined,24,match,filler,A,75,match65.jpg,match85.jpg,GoalB,memory-momentum10,NULL
1682404538,28980d5e2c4394e120097f4904f09dcd,PennController,27,0,experiment,NULL,Selector,choice,Selection,option1,1682404333275,sonaID,undefined,24,match,filler,A,75,match65.jpg,match85.jpg,GoalB,memory-momentum10,option2;option1
1682404538,28980d5e2c4394e120097f4904f09dcd,PennController,27,0,experiment,NULL,PennController,26,_Trial_,End,1682404333277,sonaID,undefined,24,match,filler,A,75,match65.jpg,match85.jpg,GoalB,memory-momentum10,NULL
1682404538,28980d5e2c4394e120097f4904f09dcd,PennController,15,0,experiment,NULL,PennController,14,_Trial_,Start,1682404333279,sonaID,undefined,12,erase,critical,A,75,erase66.jpg,erase84.jpg,high,memory-momentum10,NULL
1682404538,28980d5e2c4394e120097f4904f09dcd,PennController,15,0,experiment,NULL,PennController,14,_Header_,Start,1682404333279,sonaID,undefined,12,erase,critical,A,75,erase66.jpg,erase84.jpg,high,memory-momentum10,NULL
1682404538,28980d5e2c4394e120097f4904f09dcd,PennController,15,0,experiment,NULL,PennController,14,_Header_,End,1682404333279,sonaID,undefined,12,erase,critical,A,75,erase66.jpg,erase84.jpg,high,memory-momentum10,NULL
1682404538,28980d5e2c4394e120097f4904f09dcd,PennController,15,0,experiment,NULL,Canvas,canvas6,Print,NA,1682404342965,sonaID,undefined,12,erase,critical,A,75,erase66.jpg,erase84.jpg,high,memory-momentum10,NULL
1682404538,28980d5e2c4394e120097f4904f09dcd,PennController,15,0,experiment,NULL,Video,progression,buffer,0.002713,1682404336801,sonaID,undefined,12,erase,critical,A,75,erase66.jpg,erase84.jpg,high,memory-momentum10,NULL
1682404538,28980d5e2c4394e120097f4904f09dcd,PennController,15,0,experiment,NULL,Selector,choice,Selection,option2,1682404345318,sonaID,undefined,12,erase,critical,A,75,erase66.jpg,erase84.jpg,high,memory-momentum10,option2;option1
1682404538,28980d5e2c4394e120097f4904f09dcd,PennController,15,0,experiment,NULL,PennController,14,_Trial_,End,1682404345319,sonaID,undefined,12,erase,critical,A,75,erase66.jpg,erase84.jpg,high,memory-momentum10,NULL
1682404538,28980d5e2c4394e120097f4904f09dcd,PennController,23,0,experiment,NULL,PennController,22,_Trial_,Start,1682404345322,sonaID,undefined,20,cat,filler,A,50,cat40.jpg,cat60.jpg,GoalB,memory-momentum10,NULL
1682404538,28980d5e2c4394e120097f4904f09dcd,PennController,23,0,experiment,NULL,PennController,22,_Header_,Start,1682404345322,sonaID,undefined,20,cat,filler,A,50,cat40.jpg,cat60.jpg,GoalB,memory-momentum10,NULL
1682404538,28980d5e2c4394e120097f4904f09dcd,PennController,23,0,experiment,NULL,PennController,22,_Header_,End,1682404345322,sonaID,undefined,20,cat,filler,A,50,cat40.jpg,cat60.jpg,GoalB,memory-momentum10,NULL
1682404538,28980d5e2c4394e120097f4904f09dcd,PennController,23,0,experiment,NULL,Canvas,canvas6,Print,NA,1682404352005,sonaID,undefined,20,cat,filler,A,50,cat40.jpg,cat60.jpg,GoalB,memory-momentum10,NULL
1682404538,28980d5e2c4394e120097f4904f09dcd,PennController,23,0,experiment,NULL,Video,progression,buffer,0.002737,1682404348840,sonaID,undefined,20,cat,filler,A,50,cat40.jpg,cat60.jpg,GoalB,memory-momentum10,NULL
1682404538,28980d5e2c4394e120097f4904f09dcd,PennController,23,0,experiment,NULL,Selector,choice,Selection,option1,1682404353939,sonaID,undefined,20,cat,filler,A,50,cat40.jpg,cat60.jpg,GoalB,memory-momentum10,option1;option2
1682404538,28980d5e2c4394e120097f4904f09dcd,PennController,23,0,experiment,NULL,PennController,22,_Trial_,End,1682404353941,sonaID,undefined,20,cat,filler,A,50,cat40.jpg,cat60.jpg,GoalB,memory-momentum10,NULL
1682404538,28980d5e2c4394e120097f4904f09dcd,PennController,16,0,experiment,NULL,PennController,15,_Trial_,Start,1682404353942,sonaID,undefined,13,mix,critical,A,25,mix15.jpg,mix35.jpg,low ,memory-momentum10,NULL
1682404538,28980d5e2c4394e120097f4904f09dcd,PennController,16,0,experiment,NULL,PennController,15,_Header_,Start,1682404353942,sonaID,undefined,13,mix,critical,A,25,mix15.jpg,mix35.jpg,low ,memory-momentum10,NULL
1682404538,28980d5e2c4394e120097f4904f09dcd,PennController,16,0,experiment,NULL,PennController,15,_Header_,End,1682404353942,sonaID,undefined,13,mix,critical,A,25,mix15.jpg,mix35.jpg,low ,memory-momentum10,NULL
1682404538,28980d5e2c4394e120097f4904f09dcd,PennController,16,0,experiment,NULL,Canvas,canvas6,Print,NA,1682404359626,sonaID,undefined,13,mix,critical,A,25,mix15.jpg,mix35.jpg,low ,memory-momentum10,NULL
1682404538,28980d5e2c4394e120097f4904f09dcd,PennController,16,0,experiment,NULL,Video,progression,buffer,0.003175,1682404357466,sonaID,undefined,13,mix,critical,A,25,mix15.jpg,mix35.jpg,low ,memory-momentum10,NULL
1682404538,28980d5e2c4394e120097f4904f09dcd,PennController,16,0,experiment,NULL,Selector,choice,Selection,option1,1682404360613,sonaID,undefined,13,mix,critical,A,25,mix15.jpg,mix35.jpg,low ,memory-momentum10,option1;option2
1682404538,28980d5e2c4394e120097f4904f09dcd,PennController,16,0,experiment,NULL,PennController,15,_Trial_,End,1682404360616,sonaID,undefined,13,mix,critical,A,25,mix15.jpg,mix35.jpg,low ,memory-momentum10,NULL
1682404538,28980d5e2c4394e120097f4904f09dcd,PennController,32,0,experiment,NULL,PennController,31,_Trial_,Start,1682404360618,sonaID,undefined,29,frog,filler,A,50,frog40.jpg,frog60.jpg,GoalA,memory-momentum10,NULL
1682404538,28980d5e2c4394e120097f4904f09dcd,PennController,32,0,experiment,NULL,PennController,31,_Header_,Start,1682404360618,sonaID,undefined,29,frog,filler,A,50,frog40.jpg,frog60.jpg,GoalA,memory-momentum10,NULL
1682404538,28980d5e2c4394e120097f4904f09dcd,PennController,32,0,experiment,NULL,PennController,31,_Header_,End,1682404360618,sonaID,undefined,29,frog,filler,A,50,frog40.jpg,frog60.jpg,GoalA,memory-momentum10,NULL
1682404538,28980d5e2c4394e120097f4904f09dcd,PennController,32,0,experiment,NULL,Canvas,canvas6,Print,NA,1682404367317,sonaID,undefined,29,frog,filler,A,50,frog40.jpg,frog60.jpg,GoalA,memory-momentum10,NULL
1682404538,28980d5e2c4394e120097f4904f09dcd,PennController,32,0,experiment,NULL,Video,progression,buffer,0.004615,1682404364143,sonaID,undefined,29,frog,filler,A,50,frog40.jpg,frog60.jpg,GoalA,memory-momentum10,NULL
1682404538,28980d5e2c4394e120097f4904f09dcd,PennController,32,0,experiment,NULL,Selector,choice,Selection,option1,1682404370286,sonaID,undefined,29,frog,filler,A,50,frog40.jpg,frog60.jpg,GoalA,memory-momentum10,option1;option2
1682404538,28980d5e2c4394e120097f4904f09dcd,PennController,32,0,experiment,NULL,PennController,31,_Trial_,End,1682404370287,sonaID,undefined,29,frog,filler,A,50,frog40.jpg,frog60.jpg,GoalA,memory-momentum10,NULL
1682404538,28980d5e2c4394e120097f4904f09dcd,PennController,7,0,experiment,NULL,PennController,6,_Trial_,Start,1682404370289,sonaID,undefined,4,candy,critical,A,25,candy15.jpg,candy35.jpg,high,memory-momentum10,NULL
1682404538,28980d5e2c4394e120097f4904f09dcd,PennController,7,0,experiment,NULL,PennController,6,_Header_,Start,1682404370289,sonaID,undefined,4,candy,critical,A,25,candy15.jpg,candy35.jpg,high,memory-momentum10,NULL
1682404538,28980d5e2c4394e120097f4904f09dcd,PennController,7,0,experiment,NULL,PennController,6,_Header_,End,1682404370289,sonaID,undefined,4,candy,critical,A,25,candy15.jpg,candy35.jpg,high,memory-momentum10,NULL
1682404538,28980d5e2c4394e120097f4904f09dcd,PennController,7,0,experiment,NULL,Canvas,canvas6,Print,NA,1682404375972,sonaID,undefined,4,candy,critical,A,25,candy15.jpg,candy35.jpg,high,memory-momentum10,NULL
1682404538,28980d5e2c4394e120097f4904f09dcd,PennController,7,0,experiment,NULL,Video,progression,buffer,0.004353,1682404373813,sonaID,undefined,4,candy,critical,A,25,candy15.jpg,candy35.jpg,high,memory-momentum10,NULL
1682404538,28980d5e2c4394e120097f4904f09dcd,PennController,7,0,experiment,NULL,Selector,choice,Selection,option2,1682404379414,sonaID,undefined,4,candy,critical,A,25,candy15.jpg,candy35.jpg,high,memory-momentum10,option2;option1
1682404538,28980d5e2c4394e120097f4904f09dcd,PennController,7,0,experiment,NULL,PennController,6,_Trial_,End,1682404379416,sonaID,undefined,4,candy,critical,A,25,candy15.jpg,candy35.jpg,high,memory-momentum10,NULL
1682404538,28980d5e2c4394e120097f4904f09dcd,PennController,18,0,experiment,NULL,PennController,17,_Trial_,Start,1682404379417,sonaID,undefined,15,zip,critical,A,75,zip65.jpg,zip85.jpg,low ,memory-momentum10,NULL
1682404538,28980d5e2c4394e120097f4904f09dcd,PennController,18,0,experiment,NULL,PennController,17,_Header_,Start,1682404379417,sonaID,undefined,15,zip,critical,A,75,zip65.jpg,zip85.jpg,low ,memory-momentum10,NULL
1682404538,28980d5e2c4394e120097f4904f09dcd,PennController,18,0,experiment,NULL,PennController,17,_Header_,End,1682404379417,sonaID,undefined,15,zip,critical,A,75,zip65.jpg,zip85.jpg,low ,memory-momentum10,NULL
1682404538,28980d5e2c4394e120097f4904f09dcd,PennController,18,0,experiment,NULL,Canvas,canvas6,Print,NA,1682404387112,sonaID,undefined,15,zip,critical,A,75,zip65.jpg,zip85.jpg,low ,memory-momentum10,NULL
1682404538,28980d5e2c4394e120097f4904f09dcd,PennController,18,0,experiment,NULL,Video,progression,buffer,0.002849,1682404382938,sonaID,undefined,15,zip,critical,A,75,zip65.jpg,zip85.jpg,low ,memory-momentum10,NULL
1682404538,28980d5e2c4394e120097f4904f09dcd,PennController,18,0,experiment,NULL,Selector,choice,Selection,option1,1682404388699,sonaID,undefined,15,zip,critical,A,75,zip65.jpg,zip85.jpg,low ,memory-momentum10,option2;option1
1682404538,28980d5e2c4394e120097f4904f09dcd,PennController,18,0,experiment,NULL,PennController,17,_Trial_,End,1682404388701,sonaID,undefined,15,zip,critical,A,75,zip65.jpg,zip85.jpg,low ,memory-momentum10,NULL
1682404538,28980d5e2c4394e120097f4904f09dcd,PennController,12,0,experiment,NULL,PennController,11,_Trial_,Start,1682404388703,sonaID,undefined,9,cake,critical,A,75,cake66.jpg,cake84.jpg,low ,memory-momentum10,NULL
1682404538,28980d5e2c4394e120097f4904f09dcd,PennController,12,0,experiment,NULL,PennController,11,_Header_,Start,1682404388703,sonaID,undefined,9,cake,critical,A,75,cake66.jpg,cake84.jpg,low ,memory-momentum10,NULL
1682404538,28980d5e2c4394e120097f4904f09dcd,PennController,12,0,experiment,NULL,PennController,11,_Header_,End,1682404388703,sonaID,undefined,9,cake,critical,A,75,cake66.jpg,cake84.jpg,low ,memory-momentum10,NULL
1682404538,28980d5e2c4394e120097f4904f09dcd,PennController,12,0,experiment,NULL,Canvas,canvas6,Print,NA,1682404398404,sonaID,undefined,9,cake,critical,A,75,cake66.jpg,cake84.jpg,low ,memory-momentum10,NULL
1682404538,28980d5e2c4394e120097f4904f09dcd,PennController,12,0,experiment,NULL,Video,progression,buffer,0.003741,1682404392228,sonaID,undefined,9,cake,critical,A,75,cake66.jpg,cake84.jpg,low ,memory-momentum10,NULL
1682404538,28980d5e2c4394e120097f4904f09dcd,PennController,12,0,experiment,NULL,Selector,choice,Selection,option1,1682404401114,sonaID,undefined,9,cake,critical,A,75,cake66.jpg,cake84.jpg,low ,memory-momentum10,option2;option1
1682404538,28980d5e2c4394e120097f4904f09dcd,PennController,12,0,experiment,NULL,PennController,11,_Trial_,End,1682404401116,sonaID,undefined,9,cake,critical,A,75,cake66.jpg,cake84.jpg,low ,memory-momentum10,NULL
1682404538,28980d5e2c4394e120097f4904f09dcd,PennController,13,0,experiment,NULL,PennController,12,_Trial_,Start,1682404401118,sonaID,undefined,10,train,critical,A,25,train15.jpg,train35.jpg,high,memory-momentum10,NULL
1682404538,28980d5e2c4394e120097f4904f09dcd,PennController,13,0,experiment,NULL,PennController,12,_Header_,Start,1682404401118,sonaID,undefined,10,train,critical,A,25,train15.jpg,train35.jpg,high,memory-momentum10,NULL
1682404538,28980d5e2c4394e120097f4904f09dcd,PennController,13,0,experiment,NULL,PennController,12,_Header_,End,1682404401118,sonaID,undefined,10,train,critical,A,25,train15.jpg,train35.jpg,high,memory-momentum10,NULL
1682404538,28980d5e2c4394e120097f4904f09dcd,PennController,13,0,experiment,NULL,Canvas,canvas6,Print,NA,1682404406805,sonaID,undefined,10,train,critical,A,25,train15.jpg,train35.jpg,high,memory-momentum10,NULL
1682404538,28980d5e2c4394e120097f4904f09dcd,PennController,13,0,experiment,NULL,Video,progression,buffer,0.002466,1682404404640,sonaID,undefined,10,train,critical,A,25,train15.jpg,train35.jpg,high,memory-momentum10,NULL
1682404538,28980d5e2c4394e120097f4904f09dcd,PennController,13,0,experiment,NULL,Selector,choice,Selection,option1,1682404408288,sonaID,undefined,10,train,critical,A,25,train15.jpg,train35.jpg,high,memory-momentum10,option2;option1
1682404538,28980d5e2c4394e120097f4904f09dcd,PennController,13,0,experiment,NULL,PennController,12,_Trial_,End,1682404408289,sonaID,undefined,10,train,critical,A,25,train15.jpg,train35.jpg,high,memory-momentum10,NULL
1682404538,28980d5e2c4394e120097f4904f09dcd,PennController,6,0,experiment,NULL,PennController,5,_Trial_,Start,1682404408291,sonaID,undefined,3,clean,critical,A,75,clean65.jpg,clean85.jpg,low ,memory-momentum10,NULL
1682404538,28980d5e2c4394e120097f4904f09dcd,PennController,6,0,experiment,NULL,PennController,5,_Header_,Start,1682404408291,sonaID,undefined,3,clean,critical,A,75,clean65.jpg,clean85.jpg,low ,memory-momentum10,NULL
1682404538,28980d5e2c4394e120097f4904f09dcd,PennController,6,0,experiment,NULL,PennController,5,_Header_,End,1682404408291,sonaID,undefined,3,clean,critical,A,75,clean65.jpg,clean85.jpg,low ,memory-momentum10,NULL
1682404538,28980d5e2c4394e120097f4904f09dcd,PennController,6,0,experiment,NULL,Canvas,canvas6,Print,NA,1682404415983,sonaID,undefined,3,clean,critical,A,75,clean65.jpg,clean85.jpg,low ,memory-momentum10,NULL
1682404538,28980d5e2c4394e120097f4904f09dcd,PennController,6,0,experiment,NULL,Video,progression,buffer,0.002062,1682404411814,sonaID,undefined,3,clean,critical,A,75,clean65.jpg,clean85.jpg,low ,memory-momentum10,NULL
1682404538,28980d5e2c4394e120097f4904f09dcd,PennController,6,0,experiment,NULL,Selector,choice,Selection,option1,1682404418119,sonaID,undefined,3,clean,critical,A,75,clean65.jpg,clean85.jpg,low ,memory-momentum10,option2;option1
1682404538,28980d5e2c4394e120097f4904f09dcd,PennController,6,0,experiment,NULL,PennController,5,_Trial_,End,1682404418120,sonaID,undefined,3,clean,critical,A,75,clean65.jpg,clean85.jpg,low ,memory-momentum10,NULL
1682404538,28980d5e2c4394e120097f4904f09dcd,PennController,9,0,experiment,NULL,PennController,8,_Trial_,Start,1682404418122,sonaID,undefined,6,flower,critical,A,75,flower65.jpg,flower85.jpg,high,memory-momentum10,NULL
1682404538,28980d5e2c4394e120097f4904f09dcd,PennController,9,0,experiment,NULL,PennController,8,_Header_,Start,1682404418122,sonaID,undefined,6,flower,critical,A,75,flower65.jpg,flower85.jpg,high,memory-momentum10,NULL
1682404538,28980d5e2c4394e120097f4904f09dcd,PennController,9,0,experiment,NULL,PennController,8,_Header_,End,1682404418122,sonaID,undefined,6,flower,critical,A,75,flower65.jpg,flower85.jpg,high,memory-momentum10,NULL
1682404538,28980d5e2c4394e120097f4904f09dcd,PennController,9,0,experiment,NULL,Canvas,canvas6,Print,NA,1682404425805,sonaID,undefined,6,flower,critical,A,75,flower65.jpg,flower85.jpg,high,memory-momentum10,NULL
1682404538,28980d5e2c4394e120097f4904f09dcd,PennController,9,0,experiment,NULL,Video,progression,buffer,0.002167,1682404421644,sonaID,undefined,6,flower,critical,A,75,flower65.jpg,flower85.jpg,high,memory-momentum10,NULL
1682404538,28980d5e2c4394e120097f4904f09dcd,PennController,9,0,experiment,NULL,Selector,choice,Selection,option1,1682404427461,sonaID,undefined,6,flower,critical,A,75,flower65.jpg,flower85.jpg,high,memory-momentum10,option2;option1
1682404538,28980d5e2c4394e120097f4904f09dcd,PennController,9,0,experiment,NULL,PennController,8,_Trial_,End,1682404427463,sonaID,undefined,6,flower,critical,A,75,flower65.jpg,flower85.jpg,high,memory-momentum10,NULL
1682404538,28980d5e2c4394e120097f4904f09dcd,PennController,17,0,experiment,NULL,PennController,16,_Trial_,Start,1682404427466,sonaID,undefined,14,cover,critical,A,50,cover42.jpg,cover60.jpg,high,memory-momentum10,NULL
1682404538,28980d5e2c4394e120097f4904f09dcd,PennController,17,0,experiment,NULL,PennController,16,_Header_,Start,1682404427466,sonaID,undefined,14,cover,critical,A,50,cover42.jpg,cover60.jpg,high,memory-momentum10,NULL
1682404538,28980d5e2c4394e120097f4904f09dcd,PennController,17,0,experiment,NULL,PennController,16,_Header_,End,1682404427466,sonaID,undefined,14,cover,critical,A,50,cover42.jpg,cover60.jpg,high,memory-momentum10,NULL
1682404538,28980d5e2c4394e120097f4904f09dcd,PennController,17,0,experiment,NULL,Canvas,canvas6,Print,NA,1682404435563,sonaID,undefined,14,cover,critical,A,50,cover42.jpg,cover60.jpg,high,memory-momentum10,NULL
1682404538,28980d5e2c4394e120097f4904f09dcd,PennController,17,0,experiment,NULL,Video,progression,buffer,0.0029,1682404430992,sonaID,undefined,14,cover,critical,A,50,cover42.jpg,cover60.jpg,high,memory-momentum10,NULL
1682404538,28980d5e2c4394e120097f4904f09dcd,PennController,17,0,experiment,NULL,Selector,choice,Selection,option1,1682404436900,sonaID,undefined,14,cover,critical,A,50,cover42.jpg,cover60.jpg,high,memory-momentum10,option1;option2
1682404538,28980d5e2c4394e120097f4904f09dcd,PennController,17,0,experiment,NULL,PennController,16,_Trial_,End,1682404436901,sonaID,undefined,14,cover,critical,A,50,cover42.jpg,cover60.jpg,high,memory-momentum10,NULL
1682404538,28980d5e2c4394e120097f4904f09dcd,PennController,31,0,experiment,NULL,PennController,30,_Trial_,Start,1682404436903,sonaID,undefined,28,sort,filler,A,25,sort15.jpg,sort35.jpg,GoalB,memory-momentum10,NULL
1682404538,28980d5e2c4394e120097f4904f09dcd,PennController,31,0,experiment,NULL,PennController,30,_Header_,Start,1682404436903,sonaID,undefined,28,sort,filler,A,25,sort15.jpg,sort35.jpg,GoalB,memory-momentum10,NULL
1682404538,28980d5e2c4394e120097f4904f09dcd,PennController,31,0,experiment,NULL,PennController,30,_Header_,End,1682404436903,sonaID,undefined,28,sort,filler,A,25,sort15.jpg,sort35.jpg,GoalB,memory-momentum10,NULL
1682404538,28980d5e2c4394e120097f4904f09dcd,PennController,31,0,experiment,NULL,Canvas,canvas6,Print,NA,1682404442602,sonaID,undefined,28,sort,filler,A,25,sort15.jpg,sort35.jpg,GoalB,memory-momentum10,NULL
1682404538,28980d5e2c4394e120097f4904f09dcd,PennController,31,0,experiment,NULL,Video,progression,buffer,0.002745,1682404440426,sonaID,undefined,28,sort,filler,A,25,sort15.jpg,sort35.jpg,GoalB,memory-momentum10,NULL
1682404538,28980d5e2c4394e120097f4904f09dcd,PennController,31,0,experiment,NULL,Selector,choice,Selection,option1,1682404445829,sonaID,undefined,28,sort,filler,A,25,sort15.jpg,sort35.jpg,GoalB,memory-momentum10,option1;option2
1682404538,28980d5e2c4394e120097f4904f09dcd,PennController,31,0,experiment,NULL,PennController,30,_Trial_,End,1682404445831,sonaID,undefined,28,sort,filler,A,25,sort15.jpg,sort35.jpg,GoalB,memory-momentum10,NULL
1682404538,28980d5e2c4394e120097f4904f09dcd,PennController,5,0,experiment,NULL,PennController,4,_Trial_,Start,1682404445832,sonaID,undefined,2,door,critical,A,50,door40.jpg,door60.jpg,high,memory-momentum10,NULL
1682404538,28980d5e2c4394e120097f4904f09dcd,PennController,5,0,experiment,NULL,PennController,4,_Header_,Start,1682404445832,sonaID,undefined,2,door,critical,A,50,door40.jpg,door60.jpg,high,memory-momentum10,NULL
1682404538,28980d5e2c4394e120097f4904f09dcd,PennController,5,0,experiment,NULL,PennController,4,_Header_,End,1682404445832,sonaID,undefined,2,door,critical,A,50,door40.jpg,door60.jpg,high,memory-momentum10,NULL
1682404538,28980d5e2c4394e120097f4904f09dcd,PennController,5,0,experiment,NULL,Canvas,canvas6,Print,NA,1682404452524,sonaID,undefined,2,door,critical,A,50,door40.jpg,door60.jpg,high,memory-momentum10,NULL
1682404538,28980d5e2c4394e120097f4904f09dcd,PennController,5,0,experiment,NULL,Video,progression,buffer,0.002634,1682404449356,sonaID,undefined,2,door,critical,A,50,door40.jpg,door60.jpg,high,memory-momentum10,NULL
1682404538,28980d5e2c4394e120097f4904f09dcd,PennController,5,0,experiment,NULL,Selector,choice,Selection,option1,1682404453669,sonaID,undefined,2,door,critical,A,50,door40.jpg,door60.jpg,high,memory-momentum10,option1;option2
1682404538,28980d5e2c4394e120097f4904f09dcd,PennController,5,0,experiment,NULL,PennController,4,_Trial_,End,1682404453670,sonaID,undefined,2,door,critical,A,50,door40.jpg,door60.jpg,high,memory-momentum10,NULL
1682404538,28980d5e2c4394e120097f4904f09dcd,PennController,20,0,experiment,NULL,PennController,19,_Trial_,Start,1682404453672,sonaID,undefined,17,roll,critical,A,50,roll40.jpg,roll60.jpg,low ,memory-momentum10,NULL
1682404538,28980d5e2c4394e120097f4904f09dcd,PennController,20,0,experiment,NULL,PennController,19,_Header_,Start,1682404453672,sonaID,undefined,17,roll,critical,A,50,roll40.jpg,roll60.jpg,low ,memory-momentum10,NULL
1682404538,28980d5e2c4394e120097f4904f09dcd,PennController,20,0,experiment,NULL,PennController,19,_Header_,End,1682404453672,sonaID,undefined,17,roll,critical,A,50,roll40.jpg,roll60.jpg,low ,memory-momentum10,NULL
1682404538,28980d5e2c4394e120097f4904f09dcd,PennController,20,0,experiment,NULL,Canvas,canvas6,Print,NA,1682404460394,sonaID,undefined,17,roll,critical,A,50,roll40.jpg,roll60.jpg,low ,memory-momentum10,NULL
1682404538,28980d5e2c4394e120097f4904f09dcd,PennController,20,0,experiment,NULL,Video,progression,buffer,0,1682404457195,sonaID,undefined,17,roll,critical,A,50,roll40.jpg,roll60.jpg,low ,memory-momentum10,NULL
1682404538,28980d5e2c4394e120097f4904f09dcd,PennController,20,0,experiment,NULL,Selector,choice,Selection,option2,1682404462150,sonaID,undefined,17,roll,critical,A,50,roll40.jpg,roll60.jpg,low ,memory-momentum10,option1;option2
1682404538,28980d5e2c4394e120097f4904f09dcd,PennController,20,0,experiment,NULL,PennController,19,_Trial_,End,1682404462151,sonaID,undefined,17,roll,critical,A,50,roll40.jpg,roll60.jpg,low ,memory-momentum10,NULL
1682404538,28980d5e2c4394e120097f4904f09dcd,PennController,28,0,experiment,NULL,PennController,27,_Trial_,Start,1682404462153,sonaID,undefined,25,house,filler,A,25,house15.jpg,house35.jpg,GoalA,memory-momentum10,NULL
1682404538,28980d5e2c4394e120097f4904f09dcd,PennController,28,0,experiment,NULL,PennController,27,_Header_,Start,1682404462153,sonaID,undefined,25,house,filler,A,25,house15.jpg,house35.jpg,GoalA,memory-momentum10,NULL
1682404538,28980d5e2c4394e120097f4904f09dcd,PennController,28,0,experiment,NULL,PennController,27,_Header_,End,1682404462153,sonaID,undefined,25,house,filler,A,25,house15.jpg,house35.jpg,GoalA,memory-momentum10,NULL
1682404538,28980d5e2c4394e120097f4904f09dcd,PennController,28,0,experiment,NULL,Canvas,canvas6,Print,NA,1682404467838,sonaID,undefined,25,house,filler,A,25,house15.jpg,house35.jpg,GoalA,memory-momentum10,NULL
1682404538,28980d5e2c4394e120097f4904f09dcd,PennController,28,0,experiment,NULL,Video,progression,buffer,0.002102,1682404465674,sonaID,undefined,25,house,filler,A,25,house15.jpg,house35.jpg,GoalA,memory-momentum10,NULL
1682404538,28980d5e2c4394e120097f4904f09dcd,PennController,28,0,experiment,NULL,Selector,choice,Selection,option1,1682404470011,sonaID,undefined,25,house,filler,A,25,house15.jpg,house35.jpg,GoalA,memory-momentum10,option2;option1
1682404538,28980d5e2c4394e120097f4904f09dcd,PennController,28,0,experiment,NULL,PennController,27,_Trial_,End,1682404470013,sonaID,undefined,25,house,filler,A,25,house15.jpg,house35.jpg,GoalA,memory-momentum10,NULL
1682404538,28980d5e2c4394e120097f4904f09dcd,PennController,25,0,experiment,NULL,PennController,24,_Trial_,Start,1682404470015,sonaID,undefined,22,wall,filler,A,25,wall15.jpg,wall35.jpg,GoalB,memory-momentum10,NULL
1682404538,28980d5e2c4394e120097f4904f09dcd,PennController,25,0,experiment,NULL,PennController,24,_Header_,Start,1682404470015,sonaID,undefined,22,wall,filler,A,25,wall15.jpg,wall35.jpg,GoalB,memory-momentum10,NULL
1682404538,28980d5e2c4394e120097f4904f09dcd,PennController,25,0,experiment,NULL,PennController,24,_Header_,End,1682404470015,sonaID,undefined,22,wall,filler,A,25,wall15.jpg,wall35.jpg,GoalB,memory-momentum10,NULL
1682404538,28980d5e2c4394e120097f4904f09dcd,PennController,25,0,experiment,NULL,Canvas,canvas6,Print,NA,1682404475707,sonaID,undefined,22,wall,filler,A,25,wall15.jpg,wall35.jpg,GoalB,memory-momentum10,NULL
1682404538,28980d5e2c4394e120097f4904f09dcd,PennController,25,0,experiment,NULL,Video,progression,buffer,0.004369,1682404473538,sonaID,undefined,22,wall,filler,A,25,wall15.jpg,wall35.jpg,GoalB,memory-momentum10,NULL
1682404538,28980d5e2c4394e120097f4904f09dcd,PennController,25,0,experiment,NULL,Selector,choice,Selection,option2,1682404479932,sonaID,undefined,22,wall,filler,A,25,wall15.jpg,wall35.jpg,GoalB,memory-momentum10,option2;option1
1682404538,28980d5e2c4394e120097f4904f09dcd,PennController,25,0,experiment,NULL,PennController,24,_Trial_,End,1682404479934,sonaID,undefined,22,wall,filler,A,25,wall15.jpg,wall35.jpg,GoalB,memory-momentum10,NULL
1682404538,28980d5e2c4394e120097f4904f09dcd,PennController,19,0,experiment,NULL,PennController,18,_Trial_,Start,1682404479936,sonaID,undefined,16,blinds,critical,A,25,blinds15.jpg,blinds33.jpg,high,memory-momentum10,NULL
1682404538,28980d5e2c4394e120097f4904f09dcd,PennController,19,0,experiment,NULL,PennController,18,_Header_,Start,1682404479936,sonaID,undefined,16,blinds,critical,A,25,blinds15.jpg,blinds33.jpg,high,memory-momentum10,NULL
1682404538,28980d5e2c4394e120097f4904f09dcd,PennController,19,0,experiment,NULL,PennController,18,_Header_,End,1682404479937,sonaID,undefined,16,blinds,critical,A,25,blinds15.jpg,blinds33.jpg,high,memory-momentum10,NULL
1682404538,28980d5e2c4394e120097f4904f09dcd,PennController,19,0,experiment,NULL,Canvas,canvas6,Print,NA,1682404486215,sonaID,undefined,16,blinds,critical,A,25,blinds15.jpg,blinds33.jpg,high,memory-momentum10,NULL
1682404538,28980d5e2c4394e120097f4904f09dcd,PennController,19,0,experiment,NULL,Video,progression,buffer,0.002472,1682404483453,sonaID,undefined,16,blinds,critical,A,25,blinds15.jpg,blinds33.jpg,high,memory-momentum10,NULL
1682404538,28980d5e2c4394e120097f4904f09dcd,PennController,19,0,experiment,NULL,Selector,choice,Selection,option1,1682404487683,sonaID,undefined,16,blinds,critical,A,25,blinds15.jpg,blinds33.jpg,high,memory-momentum10,option1;option2
1682404538,28980d5e2c4394e120097f4904f09dcd,PennController,19,0,experiment,NULL,PennController,18,_Trial_,End,1682404487685,sonaID,undefined,16,blinds,critical,A,25,blinds15.jpg,blinds33.jpg,high,memory-momentum10,NULL
1682404538,28980d5e2c4394e120097f4904f09dcd,PennController,22,0,experiment,NULL,PennController,21,_Trial_,Start,1682404487687,sonaID,undefined,19,cup,filler,A,25,cup15.jpg,cup35.jpg,GoalA,memory-momentum10,NULL
1682404538,28980d5e2c4394e120097f4904f09dcd,PennController,22,0,experiment,NULL,PennController,21,_Header_,Start,1682404487687,sonaID,undefined,19,cup,filler,A,25,cup15.jpg,cup35.jpg,GoalA,memory-momentum10,NULL
1682404538,28980d5e2c4394e120097f4904f09dcd,PennController,22,0,experiment,NULL,PennController,21,_Header_,End,1682404487687,sonaID,undefined,19,cup,filler,A,25,cup15.jpg,cup35.jpg,GoalA,memory-momentum10,NULL
1682404538,28980d5e2c4394e120097f4904f09dcd,PennController,22,0,experiment,NULL,Canvas,canvas6,Print,NA,1682404493368,sonaID,undefined,19,cup,filler,A,25,cup15.jpg,cup35.jpg,GoalA,memory-momentum10,NULL
1682404538,28980d5e2c4394e120097f4904f09dcd,PennController,22,0,experiment,NULL,Video,progression,buffer,0.004602,1682404491210,sonaID,undefined,19,cup,filler,A,25,cup15.jpg,cup35.jpg,GoalA,memory-momentum10,NULL
1682404538,28980d5e2c4394e120097f4904f09dcd,PennController,22,0,experiment,NULL,Selector,choice,Selection,option1,1682404494918,sonaID,undefined,19,cup,filler,A,25,cup15.jpg,cup35.jpg,GoalA,memory-momentum10,option1;option2
1682404538,28980d5e2c4394e120097f4904f09dcd,PennController,22,0,experiment,NULL,PennController,21,_Trial_,End,1682404494919,sonaID,undefined,19,cup,filler,A,25,cup15.jpg,cup35.jpg,GoalA,memory-momentum10,NULL
1682404538,28980d5e2c4394e120097f4904f09dcd,PennController,24,0,experiment,NULL,PennController,23,_Trial_,Start,1682404494921,sonaID,undefined,21,visit,filler,A,75,visit65.jpg,visit85.jpg,GoalA,memory-momentum10,NULL
1682404538,28980d5e2c4394e120097f4904f09dcd,PennController,24,0,experiment,NULL,PennController,23,_Header_,Start,1682404494921,sonaID,undefined,21,visit,filler,A,75,visit65.jpg,visit85.jpg,GoalA,memory-momentum10,NULL
1682404538,28980d5e2c4394e120097f4904f09dcd,PennController,24,0,experiment,NULL,PennController,23,_Header_,End,1682404494921,sonaID,undefined,21,visit,filler,A,75,visit65.jpg,visit85.jpg,GoalA,memory-momentum10,NULL
1682404538,28980d5e2c4394e120097f4904f09dcd,PennController,24,0,experiment,NULL,Canvas,canvas6,Print,NA,1682404502611,sonaID,undefined,21,visit,filler,A,75,visit65.jpg,visit85.jpg,GoalA,memory-momentum10,NULL
1682404538,28980d5e2c4394e120097f4904f09dcd,PennController,24,0,experiment,NULL,Video,progression,buffer,0.002987,1682404498443,sonaID,undefined,21,visit,filler,A,75,visit65.jpg,visit85.jpg,GoalA,memory-momentum10,NULL
1682404538,28980d5e2c4394e120097f4904f09dcd,PennController,24,0,experiment,NULL,Selector,choice,Selection,option2,1682404504308,sonaID,undefined,21,visit,filler,A,75,visit65.jpg,visit85.jpg,GoalA,memory-momentum10,option1;option2
1682404538,28980d5e2c4394e120097f4904f09dcd,PennController,24,0,experiment,NULL,PennController,23,_Trial_,End,1682404504309,sonaID,undefined,21,visit,filler,A,75,visit65.jpg,visit85.jpg,GoalA,memory-momentum10,NULL
1682404538,28980d5e2c4394e120097f4904f09dcd,PennController,10,0,experiment,NULL,PennController,9,_Trial_,Start,1682404504311,sonaID,undefined,7,stack,critical,A,25,stack15.jpg,stack35.jpg,low ,memory-momentum10,NULL
1682404538,28980d5e2c4394e120097f4904f09dcd,PennController,10,0,experiment,NULL,PennController,9,_Header_,Start,1682404504311,sonaID,undefined,7,stack,critical,A,25,stack15.jpg,stack35.jpg,low ,memory-momentum10,NULL
1682404538,28980d5e2c4394e120097f4904f09dcd,PennController,10,0,experiment,NULL,PennController,9,_Header_,End,1682404504311,sonaID,undefined,7,stack,critical,A,25,stack15.jpg,stack35.jpg,low ,memory-momentum10,NULL
1682404538,28980d5e2c4394e120097f4904f09dcd,PennController,10,0,experiment,NULL,Canvas,canvas6,Print,NA,1682404509996,sonaID,undefined,7,stack,critical,A,25,stack15.jpg,stack35.jpg,low ,memory-momentum10,NULL
1682404538,28980d5e2c4394e120097f4904f09dcd,PennController,10,0,experiment,NULL,Video,progression,buffer,0.00212,1682404507831,sonaID,undefined,7,stack,critical,A,25,stack15.jpg,stack35.jpg,low ,memory-momentum10,NULL
1682404538,28980d5e2c4394e120097f4904f09dcd,PennController,10,0,experiment,NULL,Selector,choice,Selection,option2,1682404511820,sonaID,undefined,7,stack,critical,A,25,stack15.jpg,stack35.jpg,low ,memory-momentum10,option2;option1
1682404538,28980d5e2c4394e120097f4904f09dcd,PennController,10,0,experiment,NULL,PennController,9,_Trial_,End,1682404511822,sonaID,undefined,7,stack,critical,A,25,stack15.jpg,stack35.jpg,low ,memory-momentum10,NULL
1682404538,28980d5e2c4394e120097f4904f09dcd,PennController,14,0,experiment,NULL,PennController,13,_Trial_,Start,1682404511823,sonaID,undefined,11,beads,critical,A,50,beads40.jpg,beads60.jpg,low ,memory-momentum10,NULL
1682404538,28980d5e2c4394e120097f4904f09dcd,PennController,14,0,experiment,NULL,PennController,13,_Header_,Start,1682404511823,sonaID,undefined,11,beads,critical,A,50,beads40.jpg,beads60.jpg,low ,memory-momentum10,NULL
1682404538,28980d5e2c4394e120097f4904f09dcd,PennController,14,0,experiment,NULL,PennController,13,_Header_,End,1682404511823,sonaID,undefined,11,beads,critical,A,50,beads40.jpg,beads60.jpg,low ,memory-momentum10,NULL
1682404538,28980d5e2c4394e120097f4904f09dcd,PennController,14,0,experiment,NULL,Canvas,canvas6,Print,NA,1682404518522,sonaID,undefined,11,beads,critical,A,50,beads40.jpg,beads60.jpg,low ,memory-momentum10,NULL
1682404538,28980d5e2c4394e120097f4904f09dcd,PennController,14,0,experiment,NULL,Video,progression,buffer,0.003455,1682404515349,sonaID,undefined,11,beads,critical,A,50,beads40.jpg,beads60.jpg,low ,memory-momentum10,NULL
1682404538,28980d5e2c4394e120097f4904f09dcd,PennController,14,0,experiment,NULL,Selector,choice,Selection,option1,1682404519762,sonaID,undefined,11,beads,critical,A,50,beads40.jpg,beads60.jpg,low ,memory-momentum10,option1;option2
1682404538,28980d5e2c4394e120097f4904f09dcd,PennController,14,0,experiment,NULL,PennController,13,_Trial_,End,1682404519763,sonaID,undefined,11,beads,critical,A,50,beads40.jpg,beads60.jpg,low ,memory-momentum10,NULL
1682404538,28980d5e2c4394e120097f4904f09dcd,PennController,8,0,experiment,NULL,PennController,7,_Trial_,Start,1682404519765,sonaID,undefined,5,book,critical,A,50,book40.jpg,book60.jpg,low ,memory-momentum10,NULL
1682404538,28980d5e2c4394e120097f4904f09dcd,PennController,8,0,experiment,NULL,PennController,7,_Header_,Start,1682404519765,sonaID,undefined,5,book,critical,A,50,book40.jpg,book60.jpg,low ,memory-momentum10,NULL
1682404538,28980d5e2c4394e120097f4904f09dcd,PennController,8,0,experiment,NULL,PennController,7,_Header_,End,1682404519765,sonaID,undefined,5,book,critical,A,50,book40.jpg,book60.jpg,low ,memory-momentum10,NULL
1682404538,28980d5e2c4394e120097f4904f09dcd,PennController,8,0,experiment,NULL,Canvas,canvas6,Print,NA,1682404526460,sonaID,undefined,5,book,critical,A,50,book40.jpg,book60.jpg,low ,memory-momentum10,NULL
1682404538,28980d5e2c4394e120097f4904f09dcd,PennController,8,0,experiment,NULL,Video,progression,buffer,0.005558,1682404523291,sonaID,undefined,5,book,critical,A,50,book40.jpg,book60.jpg,low ,memory-momentum10,NULL
1682404538,28980d5e2c4394e120097f4904f09dcd,PennController,8,0,experiment,NULL,Selector,choice,Selection,option1,1682404528118,sonaID,undefined,5,book,critical,A,50,book40.jpg,book60.jpg,low ,memory-momentum10,option2;option1
1682404538,28980d5e2c4394e120097f4904f09dcd,PennController,8,0,experiment,NULL,PennController,7,_Trial_,End,1682404528119,sonaID,undefined,5,book,critical,A,50,book40.jpg,book60.jpg,low ,memory-momentum10,NULL
1682404538,28980d5e2c4394e120097f4904f09dcd,PennController,21,0,experiment,NULL,PennController,20,_Trial_,Start,1682404528121,sonaID,undefined,18,ball,critical,A,75,ball65.jpg,ball85.jpg,high,memory-momentum10,NULL
1682404538,28980d5e2c4394e120097f4904f09dcd,PennController,21,0,experiment,NULL,PennController,20,_Header_,Start,1682404528121,sonaID,undefined,18,ball,critical,A,75,ball65.jpg,ball85.jpg,high,memory-momentum10,NULL
1682404538,28980d5e2c4394e120097f4904f09dcd,PennController,21,0,experiment,NULL,PennController,20,_Header_,End,1682404528122,sonaID,undefined,18,ball,critical,A,75,ball65.jpg,ball85.jpg,high,memory-momentum10,NULL
1682404538,28980d5e2c4394e120097f4904f09dcd,PennController,21,0,experiment,NULL,Canvas,canvas6,Print,NA,1682404535816,sonaID,undefined,18,ball,critical,A,75,ball65.jpg,ball85.jpg,high,memory-momentum10,NULL
1682404538,28980d5e2c4394e120097f4904f09dcd,PennController,21,0,experiment,NULL,Video,progression,buffer,0.00241,1682404531646,sonaID,undefined,18,ball,critical,A,75,ball65.jpg,ball85.jpg,high,memory-momentum10,NULL
1682404538,28980d5e2c4394e120097f4904f09dcd,PennController,21,0,experiment,NULL,Selector,choice,Selection,option1,1682404539104,sonaID,undefined,18,ball,critical,A,75,ball65.jpg,ball85.jpg,high,memory-momentum10,option1;option2
1682404538,28980d5e2c4394e120097f4904f09dcd,PennController,21,0,experiment,NULL,PennController,20,_Trial_,End,1682404539106,sonaID,undefined,18,ball,critical,A,75,ball65.jpg,ball85.jpg,high,memory-momentum10,NULL
