#
# Results on Sunday April 30 2023 01:01:59 UTC
# USER AGENT: Mozilla/5.0 (Macintosh; Intel Mac OS X 10_15_7) AppleWebKit/537.36 (KHTML, like Gecko) Chrome/110.0.0.0 Safari/537.36
# Design number was non-random = 33
#
# Columns below this comment are as follows:
# 1. Results reception time.
# 2. MD5 hash of participant's IP address.
# 3. Controller name.
# 4. Order number of item.
# 5. Inner element number.
# 6. Label.
# 7. Latin Square Group.
# 8. PennElementType.
# 9. PennElementName.
# 10. Parameter.
# 11. Value.
# 12. EventTime.
# 13. sonaID.
# 14. Comments.
1682816519,1583aa05a94024c965017afb85239b88,PennController,2,0,consent,NULL,PennController,0,_Trial_,Start,1682816179791,sonaID,NULL
1682816519,1583aa05a94024c965017afb85239b88,PennController,2,0,consent,NULL,PennController,0,_Header_,Start,1682816179791,sonaID,NULL
1682816519,1583aa05a94024c965017afb85239b88,PennController,2,0,consent,NULL,PennController,0,_Header_,End,1682816179791,sonaID,NULL
1682816519,1583aa05a94024c965017afb85239b88,PennController,2,0,consent,NULL,PennController,0,_Trial_,End,1682816184160,sonaID,NULL
# Columns below this comment are as follows:
# 14. ID.
# 15. Comments.
1682816519,1583aa05a94024c965017afb85239b88,PennController,3,0,intro,NULL,PennController,1,_Trial_,Start,1682816184161,sonaID,undefined,NULL
1682816519,1583aa05a94024c965017afb85239b88,PennController,3,0,intro,NULL,PennController,1,_Header_,Start,1682816184161,sonaID,undefined,NULL
1682816519,1583aa05a94024c965017afb85239b88,PennController,3,0,intro,NULL,PennController,1,_Header_,End,1682816184161,sonaID,undefined,NULL
1682816519,1583aa05a94024c965017afb85239b88,PennController,3,0,intro,NULL,TextInput,inputID,EnterReturn,89824457,1682816191023,sonaID,undefined,NULL
1682816519,1583aa05a94024c965017afb85239b88,PennController,3,0,intro,NULL,TextInput,inputID,Final,89824457,1682816191025,sonaID,undefined,NULL
1682816519,1583aa05a94024c965017afb85239b88,PennController,3,0,intro,NULL,TextInput,inputID,First,,1682816186391,sonaID,undefined,8
1682816519,1583aa05a94024c965017afb85239b88,PennController,3,0,intro,NULL,PennController,1,_Trial_,End,1682816191025,sonaID,undefined,NULL
# Columns below this comment are as follows:
# 15. item_number.
# 16. item.
# 17. type.
# 18. Group.
# 19. prog.
# 20. prev_image.
# 21. next_image.
# 22. height.
# 23. memory-momentum10.
# 24. Comments.
1682816519,1583aa05a94024c965017afb85239b88,PennController,21,0,experiment,NULL,PennController,20,_Trial_,Start,1682816191028,sonaID,undefined,18,ball,critical,D,75,ball65.jpg,ball85.jpg,low ,memory-momentum10,NULL
1682816519,1583aa05a94024c965017afb85239b88,PennController,21,0,experiment,NULL,PennController,20,_Header_,Start,1682816191028,sonaID,undefined,18,ball,critical,D,75,ball65.jpg,ball85.jpg,low ,memory-momentum10,NULL
1682816519,1583aa05a94024c965017afb85239b88,PennController,21,0,experiment,NULL,PennController,20,_Header_,End,1682816191028,sonaID,undefined,18,ball,critical,D,75,ball65.jpg,ball85.jpg,low ,memory-momentum10,NULL
1682816519,1583aa05a94024c965017afb85239b88,PennController,21,0,experiment,NULL,Canvas,canvas6,Print,NA,1682816198727,sonaID,undefined,18,ball,critical,D,75,ball65.jpg,ball85.jpg,low ,memory-momentum10,NULL
1682816519,1583aa05a94024c965017afb85239b88,PennController,21,0,experiment,NULL,Video,progression,buffer,0.002269,1682816194546,sonaID,undefined,18,ball,critical,D,75,ball65.jpg,ball85.jpg,low ,memory-momentum10,NULL
1682816519,1583aa05a94024c965017afb85239b88,PennController,21,0,experiment,NULL,Selector,choice,Selection,option1,1682816202223,sonaID,undefined,18,ball,critical,D,75,ball65.jpg,ball85.jpg,low ,memory-momentum10,option1;option2
1682816519,1583aa05a94024c965017afb85239b88,PennController,21,0,experiment,NULL,PennController,20,_Trial_,End,1682816202225,sonaID,undefined,18,ball,critical,D,75,ball65.jpg,ball85.jpg,low ,memory-momentum10,NULL
1682816519,1583aa05a94024c965017afb85239b88,PennController,27,0,experiment,NULL,PennController,26,_Trial_,Start,1682816202225,sonaID,undefined,24,match,filler,D,75,match65.jpg,match85.jpg,GoalA,memory-momentum10,NULL
1682816519,1583aa05a94024c965017afb85239b88,PennController,27,0,experiment,NULL,PennController,26,_Header_,Start,1682816202225,sonaID,undefined,24,match,filler,D,75,match65.jpg,match85.jpg,GoalA,memory-momentum10,NULL
1682816519,1583aa05a94024c965017afb85239b88,PennController,27,0,experiment,NULL,PennController,26,_Header_,End,1682816202225,sonaID,undefined,24,match,filler,D,75,match65.jpg,match85.jpg,GoalA,memory-momentum10,NULL
1682816519,1583aa05a94024c965017afb85239b88,PennController,27,0,experiment,NULL,Canvas,canvas6,Print,NA,1682816211026,sonaID,undefined,24,match,filler,D,75,match65.jpg,match85.jpg,GoalA,memory-momentum10,NULL
1682816519,1583aa05a94024c965017afb85239b88,PennController,27,0,experiment,NULL,Video,progression,buffer,0.00316,1682816205744,sonaID,undefined,24,match,filler,D,75,match65.jpg,match85.jpg,GoalA,memory-momentum10,NULL
1682816519,1583aa05a94024c965017afb85239b88,PennController,27,0,experiment,NULL,Selector,choice,Selection,option2,1682816217367,sonaID,undefined,24,match,filler,D,75,match65.jpg,match85.jpg,GoalA,memory-momentum10,option2;option1
1682816519,1583aa05a94024c965017afb85239b88,PennController,27,0,experiment,NULL,PennController,26,_Trial_,End,1682816217367,sonaID,undefined,24,match,filler,D,75,match65.jpg,match85.jpg,GoalA,memory-momentum10,NULL
1682816519,1583aa05a94024c965017afb85239b88,PennController,31,0,experiment,NULL,PennController,30,_Trial_,Start,1682816217368,sonaID,undefined,28,sort,filler,D,25,sort15.jpg,sort35.jpg,GoalA,memory-momentum10,NULL
1682816519,1583aa05a94024c965017afb85239b88,PennController,31,0,experiment,NULL,PennController,30,_Header_,Start,1682816217368,sonaID,undefined,28,sort,filler,D,25,sort15.jpg,sort35.jpg,GoalA,memory-momentum10,NULL
1682816519,1583aa05a94024c965017afb85239b88,PennController,31,0,experiment,NULL,PennController,30,_Header_,End,1682816217368,sonaID,undefined,28,sort,filler,D,25,sort15.jpg,sort35.jpg,GoalA,memory-momentum10,NULL
1682816519,1583aa05a94024c965017afb85239b88,PennController,31,0,experiment,NULL,Canvas,canvas6,Print,NA,1682816223076,sonaID,undefined,28,sort,filler,D,25,sort15.jpg,sort35.jpg,GoalA,memory-momentum10,NULL
1682816519,1583aa05a94024c965017afb85239b88,PennController,31,0,experiment,NULL,Video,progression,buffer,0.001069,1682816220887,sonaID,undefined,28,sort,filler,D,25,sort15.jpg,sort35.jpg,GoalA,memory-momentum10,NULL
1682816519,1583aa05a94024c965017afb85239b88,PennController,31,0,experiment,NULL,Selector,choice,Selection,option1,1682816230771,sonaID,undefined,28,sort,filler,D,25,sort15.jpg,sort35.jpg,GoalA,memory-momentum10,option1;option2
1682816519,1583aa05a94024c965017afb85239b88,PennController,31,0,experiment,NULL,PennController,30,_Trial_,End,1682816230771,sonaID,undefined,28,sort,filler,D,25,sort15.jpg,sort35.jpg,GoalA,memory-momentum10,NULL
1682816519,1583aa05a94024c965017afb85239b88,PennController,29,0,experiment,NULL,PennController,28,_Trial_,Start,1682816230772,sonaID,undefined,26,sandwich,filler,D,50,sandwich40.jpg,sandwich60.jpg,GoalA,memory-momentum10,NULL
1682816519,1583aa05a94024c965017afb85239b88,PennController,29,0,experiment,NULL,PennController,28,_Header_,Start,1682816230772,sonaID,undefined,26,sandwich,filler,D,50,sandwich40.jpg,sandwich60.jpg,GoalA,memory-momentum10,NULL
1682816519,1583aa05a94024c965017afb85239b88,PennController,29,0,experiment,NULL,PennController,28,_Header_,End,1682816230772,sonaID,undefined,26,sandwich,filler,D,50,sandwich40.jpg,sandwich60.jpg,GoalA,memory-momentum10,NULL
1682816519,1583aa05a94024c965017afb85239b88,PennController,29,0,experiment,NULL,Canvas,canvas6,Print,NA,1682816237478,sonaID,undefined,26,sandwich,filler,D,50,sandwich40.jpg,sandwich60.jpg,GoalA,memory-momentum10,NULL
1682816519,1583aa05a94024c965017afb85239b88,PennController,29,0,experiment,NULL,Video,progression,buffer,0.000741,1682816234287,sonaID,undefined,26,sandwich,filler,D,50,sandwich40.jpg,sandwich60.jpg,GoalA,memory-momentum10,NULL
1682816519,1583aa05a94024c965017afb85239b88,PennController,29,0,experiment,NULL,Selector,choice,Selection,option1,1682816238602,sonaID,undefined,26,sandwich,filler,D,50,sandwich40.jpg,sandwich60.jpg,GoalA,memory-momentum10,option1;option2
1682816519,1583aa05a94024c965017afb85239b88,PennController,29,0,experiment,NULL,PennController,28,_Trial_,End,1682816238604,sonaID,undefined,26,sandwich,filler,D,50,sandwich40.jpg,sandwich60.jpg,GoalA,memory-momentum10,NULL
1682816519,1583aa05a94024c965017afb85239b88,PennController,13,0,experiment,NULL,PennController,12,_Trial_,Start,1682816238604,sonaID,undefined,10,train,critical,D,25,train15.jpg,train35.jpg,low ,memory-momentum10,NULL
1682816519,1583aa05a94024c965017afb85239b88,PennController,13,0,experiment,NULL,PennController,12,_Header_,Start,1682816238604,sonaID,undefined,10,train,critical,D,25,train15.jpg,train35.jpg,low ,memory-momentum10,NULL
1682816519,1583aa05a94024c965017afb85239b88,PennController,13,0,experiment,NULL,PennController,12,_Header_,End,1682816238604,sonaID,undefined,10,train,critical,D,25,train15.jpg,train35.jpg,low ,memory-momentum10,NULL
1682816519,1583aa05a94024c965017afb85239b88,PennController,13,0,experiment,NULL,Canvas,canvas6,Print,NA,1682816244319,sonaID,undefined,10,train,critical,D,25,train15.jpg,train35.jpg,low ,memory-momentum10,NULL
1682816519,1583aa05a94024c965017afb85239b88,PennController,13,0,experiment,NULL,Video,progression,buffer,0.001135,1682816242125,sonaID,undefined,10,train,critical,D,25,train15.jpg,train35.jpg,low ,memory-momentum10,NULL
1682816519,1583aa05a94024c965017afb85239b88,PennController,13,0,experiment,NULL,Selector,choice,Selection,option1,1682816246138,sonaID,undefined,10,train,critical,D,25,train15.jpg,train35.jpg,low ,memory-momentum10,option1;option2
1682816519,1583aa05a94024c965017afb85239b88,PennController,13,0,experiment,NULL,PennController,12,_Trial_,End,1682816246139,sonaID,undefined,10,train,critical,D,25,train15.jpg,train35.jpg,low ,memory-momentum10,NULL
1682816519,1583aa05a94024c965017afb85239b88,PennController,30,0,experiment,NULL,PennController,29,_PreloadFailed_,fixation.png,1682816306145,sonaID,undefined,27,rice,filler,D,75,square65.jpg,square85.jpg,GoalB,memory-momentum10,NULL
1682816519,1583aa05a94024c965017afb85239b88,PennController,30,0,experiment,NULL,PennController,29,_PreloadFailed_,https://raw.githubusercontent.com/karenwli/rep-momentum/main/rice/rice00.jpg,1682816306145,sonaID,undefined,27,rice,filler,D,75,square65.jpg,square85.jpg,GoalB,memory-momentum10,NULL
1682816519,1583aa05a94024c965017afb85239b88,PennController,30,0,experiment,NULL,PennController,29,_PreloadFailed_,https://video.wixstatic.com/video/7cb05b_41aae65ca27d43c3a89b5e46732d18ff/144p/mp4/file.mp4,1682816306145,sonaID,undefined,27,rice,filler,D,75,square65.jpg,square85.jpg,GoalB,memory-momentum10,NULL
1682816519,1583aa05a94024c965017afb85239b88,PennController,30,0,experiment,NULL,PennController,29,_Trial_,Start,1682816306145,sonaID,undefined,27,rice,filler,D,75,square65.jpg,square85.jpg,GoalB,memory-momentum10,NULL
1682816519,1583aa05a94024c965017afb85239b88,PennController,30,0,experiment,NULL,PennController,29,_Header_,Start,1682816306145,sonaID,undefined,27,rice,filler,D,75,square65.jpg,square85.jpg,GoalB,memory-momentum10,NULL
1682816519,1583aa05a94024c965017afb85239b88,PennController,30,0,experiment,NULL,PennController,29,_Header_,End,1682816306145,sonaID,undefined,27,rice,filler,D,75,square65.jpg,square85.jpg,GoalB,memory-momentum10,NULL
1682816519,1583aa05a94024c965017afb85239b88,PennController,30,0,experiment,NULL,Canvas,canvas6,Print,NA,1682816313860,sonaID,undefined,27,rice,filler,D,75,square65.jpg,square85.jpg,GoalB,memory-momentum10,NULL
1682816519,1583aa05a94024c965017afb85239b88,PennController,30,0,experiment,NULL,Video,progression,buffer,0.001382,1682816309668,sonaID,undefined,27,rice,filler,D,75,square65.jpg,square85.jpg,GoalB,memory-momentum10,NULL
1682816519,1583aa05a94024c965017afb85239b88,PennController,30,0,experiment,NULL,Selector,choice,Selection,option1,1682816320055,sonaID,undefined,27,rice,filler,D,75,square65.jpg,square85.jpg,GoalB,memory-momentum10,option1;option2
1682816519,1583aa05a94024c965017afb85239b88,PennController,30,0,experiment,NULL,PennController,29,_Trial_,End,1682816320055,sonaID,undefined,27,rice,filler,D,75,square65.jpg,square85.jpg,GoalB,memory-momentum10,NULL
1682816519,1583aa05a94024c965017afb85239b88,PennController,26,0,experiment,NULL,PennController,25,_Trial_,Start,1682816320056,sonaID,undefined,23,color,filler,D,50,color40.jpg,color60.jpg,GoalB,memory-momentum10,NULL
1682816519,1583aa05a94024c965017afb85239b88,PennController,26,0,experiment,NULL,PennController,25,_Header_,Start,1682816320056,sonaID,undefined,23,color,filler,D,50,color40.jpg,color60.jpg,GoalB,memory-momentum10,NULL
1682816519,1583aa05a94024c965017afb85239b88,PennController,26,0,experiment,NULL,PennController,25,_Header_,End,1682816320056,sonaID,undefined,23,color,filler,D,50,color40.jpg,color60.jpg,GoalB,memory-momentum10,NULL
1682816519,1583aa05a94024c965017afb85239b88,PennController,26,0,experiment,NULL,Canvas,canvas6,Print,NA,1682816326767,sonaID,undefined,23,color,filler,D,50,color40.jpg,color60.jpg,GoalB,memory-momentum10,NULL
1682816519,1583aa05a94024c965017afb85239b88,PennController,26,0,experiment,NULL,Video,progression,buffer,0.001055,1682816323570,sonaID,undefined,23,color,filler,D,50,color40.jpg,color60.jpg,GoalB,memory-momentum10,NULL
1682816519,1583aa05a94024c965017afb85239b88,PennController,26,0,experiment,NULL,Selector,choice,Selection,option2,1682816329073,sonaID,undefined,23,color,filler,D,50,color40.jpg,color60.jpg,GoalB,memory-momentum10,option1;option2
1682816519,1583aa05a94024c965017afb85239b88,PennController,26,0,experiment,NULL,PennController,25,_Trial_,End,1682816329074,sonaID,undefined,23,color,filler,D,50,color40.jpg,color60.jpg,GoalB,memory-momentum10,NULL
1682816519,1583aa05a94024c965017afb85239b88,PennController,12,0,experiment,NULL,PennController,11,_Trial_,Start,1682816329076,sonaID,undefined,9,cake,critical,D,75,cake66.jpg,cake84.jpg,high,memory-momentum10,NULL
1682816519,1583aa05a94024c965017afb85239b88,PennController,12,0,experiment,NULL,PennController,11,_Header_,Start,1682816329076,sonaID,undefined,9,cake,critical,D,75,cake66.jpg,cake84.jpg,high,memory-momentum10,NULL
1682816519,1583aa05a94024c965017afb85239b88,PennController,12,0,experiment,NULL,PennController,11,_Header_,End,1682816329076,sonaID,undefined,9,cake,critical,D,75,cake66.jpg,cake84.jpg,high,memory-momentum10,NULL
1682816519,1583aa05a94024c965017afb85239b88,PennController,12,0,experiment,NULL,Canvas,canvas6,Print,NA,1682816338783,sonaID,undefined,9,cake,critical,D,75,cake66.jpg,cake84.jpg,high,memory-momentum10,NULL
1682816519,1583aa05a94024c965017afb85239b88,PennController,12,0,experiment,NULL,Video,progression,buffer,0.001428,1682816332595,sonaID,undefined,9,cake,critical,D,75,cake66.jpg,cake84.jpg,high,memory-momentum10,NULL
1682816519,1583aa05a94024c965017afb85239b88,PennController,12,0,experiment,NULL,Selector,choice,Selection,option2,1682816340458,sonaID,undefined,9,cake,critical,D,75,cake66.jpg,cake84.jpg,high,memory-momentum10,option1;option2
1682816519,1583aa05a94024c965017afb85239b88,PennController,12,0,experiment,NULL,PennController,11,_Trial_,End,1682816340459,sonaID,undefined,9,cake,critical,D,75,cake66.jpg,cake84.jpg,high,memory-momentum10,NULL
1682816519,1583aa05a94024c965017afb85239b88,PennController,5,0,experiment,NULL,PennController,4,_Trial_,Start,1682816340460,sonaID,undefined,2,door,critical,D,50,door40.jpg,door60.jpg,low ,memory-momentum10,NULL
1682816519,1583aa05a94024c965017afb85239b88,PennController,5,0,experiment,NULL,PennController,4,_Header_,Start,1682816340460,sonaID,undefined,2,door,critical,D,50,door40.jpg,door60.jpg,low ,memory-momentum10,NULL
1682816519,1583aa05a94024c965017afb85239b88,PennController,5,0,experiment,NULL,PennController,4,_Header_,End,1682816340460,sonaID,undefined,2,door,critical,D,50,door40.jpg,door60.jpg,low ,memory-momentum10,NULL
1682816519,1583aa05a94024c965017afb85239b88,PennController,5,0,experiment,NULL,Canvas,canvas6,Print,NA,1682816347179,sonaID,undefined,2,door,critical,D,50,door40.jpg,door60.jpg,low ,memory-momentum10,NULL
1682816519,1583aa05a94024c965017afb85239b88,PennController,5,0,experiment,NULL,Video,progression,buffer,0,1682816343975,sonaID,undefined,2,door,critical,D,50,door40.jpg,door60.jpg,low ,memory-momentum10,NULL
1682816519,1583aa05a94024c965017afb85239b88,PennController,5,0,experiment,NULL,Selector,choice,Selection,option1,1682816349205,sonaID,undefined,2,door,critical,D,50,door40.jpg,door60.jpg,low ,memory-momentum10,option2;option1
1682816519,1583aa05a94024c965017afb85239b88,PennController,5,0,experiment,NULL,PennController,4,_Trial_,End,1682816349205,sonaID,undefined,2,door,critical,D,50,door40.jpg,door60.jpg,low ,memory-momentum10,NULL
1682816519,1583aa05a94024c965017afb85239b88,PennController,15,0,experiment,NULL,PennController,14,_Trial_,Start,1682816349205,sonaID,undefined,12,erase,critical,D,75,erase66.jpg,erase84.jpg,low ,memory-momentum10,NULL
1682816519,1583aa05a94024c965017afb85239b88,PennController,15,0,experiment,NULL,PennController,14,_Header_,Start,1682816349205,sonaID,undefined,12,erase,critical,D,75,erase66.jpg,erase84.jpg,low ,memory-momentum10,NULL
1682816519,1583aa05a94024c965017afb85239b88,PennController,15,0,experiment,NULL,PennController,14,_Header_,End,1682816349205,sonaID,undefined,12,erase,critical,D,75,erase66.jpg,erase84.jpg,low ,memory-momentum10,NULL
1682816519,1583aa05a94024c965017afb85239b88,PennController,15,0,experiment,NULL,Canvas,canvas6,Print,NA,1682816358910,sonaID,undefined,12,erase,critical,D,75,erase66.jpg,erase84.jpg,low ,memory-momentum10,NULL
1682816519,1583aa05a94024c965017afb85239b88,PennController,15,0,experiment,NULL,Video,progression,buffer,0.000875,1682816352716,sonaID,undefined,12,erase,critical,D,75,erase66.jpg,erase84.jpg,low ,memory-momentum10,NULL
1682816519,1583aa05a94024c965017afb85239b88,PennController,15,0,experiment,NULL,Selector,choice,Selection,option2,1682816360639,sonaID,undefined,12,erase,critical,D,75,erase66.jpg,erase84.jpg,low ,memory-momentum10,option2;option1
1682816519,1583aa05a94024c965017afb85239b88,PennController,15,0,experiment,NULL,PennController,14,_Trial_,End,1682816360640,sonaID,undefined,12,erase,critical,D,75,erase66.jpg,erase84.jpg,low ,memory-momentum10,NULL
1682816519,1583aa05a94024c965017afb85239b88,PennController,11,0,experiment,NULL,PennController,10,_Trial_,Start,1682816360640,sonaID,undefined,8,cucumber,critical,D,50,cucumber42.jpg,cucumber60.jpg,low ,memory-momentum10,NULL
1682816519,1583aa05a94024c965017afb85239b88,PennController,11,0,experiment,NULL,PennController,10,_Header_,Start,1682816360640,sonaID,undefined,8,cucumber,critical,D,50,cucumber42.jpg,cucumber60.jpg,low ,memory-momentum10,NULL
1682816519,1583aa05a94024c965017afb85239b88,PennController,11,0,experiment,NULL,PennController,10,_Header_,End,1682816360640,sonaID,undefined,8,cucumber,critical,D,50,cucumber42.jpg,cucumber60.jpg,low ,memory-momentum10,NULL
1682816519,1583aa05a94024c965017afb85239b88,PennController,11,0,experiment,NULL,Canvas,canvas6,Print,NA,1682816368747,sonaID,undefined,8,cucumber,critical,D,50,cucumber42.jpg,cucumber60.jpg,low ,memory-momentum10,NULL
1682816519,1583aa05a94024c965017afb85239b88,PennController,11,0,experiment,NULL,Video,progression,buffer,0.001514,1682816364159,sonaID,undefined,8,cucumber,critical,D,50,cucumber42.jpg,cucumber60.jpg,low ,memory-momentum10,NULL
1682816519,1583aa05a94024c965017afb85239b88,PennController,11,0,experiment,NULL,Selector,choice,Selection,option1,1682816370505,sonaID,undefined,8,cucumber,critical,D,50,cucumber42.jpg,cucumber60.jpg,low ,memory-momentum10,option2;option1
1682816519,1583aa05a94024c965017afb85239b88,PennController,11,0,experiment,NULL,PennController,10,_Trial_,End,1682816370505,sonaID,undefined,8,cucumber,critical,D,50,cucumber42.jpg,cucumber60.jpg,low ,memory-momentum10,NULL
1682816519,1583aa05a94024c965017afb85239b88,PennController,32,0,experiment,NULL,PennController,31,_Trial_,Start,1682816370506,sonaID,undefined,29,frog,filler,D,50,frog40.jpg,frog60.jpg,GoalB,memory-momentum10,NULL
1682816519,1583aa05a94024c965017afb85239b88,PennController,32,0,experiment,NULL,PennController,31,_Header_,Start,1682816370506,sonaID,undefined,29,frog,filler,D,50,frog40.jpg,frog60.jpg,GoalB,memory-momentum10,NULL
1682816519,1583aa05a94024c965017afb85239b88,PennController,32,0,experiment,NULL,PennController,31,_Header_,End,1682816370506,sonaID,undefined,29,frog,filler,D,50,frog40.jpg,frog60.jpg,GoalB,memory-momentum10,NULL
1682816519,1583aa05a94024c965017afb85239b88,PennController,32,0,experiment,NULL,Canvas,canvas6,Print,NA,1682816377205,sonaID,undefined,29,frog,filler,D,50,frog40.jpg,frog60.jpg,GoalB,memory-momentum10,NULL
1682816519,1583aa05a94024c965017afb85239b88,PennController,32,0,experiment,NULL,Video,progression,buffer,0.001638,1682816374026,sonaID,undefined,29,frog,filler,D,50,frog40.jpg,frog60.jpg,GoalB,memory-momentum10,NULL
1682816519,1583aa05a94024c965017afb85239b88,PennController,32,0,experiment,NULL,Selector,choice,Selection,option2,1682816378680,sonaID,undefined,29,frog,filler,D,50,frog40.jpg,frog60.jpg,GoalB,memory-momentum10,option2;option1
1682816519,1583aa05a94024c965017afb85239b88,PennController,32,0,experiment,NULL,PennController,31,_Trial_,End,1682816378680,sonaID,undefined,29,frog,filler,D,50,frog40.jpg,frog60.jpg,GoalB,memory-momentum10,NULL
1682816519,1583aa05a94024c965017afb85239b88,PennController,6,0,experiment,NULL,PennController,5,_Trial_,Start,1682816378681,sonaID,undefined,3,clean,critical,D,75,clean65.jpg,clean85.jpg,high,memory-momentum10,NULL
1682816519,1583aa05a94024c965017afb85239b88,PennController,6,0,experiment,NULL,PennController,5,_Header_,Start,1682816378681,sonaID,undefined,3,clean,critical,D,75,clean65.jpg,clean85.jpg,high,memory-momentum10,NULL
1682816519,1583aa05a94024c965017afb85239b88,PennController,6,0,experiment,NULL,PennController,5,_Header_,End,1682816378681,sonaID,undefined,3,clean,critical,D,75,clean65.jpg,clean85.jpg,high,memory-momentum10,NULL
1682816519,1583aa05a94024c965017afb85239b88,PennController,6,0,experiment,NULL,Canvas,canvas6,Print,NA,1682816386383,sonaID,undefined,3,clean,critical,D,75,clean65.jpg,clean85.jpg,high,memory-momentum10,NULL
1682816519,1583aa05a94024c965017afb85239b88,PennController,6,0,experiment,NULL,Video,progression,buffer,0.001271,1682816382199,sonaID,undefined,3,clean,critical,D,75,clean65.jpg,clean85.jpg,high,memory-momentum10,NULL
1682816519,1583aa05a94024c965017afb85239b88,PennController,6,0,experiment,NULL,Selector,choice,Selection,option2,1682816388445,sonaID,undefined,3,clean,critical,D,75,clean65.jpg,clean85.jpg,high,memory-momentum10,option1;option2
1682816519,1583aa05a94024c965017afb85239b88,PennController,6,0,experiment,NULL,PennController,5,_Trial_,End,1682816388446,sonaID,undefined,3,clean,critical,D,75,clean65.jpg,clean85.jpg,high,memory-momentum10,NULL
1682816519,1583aa05a94024c965017afb85239b88,PennController,10,0,experiment,NULL,PennController,9,_Trial_,Start,1682816388446,sonaID,undefined,7,stack,critical,D,25,stack15.jpg,stack35.jpg,high,memory-momentum10,NULL
1682816519,1583aa05a94024c965017afb85239b88,PennController,10,0,experiment,NULL,PennController,9,_Header_,Start,1682816388446,sonaID,undefined,7,stack,critical,D,25,stack15.jpg,stack35.jpg,high,memory-momentum10,NULL
1682816519,1583aa05a94024c965017afb85239b88,PennController,10,0,experiment,NULL,PennController,9,_Header_,End,1682816388446,sonaID,undefined,7,stack,critical,D,25,stack15.jpg,stack35.jpg,high,memory-momentum10,NULL
1682816519,1583aa05a94024c965017afb85239b88,PennController,10,0,experiment,NULL,Canvas,canvas6,Print,NA,1682816394156,sonaID,undefined,7,stack,critical,D,25,stack15.jpg,stack35.jpg,high,memory-momentum10,NULL
1682816519,1583aa05a94024c965017afb85239b88,PennController,10,0,experiment,NULL,Video,progression,buffer,0.001296,1682816391969,sonaID,undefined,7,stack,critical,D,25,stack15.jpg,stack35.jpg,high,memory-momentum10,NULL
1682816519,1583aa05a94024c965017afb85239b88,PennController,10,0,experiment,NULL,Selector,choice,Selection,option2,1682816395955,sonaID,undefined,7,stack,critical,D,25,stack15.jpg,stack35.jpg,high,memory-momentum10,option1;option2
1682816519,1583aa05a94024c965017afb85239b88,PennController,10,0,experiment,NULL,PennController,9,_Trial_,End,1682816395955,sonaID,undefined,7,stack,critical,D,25,stack15.jpg,stack35.jpg,high,memory-momentum10,NULL
1682816519,1583aa05a94024c965017afb85239b88,PennController,14,0,experiment,NULL,PennController,13,_Trial_,Start,1682816395956,sonaID,undefined,11,beads,critical,D,50,beads40.jpg,beads60.jpg,high,memory-momentum10,NULL
1682816519,1583aa05a94024c965017afb85239b88,PennController,14,0,experiment,NULL,PennController,13,_Header_,Start,1682816395956,sonaID,undefined,11,beads,critical,D,50,beads40.jpg,beads60.jpg,high,memory-momentum10,NULL
1682816519,1583aa05a94024c965017afb85239b88,PennController,14,0,experiment,NULL,PennController,13,_Header_,End,1682816395956,sonaID,undefined,11,beads,critical,D,50,beads40.jpg,beads60.jpg,high,memory-momentum10,NULL
1682816519,1583aa05a94024c965017afb85239b88,PennController,14,0,experiment,NULL,Canvas,canvas6,Print,NA,1682816402664,sonaID,undefined,11,beads,critical,D,50,beads40.jpg,beads60.jpg,high,memory-momentum10,NULL
1682816519,1583aa05a94024c965017afb85239b88,PennController,14,0,experiment,NULL,Video,progression,buffer,0.000691,1682816399474,sonaID,undefined,11,beads,critical,D,50,beads40.jpg,beads60.jpg,high,memory-momentum10,NULL
1682816519,1583aa05a94024c965017afb85239b88,PennController,14,0,experiment,NULL,Selector,choice,Selection,option1,1682816404385,sonaID,undefined,11,beads,critical,D,50,beads40.jpg,beads60.jpg,high,memory-momentum10,option2;option1
1682816519,1583aa05a94024c965017afb85239b88,PennController,14,0,experiment,NULL,PennController,13,_Trial_,End,1682816404386,sonaID,undefined,11,beads,critical,D,50,beads40.jpg,beads60.jpg,high,memory-momentum10,NULL
1682816519,1583aa05a94024c965017afb85239b88,PennController,4,0,experiment,NULL,PennController,3,_Trial_,Start,1682816404386,sonaID,undefined,1,vase,critical,D,50,vase10.jpg,vase40.jpg,high,memory-momentum10,NULL
1682816519,1583aa05a94024c965017afb85239b88,PennController,4,0,experiment,NULL,PennController,3,_Header_,Start,1682816404386,sonaID,undefined,1,vase,critical,D,50,vase10.jpg,vase40.jpg,high,memory-momentum10,NULL
1682816519,1583aa05a94024c965017afb85239b88,PennController,4,0,experiment,NULL,PennController,3,_Header_,End,1682816404386,sonaID,undefined,1,vase,critical,D,50,vase10.jpg,vase40.jpg,high,memory-momentum10,NULL
1682816519,1583aa05a94024c965017afb85239b88,PennController,4,0,experiment,NULL,Canvas,canvas6,Print,NA,1682816411092,sonaID,undefined,1,vase,critical,D,50,vase10.jpg,vase40.jpg,high,memory-momentum10,NULL
1682816519,1583aa05a94024c965017afb85239b88,PennController,4,0,experiment,NULL,Video,progression,buffer,0.001623,1682816407907,sonaID,undefined,1,vase,critical,D,50,vase10.jpg,vase40.jpg,high,memory-momentum10,NULL
1682816519,1583aa05a94024c965017afb85239b88,PennController,4,0,experiment,NULL,Selector,choice,Selection,option2,1682816412234,sonaID,undefined,1,vase,critical,D,50,vase10.jpg,vase40.jpg,high,memory-momentum10,option1;option2
1682816519,1583aa05a94024c965017afb85239b88,PennController,4,0,experiment,NULL,PennController,3,_Trial_,End,1682816412235,sonaID,undefined,1,vase,critical,D,50,vase10.jpg,vase40.jpg,high,memory-momentum10,NULL
1682816519,1583aa05a94024c965017afb85239b88,PennController,18,0,experiment,NULL,PennController,17,_Trial_,Start,1682816412236,sonaID,undefined,15,zip,critical,D,75,zip65.jpg,zip85.jpg,high,memory-momentum10,NULL
1682816519,1583aa05a94024c965017afb85239b88,PennController,18,0,experiment,NULL,PennController,17,_Header_,Start,1682816412236,sonaID,undefined,15,zip,critical,D,75,zip65.jpg,zip85.jpg,high,memory-momentum10,NULL
1682816519,1583aa05a94024c965017afb85239b88,PennController,18,0,experiment,NULL,PennController,17,_Header_,End,1682816412236,sonaID,undefined,15,zip,critical,D,75,zip65.jpg,zip85.jpg,high,memory-momentum10,NULL
1682816519,1583aa05a94024c965017afb85239b88,PennController,18,0,experiment,NULL,Canvas,canvas6,Print,NA,1682816419938,sonaID,undefined,15,zip,critical,D,75,zip65.jpg,zip85.jpg,high,memory-momentum10,NULL
1682816519,1583aa05a94024c965017afb85239b88,PennController,18,0,experiment,NULL,Video,progression,buffer,0.002242,1682816415753,sonaID,undefined,15,zip,critical,D,75,zip65.jpg,zip85.jpg,high,memory-momentum10,NULL
1682816519,1583aa05a94024c965017afb85239b88,PennController,18,0,experiment,NULL,Selector,choice,Selection,option2,1682816422036,sonaID,undefined,15,zip,critical,D,75,zip65.jpg,zip85.jpg,high,memory-momentum10,option1;option2
1682816519,1583aa05a94024c965017afb85239b88,PennController,18,0,experiment,NULL,PennController,17,_Trial_,End,1682816422037,sonaID,undefined,15,zip,critical,D,75,zip65.jpg,zip85.jpg,high,memory-momentum10,NULL
1682816519,1583aa05a94024c965017afb85239b88,PennController,17,0,experiment,NULL,PennController,16,_Trial_,Start,1682816422038,sonaID,undefined,14,cover,critical,D,50,cover42.jpg,cover60.jpg,low ,memory-momentum10,NULL
1682816519,1583aa05a94024c965017afb85239b88,PennController,17,0,experiment,NULL,PennController,16,_Header_,Start,1682816422038,sonaID,undefined,14,cover,critical,D,50,cover42.jpg,cover60.jpg,low ,memory-momentum10,NULL
1682816519,1583aa05a94024c965017afb85239b88,PennController,17,0,experiment,NULL,PennController,16,_Header_,End,1682816422038,sonaID,undefined,14,cover,critical,D,50,cover42.jpg,cover60.jpg,low ,memory-momentum10,NULL
1682816519,1583aa05a94024c965017afb85239b88,PennController,17,0,experiment,NULL,Canvas,canvas6,Print,NA,1682816430159,sonaID,undefined,14,cover,critical,D,50,cover42.jpg,cover60.jpg,low ,memory-momentum10,NULL
1682816519,1583aa05a94024c965017afb85239b88,PennController,17,0,experiment,NULL,Video,progression,buffer,0.001451,1682816425557,sonaID,undefined,14,cover,critical,D,50,cover42.jpg,cover60.jpg,low ,memory-momentum10,NULL
1682816519,1583aa05a94024c965017afb85239b88,PennController,17,0,experiment,NULL,Selector,choice,Selection,option1,1682816432569,sonaID,undefined,14,cover,critical,D,50,cover42.jpg,cover60.jpg,low ,memory-momentum10,option1;option2
1682816519,1583aa05a94024c965017afb85239b88,PennController,17,0,experiment,NULL,PennController,16,_Trial_,End,1682816432569,sonaID,undefined,14,cover,critical,D,50,cover42.jpg,cover60.jpg,low ,memory-momentum10,NULL
1682816519,1583aa05a94024c965017afb85239b88,PennController,28,0,experiment,NULL,PennController,27,_Trial_,Start,1682816432570,sonaID,undefined,25,house,filler,D,25,house15.jpg,house35.jpg,GoalB,memory-momentum10,NULL
1682816519,1583aa05a94024c965017afb85239b88,PennController,28,0,experiment,NULL,PennController,27,_Header_,Start,1682816432570,sonaID,undefined,25,house,filler,D,25,house15.jpg,house35.jpg,GoalB,memory-momentum10,NULL
1682816519,1583aa05a94024c965017afb85239b88,PennController,28,0,experiment,NULL,PennController,27,_Header_,End,1682816432570,sonaID,undefined,25,house,filler,D,25,house15.jpg,house35.jpg,GoalB,memory-momentum10,NULL
1682816519,1583aa05a94024c965017afb85239b88,PennController,28,0,experiment,NULL,Canvas,canvas6,Print,NA,1682816438284,sonaID,undefined,25,house,filler,D,25,house15.jpg,house35.jpg,GoalB,memory-momentum10,NULL
1682816519,1583aa05a94024c965017afb85239b88,PennController,28,0,experiment,NULL,Video,progression,buffer,0.003023,1682816436090,sonaID,undefined,25,house,filler,D,25,house15.jpg,house35.jpg,GoalB,memory-momentum10,NULL
1682816519,1583aa05a94024c965017afb85239b88,PennController,28,0,experiment,NULL,Selector,choice,Selection,option2,1682816439418,sonaID,undefined,25,house,filler,D,25,house15.jpg,house35.jpg,GoalB,memory-momentum10,option2;option1
1682816519,1583aa05a94024c965017afb85239b88,PennController,28,0,experiment,NULL,PennController,27,_Trial_,End,1682816439418,sonaID,undefined,25,house,filler,D,25,house15.jpg,house35.jpg,GoalB,memory-momentum10,NULL
1682816519,1583aa05a94024c965017afb85239b88,PennController,20,0,experiment,NULL,PennController,19,_Trial_,Start,1682816439419,sonaID,undefined,17,roll,critical,D,50,roll40.jpg,roll60.jpg,high,memory-momentum10,NULL
1682816519,1583aa05a94024c965017afb85239b88,PennController,20,0,experiment,NULL,PennController,19,_Header_,Start,1682816439419,sonaID,undefined,17,roll,critical,D,50,roll40.jpg,roll60.jpg,high,memory-momentum10,NULL
1682816519,1583aa05a94024c965017afb85239b88,PennController,20,0,experiment,NULL,PennController,19,_Header_,End,1682816439419,sonaID,undefined,17,roll,critical,D,50,roll40.jpg,roll60.jpg,high,memory-momentum10,NULL
1682816519,1583aa05a94024c965017afb85239b88,PennController,20,0,experiment,NULL,Canvas,canvas6,Print,NA,1682816446154,sonaID,undefined,17,roll,critical,D,50,roll40.jpg,roll60.jpg,high,memory-momentum10,NULL
1682816519,1583aa05a94024c965017afb85239b88,PennController,20,0,experiment,NULL,Video,progression,buffer,0,1682816442935,sonaID,undefined,17,roll,critical,D,50,roll40.jpg,roll60.jpg,high,memory-momentum10,NULL
1682816519,1583aa05a94024c965017afb85239b88,PennController,20,0,experiment,NULL,Selector,choice,Selection,option2,1682816447702,sonaID,undefined,17,roll,critical,D,50,roll40.jpg,roll60.jpg,high,memory-momentum10,option2;option1
1682816519,1583aa05a94024c965017afb85239b88,PennController,20,0,experiment,NULL,PennController,19,_Trial_,End,1682816447702,sonaID,undefined,17,roll,critical,D,50,roll40.jpg,roll60.jpg,high,memory-momentum10,NULL
1682816519,1583aa05a94024c965017afb85239b88,PennController,24,0,experiment,NULL,PennController,23,_Trial_,Start,1682816447703,sonaID,undefined,21,visit,filler,D,75,visit65.jpg,visit85.jpg,GoalB,memory-momentum10,NULL
1682816519,1583aa05a94024c965017afb85239b88,PennController,24,0,experiment,NULL,PennController,23,_Header_,Start,1682816447703,sonaID,undefined,21,visit,filler,D,75,visit65.jpg,visit85.jpg,GoalB,memory-momentum10,NULL
1682816519,1583aa05a94024c965017afb85239b88,PennController,24,0,experiment,NULL,PennController,23,_Header_,End,1682816447703,sonaID,undefined,21,visit,filler,D,75,visit65.jpg,visit85.jpg,GoalB,memory-momentum10,NULL
1682816519,1583aa05a94024c965017afb85239b88,PennController,24,0,experiment,NULL,Canvas,canvas6,Print,NA,1682816455407,sonaID,undefined,21,visit,filler,D,75,visit65.jpg,visit85.jpg,GoalB,memory-momentum10,NULL
1682816519,1583aa05a94024c965017afb85239b88,PennController,24,0,experiment,NULL,Video,progression,buffer,0.003218,1682816451221,sonaID,undefined,21,visit,filler,D,75,visit65.jpg,visit85.jpg,GoalB,memory-momentum10,NULL
1682816519,1583aa05a94024c965017afb85239b88,PennController,24,0,experiment,NULL,Selector,choice,Selection,option2,1682816457286,sonaID,undefined,21,visit,filler,D,75,visit65.jpg,visit85.jpg,GoalB,memory-momentum10,option2;option1
1682816519,1583aa05a94024c965017afb85239b88,PennController,24,0,experiment,NULL,PennController,23,_Trial_,End,1682816457287,sonaID,undefined,21,visit,filler,D,75,visit65.jpg,visit85.jpg,GoalB,memory-momentum10,NULL
1682816519,1583aa05a94024c965017afb85239b88,PennController,7,0,experiment,NULL,PennController,6,_Trial_,Start,1682816457287,sonaID,undefined,4,candy,critical,D,25,candy15.jpg,candy35.jpg,low ,memory-momentum10,NULL
1682816519,1583aa05a94024c965017afb85239b88,PennController,7,0,experiment,NULL,PennController,6,_Header_,Start,1682816457287,sonaID,undefined,4,candy,critical,D,25,candy15.jpg,candy35.jpg,low ,memory-momentum10,NULL
1682816519,1583aa05a94024c965017afb85239b88,PennController,7,0,experiment,NULL,PennController,6,_Header_,End,1682816457287,sonaID,undefined,4,candy,critical,D,25,candy15.jpg,candy35.jpg,low ,memory-momentum10,NULL
1682816519,1583aa05a94024c965017afb85239b88,PennController,7,0,experiment,NULL,Canvas,canvas6,Print,NA,1682816462999,sonaID,undefined,4,candy,critical,D,25,candy15.jpg,candy35.jpg,low ,memory-momentum10,NULL
1682816519,1583aa05a94024c965017afb85239b88,PennController,7,0,experiment,NULL,Video,progression,buffer,0.000926,1682816460806,sonaID,undefined,4,candy,critical,D,25,candy15.jpg,candy35.jpg,low ,memory-momentum10,NULL
1682816519,1583aa05a94024c965017afb85239b88,PennController,7,0,experiment,NULL,Selector,choice,Selection,option1,1682816465613,sonaID,undefined,4,candy,critical,D,25,candy15.jpg,candy35.jpg,low ,memory-momentum10,option1;option2
1682816519,1583aa05a94024c965017afb85239b88,PennController,7,0,experiment,NULL,PennController,6,_Trial_,End,1682816465614,sonaID,undefined,4,candy,critical,D,25,candy15.jpg,candy35.jpg,low ,memory-momentum10,NULL
1682816519,1583aa05a94024c965017afb85239b88,PennController,25,0,experiment,NULL,PennController,24,_Trial_,Start,1682816465614,sonaID,undefined,22,wall,filler,D,25,wall15.jpg,wall35.jpg,GoalA,memory-momentum10,NULL
1682816519,1583aa05a94024c965017afb85239b88,PennController,25,0,experiment,NULL,PennController,24,_Header_,Start,1682816465614,sonaID,undefined,22,wall,filler,D,25,wall15.jpg,wall35.jpg,GoalA,memory-momentum10,NULL
1682816519,1583aa05a94024c965017afb85239b88,PennController,25,0,experiment,NULL,PennController,24,_Header_,End,1682816465614,sonaID,undefined,22,wall,filler,D,25,wall15.jpg,wall35.jpg,GoalA,memory-momentum10,NULL
1682816519,1583aa05a94024c965017afb85239b88,PennController,25,0,experiment,NULL,Canvas,canvas6,Print,NA,1682816471317,sonaID,undefined,22,wall,filler,D,25,wall15.jpg,wall35.jpg,GoalA,memory-momentum10,NULL
1682816519,1583aa05a94024c965017afb85239b88,PennController,25,0,experiment,NULL,Video,progression,buffer,0.000979,1682816469129,sonaID,undefined,22,wall,filler,D,25,wall15.jpg,wall35.jpg,GoalA,memory-momentum10,NULL
1682816519,1583aa05a94024c965017afb85239b88,PennController,25,0,experiment,NULL,Selector,choice,Selection,option2,1682816473132,sonaID,undefined,22,wall,filler,D,25,wall15.jpg,wall35.jpg,GoalA,memory-momentum10,option1;option2
1682816519,1583aa05a94024c965017afb85239b88,PennController,25,0,experiment,NULL,PennController,24,_Trial_,End,1682816473133,sonaID,undefined,22,wall,filler,D,25,wall15.jpg,wall35.jpg,GoalA,memory-momentum10,NULL
1682816519,1583aa05a94024c965017afb85239b88,PennController,9,0,experiment,NULL,PennController,8,_Trial_,Start,1682816473134,sonaID,undefined,6,flower,critical,D,75,flower65.jpg,flower85.jpg,low ,memory-momentum10,NULL
1682816519,1583aa05a94024c965017afb85239b88,PennController,9,0,experiment,NULL,PennController,8,_Header_,Start,1682816473134,sonaID,undefined,6,flower,critical,D,75,flower65.jpg,flower85.jpg,low ,memory-momentum10,NULL
1682816519,1583aa05a94024c965017afb85239b88,PennController,9,0,experiment,NULL,PennController,8,_Header_,End,1682816473134,sonaID,undefined,6,flower,critical,D,75,flower65.jpg,flower85.jpg,low ,memory-momentum10,NULL
1682816519,1583aa05a94024c965017afb85239b88,PennController,9,0,experiment,NULL,Canvas,canvas6,Print,NA,1682816480841,sonaID,undefined,6,flower,critical,D,75,flower65.jpg,flower85.jpg,low ,memory-momentum10,NULL
1682816519,1583aa05a94024c965017afb85239b88,PennController,9,0,experiment,NULL,Video,progression,buffer,0.003072,1682816476650,sonaID,undefined,6,flower,critical,D,75,flower65.jpg,flower85.jpg,low ,memory-momentum10,NULL
1682816519,1583aa05a94024c965017afb85239b88,PennController,9,0,experiment,NULL,Selector,choice,Selection,option2,1682816481868,sonaID,undefined,6,flower,critical,D,75,flower65.jpg,flower85.jpg,low ,memory-momentum10,option1;option2
1682816519,1583aa05a94024c965017afb85239b88,PennController,9,0,experiment,NULL,PennController,8,_Trial_,End,1682816481869,sonaID,undefined,6,flower,critical,D,75,flower65.jpg,flower85.jpg,low ,memory-momentum10,NULL
1682816519,1583aa05a94024c965017afb85239b88,PennController,19,0,experiment,NULL,PennController,18,_Trial_,Start,1682816481870,sonaID,undefined,16,blinds,critical,D,25,blinds15.jpg,blinds33.jpg,low ,memory-momentum10,NULL
1682816519,1583aa05a94024c965017afb85239b88,PennController,19,0,experiment,NULL,PennController,18,_Header_,Start,1682816481870,sonaID,undefined,16,blinds,critical,D,25,blinds15.jpg,blinds33.jpg,low ,memory-momentum10,NULL
1682816519,1583aa05a94024c965017afb85239b88,PennController,19,0,experiment,NULL,PennController,18,_Header_,End,1682816481870,sonaID,undefined,16,blinds,critical,D,25,blinds15.jpg,blinds33.jpg,low ,memory-momentum10,NULL
1682816519,1583aa05a94024c965017afb85239b88,PennController,19,0,experiment,NULL,Canvas,canvas6,Print,NA,1682816488175,sonaID,undefined,16,blinds,critical,D,25,blinds15.jpg,blinds33.jpg,low ,memory-momentum10,NULL
1682816519,1583aa05a94024c965017afb85239b88,PennController,19,0,experiment,NULL,Video,progression,buffer,0.002174,1682816485390,sonaID,undefined,16,blinds,critical,D,25,blinds15.jpg,blinds33.jpg,low ,memory-momentum10,NULL
1682816519,1583aa05a94024c965017afb85239b88,PennController,19,0,experiment,NULL,Selector,choice,Selection,option2,1682816489468,sonaID,undefined,16,blinds,critical,D,25,blinds15.jpg,blinds33.jpg,low ,memory-momentum10,option1;option2
1682816519,1583aa05a94024c965017afb85239b88,PennController,19,0,experiment,NULL,PennController,18,_Trial_,End,1682816489469,sonaID,undefined,16,blinds,critical,D,25,blinds15.jpg,blinds33.jpg,low ,memory-momentum10,NULL
1682816519,1583aa05a94024c965017afb85239b88,PennController,22,0,experiment,NULL,PennController,21,_Trial_,Start,1682816489469,sonaID,undefined,19,cup,filler,D,25,cup15.jpg,cup35.jpg,GoalB,memory-momentum10,NULL
1682816519,1583aa05a94024c965017afb85239b88,PennController,22,0,experiment,NULL,PennController,21,_Header_,Start,1682816489469,sonaID,undefined,19,cup,filler,D,25,cup15.jpg,cup35.jpg,GoalB,memory-momentum10,NULL
1682816519,1583aa05a94024c965017afb85239b88,PennController,22,0,experiment,NULL,PennController,21,_Header_,End,1682816489469,sonaID,undefined,19,cup,filler,D,25,cup15.jpg,cup35.jpg,GoalB,memory-momentum10,NULL
1682816519,1583aa05a94024c965017afb85239b88,PennController,22,0,experiment,NULL,Canvas,canvas6,Print,NA,1682816495174,sonaID,undefined,19,cup,filler,D,25,cup15.jpg,cup35.jpg,GoalB,memory-momentum10,NULL
1682816519,1583aa05a94024c965017afb85239b88,PennController,22,0,experiment,NULL,Video,progression,buffer,0.001799,1682816492987,sonaID,undefined,19,cup,filler,D,25,cup15.jpg,cup35.jpg,GoalB,memory-momentum10,NULL
1682816519,1583aa05a94024c965017afb85239b88,PennController,22,0,experiment,NULL,Selector,choice,Selection,option1,1682816496845,sonaID,undefined,19,cup,filler,D,25,cup15.jpg,cup35.jpg,GoalB,memory-momentum10,option1;option2
1682816519,1583aa05a94024c965017afb85239b88,PennController,22,0,experiment,NULL,PennController,21,_Trial_,End,1682816496845,sonaID,undefined,19,cup,filler,D,25,cup15.jpg,cup35.jpg,GoalB,memory-momentum10,NULL
1682816519,1583aa05a94024c965017afb85239b88,PennController,23,0,experiment,NULL,PennController,22,_Trial_,Start,1682816496846,sonaID,undefined,20,cat,filler,D,50,cat40.jpg,cat60.jpg,GoalA,memory-momentum10,NULL
1682816519,1583aa05a94024c965017afb85239b88,PennController,23,0,experiment,NULL,PennController,22,_Header_,Start,1682816496846,sonaID,undefined,20,cat,filler,D,50,cat40.jpg,cat60.jpg,GoalA,memory-momentum10,NULL
1682816519,1583aa05a94024c965017afb85239b88,PennController,23,0,experiment,NULL,PennController,22,_Header_,End,1682816496846,sonaID,undefined,20,cat,filler,D,50,cat40.jpg,cat60.jpg,GoalA,memory-momentum10,NULL
1682816519,1583aa05a94024c965017afb85239b88,PennController,23,0,experiment,NULL,Canvas,canvas6,Print,NA,1682816503547,sonaID,undefined,20,cat,filler,D,50,cat40.jpg,cat60.jpg,GoalA,memory-momentum10,NULL
1682816519,1583aa05a94024c965017afb85239b88,PennController,23,0,experiment,NULL,Video,progression,buffer,0.00119,1682816500361,sonaID,undefined,20,cat,filler,D,50,cat40.jpg,cat60.jpg,GoalA,memory-momentum10,NULL
1682816519,1583aa05a94024c965017afb85239b88,PennController,23,0,experiment,NULL,Selector,choice,Selection,option2,1682816504735,sonaID,undefined,20,cat,filler,D,50,cat40.jpg,cat60.jpg,GoalA,memory-momentum10,option2;option1
1682816519,1583aa05a94024c965017afb85239b88,PennController,23,0,experiment,NULL,PennController,22,_Trial_,End,1682816504736,sonaID,undefined,20,cat,filler,D,50,cat40.jpg,cat60.jpg,GoalA,memory-momentum10,NULL
1682816519,1583aa05a94024c965017afb85239b88,PennController,8,0,experiment,NULL,PennController,7,_Trial_,Start,1682816504737,sonaID,undefined,5,book,critical,D,50,book40.jpg,book60.jpg,high,memory-momentum10,NULL
1682816519,1583aa05a94024c965017afb85239b88,PennController,8,0,experiment,NULL,PennController,7,_Header_,Start,1682816504737,sonaID,undefined,5,book,critical,D,50,book40.jpg,book60.jpg,high,memory-momentum10,NULL
1682816519,1583aa05a94024c965017afb85239b88,PennController,8,0,experiment,NULL,PennController,7,_Header_,End,1682816504737,sonaID,undefined,5,book,critical,D,50,book40.jpg,book60.jpg,high,memory-momentum10,NULL
1682816519,1583aa05a94024c965017afb85239b88,PennController,8,0,experiment,NULL,Canvas,canvas6,Print,NA,1682816511442,sonaID,undefined,5,book,critical,D,50,book40.jpg,book60.jpg,high,memory-momentum10,NULL
1682816519,1583aa05a94024c965017afb85239b88,PennController,8,0,experiment,NULL,Video,progression,buffer,0.001767,1682816508258,sonaID,undefined,5,book,critical,D,50,book40.jpg,book60.jpg,high,memory-momentum10,NULL
1682816519,1583aa05a94024c965017afb85239b88,PennController,8,0,experiment,NULL,Selector,choice,Selection,option2,1682816512736,sonaID,undefined,5,book,critical,D,50,book40.jpg,book60.jpg,high,memory-momentum10,option2;option1
1682816519,1583aa05a94024c965017afb85239b88,PennController,8,0,experiment,NULL,PennController,7,_Trial_,End,1682816512736,sonaID,undefined,5,book,critical,D,50,book40.jpg,book60.jpg,high,memory-momentum10,NULL
1682816519,1583aa05a94024c965017afb85239b88,PennController,16,0,experiment,NULL,PennController,15,_Trial_,Start,1682816512737,sonaID,undefined,13,mix,critical,D,25,mix15.jpg,mix35.jpg,high,memory-momentum10,NULL
1682816519,1583aa05a94024c965017afb85239b88,PennController,16,0,experiment,NULL,PennController,15,_Header_,Start,1682816512737,sonaID,undefined,13,mix,critical,D,25,mix15.jpg,mix35.jpg,high,memory-momentum10,NULL
1682816519,1583aa05a94024c965017afb85239b88,PennController,16,0,experiment,NULL,PennController,15,_Header_,End,1682816512737,sonaID,undefined,13,mix,critical,D,25,mix15.jpg,mix35.jpg,high,memory-momentum10,NULL
1682816519,1583aa05a94024c965017afb85239b88,PennController,16,0,experiment,NULL,Canvas,canvas6,Print,NA,1682816518448,sonaID,undefined,13,mix,critical,D,25,mix15.jpg,mix35.jpg,high,memory-momentum10,NULL
1682816519,1583aa05a94024c965017afb85239b88,PennController,16,0,experiment,NULL,Video,progression,buffer,0.000707,1682816516253,sonaID,undefined,13,mix,critical,D,25,mix15.jpg,mix35.jpg,high,memory-momentum10,NULL
1682816519,1583aa05a94024c965017afb85239b88,PennController,16,0,experiment,NULL,Selector,choice,Selection,option2,1682816519552,sonaID,undefined,13,mix,critical,D,25,mix15.jpg,mix35.jpg,high,memory-momentum10,option2;option1
1682816519,1583aa05a94024c965017afb85239b88,PennController,16,0,experiment,NULL,PennController,15,_Trial_,End,1682816519554,sonaID,undefined,13,mix,critical,D,25,mix15.jpg,mix35.jpg,high,memory-momentum10,NULL
