#
# Results on Friday April 28 2023 19:42:15 UTC
# USER AGENT: Mozilla/5.0 (Macintosh; Intel Mac OS X 10_15_7) AppleWebKit/605.1.15 (KHTML, like Gecko) Version/16.3 Safari/605.1.15
# Design number was non-random = 25
#
# Columns below this comment are as follows:
# 1. Results reception time.
# 2. MD5 hash of participant's IP address.
# 3. Controller name.
# 4. Order number of item.
# 5. Inner element number.
# 6. Label.
# 7. Latin Square Group.
# 8. PennElementType.
# 9. PennElementName.
# 10. Parameter.
# 11. Value.
# 12. EventTime.
# 13. sonaID.
# 14. Comments.
1682710935,fad612e07bbfd98425571d8380668bcb,PennController,2,0,consent,NULL,PennController,0,_Header_,Start,1682710579267,sonaID,NULL
1682710935,fad612e07bbfd98425571d8380668bcb,PennController,2,0,consent,NULL,PennController,0,_Trial_,Start,1682710579267,sonaID,NULL
1682710935,fad612e07bbfd98425571d8380668bcb,PennController,2,0,consent,NULL,PennController,0,_Header_,End,1682710579268,sonaID,NULL
1682710935,fad612e07bbfd98425571d8380668bcb,PennController,2,0,consent,NULL,PennController,0,_Trial_,End,1682710581119,sonaID,NULL
# Columns below this comment are as follows:
# 14. ID.
# 15. Comments.
1682710935,fad612e07bbfd98425571d8380668bcb,PennController,3,0,intro,NULL,PennController,1,_Header_,End,1682710581121,sonaID,undefined,NULL
1682710935,fad612e07bbfd98425571d8380668bcb,PennController,3,0,intro,NULL,PennController,1,_Header_,Start,1682710581121,sonaID,undefined,NULL
1682710935,fad612e07bbfd98425571d8380668bcb,PennController,3,0,intro,NULL,PennController,1,_Trial_,Start,1682710581121,sonaID,undefined,NULL
1682710935,fad612e07bbfd98425571d8380668bcb,PennController,3,0,intro,NULL,TextInput,inputID,First,,1682710586937,sonaID,undefined,7
1682710935,fad612e07bbfd98425571d8380668bcb,PennController,3,0,intro,NULL,TextInput,inputID,EnterReturn,71157835,1682710592363,sonaID,undefined,NULL
1682710935,fad612e07bbfd98425571d8380668bcb,PennController,3,0,intro,NULL,TextInput,inputID,Final,71157835,1682710592367,sonaID,undefined,NULL
1682710935,fad612e07bbfd98425571d8380668bcb,PennController,3,0,intro,NULL,PennController,1,_Trial_,End,1682710592368,sonaID,undefined,NULL
# Columns below this comment are as follows:
# 15. item_number.
# 16. item.
# 17. type.
# 18. Group.
# 19. prog.
# 20. prev_image.
# 21. next_image.
# 22. height.
# 23. memory-momentum10.
# 24. Comments.
1682710935,fad612e07bbfd98425571d8380668bcb,PennController,25,0,experiment,NULL,PennController,24,_Header_,End,1682710592369,sonaID,undefined,22,wall,filler,B,50,wall40.jpg,wall60.jpg,GoalA,memory-momentum10,NULL
1682710935,fad612e07bbfd98425571d8380668bcb,PennController,25,0,experiment,NULL,PennController,24,_Header_,Start,1682710592369,sonaID,undefined,22,wall,filler,B,50,wall40.jpg,wall60.jpg,GoalA,memory-momentum10,NULL
1682710935,fad612e07bbfd98425571d8380668bcb,PennController,25,0,experiment,NULL,PennController,24,_Trial_,Start,1682710592369,sonaID,undefined,22,wall,filler,B,50,wall40.jpg,wall60.jpg,GoalA,memory-momentum10,NULL
1682710935,fad612e07bbfd98425571d8380668bcb,PennController,25,0,experiment,NULL,Canvas,canvas6,Print,NA,1682710599127,sonaID,undefined,22,wall,filler,B,50,wall40.jpg,wall60.jpg,GoalA,memory-momentum10,NULL
1682710935,fad612e07bbfd98425571d8380668bcb,PennController,25,0,experiment,NULL,Selector,choice,Selection,option2,1682710603150,sonaID,undefined,22,wall,filler,B,50,wall40.jpg,wall60.jpg,GoalA,memory-momentum10,option2;option1
1682710935,fad612e07bbfd98425571d8380668bcb,PennController,25,0,experiment,NULL,PennController,24,_Trial_,End,1682710603153,sonaID,undefined,22,wall,filler,B,50,wall40.jpg,wall60.jpg,GoalA,memory-momentum10,NULL
1682710935,fad612e07bbfd98425571d8380668bcb,PennController,15,0,experiment,NULL,PennController,14,_Header_,End,1682710603155,sonaID,undefined,12,erase,critical,B,25,erase15.jpg,erase33.jpg,high,memory-momentum10,NULL
1682710935,fad612e07bbfd98425571d8380668bcb,PennController,15,0,experiment,NULL,PennController,14,_Header_,Start,1682710603155,sonaID,undefined,12,erase,critical,B,25,erase15.jpg,erase33.jpg,high,memory-momentum10,NULL
1682710935,fad612e07bbfd98425571d8380668bcb,PennController,15,0,experiment,NULL,PennController,14,_Trial_,Start,1682710603155,sonaID,undefined,12,erase,critical,B,25,erase15.jpg,erase33.jpg,high,memory-momentum10,NULL
1682710935,fad612e07bbfd98425571d8380668bcb,PennController,15,0,experiment,NULL,Canvas,canvas6,Print,NA,1682710609497,sonaID,undefined,12,erase,critical,B,25,erase15.jpg,erase33.jpg,high,memory-momentum10,NULL
1682710935,fad612e07bbfd98425571d8380668bcb,PennController,15,0,experiment,NULL,Selector,choice,Selection,option2,1682710610647,sonaID,undefined,12,erase,critical,B,25,erase15.jpg,erase33.jpg,high,memory-momentum10,option2;option1
1682710935,fad612e07bbfd98425571d8380668bcb,PennController,15,0,experiment,NULL,PennController,14,_Trial_,End,1682710610650,sonaID,undefined,12,erase,critical,B,25,erase15.jpg,erase33.jpg,high,memory-momentum10,NULL
1682710935,fad612e07bbfd98425571d8380668bcb,PennController,27,0,experiment,NULL,PennController,26,_Header_,End,1682710610652,sonaID,undefined,24,match,filler,B,25,match15.jpg,match35.jpg,GoalA,memory-momentum10,NULL
1682710935,fad612e07bbfd98425571d8380668bcb,PennController,27,0,experiment,NULL,PennController,26,_Header_,Start,1682710610652,sonaID,undefined,24,match,filler,B,25,match15.jpg,match35.jpg,GoalA,memory-momentum10,NULL
1682710935,fad612e07bbfd98425571d8380668bcb,PennController,27,0,experiment,NULL,PennController,26,_Trial_,Start,1682710610652,sonaID,undefined,24,match,filler,B,25,match15.jpg,match35.jpg,GoalA,memory-momentum10,NULL
1682710935,fad612e07bbfd98425571d8380668bcb,PennController,27,0,experiment,NULL,Canvas,canvas6,Print,NA,1682710616396,sonaID,undefined,24,match,filler,B,25,match15.jpg,match35.jpg,GoalA,memory-momentum10,NULL
1682710935,fad612e07bbfd98425571d8380668bcb,PennController,27,0,experiment,NULL,Selector,choice,Selection,option1,1682710619280,sonaID,undefined,24,match,filler,B,25,match15.jpg,match35.jpg,GoalA,memory-momentum10,option1;option2
1682710935,fad612e07bbfd98425571d8380668bcb,PennController,27,0,experiment,NULL,PennController,26,_Trial_,End,1682710619282,sonaID,undefined,24,match,filler,B,25,match15.jpg,match35.jpg,GoalA,memory-momentum10,NULL
1682710935,fad612e07bbfd98425571d8380668bcb,PennController,7,0,experiment,NULL,PennController,6,_Header_,End,1682710619285,sonaID,undefined,4,candy,critical,B,50,candy40.jpg,candy60.jpg,high,memory-momentum10,NULL
1682710935,fad612e07bbfd98425571d8380668bcb,PennController,7,0,experiment,NULL,PennController,6,_Header_,Start,1682710619285,sonaID,undefined,4,candy,critical,B,50,candy40.jpg,candy60.jpg,high,memory-momentum10,NULL
1682710935,fad612e07bbfd98425571d8380668bcb,PennController,7,0,experiment,NULL,PennController,6,_Trial_,Start,1682710619285,sonaID,undefined,4,candy,critical,B,50,candy40.jpg,candy60.jpg,high,memory-momentum10,NULL
1682710935,fad612e07bbfd98425571d8380668bcb,PennController,7,0,experiment,NULL,Canvas,canvas6,Print,NA,1682710626030,sonaID,undefined,4,candy,critical,B,50,candy40.jpg,candy60.jpg,high,memory-momentum10,NULL
1682710935,fad612e07bbfd98425571d8380668bcb,PennController,7,0,experiment,NULL,Selector,choice,Selection,option1,1682710627228,sonaID,undefined,4,candy,critical,B,50,candy40.jpg,candy60.jpg,high,memory-momentum10,option1;option2
1682710935,fad612e07bbfd98425571d8380668bcb,PennController,7,0,experiment,NULL,PennController,6,_Trial_,End,1682710627231,sonaID,undefined,4,candy,critical,B,50,candy40.jpg,candy60.jpg,high,memory-momentum10,NULL
1682710935,fad612e07bbfd98425571d8380668bcb,PennController,32,0,experiment,NULL,PennController,31,_Header_,End,1682710627234,sonaID,undefined,29,frog,filler,B,75,frog65.jpg,frog85.jpg,GoalB,memory-momentum10,NULL
1682710935,fad612e07bbfd98425571d8380668bcb,PennController,32,0,experiment,NULL,PennController,31,_Header_,Start,1682710627234,sonaID,undefined,29,frog,filler,B,75,frog65.jpg,frog85.jpg,GoalB,memory-momentum10,NULL
1682710935,fad612e07bbfd98425571d8380668bcb,PennController,32,0,experiment,NULL,PennController,31,_Trial_,Start,1682710627234,sonaID,undefined,29,frog,filler,B,75,frog65.jpg,frog85.jpg,GoalB,memory-momentum10,NULL
1682710935,fad612e07bbfd98425571d8380668bcb,PennController,32,0,experiment,NULL,Canvas,canvas6,Print,NA,1682710634978,sonaID,undefined,29,frog,filler,B,75,frog65.jpg,frog85.jpg,GoalB,memory-momentum10,NULL
1682710935,fad612e07bbfd98425571d8380668bcb,PennController,32,0,experiment,NULL,Selector,choice,Selection,option2,1682710635745,sonaID,undefined,29,frog,filler,B,75,frog65.jpg,frog85.jpg,GoalB,memory-momentum10,option1;option2
1682710935,fad612e07bbfd98425571d8380668bcb,PennController,32,0,experiment,NULL,PennController,31,_Trial_,End,1682710635747,sonaID,undefined,29,frog,filler,B,75,frog65.jpg,frog85.jpg,GoalB,memory-momentum10,NULL
1682710935,fad612e07bbfd98425571d8380668bcb,PennController,14,0,experiment,NULL,PennController,13,_Header_,End,1682710635751,sonaID,undefined,11,beads,critical,B,75,beads65.jpg,beads85.jpg,low ,memory-momentum10,NULL
1682710935,fad612e07bbfd98425571d8380668bcb,PennController,14,0,experiment,NULL,PennController,13,_Header_,Start,1682710635751,sonaID,undefined,11,beads,critical,B,75,beads65.jpg,beads85.jpg,low ,memory-momentum10,NULL
1682710935,fad612e07bbfd98425571d8380668bcb,PennController,14,0,experiment,NULL,PennController,13,_Trial_,Start,1682710635751,sonaID,undefined,11,beads,critical,B,75,beads65.jpg,beads85.jpg,low ,memory-momentum10,NULL
1682710935,fad612e07bbfd98425571d8380668bcb,PennController,14,0,experiment,NULL,Canvas,canvas6,Print,NA,1682710643505,sonaID,undefined,11,beads,critical,B,75,beads65.jpg,beads85.jpg,low ,memory-momentum10,NULL
1682710935,fad612e07bbfd98425571d8380668bcb,PennController,14,0,experiment,NULL,Selector,choice,Selection,option1,1682710644623,sonaID,undefined,11,beads,critical,B,75,beads65.jpg,beads85.jpg,low ,memory-momentum10,option2;option1
1682710935,fad612e07bbfd98425571d8380668bcb,PennController,14,0,experiment,NULL,PennController,13,_Trial_,End,1682710644625,sonaID,undefined,11,beads,critical,B,75,beads65.jpg,beads85.jpg,low ,memory-momentum10,NULL
1682710935,fad612e07bbfd98425571d8380668bcb,PennController,4,0,experiment,NULL,PennController,3,_Header_,End,1682710644626,sonaID,undefined,1,vase,critical,B,50,vase40.jpg,vase60.jpg,low ,memory-momentum10,NULL
1682710935,fad612e07bbfd98425571d8380668bcb,PennController,4,0,experiment,NULL,PennController,3,_Header_,Start,1682710644626,sonaID,undefined,1,vase,critical,B,50,vase40.jpg,vase60.jpg,low ,memory-momentum10,NULL
1682710935,fad612e07bbfd98425571d8380668bcb,PennController,4,0,experiment,NULL,PennController,3,_Trial_,Start,1682710644626,sonaID,undefined,1,vase,critical,B,50,vase40.jpg,vase60.jpg,low ,memory-momentum10,NULL
1682710935,fad612e07bbfd98425571d8380668bcb,PennController,4,0,experiment,NULL,Canvas,canvas6,Print,NA,1682710651377,sonaID,undefined,1,vase,critical,B,50,vase40.jpg,vase60.jpg,low ,memory-momentum10,NULL
1682710935,fad612e07bbfd98425571d8380668bcb,PennController,4,0,experiment,NULL,Selector,choice,Selection,option1,1682710653493,sonaID,undefined,1,vase,critical,B,50,vase40.jpg,vase60.jpg,low ,memory-momentum10,option2;option1
1682710935,fad612e07bbfd98425571d8380668bcb,PennController,4,0,experiment,NULL,PennController,3,_Trial_,End,1682710653494,sonaID,undefined,1,vase,critical,B,50,vase40.jpg,vase60.jpg,low ,memory-momentum10,NULL
1682710935,fad612e07bbfd98425571d8380668bcb,PennController,30,0,experiment,NULL,PennController,29,_Header_,End,1682710713498,sonaID,undefined,27,rice,filler,B,25,square15.jpg,square35.jpg,GoalB,memory-momentum10,NULL
1682710935,fad612e07bbfd98425571d8380668bcb,PennController,30,0,experiment,NULL,PennController,29,_Header_,Start,1682710713498,sonaID,undefined,27,rice,filler,B,25,square15.jpg,square35.jpg,GoalB,memory-momentum10,NULL
1682710935,fad612e07bbfd98425571d8380668bcb,PennController,30,0,experiment,NULL,PennController,29,_Trial_,Start,1682710713498,sonaID,undefined,27,rice,filler,B,25,square15.jpg,square35.jpg,GoalB,memory-momentum10,NULL
1682710935,fad612e07bbfd98425571d8380668bcb,PennController,30,0,experiment,NULL,PennController,29,_PreloadFailed_,https://video.wixstatic.com/video/7cb05b_7d016bdcb2fc4c0e9f9b8199c36c44b8/144p/mp4/file.mp4,1682710713498,sonaID,undefined,27,rice,filler,B,25,square15.jpg,square35.jpg,GoalB,memory-momentum10,NULL
1682710935,fad612e07bbfd98425571d8380668bcb,PennController,30,0,experiment,NULL,PennController,29,_PreloadFailed_,https://raw.githubusercontent.com/karenwli/rep-momentum/main/rice/rice00.jpg,1682710713498,sonaID,undefined,27,rice,filler,B,25,square15.jpg,square35.jpg,GoalB,memory-momentum10,NULL
1682710935,fad612e07bbfd98425571d8380668bcb,PennController,30,0,experiment,NULL,PennController,29,_PreloadFailed_,fixation.png,1682710713498,sonaID,undefined,27,rice,filler,B,25,square15.jpg,square35.jpg,GoalB,memory-momentum10,NULL
1682710935,fad612e07bbfd98425571d8380668bcb,PennController,30,0,experiment,NULL,Canvas,canvas6,Print,NA,1682710719257,sonaID,undefined,27,rice,filler,B,25,square15.jpg,square35.jpg,GoalB,memory-momentum10,NULL
1682710935,fad612e07bbfd98425571d8380668bcb,PennController,30,0,experiment,NULL,Selector,choice,Selection,option2,1682710744029,sonaID,undefined,27,rice,filler,B,25,square15.jpg,square35.jpg,GoalB,memory-momentum10,option1;option2
1682710935,fad612e07bbfd98425571d8380668bcb,PennController,30,0,experiment,NULL,PennController,29,_Trial_,End,1682710744031,sonaID,undefined,27,rice,filler,B,25,square15.jpg,square35.jpg,GoalB,memory-momentum10,NULL
1682710935,fad612e07bbfd98425571d8380668bcb,PennController,18,0,experiment,NULL,PennController,17,_Header_,End,1682710744033,sonaID,undefined,15,zip,critical,B,25,zip15.jpg,zip35.jpg,low ,memory-momentum10,NULL
1682710935,fad612e07bbfd98425571d8380668bcb,PennController,18,0,experiment,NULL,PennController,17,_Header_,Start,1682710744033,sonaID,undefined,15,zip,critical,B,25,zip15.jpg,zip35.jpg,low ,memory-momentum10,NULL
1682710935,fad612e07bbfd98425571d8380668bcb,PennController,18,0,experiment,NULL,PennController,17,_Trial_,Start,1682710744033,sonaID,undefined,15,zip,critical,B,25,zip15.jpg,zip35.jpg,low ,memory-momentum10,NULL
1682710935,fad612e07bbfd98425571d8380668bcb,PennController,18,0,experiment,NULL,Canvas,canvas6,Print,NA,1682710749775,sonaID,undefined,15,zip,critical,B,25,zip15.jpg,zip35.jpg,low ,memory-momentum10,NULL
1682710935,fad612e07bbfd98425571d8380668bcb,PennController,18,0,experiment,NULL,Selector,choice,Selection,option2,1682710751060,sonaID,undefined,15,zip,critical,B,25,zip15.jpg,zip35.jpg,low ,memory-momentum10,option2;option1
1682710935,fad612e07bbfd98425571d8380668bcb,PennController,18,0,experiment,NULL,PennController,17,_Trial_,End,1682710751062,sonaID,undefined,15,zip,critical,B,25,zip15.jpg,zip35.jpg,low ,memory-momentum10,NULL
1682710935,fad612e07bbfd98425571d8380668bcb,PennController,6,0,experiment,NULL,PennController,5,_Header_,End,1682710751064,sonaID,undefined,3,clean,critical,B,25,clean15.jpg,clean35.jpg,low ,memory-momentum10,NULL
1682710935,fad612e07bbfd98425571d8380668bcb,PennController,6,0,experiment,NULL,PennController,5,_Header_,Start,1682710751064,sonaID,undefined,3,clean,critical,B,25,clean15.jpg,clean35.jpg,low ,memory-momentum10,NULL
1682710935,fad612e07bbfd98425571d8380668bcb,PennController,6,0,experiment,NULL,PennController,5,_Trial_,Start,1682710751064,sonaID,undefined,3,clean,critical,B,25,clean15.jpg,clean35.jpg,low ,memory-momentum10,NULL
1682710935,fad612e07bbfd98425571d8380668bcb,PennController,6,0,experiment,NULL,Canvas,canvas6,Print,NA,1682710756809,sonaID,undefined,3,clean,critical,B,25,clean15.jpg,clean35.jpg,low ,memory-momentum10,NULL
1682710935,fad612e07bbfd98425571d8380668bcb,PennController,6,0,experiment,NULL,Selector,choice,Selection,option2,1682710757732,sonaID,undefined,3,clean,critical,B,25,clean15.jpg,clean35.jpg,low ,memory-momentum10,option1;option2
1682710935,fad612e07bbfd98425571d8380668bcb,PennController,6,0,experiment,NULL,PennController,5,_Trial_,End,1682710757735,sonaID,undefined,3,clean,critical,B,25,clean15.jpg,clean35.jpg,low ,memory-momentum10,NULL
1682710935,fad612e07bbfd98425571d8380668bcb,PennController,12,0,experiment,NULL,PennController,11,_Header_,End,1682710757737,sonaID,undefined,9,cake,critical,B,25,cake15.jpg,cake33.jpg,low ,memory-momentum10,NULL
1682710935,fad612e07bbfd98425571d8380668bcb,PennController,12,0,experiment,NULL,PennController,11,_Header_,Start,1682710757737,sonaID,undefined,9,cake,critical,B,25,cake15.jpg,cake33.jpg,low ,memory-momentum10,NULL
1682710935,fad612e07bbfd98425571d8380668bcb,PennController,12,0,experiment,NULL,PennController,11,_Trial_,Start,1682710757737,sonaID,undefined,9,cake,critical,B,25,cake15.jpg,cake33.jpg,low ,memory-momentum10,NULL
1682710935,fad612e07bbfd98425571d8380668bcb,PennController,12,0,experiment,NULL,Canvas,canvas6,Print,NA,1682710764085,sonaID,undefined,9,cake,critical,B,25,cake15.jpg,cake33.jpg,low ,memory-momentum10,NULL
1682710935,fad612e07bbfd98425571d8380668bcb,PennController,12,0,experiment,NULL,Selector,choice,Selection,option1,1682710765040,sonaID,undefined,9,cake,critical,B,25,cake15.jpg,cake33.jpg,low ,memory-momentum10,option1;option2
1682710935,fad612e07bbfd98425571d8380668bcb,PennController,12,0,experiment,NULL,PennController,11,_Trial_,End,1682710765042,sonaID,undefined,9,cake,critical,B,25,cake15.jpg,cake33.jpg,low ,memory-momentum10,NULL
1682710935,fad612e07bbfd98425571d8380668bcb,PennController,21,0,experiment,NULL,PennController,20,_Header_,End,1682710765045,sonaID,undefined,18,ball,critical,B,25,ball15.jpg,ball35.jpg,high,memory-momentum10,NULL
1682710935,fad612e07bbfd98425571d8380668bcb,PennController,21,0,experiment,NULL,PennController,20,_Header_,Start,1682710765045,sonaID,undefined,18,ball,critical,B,25,ball15.jpg,ball35.jpg,high,memory-momentum10,NULL
1682710935,fad612e07bbfd98425571d8380668bcb,PennController,21,0,experiment,NULL,PennController,20,_Trial_,Start,1682710765045,sonaID,undefined,18,ball,critical,B,25,ball15.jpg,ball35.jpg,high,memory-momentum10,NULL
1682710935,fad612e07bbfd98425571d8380668bcb,PennController,21,0,experiment,NULL,Canvas,canvas6,Print,NA,1682710770782,sonaID,undefined,18,ball,critical,B,25,ball15.jpg,ball35.jpg,high,memory-momentum10,NULL
1682710935,fad612e07bbfd98425571d8380668bcb,PennController,21,0,experiment,NULL,Selector,choice,Selection,option2,1682710771590,sonaID,undefined,18,ball,critical,B,25,ball15.jpg,ball35.jpg,high,memory-momentum10,option1;option2
1682710935,fad612e07bbfd98425571d8380668bcb,PennController,21,0,experiment,NULL,PennController,20,_Trial_,End,1682710771592,sonaID,undefined,18,ball,critical,B,25,ball15.jpg,ball35.jpg,high,memory-momentum10,NULL
1682710935,fad612e07bbfd98425571d8380668bcb,PennController,29,0,experiment,NULL,PennController,28,_Header_,End,1682710771593,sonaID,undefined,26,sandwich,filler,B,75,sandwich65.jpg,sandwich85.jpg,GoalA,memory-momentum10,NULL
1682710935,fad612e07bbfd98425571d8380668bcb,PennController,29,0,experiment,NULL,PennController,28,_Header_,Start,1682710771593,sonaID,undefined,26,sandwich,filler,B,75,sandwich65.jpg,sandwich85.jpg,GoalA,memory-momentum10,NULL
1682710935,fad612e07bbfd98425571d8380668bcb,PennController,29,0,experiment,NULL,PennController,28,_Trial_,Start,1682710771593,sonaID,undefined,26,sandwich,filler,B,75,sandwich65.jpg,sandwich85.jpg,GoalA,memory-momentum10,NULL
1682710935,fad612e07bbfd98425571d8380668bcb,PennController,29,0,experiment,NULL,Canvas,canvas6,Print,NA,1682710779333,sonaID,undefined,26,sandwich,filler,B,75,sandwich65.jpg,sandwich85.jpg,GoalA,memory-momentum10,NULL
1682710935,fad612e07bbfd98425571d8380668bcb,PennController,29,0,experiment,NULL,Selector,choice,Selection,option1,1682710781670,sonaID,undefined,26,sandwich,filler,B,75,sandwich65.jpg,sandwich85.jpg,GoalA,memory-momentum10,option2;option1
1682710935,fad612e07bbfd98425571d8380668bcb,PennController,29,0,experiment,NULL,PennController,28,_Trial_,End,1682710781672,sonaID,undefined,26,sandwich,filler,B,75,sandwich65.jpg,sandwich85.jpg,GoalA,memory-momentum10,NULL
1682710935,fad612e07bbfd98425571d8380668bcb,PennController,17,0,experiment,NULL,PennController,16,_Header_,End,1682710781674,sonaID,undefined,14,cover,critical,B,75,cover66.jpg,cover84.jpg,high,memory-momentum10,NULL
1682710935,fad612e07bbfd98425571d8380668bcb,PennController,17,0,experiment,NULL,PennController,16,_Header_,Start,1682710781674,sonaID,undefined,14,cover,critical,B,75,cover66.jpg,cover84.jpg,high,memory-momentum10,NULL
1682710935,fad612e07bbfd98425571d8380668bcb,PennController,17,0,experiment,NULL,PennController,16,_Trial_,Start,1682710781674,sonaID,undefined,14,cover,critical,B,75,cover66.jpg,cover84.jpg,high,memory-momentum10,NULL
1682710935,fad612e07bbfd98425571d8380668bcb,PennController,17,0,experiment,NULL,Canvas,canvas6,Print,NA,1682710791418,sonaID,undefined,14,cover,critical,B,75,cover66.jpg,cover84.jpg,high,memory-momentum10,NULL
1682710935,fad612e07bbfd98425571d8380668bcb,PennController,17,0,experiment,NULL,Selector,choice,Selection,option1,1682710792413,sonaID,undefined,14,cover,critical,B,75,cover66.jpg,cover84.jpg,high,memory-momentum10,option2;option1
1682710935,fad612e07bbfd98425571d8380668bcb,PennController,17,0,experiment,NULL,PennController,16,_Trial_,End,1682710792415,sonaID,undefined,14,cover,critical,B,75,cover66.jpg,cover84.jpg,high,memory-momentum10,NULL
1682710935,fad612e07bbfd98425571d8380668bcb,PennController,23,0,experiment,NULL,PennController,22,_Header_,End,1682710792418,sonaID,undefined,20,cat,filler,B,75,cat65.jpg,cat85.jpg,GoalA,memory-momentum10,NULL
1682710935,fad612e07bbfd98425571d8380668bcb,PennController,23,0,experiment,NULL,PennController,22,_Header_,Start,1682710792418,sonaID,undefined,20,cat,filler,B,75,cat65.jpg,cat85.jpg,GoalA,memory-momentum10,NULL
1682710935,fad612e07bbfd98425571d8380668bcb,PennController,23,0,experiment,NULL,PennController,22,_Trial_,Start,1682710792418,sonaID,undefined,20,cat,filler,B,75,cat65.jpg,cat85.jpg,GoalA,memory-momentum10,NULL
1682710935,fad612e07bbfd98425571d8380668bcb,PennController,23,0,experiment,NULL,Canvas,canvas6,Print,NA,1682710800161,sonaID,undefined,20,cat,filler,B,75,cat65.jpg,cat85.jpg,GoalA,memory-momentum10,NULL
1682710935,fad612e07bbfd98425571d8380668bcb,PennController,23,0,experiment,NULL,Selector,choice,Selection,option2,1682710801240,sonaID,undefined,20,cat,filler,B,75,cat65.jpg,cat85.jpg,GoalA,memory-momentum10,option2;option1
1682710935,fad612e07bbfd98425571d8380668bcb,PennController,23,0,experiment,NULL,PennController,22,_Trial_,End,1682710801242,sonaID,undefined,20,cat,filler,B,75,cat65.jpg,cat85.jpg,GoalA,memory-momentum10,NULL
1682710935,fad612e07bbfd98425571d8380668bcb,PennController,19,0,experiment,NULL,PennController,18,_Header_,End,1682710801245,sonaID,undefined,16,blinds,critical,B,50,blinds42.jpg,blinds60.jpg,high,memory-momentum10,NULL
1682710935,fad612e07bbfd98425571d8380668bcb,PennController,19,0,experiment,NULL,PennController,18,_Header_,Start,1682710801245,sonaID,undefined,16,blinds,critical,B,50,blinds42.jpg,blinds60.jpg,high,memory-momentum10,NULL
1682710935,fad612e07bbfd98425571d8380668bcb,PennController,19,0,experiment,NULL,PennController,18,_Trial_,Start,1682710801245,sonaID,undefined,16,blinds,critical,B,50,blinds42.jpg,blinds60.jpg,high,memory-momentum10,NULL
1682710935,fad612e07bbfd98425571d8380668bcb,PennController,19,0,experiment,NULL,Canvas,canvas6,Print,NA,1682710809383,sonaID,undefined,16,blinds,critical,B,50,blinds42.jpg,blinds60.jpg,high,memory-momentum10,NULL
1682710935,fad612e07bbfd98425571d8380668bcb,PennController,19,0,experiment,NULL,Selector,choice,Selection,option2,1682710810265,sonaID,undefined,16,blinds,critical,B,50,blinds42.jpg,blinds60.jpg,high,memory-momentum10,option2;option1
1682710935,fad612e07bbfd98425571d8380668bcb,PennController,19,0,experiment,NULL,PennController,18,_Trial_,End,1682710810267,sonaID,undefined,16,blinds,critical,B,50,blinds42.jpg,blinds60.jpg,high,memory-momentum10,NULL
1682710935,fad612e07bbfd98425571d8380668bcb,PennController,26,0,experiment,NULL,PennController,25,_Header_,End,1682710810269,sonaID,undefined,23,color,filler,B,75,color65.jpg,color85.jpg,GoalB,memory-momentum10,NULL
1682710935,fad612e07bbfd98425571d8380668bcb,PennController,26,0,experiment,NULL,PennController,25,_Header_,Start,1682710810269,sonaID,undefined,23,color,filler,B,75,color65.jpg,color85.jpg,GoalB,memory-momentum10,NULL
1682710935,fad612e07bbfd98425571d8380668bcb,PennController,26,0,experiment,NULL,PennController,25,_Trial_,Start,1682710810269,sonaID,undefined,23,color,filler,B,75,color65.jpg,color85.jpg,GoalB,memory-momentum10,NULL
1682710935,fad612e07bbfd98425571d8380668bcb,PennController,26,0,experiment,NULL,Canvas,canvas6,Print,NA,1682710818016,sonaID,undefined,23,color,filler,B,75,color65.jpg,color85.jpg,GoalB,memory-momentum10,NULL
1682710935,fad612e07bbfd98425571d8380668bcb,PennController,26,0,experiment,NULL,Selector,choice,Selection,option2,1682710823898,sonaID,undefined,23,color,filler,B,75,color65.jpg,color85.jpg,GoalB,memory-momentum10,option2;option1
1682710935,fad612e07bbfd98425571d8380668bcb,PennController,26,0,experiment,NULL,PennController,25,_Trial_,End,1682710823899,sonaID,undefined,23,color,filler,B,75,color65.jpg,color85.jpg,GoalB,memory-momentum10,NULL
1682710935,fad612e07bbfd98425571d8380668bcb,PennController,28,0,experiment,NULL,PennController,27,_Header_,End,1682710823900,sonaID,undefined,25,house,filler,B,50,house40.jpg,house60.jpg,GoalB,memory-momentum10,NULL
1682710935,fad612e07bbfd98425571d8380668bcb,PennController,28,0,experiment,NULL,PennController,27,_Header_,Start,1682710823900,sonaID,undefined,25,house,filler,B,50,house40.jpg,house60.jpg,GoalB,memory-momentum10,NULL
1682710935,fad612e07bbfd98425571d8380668bcb,PennController,28,0,experiment,NULL,PennController,27,_Trial_,Start,1682710823900,sonaID,undefined,25,house,filler,B,50,house40.jpg,house60.jpg,GoalB,memory-momentum10,NULL
1682710935,fad612e07bbfd98425571d8380668bcb,PennController,28,0,experiment,NULL,Canvas,canvas6,Print,NA,1682710830648,sonaID,undefined,25,house,filler,B,50,house40.jpg,house60.jpg,GoalB,memory-momentum10,NULL
1682710935,fad612e07bbfd98425571d8380668bcb,PennController,28,0,experiment,NULL,Selector,choice,Selection,option1,1682710832416,sonaID,undefined,25,house,filler,B,50,house40.jpg,house60.jpg,GoalB,memory-momentum10,option1;option2
1682710935,fad612e07bbfd98425571d8380668bcb,PennController,28,0,experiment,NULL,PennController,27,_Trial_,End,1682710832418,sonaID,undefined,25,house,filler,B,50,house40.jpg,house60.jpg,GoalB,memory-momentum10,NULL
1682710935,fad612e07bbfd98425571d8380668bcb,PennController,31,0,experiment,NULL,PennController,30,_Header_,End,1682710832419,sonaID,undefined,28,sort,filler,B,50,sort40.jpg,sort60.jpg,GoalA,memory-momentum10,NULL
1682710935,fad612e07bbfd98425571d8380668bcb,PennController,31,0,experiment,NULL,PennController,30,_Header_,Start,1682710832419,sonaID,undefined,28,sort,filler,B,50,sort40.jpg,sort60.jpg,GoalA,memory-momentum10,NULL
1682710935,fad612e07bbfd98425571d8380668bcb,PennController,31,0,experiment,NULL,PennController,30,_Trial_,Start,1682710832419,sonaID,undefined,28,sort,filler,B,50,sort40.jpg,sort60.jpg,GoalA,memory-momentum10,NULL
1682710935,fad612e07bbfd98425571d8380668bcb,PennController,31,0,experiment,NULL,Canvas,canvas6,Print,NA,1682710839162,sonaID,undefined,28,sort,filler,B,50,sort40.jpg,sort60.jpg,GoalA,memory-momentum10,NULL
1682710935,fad612e07bbfd98425571d8380668bcb,PennController,31,0,experiment,NULL,Selector,choice,Selection,option1,1682710843753,sonaID,undefined,28,sort,filler,B,50,sort40.jpg,sort60.jpg,GoalA,memory-momentum10,option1;option2
1682710935,fad612e07bbfd98425571d8380668bcb,PennController,31,0,experiment,NULL,PennController,30,_Trial_,End,1682710843755,sonaID,undefined,28,sort,filler,B,50,sort40.jpg,sort60.jpg,GoalA,memory-momentum10,NULL
1682710935,fad612e07bbfd98425571d8380668bcb,PennController,8,0,experiment,NULL,PennController,7,_Header_,End,1682710843758,sonaID,undefined,5,book,critical,B,75,book65.jpg,book85.jpg,low ,memory-momentum10,NULL
1682710935,fad612e07bbfd98425571d8380668bcb,PennController,8,0,experiment,NULL,PennController,7,_Header_,Start,1682710843758,sonaID,undefined,5,book,critical,B,75,book65.jpg,book85.jpg,low ,memory-momentum10,NULL
1682710935,fad612e07bbfd98425571d8380668bcb,PennController,8,0,experiment,NULL,PennController,7,_Trial_,Start,1682710843758,sonaID,undefined,5,book,critical,B,75,book65.jpg,book85.jpg,low ,memory-momentum10,NULL
1682710935,fad612e07bbfd98425571d8380668bcb,PennController,8,0,experiment,NULL,Canvas,canvas6,Print,NA,1682710851505,sonaID,undefined,5,book,critical,B,75,book65.jpg,book85.jpg,low ,memory-momentum10,NULL
1682710935,fad612e07bbfd98425571d8380668bcb,PennController,8,0,experiment,NULL,Selector,choice,Selection,option1,1682710853533,sonaID,undefined,5,book,critical,B,75,book65.jpg,book85.jpg,low ,memory-momentum10,option2;option1
1682710935,fad612e07bbfd98425571d8380668bcb,PennController,8,0,experiment,NULL,PennController,7,_Trial_,End,1682710853535,sonaID,undefined,5,book,critical,B,75,book65.jpg,book85.jpg,low ,memory-momentum10,NULL
1682710935,fad612e07bbfd98425571d8380668bcb,PennController,22,0,experiment,NULL,PennController,21,_Header_,End,1682710853537,sonaID,undefined,19,cup,filler,B,50,cup40.jpg,cup60.jpg,GoalB,memory-momentum10,NULL
1682710935,fad612e07bbfd98425571d8380668bcb,PennController,22,0,experiment,NULL,PennController,21,_Header_,Start,1682710853537,sonaID,undefined,19,cup,filler,B,50,cup40.jpg,cup60.jpg,GoalB,memory-momentum10,NULL
1682710935,fad612e07bbfd98425571d8380668bcb,PennController,22,0,experiment,NULL,PennController,21,_Trial_,Start,1682710853537,sonaID,undefined,19,cup,filler,B,50,cup40.jpg,cup60.jpg,GoalB,memory-momentum10,NULL
1682710935,fad612e07bbfd98425571d8380668bcb,PennController,22,0,experiment,NULL,Canvas,canvas6,Print,NA,1682710860292,sonaID,undefined,19,cup,filler,B,50,cup40.jpg,cup60.jpg,GoalB,memory-momentum10,NULL
1682710935,fad612e07bbfd98425571d8380668bcb,PennController,22,0,experiment,NULL,Selector,choice,Selection,option1,1682710863160,sonaID,undefined,19,cup,filler,B,50,cup40.jpg,cup60.jpg,GoalB,memory-momentum10,option2;option1
1682710935,fad612e07bbfd98425571d8380668bcb,PennController,22,0,experiment,NULL,PennController,21,_Trial_,End,1682710863161,sonaID,undefined,19,cup,filler,B,50,cup40.jpg,cup60.jpg,GoalB,memory-momentum10,NULL
1682710935,fad612e07bbfd98425571d8380668bcb,PennController,13,0,experiment,NULL,PennController,12,_Header_,End,1682710863163,sonaID,undefined,10,train,critical,B,50,train40.jpg,train60.jpg,high,memory-momentum10,NULL
1682710935,fad612e07bbfd98425571d8380668bcb,PennController,13,0,experiment,NULL,PennController,12,_Header_,Start,1682710863163,sonaID,undefined,10,train,critical,B,50,train40.jpg,train60.jpg,high,memory-momentum10,NULL
1682710935,fad612e07bbfd98425571d8380668bcb,PennController,13,0,experiment,NULL,PennController,12,_Trial_,Start,1682710863163,sonaID,undefined,10,train,critical,B,50,train40.jpg,train60.jpg,high,memory-momentum10,NULL
1682710935,fad612e07bbfd98425571d8380668bcb,PennController,13,0,experiment,NULL,Canvas,canvas6,Print,NA,1682710869908,sonaID,undefined,10,train,critical,B,50,train40.jpg,train60.jpg,high,memory-momentum10,NULL
1682710935,fad612e07bbfd98425571d8380668bcb,PennController,13,0,experiment,NULL,Selector,choice,Selection,option2,1682710871249,sonaID,undefined,10,train,critical,B,50,train40.jpg,train60.jpg,high,memory-momentum10,option1;option2
1682710935,fad612e07bbfd98425571d8380668bcb,PennController,13,0,experiment,NULL,PennController,12,_Trial_,End,1682710871250,sonaID,undefined,10,train,critical,B,50,train40.jpg,train60.jpg,high,memory-momentum10,NULL
1682710935,fad612e07bbfd98425571d8380668bcb,PennController,9,0,experiment,NULL,PennController,8,_Header_,End,1682710871251,sonaID,undefined,6,flower,critical,B,25,flower15.jpg,flower35.jpg,high,memory-momentum10,NULL
1682710935,fad612e07bbfd98425571d8380668bcb,PennController,9,0,experiment,NULL,PennController,8,_Header_,Start,1682710871251,sonaID,undefined,6,flower,critical,B,25,flower15.jpg,flower35.jpg,high,memory-momentum10,NULL
1682710935,fad612e07bbfd98425571d8380668bcb,PennController,9,0,experiment,NULL,PennController,8,_Trial_,Start,1682710871251,sonaID,undefined,6,flower,critical,B,25,flower15.jpg,flower35.jpg,high,memory-momentum10,NULL
1682710935,fad612e07bbfd98425571d8380668bcb,PennController,9,0,experiment,NULL,Canvas,canvas6,Print,NA,1682710876998,sonaID,undefined,6,flower,critical,B,25,flower15.jpg,flower35.jpg,high,memory-momentum10,NULL
1682710935,fad612e07bbfd98425571d8380668bcb,PennController,9,0,experiment,NULL,Selector,choice,Selection,option1,1682710878096,sonaID,undefined,6,flower,critical,B,25,flower15.jpg,flower35.jpg,high,memory-momentum10,option2;option1
1682710935,fad612e07bbfd98425571d8380668bcb,PennController,9,0,experiment,NULL,PennController,8,_Trial_,End,1682710878097,sonaID,undefined,6,flower,critical,B,25,flower15.jpg,flower35.jpg,high,memory-momentum10,NULL
1682710935,fad612e07bbfd98425571d8380668bcb,PennController,11,0,experiment,NULL,PennController,10,_Header_,End,1682710878098,sonaID,undefined,8,cucumber,critical,B,75,cucumber66.jpg,cucumber84.jpg,high,memory-momentum10,NULL
1682710935,fad612e07bbfd98425571d8380668bcb,PennController,11,0,experiment,NULL,PennController,10,_Header_,Start,1682710878098,sonaID,undefined,8,cucumber,critical,B,75,cucumber66.jpg,cucumber84.jpg,high,memory-momentum10,NULL
1682710935,fad612e07bbfd98425571d8380668bcb,PennController,11,0,experiment,NULL,PennController,10,_Trial_,Start,1682710878098,sonaID,undefined,8,cucumber,critical,B,75,cucumber66.jpg,cucumber84.jpg,high,memory-momentum10,NULL
1682710935,fad612e07bbfd98425571d8380668bcb,PennController,11,0,experiment,NULL,Canvas,canvas6,Print,NA,1682710887840,sonaID,undefined,8,cucumber,critical,B,75,cucumber66.jpg,cucumber84.jpg,high,memory-momentum10,NULL
1682710935,fad612e07bbfd98425571d8380668bcb,PennController,11,0,experiment,NULL,Selector,choice,Selection,option1,1682710891031,sonaID,undefined,8,cucumber,critical,B,75,cucumber66.jpg,cucumber84.jpg,high,memory-momentum10,option1;option2
1682710935,fad612e07bbfd98425571d8380668bcb,PennController,11,0,experiment,NULL,PennController,10,_Trial_,End,1682710891033,sonaID,undefined,8,cucumber,critical,B,75,cucumber66.jpg,cucumber84.jpg,high,memory-momentum10,NULL
1682710935,fad612e07bbfd98425571d8380668bcb,PennController,16,0,experiment,NULL,PennController,15,_Header_,End,1682710891034,sonaID,undefined,13,mix,critical,B,50,mix40.jpg,mix60.jpg,low ,memory-momentum10,NULL
1682710935,fad612e07bbfd98425571d8380668bcb,PennController,16,0,experiment,NULL,PennController,15,_Header_,Start,1682710891034,sonaID,undefined,13,mix,critical,B,50,mix40.jpg,mix60.jpg,low ,memory-momentum10,NULL
1682710935,fad612e07bbfd98425571d8380668bcb,PennController,16,0,experiment,NULL,PennController,15,_Trial_,Start,1682710891034,sonaID,undefined,13,mix,critical,B,50,mix40.jpg,mix60.jpg,low ,memory-momentum10,NULL
1682710935,fad612e07bbfd98425571d8380668bcb,PennController,16,0,experiment,NULL,Canvas,canvas6,Print,NA,1682710897780,sonaID,undefined,13,mix,critical,B,50,mix40.jpg,mix60.jpg,low ,memory-momentum10,NULL
1682710935,fad612e07bbfd98425571d8380668bcb,PennController,16,0,experiment,NULL,Selector,choice,Selection,option1,1682710899486,sonaID,undefined,13,mix,critical,B,50,mix40.jpg,mix60.jpg,low ,memory-momentum10,option1;option2
1682710935,fad612e07bbfd98425571d8380668bcb,PennController,16,0,experiment,NULL,PennController,15,_Trial_,End,1682710899488,sonaID,undefined,13,mix,critical,B,50,mix40.jpg,mix60.jpg,low ,memory-momentum10,NULL
1682710935,fad612e07bbfd98425571d8380668bcb,PennController,24,0,experiment,NULL,PennController,23,_Header_,End,1682710899490,sonaID,undefined,21,visit,filler,B,25,visit15.jpg,visit35.jpg,GoalB,memory-momentum10,NULL
1682710935,fad612e07bbfd98425571d8380668bcb,PennController,24,0,experiment,NULL,PennController,23,_Header_,Start,1682710899490,sonaID,undefined,21,visit,filler,B,25,visit15.jpg,visit35.jpg,GoalB,memory-momentum10,NULL
1682710935,fad612e07bbfd98425571d8380668bcb,PennController,24,0,experiment,NULL,PennController,23,_Trial_,Start,1682710899490,sonaID,undefined,21,visit,filler,B,25,visit15.jpg,visit35.jpg,GoalB,memory-momentum10,NULL
1682710935,fad612e07bbfd98425571d8380668bcb,PennController,24,0,experiment,NULL,Canvas,canvas6,Print,NA,1682710905242,sonaID,undefined,21,visit,filler,B,25,visit15.jpg,visit35.jpg,GoalB,memory-momentum10,NULL
1682710935,fad612e07bbfd98425571d8380668bcb,PennController,24,0,experiment,NULL,Selector,choice,Selection,option2,1682710905941,sonaID,undefined,21,visit,filler,B,25,visit15.jpg,visit35.jpg,GoalB,memory-momentum10,option1;option2
1682710935,fad612e07bbfd98425571d8380668bcb,PennController,24,0,experiment,NULL,PennController,23,_Trial_,End,1682710905943,sonaID,undefined,21,visit,filler,B,25,visit15.jpg,visit35.jpg,GoalB,memory-momentum10,NULL
1682710935,fad612e07bbfd98425571d8380668bcb,PennController,5,0,experiment,NULL,PennController,4,_Header_,End,1682710905945,sonaID,undefined,2,door,critical,B,75,door65.jpg,door85.jpg,high,memory-momentum10,NULL
1682710935,fad612e07bbfd98425571d8380668bcb,PennController,5,0,experiment,NULL,PennController,4,_Header_,Start,1682710905945,sonaID,undefined,2,door,critical,B,75,door65.jpg,door85.jpg,high,memory-momentum10,NULL
1682710935,fad612e07bbfd98425571d8380668bcb,PennController,5,0,experiment,NULL,PennController,4,_Trial_,Start,1682710905945,sonaID,undefined,2,door,critical,B,75,door65.jpg,door85.jpg,high,memory-momentum10,NULL
1682710935,fad612e07bbfd98425571d8380668bcb,PennController,5,0,experiment,NULL,Canvas,canvas6,Print,NA,1682710913686,sonaID,undefined,2,door,critical,B,75,door65.jpg,door85.jpg,high,memory-momentum10,NULL
1682710935,fad612e07bbfd98425571d8380668bcb,PennController,5,0,experiment,NULL,Selector,choice,Selection,option2,1682710915777,sonaID,undefined,2,door,critical,B,75,door65.jpg,door85.jpg,high,memory-momentum10,option2;option1
1682710935,fad612e07bbfd98425571d8380668bcb,PennController,5,0,experiment,NULL,PennController,4,_Trial_,End,1682710915778,sonaID,undefined,2,door,critical,B,75,door65.jpg,door85.jpg,high,memory-momentum10,NULL
1682710935,fad612e07bbfd98425571d8380668bcb,PennController,20,0,experiment,NULL,PennController,19,_Header_,End,1682710915779,sonaID,undefined,17,roll,critical,B,75,roll65.jpg,roll85.jpg,low ,memory-momentum10,NULL
1682710935,fad612e07bbfd98425571d8380668bcb,PennController,20,0,experiment,NULL,PennController,19,_Header_,Start,1682710915779,sonaID,undefined,17,roll,critical,B,75,roll65.jpg,roll85.jpg,low ,memory-momentum10,NULL
1682710935,fad612e07bbfd98425571d8380668bcb,PennController,20,0,experiment,NULL,PennController,19,_Trial_,Start,1682710915779,sonaID,undefined,17,roll,critical,B,75,roll65.jpg,roll85.jpg,low ,memory-momentum10,NULL
1682710935,fad612e07bbfd98425571d8380668bcb,PennController,20,0,experiment,NULL,Canvas,canvas6,Print,NA,1682710923528,sonaID,undefined,17,roll,critical,B,75,roll65.jpg,roll85.jpg,low ,memory-momentum10,NULL
1682710935,fad612e07bbfd98425571d8380668bcb,PennController,20,0,experiment,NULL,Selector,choice,Selection,option2,1682710925660,sonaID,undefined,17,roll,critical,B,75,roll65.jpg,roll85.jpg,low ,memory-momentum10,option1;option2
1682710935,fad612e07bbfd98425571d8380668bcb,PennController,20,0,experiment,NULL,PennController,19,_Trial_,End,1682710925662,sonaID,undefined,17,roll,critical,B,75,roll65.jpg,roll85.jpg,low ,memory-momentum10,NULL
1682710935,fad612e07bbfd98425571d8380668bcb,PennController,10,0,experiment,NULL,PennController,9,_Header_,End,1682710925663,sonaID,undefined,7,stack,critical,B,50,stack40.jpg,stack60.jpg,low ,memory-momentum10,NULL
1682710935,fad612e07bbfd98425571d8380668bcb,PennController,10,0,experiment,NULL,PennController,9,_Header_,Start,1682710925663,sonaID,undefined,7,stack,critical,B,50,stack40.jpg,stack60.jpg,low ,memory-momentum10,NULL
1682710935,fad612e07bbfd98425571d8380668bcb,PennController,10,0,experiment,NULL,PennController,9,_Trial_,Start,1682710925663,sonaID,undefined,7,stack,critical,B,50,stack40.jpg,stack60.jpg,low ,memory-momentum10,NULL
1682710935,fad612e07bbfd98425571d8380668bcb,PennController,10,0,experiment,NULL,Canvas,canvas6,Print,NA,1682710932407,sonaID,undefined,7,stack,critical,B,50,stack40.jpg,stack60.jpg,low ,memory-momentum10,NULL
1682710935,fad612e07bbfd98425571d8380668bcb,PennController,10,0,experiment,NULL,Selector,choice,Selection,option2,1682710935318,sonaID,undefined,7,stack,critical,B,50,stack40.jpg,stack60.jpg,low ,memory-momentum10,option2;option1
1682710935,fad612e07bbfd98425571d8380668bcb,PennController,10,0,experiment,NULL,PennController,9,_Trial_,End,1682710935320,sonaID,undefined,7,stack,critical,B,50,stack40.jpg,stack60.jpg,low ,memory-momentum10,NULL
