#
# Results on Friday April 28 2023 08:12:49 UTC
# USER AGENT: Mozilla/5.0 (Macintosh; Intel Mac OS X 10_15_7) AppleWebKit/537.36 (KHTML, like Gecko) Chrome/112.0.0.0 Safari/537.36
# Design number was non-random = 24
#
# Columns below this comment are as follows:
# 1. Results reception time.
# 2. MD5 hash of participant's IP address.
# 3. Controller name.
# 4. Order number of item.
# 5. Inner element number.
# 6. Label.
# 7. Latin Square Group.
# 8. PennElementType.
# 9. PennElementName.
# 10. Parameter.
# 11. Value.
# 12. EventTime.
# 13. sonaID.
# 14. Comments.
1682669569,e7e24b54cb811098a137aabde30331f1,PennController,2,0,consent,NULL,PennController,0,_Trial_,Start,1682669208041,sonaID,NULL
1682669569,e7e24b54cb811098a137aabde30331f1,PennController,2,0,consent,NULL,PennController,0,_Header_,Start,1682669208041,sonaID,NULL
1682669569,e7e24b54cb811098a137aabde30331f1,PennController,2,0,consent,NULL,PennController,0,_Header_,End,1682669208041,sonaID,NULL
1682669569,e7e24b54cb811098a137aabde30331f1,PennController,2,0,consent,NULL,PennController,0,_Trial_,End,1682669210560,sonaID,NULL
# Columns below this comment are as follows:
# 14. ID.
# 15. Comments.
1682669569,e7e24b54cb811098a137aabde30331f1,PennController,3,0,intro,NULL,PennController,1,_Trial_,Start,1682669210562,sonaID,undefined,NULL
1682669569,e7e24b54cb811098a137aabde30331f1,PennController,3,0,intro,NULL,PennController,1,_Header_,Start,1682669210562,sonaID,undefined,NULL
1682669569,e7e24b54cb811098a137aabde30331f1,PennController,3,0,intro,NULL,PennController,1,_Header_,End,1682669210562,sonaID,undefined,NULL
1682669569,e7e24b54cb811098a137aabde30331f1,PennController,3,0,intro,NULL,TextInput,inputID,EnterReturn,89762373,1682669214954,sonaID,undefined,NULL
1682669569,e7e24b54cb811098a137aabde30331f1,PennController,3,0,intro,NULL,TextInput,inputID,Final,89762373,1682669214977,sonaID,undefined,NULL
1682669569,e7e24b54cb811098a137aabde30331f1,PennController,3,0,intro,NULL,TextInput,inputID,First,,1682669212430,sonaID,undefined,8
1682669569,e7e24b54cb811098a137aabde30331f1,PennController,3,0,intro,NULL,PennController,1,_Trial_,End,1682669214977,sonaID,undefined,NULL
# Columns below this comment are as follows:
# 15. item_number.
# 16. item.
# 17. type.
# 18. Group.
# 19. prog.
# 20. prev_image.
# 21. next_image.
# 22. height.
# 23. memory-momentum10.
# 24. Comments.
1682669569,e7e24b54cb811098a137aabde30331f1,PennController,21,0,experiment,NULL,PennController,20,_Trial_,Start,1682669214980,sonaID,undefined,18,ball,critical,A,75,ball65.jpg,ball85.jpg,high,memory-momentum10,NULL
1682669569,e7e24b54cb811098a137aabde30331f1,PennController,21,0,experiment,NULL,PennController,20,_Header_,Start,1682669214980,sonaID,undefined,18,ball,critical,A,75,ball65.jpg,ball85.jpg,high,memory-momentum10,NULL
1682669569,e7e24b54cb811098a137aabde30331f1,PennController,21,0,experiment,NULL,PennController,20,_Header_,End,1682669214980,sonaID,undefined,18,ball,critical,A,75,ball65.jpg,ball85.jpg,high,memory-momentum10,NULL
1682669569,e7e24b54cb811098a137aabde30331f1,PennController,21,0,experiment,NULL,Canvas,canvas6,Print,NA,1682669222677,sonaID,undefined,18,ball,critical,A,75,ball65.jpg,ball85.jpg,high,memory-momentum10,NULL
1682669569,e7e24b54cb811098a137aabde30331f1,PennController,21,0,experiment,NULL,Video,progression,buffer,0.004659,1682669218514,sonaID,undefined,18,ball,critical,A,75,ball65.jpg,ball85.jpg,high,memory-momentum10,NULL
1682669569,e7e24b54cb811098a137aabde30331f1,PennController,21,0,experiment,NULL,Selector,choice,Selection,option1,1682669226045,sonaID,undefined,18,ball,critical,A,75,ball65.jpg,ball85.jpg,high,memory-momentum10,option1;option2
1682669569,e7e24b54cb811098a137aabde30331f1,PennController,21,0,experiment,NULL,PennController,20,_Trial_,End,1682669226048,sonaID,undefined,18,ball,critical,A,75,ball65.jpg,ball85.jpg,high,memory-momentum10,NULL
1682669569,e7e24b54cb811098a137aabde30331f1,PennController,27,0,experiment,NULL,PennController,26,_Trial_,Start,1682669226050,sonaID,undefined,24,match,filler,A,75,match65.jpg,match85.jpg,GoalB,memory-momentum10,NULL
1682669569,e7e24b54cb811098a137aabde30331f1,PennController,27,0,experiment,NULL,PennController,26,_Header_,Start,1682669226050,sonaID,undefined,24,match,filler,A,75,match65.jpg,match85.jpg,GoalB,memory-momentum10,NULL
1682669569,e7e24b54cb811098a137aabde30331f1,PennController,27,0,experiment,NULL,PennController,26,_Header_,End,1682669226050,sonaID,undefined,24,match,filler,A,75,match65.jpg,match85.jpg,GoalB,memory-momentum10,NULL
1682669569,e7e24b54cb811098a137aabde30331f1,PennController,27,0,experiment,NULL,Canvas,canvas6,Print,NA,1682669233749,sonaID,undefined,24,match,filler,A,75,match65.jpg,match85.jpg,GoalB,memory-momentum10,NULL
1682669569,e7e24b54cb811098a137aabde30331f1,PennController,27,0,experiment,NULL,Video,progression,buffer,0.004362,1682669229574,sonaID,undefined,24,match,filler,A,75,match65.jpg,match85.jpg,GoalB,memory-momentum10,NULL
1682669569,e7e24b54cb811098a137aabde30331f1,PennController,27,0,experiment,NULL,Selector,choice,Selection,option1,1682669235130,sonaID,undefined,24,match,filler,A,75,match65.jpg,match85.jpg,GoalB,memory-momentum10,option1;option2
1682669569,e7e24b54cb811098a137aabde30331f1,PennController,27,0,experiment,NULL,PennController,26,_Trial_,End,1682669235132,sonaID,undefined,24,match,filler,A,75,match65.jpg,match85.jpg,GoalB,memory-momentum10,NULL
1682669569,e7e24b54cb811098a137aabde30331f1,PennController,13,0,experiment,NULL,PennController,12,_Trial_,Start,1682669235134,sonaID,undefined,10,train,critical,A,25,train15.jpg,train35.jpg,high,memory-momentum10,NULL
1682669569,e7e24b54cb811098a137aabde30331f1,PennController,13,0,experiment,NULL,PennController,12,_Header_,Start,1682669235134,sonaID,undefined,10,train,critical,A,25,train15.jpg,train35.jpg,high,memory-momentum10,NULL
1682669569,e7e24b54cb811098a137aabde30331f1,PennController,13,0,experiment,NULL,PennController,12,_Header_,End,1682669235134,sonaID,undefined,10,train,critical,A,25,train15.jpg,train35.jpg,high,memory-momentum10,NULL
1682669569,e7e24b54cb811098a137aabde30331f1,PennController,13,0,experiment,NULL,Canvas,canvas6,Print,NA,1682669240825,sonaID,undefined,10,train,critical,A,25,train15.jpg,train35.jpg,high,memory-momentum10,NULL
1682669569,e7e24b54cb811098a137aabde30331f1,PennController,13,0,experiment,NULL,Video,progression,buffer,0.004615,1682669238663,sonaID,undefined,10,train,critical,A,25,train15.jpg,train35.jpg,high,memory-momentum10,NULL
1682669569,e7e24b54cb811098a137aabde30331f1,PennController,13,0,experiment,NULL,Selector,choice,Selection,option2,1682669242384,sonaID,undefined,10,train,critical,A,25,train15.jpg,train35.jpg,high,memory-momentum10,option2;option1
1682669569,e7e24b54cb811098a137aabde30331f1,PennController,13,0,experiment,NULL,PennController,12,_Trial_,End,1682669242386,sonaID,undefined,10,train,critical,A,25,train15.jpg,train35.jpg,high,memory-momentum10,NULL
1682669569,e7e24b54cb811098a137aabde30331f1,PennController,11,0,experiment,NULL,PennController,10,_Trial_,Start,1682669242388,sonaID,undefined,8,cucumber,critical,A,50,cucumber42.jpg,cucumber60.jpg,high,memory-momentum10,NULL
1682669569,e7e24b54cb811098a137aabde30331f1,PennController,11,0,experiment,NULL,PennController,10,_Header_,Start,1682669242388,sonaID,undefined,8,cucumber,critical,A,50,cucumber42.jpg,cucumber60.jpg,high,memory-momentum10,NULL
1682669569,e7e24b54cb811098a137aabde30331f1,PennController,11,0,experiment,NULL,PennController,10,_Header_,End,1682669242388,sonaID,undefined,8,cucumber,critical,A,50,cucumber42.jpg,cucumber60.jpg,high,memory-momentum10,NULL
1682669569,e7e24b54cb811098a137aabde30331f1,PennController,11,0,experiment,NULL,Canvas,canvas6,Print,NA,1682669250491,sonaID,undefined,8,cucumber,critical,A,50,cucumber42.jpg,cucumber60.jpg,high,memory-momentum10,NULL
1682669569,e7e24b54cb811098a137aabde30331f1,PennController,11,0,experiment,NULL,Video,progression,buffer,0.00624,1682669245919,sonaID,undefined,8,cucumber,critical,A,50,cucumber42.jpg,cucumber60.jpg,high,memory-momentum10,NULL
1682669569,e7e24b54cb811098a137aabde30331f1,PennController,11,0,experiment,NULL,Selector,choice,Selection,option1,1682669252336,sonaID,undefined,8,cucumber,critical,A,50,cucumber42.jpg,cucumber60.jpg,high,memory-momentum10,option2;option1
1682669569,e7e24b54cb811098a137aabde30331f1,PennController,11,0,experiment,NULL,PennController,10,_Trial_,End,1682669252338,sonaID,undefined,8,cucumber,critical,A,50,cucumber42.jpg,cucumber60.jpg,high,memory-momentum10,NULL
1682669569,e7e24b54cb811098a137aabde30331f1,PennController,12,0,experiment,NULL,PennController,11,_Trial_,Start,1682669252340,sonaID,undefined,9,cake,critical,A,75,cake66.jpg,cake84.jpg,low ,memory-momentum10,NULL
1682669569,e7e24b54cb811098a137aabde30331f1,PennController,12,0,experiment,NULL,PennController,11,_Header_,Start,1682669252340,sonaID,undefined,9,cake,critical,A,75,cake66.jpg,cake84.jpg,low ,memory-momentum10,NULL
1682669569,e7e24b54cb811098a137aabde30331f1,PennController,12,0,experiment,NULL,PennController,11,_Header_,End,1682669252340,sonaID,undefined,9,cake,critical,A,75,cake66.jpg,cake84.jpg,low ,memory-momentum10,NULL
1682669569,e7e24b54cb811098a137aabde30331f1,PennController,12,0,experiment,NULL,Canvas,canvas6,Print,NA,1682669262036,sonaID,undefined,9,cake,critical,A,75,cake66.jpg,cake84.jpg,low ,memory-momentum10,NULL
1682669569,e7e24b54cb811098a137aabde30331f1,PennController,12,0,experiment,NULL,Video,progression,buffer,0.005686,1682669255872,sonaID,undefined,9,cake,critical,A,75,cake66.jpg,cake84.jpg,low ,memory-momentum10,NULL
1682669569,e7e24b54cb811098a137aabde30331f1,PennController,12,0,experiment,NULL,Selector,choice,Selection,option1,1682669265263,sonaID,undefined,9,cake,critical,A,75,cake66.jpg,cake84.jpg,low ,memory-momentum10,option2;option1
1682669569,e7e24b54cb811098a137aabde30331f1,PennController,12,0,experiment,NULL,PennController,11,_Trial_,End,1682669265264,sonaID,undefined,9,cake,critical,A,75,cake66.jpg,cake84.jpg,low ,memory-momentum10,NULL
1682669569,e7e24b54cb811098a137aabde30331f1,PennController,22,0,experiment,NULL,PennController,21,_Trial_,Start,1682669265265,sonaID,undefined,19,cup,filler,A,25,cup15.jpg,cup35.jpg,GoalA,memory-momentum10,NULL
1682669569,e7e24b54cb811098a137aabde30331f1,PennController,22,0,experiment,NULL,PennController,21,_Header_,Start,1682669265265,sonaID,undefined,19,cup,filler,A,25,cup15.jpg,cup35.jpg,GoalA,memory-momentum10,NULL
1682669569,e7e24b54cb811098a137aabde30331f1,PennController,22,0,experiment,NULL,PennController,21,_Header_,End,1682669265265,sonaID,undefined,19,cup,filler,A,25,cup15.jpg,cup35.jpg,GoalA,memory-momentum10,NULL
1682669569,e7e24b54cb811098a137aabde30331f1,PennController,22,0,experiment,NULL,Canvas,canvas6,Print,NA,1682669270953,sonaID,undefined,19,cup,filler,A,25,cup15.jpg,cup35.jpg,GoalA,memory-momentum10,NULL
1682669569,e7e24b54cb811098a137aabde30331f1,PennController,22,0,experiment,NULL,Video,progression,buffer,0.004668,1682669268786,sonaID,undefined,19,cup,filler,A,25,cup15.jpg,cup35.jpg,GoalA,memory-momentum10,NULL
1682669569,e7e24b54cb811098a137aabde30331f1,PennController,22,0,experiment,NULL,Selector,choice,Selection,option2,1682669272505,sonaID,undefined,19,cup,filler,A,25,cup15.jpg,cup35.jpg,GoalA,memory-momentum10,option2;option1
1682669569,e7e24b54cb811098a137aabde30331f1,PennController,22,0,experiment,NULL,PennController,21,_Trial_,End,1682669272507,sonaID,undefined,19,cup,filler,A,25,cup15.jpg,cup35.jpg,GoalA,memory-momentum10,NULL
1682669569,e7e24b54cb811098a137aabde30331f1,PennController,20,0,experiment,NULL,PennController,19,_Trial_,Start,1682669272508,sonaID,undefined,17,roll,critical,A,50,roll40.jpg,roll60.jpg,low ,memory-momentum10,NULL
1682669569,e7e24b54cb811098a137aabde30331f1,PennController,20,0,experiment,NULL,PennController,19,_Header_,Start,1682669272508,sonaID,undefined,17,roll,critical,A,50,roll40.jpg,roll60.jpg,low ,memory-momentum10,NULL
1682669569,e7e24b54cb811098a137aabde30331f1,PennController,20,0,experiment,NULL,PennController,19,_Header_,End,1682669272508,sonaID,undefined,17,roll,critical,A,50,roll40.jpg,roll60.jpg,low ,memory-momentum10,NULL
1682669569,e7e24b54cb811098a137aabde30331f1,PennController,20,0,experiment,NULL,Canvas,canvas6,Print,NA,1682669279241,sonaID,undefined,17,roll,critical,A,50,roll40.jpg,roll60.jpg,low ,memory-momentum10,NULL
1682669569,e7e24b54cb811098a137aabde30331f1,PennController,20,0,experiment,NULL,Video,progression,buffer,0,1682669276037,sonaID,undefined,17,roll,critical,A,50,roll40.jpg,roll60.jpg,low ,memory-momentum10,NULL
1682669569,e7e24b54cb811098a137aabde30331f1,PennController,20,0,experiment,NULL,Selector,choice,Selection,option2,1682669285246,sonaID,undefined,17,roll,critical,A,50,roll40.jpg,roll60.jpg,low ,memory-momentum10,option1;option2
1682669569,e7e24b54cb811098a137aabde30331f1,PennController,20,0,experiment,NULL,PennController,19,_Trial_,End,1682669285248,sonaID,undefined,17,roll,critical,A,50,roll40.jpg,roll60.jpg,low ,memory-momentum10,NULL
1682669569,e7e24b54cb811098a137aabde30331f1,PennController,19,0,experiment,NULL,PennController,18,_Trial_,Start,1682669285250,sonaID,undefined,16,blinds,critical,A,25,blinds15.jpg,blinds33.jpg,high,memory-momentum10,NULL
1682669569,e7e24b54cb811098a137aabde30331f1,PennController,19,0,experiment,NULL,PennController,18,_Header_,Start,1682669285250,sonaID,undefined,16,blinds,critical,A,25,blinds15.jpg,blinds33.jpg,high,memory-momentum10,NULL
1682669569,e7e24b54cb811098a137aabde30331f1,PennController,19,0,experiment,NULL,PennController,18,_Header_,End,1682669285250,sonaID,undefined,16,blinds,critical,A,25,blinds15.jpg,blinds33.jpg,high,memory-momentum10,NULL
1682669569,e7e24b54cb811098a137aabde30331f1,PennController,19,0,experiment,NULL,Canvas,canvas6,Print,NA,1682669291540,sonaID,undefined,16,blinds,critical,A,25,blinds15.jpg,blinds33.jpg,high,memory-momentum10,NULL
1682669569,e7e24b54cb811098a137aabde30331f1,PennController,19,0,experiment,NULL,Video,progression,buffer,0.003056,1682669288767,sonaID,undefined,16,blinds,critical,A,25,blinds15.jpg,blinds33.jpg,high,memory-momentum10,NULL
1682669569,e7e24b54cb811098a137aabde30331f1,PennController,19,0,experiment,NULL,Selector,choice,Selection,option2,1682669295988,sonaID,undefined,16,blinds,critical,A,25,blinds15.jpg,blinds33.jpg,high,memory-momentum10,option2;option1
1682669569,e7e24b54cb811098a137aabde30331f1,PennController,19,0,experiment,NULL,PennController,18,_Trial_,End,1682669295990,sonaID,undefined,16,blinds,critical,A,25,blinds15.jpg,blinds33.jpg,high,memory-momentum10,NULL
1682669569,e7e24b54cb811098a137aabde30331f1,PennController,23,0,experiment,NULL,PennController,22,_Trial_,Start,1682669295991,sonaID,undefined,20,cat,filler,A,50,cat40.jpg,cat60.jpg,GoalB,memory-momentum10,NULL
1682669569,e7e24b54cb811098a137aabde30331f1,PennController,23,0,experiment,NULL,PennController,22,_Header_,Start,1682669295991,sonaID,undefined,20,cat,filler,A,50,cat40.jpg,cat60.jpg,GoalB,memory-momentum10,NULL
1682669569,e7e24b54cb811098a137aabde30331f1,PennController,23,0,experiment,NULL,PennController,22,_Header_,End,1682669295991,sonaID,undefined,20,cat,filler,A,50,cat40.jpg,cat60.jpg,GoalB,memory-momentum10,NULL
1682669569,e7e24b54cb811098a137aabde30331f1,PennController,23,0,experiment,NULL,Canvas,canvas6,Print,NA,1682669302723,sonaID,undefined,20,cat,filler,A,50,cat40.jpg,cat60.jpg,GoalB,memory-momentum10,NULL
1682669569,e7e24b54cb811098a137aabde30331f1,PennController,23,0,experiment,NULL,Video,progression,buffer,0,1682669299525,sonaID,undefined,20,cat,filler,A,50,cat40.jpg,cat60.jpg,GoalB,memory-momentum10,NULL
1682669569,e7e24b54cb811098a137aabde30331f1,PennController,23,0,experiment,NULL,Selector,choice,Selection,option2,1682669303939,sonaID,undefined,20,cat,filler,A,50,cat40.jpg,cat60.jpg,GoalB,memory-momentum10,option1;option2
1682669569,e7e24b54cb811098a137aabde30331f1,PennController,23,0,experiment,NULL,PennController,22,_Trial_,End,1682669303941,sonaID,undefined,20,cat,filler,A,50,cat40.jpg,cat60.jpg,GoalB,memory-momentum10,NULL
1682669569,e7e24b54cb811098a137aabde30331f1,PennController,25,0,experiment,NULL,PennController,24,_Trial_,Start,1682669303943,sonaID,undefined,22,wall,filler,A,25,wall15.jpg,wall35.jpg,GoalB,memory-momentum10,NULL
1682669569,e7e24b54cb811098a137aabde30331f1,PennController,25,0,experiment,NULL,PennController,24,_Header_,Start,1682669303943,sonaID,undefined,22,wall,filler,A,25,wall15.jpg,wall35.jpg,GoalB,memory-momentum10,NULL
1682669569,e7e24b54cb811098a137aabde30331f1,PennController,25,0,experiment,NULL,PennController,24,_Header_,End,1682669303943,sonaID,undefined,22,wall,filler,A,25,wall15.jpg,wall35.jpg,GoalB,memory-momentum10,NULL
1682669569,e7e24b54cb811098a137aabde30331f1,PennController,25,0,experiment,NULL,Canvas,canvas6,Print,NA,1682669309637,sonaID,undefined,22,wall,filler,A,25,wall15.jpg,wall35.jpg,GoalB,memory-momentum10,NULL
1682669569,e7e24b54cb811098a137aabde30331f1,PennController,25,0,experiment,NULL,Video,progression,buffer,0.004507,1682669307466,sonaID,undefined,22,wall,filler,A,25,wall15.jpg,wall35.jpg,GoalB,memory-momentum10,NULL
1682669569,e7e24b54cb811098a137aabde30331f1,PennController,25,0,experiment,NULL,Selector,choice,Selection,option2,1682669318374,sonaID,undefined,22,wall,filler,A,25,wall15.jpg,wall35.jpg,GoalB,memory-momentum10,option2;option1
1682669569,e7e24b54cb811098a137aabde30331f1,PennController,25,0,experiment,NULL,PennController,24,_Trial_,End,1682669318376,sonaID,undefined,22,wall,filler,A,25,wall15.jpg,wall35.jpg,GoalB,memory-momentum10,NULL
1682669569,e7e24b54cb811098a137aabde30331f1,PennController,32,0,experiment,NULL,PennController,31,_Trial_,Start,1682669318378,sonaID,undefined,29,frog,filler,A,50,frog40.jpg,frog60.jpg,GoalA,memory-momentum10,NULL
1682669569,e7e24b54cb811098a137aabde30331f1,PennController,32,0,experiment,NULL,PennController,31,_Header_,Start,1682669318378,sonaID,undefined,29,frog,filler,A,50,frog40.jpg,frog60.jpg,GoalA,memory-momentum10,NULL
1682669569,e7e24b54cb811098a137aabde30331f1,PennController,32,0,experiment,NULL,PennController,31,_Header_,End,1682669318378,sonaID,undefined,29,frog,filler,A,50,frog40.jpg,frog60.jpg,GoalA,memory-momentum10,NULL
1682669569,e7e24b54cb811098a137aabde30331f1,PennController,32,0,experiment,NULL,Canvas,canvas6,Print,NA,1682669325074,sonaID,undefined,29,frog,filler,A,50,frog40.jpg,frog60.jpg,GoalA,memory-momentum10,NULL
1682669569,e7e24b54cb811098a137aabde30331f1,PennController,32,0,experiment,NULL,Video,progression,buffer,0.004057,1682669321901,sonaID,undefined,29,frog,filler,A,50,frog40.jpg,frog60.jpg,GoalA,memory-momentum10,NULL
1682669569,e7e24b54cb811098a137aabde30331f1,PennController,32,0,experiment,NULL,Selector,choice,Selection,option1,1682669329982,sonaID,undefined,29,frog,filler,A,50,frog40.jpg,frog60.jpg,GoalA,memory-momentum10,option1;option2
1682669569,e7e24b54cb811098a137aabde30331f1,PennController,32,0,experiment,NULL,PennController,31,_Trial_,End,1682669329983,sonaID,undefined,29,frog,filler,A,50,frog40.jpg,frog60.jpg,GoalA,memory-momentum10,NULL
1682669569,e7e24b54cb811098a137aabde30331f1,PennController,26,0,experiment,NULL,PennController,25,_Trial_,Start,1682669329984,sonaID,undefined,23,color,filler,A,50,color40.jpg,color60.jpg,GoalA,memory-momentum10,NULL
1682669569,e7e24b54cb811098a137aabde30331f1,PennController,26,0,experiment,NULL,PennController,25,_Header_,Start,1682669329984,sonaID,undefined,23,color,filler,A,50,color40.jpg,color60.jpg,GoalA,memory-momentum10,NULL
1682669569,e7e24b54cb811098a137aabde30331f1,PennController,26,0,experiment,NULL,PennController,25,_Header_,End,1682669329985,sonaID,undefined,23,color,filler,A,50,color40.jpg,color60.jpg,GoalA,memory-momentum10,NULL
1682669569,e7e24b54cb811098a137aabde30331f1,PennController,26,0,experiment,NULL,Canvas,canvas6,Print,NA,1682669336671,sonaID,undefined,23,color,filler,A,50,color40.jpg,color60.jpg,GoalA,memory-momentum10,NULL
1682669569,e7e24b54cb811098a137aabde30331f1,PennController,26,0,experiment,NULL,Video,progression,buffer,0.003944,1682669333506,sonaID,undefined,23,color,filler,A,50,color40.jpg,color60.jpg,GoalA,memory-momentum10,NULL
1682669569,e7e24b54cb811098a137aabde30331f1,PennController,26,0,experiment,NULL,Selector,choice,Selection,option2,1682669338700,sonaID,undefined,23,color,filler,A,50,color40.jpg,color60.jpg,GoalA,memory-momentum10,option1;option2
1682669569,e7e24b54cb811098a137aabde30331f1,PennController,26,0,experiment,NULL,PennController,25,_Trial_,End,1682669338702,sonaID,undefined,23,color,filler,A,50,color40.jpg,color60.jpg,GoalA,memory-momentum10,NULL
1682669569,e7e24b54cb811098a137aabde30331f1,PennController,18,0,experiment,NULL,PennController,17,_Trial_,Start,1682669338703,sonaID,undefined,15,zip,critical,A,75,zip65.jpg,zip85.jpg,low ,memory-momentum10,NULL
1682669569,e7e24b54cb811098a137aabde30331f1,PennController,18,0,experiment,NULL,PennController,17,_Header_,Start,1682669338703,sonaID,undefined,15,zip,critical,A,75,zip65.jpg,zip85.jpg,low ,memory-momentum10,NULL
1682669569,e7e24b54cb811098a137aabde30331f1,PennController,18,0,experiment,NULL,PennController,17,_Header_,End,1682669338703,sonaID,undefined,15,zip,critical,A,75,zip65.jpg,zip85.jpg,low ,memory-momentum10,NULL
1682669569,e7e24b54cb811098a137aabde30331f1,PennController,18,0,experiment,NULL,Canvas,canvas6,Print,NA,1682669346389,sonaID,undefined,15,zip,critical,A,75,zip65.jpg,zip85.jpg,low ,memory-momentum10,NULL
1682669569,e7e24b54cb811098a137aabde30331f1,PennController,18,0,experiment,NULL,Video,progression,buffer,0.003138,1682669342225,sonaID,undefined,15,zip,critical,A,75,zip65.jpg,zip85.jpg,low ,memory-momentum10,NULL
1682669569,e7e24b54cb811098a137aabde30331f1,PennController,18,0,experiment,NULL,Selector,choice,Selection,option2,1682669352668,sonaID,undefined,15,zip,critical,A,75,zip65.jpg,zip85.jpg,low ,memory-momentum10,option2;option1
1682669569,e7e24b54cb811098a137aabde30331f1,PennController,18,0,experiment,NULL,PennController,17,_Trial_,End,1682669352670,sonaID,undefined,15,zip,critical,A,75,zip65.jpg,zip85.jpg,low ,memory-momentum10,NULL
1682669569,e7e24b54cb811098a137aabde30331f1,PennController,10,0,experiment,NULL,PennController,9,_Trial_,Start,1682669352672,sonaID,undefined,7,stack,critical,A,25,stack15.jpg,stack35.jpg,low ,memory-momentum10,NULL
1682669569,e7e24b54cb811098a137aabde30331f1,PennController,10,0,experiment,NULL,PennController,9,_Header_,Start,1682669352672,sonaID,undefined,7,stack,critical,A,25,stack15.jpg,stack35.jpg,low ,memory-momentum10,NULL
1682669569,e7e24b54cb811098a137aabde30331f1,PennController,10,0,experiment,NULL,PennController,9,_Header_,End,1682669352673,sonaID,undefined,7,stack,critical,A,25,stack15.jpg,stack35.jpg,low ,memory-momentum10,NULL
1682669569,e7e24b54cb811098a137aabde30331f1,PennController,10,0,experiment,NULL,Canvas,canvas6,Print,NA,1682669358372,sonaID,undefined,7,stack,critical,A,25,stack15.jpg,stack35.jpg,low ,memory-momentum10,NULL
1682669569,e7e24b54cb811098a137aabde30331f1,PennController,10,0,experiment,NULL,Video,progression,buffer,0.005511,1682669356198,sonaID,undefined,7,stack,critical,A,25,stack15.jpg,stack35.jpg,low ,memory-momentum10,NULL
1682669569,e7e24b54cb811098a137aabde30331f1,PennController,10,0,experiment,NULL,Selector,choice,Selection,option2,1682669359958,sonaID,undefined,7,stack,critical,A,25,stack15.jpg,stack35.jpg,low ,memory-momentum10,option1;option2
1682669569,e7e24b54cb811098a137aabde30331f1,PennController,10,0,experiment,NULL,PennController,9,_Trial_,End,1682669359959,sonaID,undefined,7,stack,critical,A,25,stack15.jpg,stack35.jpg,low ,memory-momentum10,NULL
1682669569,e7e24b54cb811098a137aabde30331f1,PennController,17,0,experiment,NULL,PennController,16,_Trial_,Start,1682669359960,sonaID,undefined,14,cover,critical,A,50,cover42.jpg,cover60.jpg,high,memory-momentum10,NULL
1682669569,e7e24b54cb811098a137aabde30331f1,PennController,17,0,experiment,NULL,PennController,16,_Header_,Start,1682669359960,sonaID,undefined,14,cover,critical,A,50,cover42.jpg,cover60.jpg,high,memory-momentum10,NULL
1682669569,e7e24b54cb811098a137aabde30331f1,PennController,17,0,experiment,NULL,PennController,16,_Header_,End,1682669359960,sonaID,undefined,14,cover,critical,A,50,cover42.jpg,cover60.jpg,high,memory-momentum10,NULL
1682669569,e7e24b54cb811098a137aabde30331f1,PennController,17,0,experiment,NULL,Canvas,canvas6,Print,NA,1682669368040,sonaID,undefined,14,cover,critical,A,50,cover42.jpg,cover60.jpg,high,memory-momentum10,NULL
1682669569,e7e24b54cb811098a137aabde30331f1,PennController,17,0,experiment,NULL,Video,progression,buffer,0.003376,1682669363476,sonaID,undefined,14,cover,critical,A,50,cover42.jpg,cover60.jpg,high,memory-momentum10,NULL
1682669569,e7e24b54cb811098a137aabde30331f1,PennController,17,0,experiment,NULL,Selector,choice,Selection,option1,1682669374677,sonaID,undefined,14,cover,critical,A,50,cover42.jpg,cover60.jpg,high,memory-momentum10,option1;option2
1682669569,e7e24b54cb811098a137aabde30331f1,PennController,17,0,experiment,NULL,PennController,16,_Trial_,End,1682669374679,sonaID,undefined,14,cover,critical,A,50,cover42.jpg,cover60.jpg,high,memory-momentum10,NULL
1682669569,e7e24b54cb811098a137aabde30331f1,PennController,29,0,experiment,NULL,PennController,28,_Trial_,Start,1682669374680,sonaID,undefined,26,sandwich,filler,A,50,sandwich40.jpg,sandwich60.jpg,GoalB,memory-momentum10,NULL
1682669569,e7e24b54cb811098a137aabde30331f1,PennController,29,0,experiment,NULL,PennController,28,_Header_,Start,1682669374680,sonaID,undefined,26,sandwich,filler,A,50,sandwich40.jpg,sandwich60.jpg,GoalB,memory-momentum10,NULL
1682669569,e7e24b54cb811098a137aabde30331f1,PennController,29,0,experiment,NULL,PennController,28,_Header_,End,1682669374680,sonaID,undefined,26,sandwich,filler,A,50,sandwich40.jpg,sandwich60.jpg,GoalB,memory-momentum10,NULL
1682669569,e7e24b54cb811098a137aabde30331f1,PennController,29,0,experiment,NULL,Canvas,canvas6,Print,NA,1682669381373,sonaID,undefined,26,sandwich,filler,A,50,sandwich40.jpg,sandwich60.jpg,GoalB,memory-momentum10,NULL
1682669569,e7e24b54cb811098a137aabde30331f1,PennController,29,0,experiment,NULL,Video,progression,buffer,0.003458,1682669378205,sonaID,undefined,26,sandwich,filler,A,50,sandwich40.jpg,sandwich60.jpg,GoalB,memory-momentum10,NULL
1682669569,e7e24b54cb811098a137aabde30331f1,PennController,29,0,experiment,NULL,Selector,choice,Selection,option1,1682669383481,sonaID,undefined,26,sandwich,filler,A,50,sandwich40.jpg,sandwich60.jpg,GoalB,memory-momentum10,option1;option2
1682669569,e7e24b54cb811098a137aabde30331f1,PennController,29,0,experiment,NULL,PennController,28,_Trial_,End,1682669383483,sonaID,undefined,26,sandwich,filler,A,50,sandwich40.jpg,sandwich60.jpg,GoalB,memory-momentum10,NULL
1682669569,e7e24b54cb811098a137aabde30331f1,PennController,8,0,experiment,NULL,PennController,7,_Trial_,Start,1682669383485,sonaID,undefined,5,book,critical,A,50,book40.jpg,book60.jpg,low ,memory-momentum10,NULL
1682669569,e7e24b54cb811098a137aabde30331f1,PennController,8,0,experiment,NULL,PennController,7,_Header_,Start,1682669383485,sonaID,undefined,5,book,critical,A,50,book40.jpg,book60.jpg,low ,memory-momentum10,NULL
1682669569,e7e24b54cb811098a137aabde30331f1,PennController,8,0,experiment,NULL,PennController,7,_Header_,End,1682669383485,sonaID,undefined,5,book,critical,A,50,book40.jpg,book60.jpg,low ,memory-momentum10,NULL
1682669569,e7e24b54cb811098a137aabde30331f1,PennController,8,0,experiment,NULL,Canvas,canvas6,Print,NA,1682669390174,sonaID,undefined,5,book,critical,A,50,book40.jpg,book60.jpg,low ,memory-momentum10,NULL
1682669569,e7e24b54cb811098a137aabde30331f1,PennController,8,0,experiment,NULL,Video,progression,buffer,0.003587,1682669387008,sonaID,undefined,5,book,critical,A,50,book40.jpg,book60.jpg,low ,memory-momentum10,NULL
1682669569,e7e24b54cb811098a137aabde30331f1,PennController,8,0,experiment,NULL,Selector,choice,Selection,option1,1682669392334,sonaID,undefined,5,book,critical,A,50,book40.jpg,book60.jpg,low ,memory-momentum10,option2;option1
1682669569,e7e24b54cb811098a137aabde30331f1,PennController,8,0,experiment,NULL,PennController,7,_Trial_,End,1682669392336,sonaID,undefined,5,book,critical,A,50,book40.jpg,book60.jpg,low ,memory-momentum10,NULL
1682669569,e7e24b54cb811098a137aabde30331f1,PennController,31,0,experiment,NULL,PennController,30,_Trial_,Start,1682669392338,sonaID,undefined,28,sort,filler,A,25,sort15.jpg,sort35.jpg,GoalB,memory-momentum10,NULL
1682669569,e7e24b54cb811098a137aabde30331f1,PennController,31,0,experiment,NULL,PennController,30,_Header_,Start,1682669392338,sonaID,undefined,28,sort,filler,A,25,sort15.jpg,sort35.jpg,GoalB,memory-momentum10,NULL
1682669569,e7e24b54cb811098a137aabde30331f1,PennController,31,0,experiment,NULL,PennController,30,_Header_,End,1682669392338,sonaID,undefined,28,sort,filler,A,25,sort15.jpg,sort35.jpg,GoalB,memory-momentum10,NULL
1682669569,e7e24b54cb811098a137aabde30331f1,PennController,31,0,experiment,NULL,Canvas,canvas6,Print,NA,1682669398039,sonaID,undefined,28,sort,filler,A,25,sort15.jpg,sort35.jpg,GoalB,memory-momentum10,NULL
1682669569,e7e24b54cb811098a137aabde30331f1,PennController,31,0,experiment,NULL,Video,progression,buffer,0.004141,1682669395868,sonaID,undefined,28,sort,filler,A,25,sort15.jpg,sort35.jpg,GoalB,memory-momentum10,NULL
1682669569,e7e24b54cb811098a137aabde30331f1,PennController,31,0,experiment,NULL,Selector,choice,Selection,option2,1682669404894,sonaID,undefined,28,sort,filler,A,25,sort15.jpg,sort35.jpg,GoalB,memory-momentum10,option2;option1
1682669569,e7e24b54cb811098a137aabde30331f1,PennController,31,0,experiment,NULL,PennController,30,_Trial_,End,1682669404896,sonaID,undefined,28,sort,filler,A,25,sort15.jpg,sort35.jpg,GoalB,memory-momentum10,NULL
1682669569,e7e24b54cb811098a137aabde30331f1,PennController,16,0,experiment,NULL,PennController,15,_Trial_,Start,1682669404897,sonaID,undefined,13,mix,critical,A,25,mix15.jpg,mix35.jpg,low ,memory-momentum10,NULL
1682669569,e7e24b54cb811098a137aabde30331f1,PennController,16,0,experiment,NULL,PennController,15,_Header_,Start,1682669404897,sonaID,undefined,13,mix,critical,A,25,mix15.jpg,mix35.jpg,low ,memory-momentum10,NULL
1682669569,e7e24b54cb811098a137aabde30331f1,PennController,16,0,experiment,NULL,PennController,15,_Header_,End,1682669404897,sonaID,undefined,13,mix,critical,A,25,mix15.jpg,mix35.jpg,low ,memory-momentum10,NULL
1682669569,e7e24b54cb811098a137aabde30331f1,PennController,16,0,experiment,NULL,Canvas,canvas6,Print,NA,1682669410586,sonaID,undefined,13,mix,critical,A,25,mix15.jpg,mix35.jpg,low ,memory-momentum10,NULL
1682669569,e7e24b54cb811098a137aabde30331f1,PennController,16,0,experiment,NULL,Video,progression,buffer,0.002873,1682669408426,sonaID,undefined,13,mix,critical,A,25,mix15.jpg,mix35.jpg,low ,memory-momentum10,NULL
1682669569,e7e24b54cb811098a137aabde30331f1,PennController,16,0,experiment,NULL,Selector,choice,Selection,option1,1682669412754,sonaID,undefined,13,mix,critical,A,25,mix15.jpg,mix35.jpg,low ,memory-momentum10,option1;option2
1682669569,e7e24b54cb811098a137aabde30331f1,PennController,16,0,experiment,NULL,PennController,15,_Trial_,End,1682669412757,sonaID,undefined,13,mix,critical,A,25,mix15.jpg,mix35.jpg,low ,memory-momentum10,NULL
1682669569,e7e24b54cb811098a137aabde30331f1,PennController,6,0,experiment,NULL,PennController,5,_Trial_,Start,1682669412759,sonaID,undefined,3,clean,critical,A,75,clean65.jpg,clean85.jpg,low ,memory-momentum10,NULL
1682669569,e7e24b54cb811098a137aabde30331f1,PennController,6,0,experiment,NULL,PennController,5,_Header_,Start,1682669412759,sonaID,undefined,3,clean,critical,A,75,clean65.jpg,clean85.jpg,low ,memory-momentum10,NULL
1682669569,e7e24b54cb811098a137aabde30331f1,PennController,6,0,experiment,NULL,PennController,5,_Header_,End,1682669412759,sonaID,undefined,3,clean,critical,A,75,clean65.jpg,clean85.jpg,low ,memory-momentum10,NULL
1682669569,e7e24b54cb811098a137aabde30331f1,PennController,6,0,experiment,NULL,Canvas,canvas6,Print,NA,1682669420450,sonaID,undefined,3,clean,critical,A,75,clean65.jpg,clean85.jpg,low ,memory-momentum10,NULL
1682669569,e7e24b54cb811098a137aabde30331f1,PennController,6,0,experiment,NULL,Video,progression,buffer,0.002717,1682669416288,sonaID,undefined,3,clean,critical,A,75,clean65.jpg,clean85.jpg,low ,memory-momentum10,NULL
1682669569,e7e24b54cb811098a137aabde30331f1,PennController,6,0,experiment,NULL,Selector,choice,Selection,option1,1682669422231,sonaID,undefined,3,clean,critical,A,75,clean65.jpg,clean85.jpg,low ,memory-momentum10,option1;option2
1682669569,e7e24b54cb811098a137aabde30331f1,PennController,6,0,experiment,NULL,PennController,5,_Trial_,End,1682669422233,sonaID,undefined,3,clean,critical,A,75,clean65.jpg,clean85.jpg,low ,memory-momentum10,NULL
1682669569,e7e24b54cb811098a137aabde30331f1,PennController,9,0,experiment,NULL,PennController,8,_Trial_,Start,1682669422234,sonaID,undefined,6,flower,critical,A,75,flower65.jpg,flower85.jpg,high,memory-momentum10,NULL
1682669569,e7e24b54cb811098a137aabde30331f1,PennController,9,0,experiment,NULL,PennController,8,_Header_,Start,1682669422234,sonaID,undefined,6,flower,critical,A,75,flower65.jpg,flower85.jpg,high,memory-momentum10,NULL
1682669569,e7e24b54cb811098a137aabde30331f1,PennController,9,0,experiment,NULL,PennController,8,_Header_,End,1682669422234,sonaID,undefined,6,flower,critical,A,75,flower65.jpg,flower85.jpg,high,memory-momentum10,NULL
1682669569,e7e24b54cb811098a137aabde30331f1,PennController,9,0,experiment,NULL,Canvas,canvas6,Print,NA,1682669429923,sonaID,undefined,6,flower,critical,A,75,flower65.jpg,flower85.jpg,high,memory-momentum10,NULL
1682669569,e7e24b54cb811098a137aabde30331f1,PennController,9,0,experiment,NULL,Video,progression,buffer,0.004223,1682669425758,sonaID,undefined,6,flower,critical,A,75,flower65.jpg,flower85.jpg,high,memory-momentum10,NULL
1682669569,e7e24b54cb811098a137aabde30331f1,PennController,9,0,experiment,NULL,Selector,choice,Selection,option1,1682669433243,sonaID,undefined,6,flower,critical,A,75,flower65.jpg,flower85.jpg,high,memory-momentum10,option1;option2
1682669569,e7e24b54cb811098a137aabde30331f1,PennController,9,0,experiment,NULL,PennController,8,_Trial_,End,1682669433245,sonaID,undefined,6,flower,critical,A,75,flower65.jpg,flower85.jpg,high,memory-momentum10,NULL
1682669569,e7e24b54cb811098a137aabde30331f1,PennController,15,0,experiment,NULL,PennController,14,_Trial_,Start,1682669433246,sonaID,undefined,12,erase,critical,A,75,erase66.jpg,erase84.jpg,high,memory-momentum10,NULL
1682669569,e7e24b54cb811098a137aabde30331f1,PennController,15,0,experiment,NULL,PennController,14,_Header_,Start,1682669433246,sonaID,undefined,12,erase,critical,A,75,erase66.jpg,erase84.jpg,high,memory-momentum10,NULL
1682669569,e7e24b54cb811098a137aabde30331f1,PennController,15,0,experiment,NULL,PennController,14,_Header_,End,1682669433246,sonaID,undefined,12,erase,critical,A,75,erase66.jpg,erase84.jpg,high,memory-momentum10,NULL
1682669569,e7e24b54cb811098a137aabde30331f1,PennController,15,0,experiment,NULL,Canvas,canvas6,Print,NA,1682669442932,sonaID,undefined,12,erase,critical,A,75,erase66.jpg,erase84.jpg,high,memory-momentum10,NULL
1682669569,e7e24b54cb811098a137aabde30331f1,PennController,15,0,experiment,NULL,Video,progression,buffer,0.001953,1682669436764,sonaID,undefined,12,erase,critical,A,75,erase66.jpg,erase84.jpg,high,memory-momentum10,NULL
1682669569,e7e24b54cb811098a137aabde30331f1,PennController,15,0,experiment,NULL,Selector,choice,Selection,option2,1682669444225,sonaID,undefined,12,erase,critical,A,75,erase66.jpg,erase84.jpg,high,memory-momentum10,option2;option1
1682669569,e7e24b54cb811098a137aabde30331f1,PennController,15,0,experiment,NULL,PennController,14,_Trial_,End,1682669444226,sonaID,undefined,12,erase,critical,A,75,erase66.jpg,erase84.jpg,high,memory-momentum10,NULL
1682669569,e7e24b54cb811098a137aabde30331f1,PennController,5,0,experiment,NULL,PennController,4,_Trial_,Start,1682669444228,sonaID,undefined,2,door,critical,A,50,door40.jpg,door60.jpg,high,memory-momentum10,NULL
1682669569,e7e24b54cb811098a137aabde30331f1,PennController,5,0,experiment,NULL,PennController,4,_Header_,Start,1682669444228,sonaID,undefined,2,door,critical,A,50,door40.jpg,door60.jpg,high,memory-momentum10,NULL
1682669569,e7e24b54cb811098a137aabde30331f1,PennController,5,0,experiment,NULL,PennController,4,_Header_,End,1682669444228,sonaID,undefined,2,door,critical,A,50,door40.jpg,door60.jpg,high,memory-momentum10,NULL
1682669569,e7e24b54cb811098a137aabde30331f1,PennController,5,0,experiment,NULL,Canvas,canvas6,Print,NA,1682669450920,sonaID,undefined,2,door,critical,A,50,door40.jpg,door60.jpg,high,memory-momentum10,NULL
1682669569,e7e24b54cb811098a137aabde30331f1,PennController,5,0,experiment,NULL,Video,progression,buffer,0.005679,1682669447755,sonaID,undefined,2,door,critical,A,50,door40.jpg,door60.jpg,high,memory-momentum10,NULL
1682669569,e7e24b54cb811098a137aabde30331f1,PennController,5,0,experiment,NULL,Selector,choice,Selection,option1,1682669452715,sonaID,undefined,2,door,critical,A,50,door40.jpg,door60.jpg,high,memory-momentum10,option2;option1
1682669569,e7e24b54cb811098a137aabde30331f1,PennController,5,0,experiment,NULL,PennController,4,_Trial_,End,1682669452716,sonaID,undefined,2,door,critical,A,50,door40.jpg,door60.jpg,high,memory-momentum10,NULL
1682669569,e7e24b54cb811098a137aabde30331f1,PennController,7,0,experiment,NULL,PennController,6,_Trial_,Start,1682669452718,sonaID,undefined,4,candy,critical,A,25,candy15.jpg,candy35.jpg,high,memory-momentum10,NULL
1682669569,e7e24b54cb811098a137aabde30331f1,PennController,7,0,experiment,NULL,PennController,6,_Header_,Start,1682669452718,sonaID,undefined,4,candy,critical,A,25,candy15.jpg,candy35.jpg,high,memory-momentum10,NULL
1682669569,e7e24b54cb811098a137aabde30331f1,PennController,7,0,experiment,NULL,PennController,6,_Header_,End,1682669452718,sonaID,undefined,4,candy,critical,A,25,candy15.jpg,candy35.jpg,high,memory-momentum10,NULL
1682669569,e7e24b54cb811098a137aabde30331f1,PennController,7,0,experiment,NULL,Canvas,canvas6,Print,NA,1682669458402,sonaID,undefined,4,candy,critical,A,25,candy15.jpg,candy35.jpg,high,memory-momentum10,NULL
1682669569,e7e24b54cb811098a137aabde30331f1,PennController,7,0,experiment,NULL,Video,progression,buffer,0.002731,1682669456241,sonaID,undefined,4,candy,critical,A,25,candy15.jpg,candy35.jpg,high,memory-momentum10,NULL
1682669569,e7e24b54cb811098a137aabde30331f1,PennController,7,0,experiment,NULL,Selector,choice,Selection,option1,1682669460486,sonaID,undefined,4,candy,critical,A,25,candy15.jpg,candy35.jpg,high,memory-momentum10,option1;option2
1682669569,e7e24b54cb811098a137aabde30331f1,PennController,7,0,experiment,NULL,PennController,6,_Trial_,End,1682669460488,sonaID,undefined,4,candy,critical,A,25,candy15.jpg,candy35.jpg,high,memory-momentum10,NULL
1682669569,e7e24b54cb811098a137aabde30331f1,PennController,30,0,experiment,NULL,PennController,29,_PreloadFailed_,fixation.png,1682669520496,sonaID,undefined,27,rice,filler,A,75,square65.jpg,square85.jpg,GoalA,memory-momentum10,NULL
1682669569,e7e24b54cb811098a137aabde30331f1,PennController,30,0,experiment,NULL,PennController,29,_PreloadFailed_,https://raw.githubusercontent.com/karenwli/rep-momentum/main/rice/rice00.jpg,1682669520496,sonaID,undefined,27,rice,filler,A,75,square65.jpg,square85.jpg,GoalA,memory-momentum10,NULL
1682669569,e7e24b54cb811098a137aabde30331f1,PennController,30,0,experiment,NULL,PennController,29,_PreloadFailed_,https://video.wixstatic.com/video/7cb05b_41aae65ca27d43c3a89b5e46732d18ff/144p/mp4/file.mp4,1682669520496,sonaID,undefined,27,rice,filler,A,75,square65.jpg,square85.jpg,GoalA,memory-momentum10,NULL
1682669569,e7e24b54cb811098a137aabde30331f1,PennController,30,0,experiment,NULL,PennController,29,_Trial_,Start,1682669520496,sonaID,undefined,27,rice,filler,A,75,square65.jpg,square85.jpg,GoalA,memory-momentum10,NULL
1682669569,e7e24b54cb811098a137aabde30331f1,PennController,30,0,experiment,NULL,PennController,29,_Header_,Start,1682669520496,sonaID,undefined,27,rice,filler,A,75,square65.jpg,square85.jpg,GoalA,memory-momentum10,NULL
1682669569,e7e24b54cb811098a137aabde30331f1,PennController,30,0,experiment,NULL,PennController,29,_Header_,End,1682669520496,sonaID,undefined,27,rice,filler,A,75,square65.jpg,square85.jpg,GoalA,memory-momentum10,NULL
1682669569,e7e24b54cb811098a137aabde30331f1,PennController,30,0,experiment,NULL,Canvas,canvas6,Print,NA,1682669528187,sonaID,undefined,27,rice,filler,A,75,square65.jpg,square85.jpg,GoalA,memory-momentum10,NULL
1682669569,e7e24b54cb811098a137aabde30331f1,PennController,30,0,experiment,NULL,Video,progression,buffer,0.003945,1682669524018,sonaID,undefined,27,rice,filler,A,75,square65.jpg,square85.jpg,GoalA,memory-momentum10,NULL
1682669569,e7e24b54cb811098a137aabde30331f1,PennController,30,0,experiment,NULL,Selector,choice,Selection,option1,1682669532771,sonaID,undefined,27,rice,filler,A,75,square65.jpg,square85.jpg,GoalA,memory-momentum10,option1;option2
1682669569,e7e24b54cb811098a137aabde30331f1,PennController,30,0,experiment,NULL,PennController,29,_Trial_,End,1682669532772,sonaID,undefined,27,rice,filler,A,75,square65.jpg,square85.jpg,GoalA,memory-momentum10,NULL
1682669569,e7e24b54cb811098a137aabde30331f1,PennController,28,0,experiment,NULL,PennController,27,_Trial_,Start,1682669532773,sonaID,undefined,25,house,filler,A,25,house15.jpg,house35.jpg,GoalA,memory-momentum10,NULL
1682669569,e7e24b54cb811098a137aabde30331f1,PennController,28,0,experiment,NULL,PennController,27,_Header_,Start,1682669532773,sonaID,undefined,25,house,filler,A,25,house15.jpg,house35.jpg,GoalA,memory-momentum10,NULL
1682669569,e7e24b54cb811098a137aabde30331f1,PennController,28,0,experiment,NULL,PennController,27,_Header_,End,1682669532773,sonaID,undefined,25,house,filler,A,25,house15.jpg,house35.jpg,GoalA,memory-momentum10,NULL
1682669569,e7e24b54cb811098a137aabde30331f1,PennController,28,0,experiment,NULL,Canvas,canvas6,Print,NA,1682669538448,sonaID,undefined,25,house,filler,A,25,house15.jpg,house35.jpg,GoalA,memory-momentum10,NULL
1682669569,e7e24b54cb811098a137aabde30331f1,PennController,28,0,experiment,NULL,Video,progression,buffer,0.001996,1682669536288,sonaID,undefined,25,house,filler,A,25,house15.jpg,house35.jpg,GoalA,memory-momentum10,NULL
1682669569,e7e24b54cb811098a137aabde30331f1,PennController,28,0,experiment,NULL,Selector,choice,Selection,option1,1682669540986,sonaID,undefined,25,house,filler,A,25,house15.jpg,house35.jpg,GoalA,memory-momentum10,option2;option1
1682669569,e7e24b54cb811098a137aabde30331f1,PennController,28,0,experiment,NULL,PennController,27,_Trial_,End,1682669540987,sonaID,undefined,25,house,filler,A,25,house15.jpg,house35.jpg,GoalA,memory-momentum10,NULL
1682669569,e7e24b54cb811098a137aabde30331f1,PennController,4,0,experiment,NULL,PennController,3,_Trial_,Start,1682669540988,sonaID,undefined,1,vase,critical,A,25,vase15.jpg,vase35.jpg,low ,memory-momentum10,NULL
1682669569,e7e24b54cb811098a137aabde30331f1,PennController,4,0,experiment,NULL,PennController,3,_Header_,Start,1682669540988,sonaID,undefined,1,vase,critical,A,25,vase15.jpg,vase35.jpg,low ,memory-momentum10,NULL
1682669569,e7e24b54cb811098a137aabde30331f1,PennController,4,0,experiment,NULL,PennController,3,_Header_,End,1682669540988,sonaID,undefined,1,vase,critical,A,25,vase15.jpg,vase35.jpg,low ,memory-momentum10,NULL
1682669569,e7e24b54cb811098a137aabde30331f1,PennController,4,0,experiment,NULL,Canvas,canvas6,Print,NA,1682669546678,sonaID,undefined,1,vase,critical,A,25,vase15.jpg,vase35.jpg,low ,memory-momentum10,NULL
1682669569,e7e24b54cb811098a137aabde30331f1,PennController,4,0,experiment,NULL,Video,progression,buffer,0.003434,1682669544511,sonaID,undefined,1,vase,critical,A,25,vase15.jpg,vase35.jpg,low ,memory-momentum10,NULL
1682669569,e7e24b54cb811098a137aabde30331f1,PennController,4,0,experiment,NULL,Selector,choice,Selection,option2,1682669548740,sonaID,undefined,1,vase,critical,A,25,vase15.jpg,vase35.jpg,low ,memory-momentum10,option2;option1
1682669569,e7e24b54cb811098a137aabde30331f1,PennController,4,0,experiment,NULL,PennController,3,_Trial_,End,1682669548741,sonaID,undefined,1,vase,critical,A,25,vase15.jpg,vase35.jpg,low ,memory-momentum10,NULL
1682669569,e7e24b54cb811098a137aabde30331f1,PennController,14,0,experiment,NULL,PennController,13,_Trial_,Start,1682669548742,sonaID,undefined,11,beads,critical,A,50,beads40.jpg,beads60.jpg,low ,memory-momentum10,NULL
1682669569,e7e24b54cb811098a137aabde30331f1,PennController,14,0,experiment,NULL,PennController,13,_Header_,Start,1682669548742,sonaID,undefined,11,beads,critical,A,50,beads40.jpg,beads60.jpg,low ,memory-momentum10,NULL
1682669569,e7e24b54cb811098a137aabde30331f1,PennController,14,0,experiment,NULL,PennController,13,_Header_,End,1682669548742,sonaID,undefined,11,beads,critical,A,50,beads40.jpg,beads60.jpg,low ,memory-momentum10,NULL
1682669569,e7e24b54cb811098a137aabde30331f1,PennController,14,0,experiment,NULL,Canvas,canvas6,Print,NA,1682669555435,sonaID,undefined,11,beads,critical,A,50,beads40.jpg,beads60.jpg,low ,memory-momentum10,NULL
1682669569,e7e24b54cb811098a137aabde30331f1,PennController,14,0,experiment,NULL,Video,progression,buffer,0.004559,1682669552266,sonaID,undefined,11,beads,critical,A,50,beads40.jpg,beads60.jpg,low ,memory-momentum10,NULL
1682669569,e7e24b54cb811098a137aabde30331f1,PennController,14,0,experiment,NULL,Selector,choice,Selection,option2,1682669559533,sonaID,undefined,11,beads,critical,A,50,beads40.jpg,beads60.jpg,low ,memory-momentum10,option1;option2
1682669569,e7e24b54cb811098a137aabde30331f1,PennController,14,0,experiment,NULL,PennController,13,_Trial_,End,1682669559535,sonaID,undefined,11,beads,critical,A,50,beads40.jpg,beads60.jpg,low ,memory-momentum10,NULL
1682669569,e7e24b54cb811098a137aabde30331f1,PennController,24,0,experiment,NULL,PennController,23,_Trial_,Start,1682669559536,sonaID,undefined,21,visit,filler,A,75,visit65.jpg,visit85.jpg,GoalA,memory-momentum10,NULL
1682669569,e7e24b54cb811098a137aabde30331f1,PennController,24,0,experiment,NULL,PennController,23,_Header_,Start,1682669559536,sonaID,undefined,21,visit,filler,A,75,visit65.jpg,visit85.jpg,GoalA,memory-momentum10,NULL
1682669569,e7e24b54cb811098a137aabde30331f1,PennController,24,0,experiment,NULL,PennController,23,_Header_,End,1682669559536,sonaID,undefined,21,visit,filler,A,75,visit65.jpg,visit85.jpg,GoalA,memory-momentum10,NULL
1682669569,e7e24b54cb811098a137aabde30331f1,PennController,24,0,experiment,NULL,Canvas,canvas6,Print,NA,1682669567215,sonaID,undefined,21,visit,filler,A,75,visit65.jpg,visit85.jpg,GoalA,memory-momentum10,NULL
1682669569,e7e24b54cb811098a137aabde30331f1,PennController,24,0,experiment,NULL,Video,progression,buffer,0.003123,1682669563057,sonaID,undefined,21,visit,filler,A,75,visit65.jpg,visit85.jpg,GoalA,memory-momentum10,NULL
1682669569,e7e24b54cb811098a137aabde30331f1,PennController,24,0,experiment,NULL,Selector,choice,Selection,option2,1682669569847,sonaID,undefined,21,visit,filler,A,75,visit65.jpg,visit85.jpg,GoalA,memory-momentum10,option2;option1
1682669569,e7e24b54cb811098a137aabde30331f1,PennController,24,0,experiment,NULL,PennController,23,_Trial_,End,1682669569849,sonaID,undefined,21,visit,filler,A,75,visit65.jpg,visit85.jpg,GoalA,memory-momentum10,NULL
