#
# Results on Saturday April 29 2023 16:31:53 UTC
# USER AGENT: Mozilla/5.0 (Macintosh; Intel Mac OS X 10_15_7) AppleWebKit/605.1.15 (KHTML, like Gecko) Version/16.1 Safari/605.1.15
# Design number was non-random = 27
#
# Columns below this comment are as follows:
# 1. Results reception time.
# 2. MD5 hash of participant's IP address.
# 3. Controller name.
# 4. Order number of item.
# 5. Inner element number.
# 6. Label.
# 7. Latin Square Group.
# 8. PennElementType.
# 9. PennElementName.
# 10. Parameter.
# 11. Value.
# 12. EventTime.
# 13. sonaID.
# 14. Comments.
1682785913,59a49b913681b8984a6d1d78999421ab,PennController,2,0,consent,NULL,PennController,0,_Header_,End,1682785552191,sonaID,NULL
1682785913,59a49b913681b8984a6d1d78999421ab,PennController,2,0,consent,NULL,PennController,0,_Header_,Start,1682785552191,sonaID,NULL
1682785913,59a49b913681b8984a6d1d78999421ab,PennController,2,0,consent,NULL,PennController,0,_Trial_,Start,1682785552191,sonaID,NULL
1682785913,59a49b913681b8984a6d1d78999421ab,PennController,2,0,consent,NULL,PennController,0,_Trial_,End,1682785556397,sonaID,NULL
# Columns below this comment are as follows:
# 14. ID.
# 15. Comments.
1682785913,59a49b913681b8984a6d1d78999421ab,PennController,3,0,intro,NULL,PennController,1,_Header_,End,1682785556398,sonaID,undefined,NULL
1682785913,59a49b913681b8984a6d1d78999421ab,PennController,3,0,intro,NULL,PennController,1,_Header_,Start,1682785556398,sonaID,undefined,NULL
1682785913,59a49b913681b8984a6d1d78999421ab,PennController,3,0,intro,NULL,PennController,1,_Trial_,Start,1682785556398,sonaID,undefined,NULL
1682785913,59a49b913681b8984a6d1d78999421ab,PennController,3,0,intro,NULL,TextInput,inputID,First,,1682785558269,sonaID,undefined,2
1682785913,59a49b913681b8984a6d1d78999421ab,PennController,3,0,intro,NULL,TextInput,inputID,EnterReturn,21625628,1682785561916,sonaID,undefined,NULL
1682785913,59a49b913681b8984a6d1d78999421ab,PennController,3,0,intro,NULL,PennController,1,_Trial_,End,1682785561927,sonaID,undefined,NULL
1682785913,59a49b913681b8984a6d1d78999421ab,PennController,3,0,intro,NULL,TextInput,inputID,Final,21625628,1682785561927,sonaID,undefined,NULL
# Columns below this comment are as follows:
# 15. item_number.
# 16. item.
# 17. type.
# 18. Group.
# 19. prog.
# 20. prev_image.
# 21. next_image.
# 22. height.
# 23. memory-momentum10.
# 24. Comments.
1682785913,59a49b913681b8984a6d1d78999421ab,PennController,30,0,experiment,NULL,PennController,29,_Header_,End,1682785621932,sonaID,undefined,27,rice,filler,D,75,square65.jpg,square85.jpg,GoalB,memory-momentum10,NULL
1682785913,59a49b913681b8984a6d1d78999421ab,PennController,30,0,experiment,NULL,PennController,29,_Header_,Start,1682785621932,sonaID,undefined,27,rice,filler,D,75,square65.jpg,square85.jpg,GoalB,memory-momentum10,NULL
1682785913,59a49b913681b8984a6d1d78999421ab,PennController,30,0,experiment,NULL,PennController,29,_Trial_,Start,1682785621932,sonaID,undefined,27,rice,filler,D,75,square65.jpg,square85.jpg,GoalB,memory-momentum10,NULL
1682785913,59a49b913681b8984a6d1d78999421ab,PennController,30,0,experiment,NULL,PennController,29,_PreloadFailed_,https://video.wixstatic.com/video/7cb05b_41aae65ca27d43c3a89b5e46732d18ff/144p/mp4/file.mp4,1682785621932,sonaID,undefined,27,rice,filler,D,75,square65.jpg,square85.jpg,GoalB,memory-momentum10,NULL
1682785913,59a49b913681b8984a6d1d78999421ab,PennController,30,0,experiment,NULL,PennController,29,_PreloadFailed_,https://raw.githubusercontent.com/karenwli/rep-momentum/main/rice/rice00.jpg,1682785621932,sonaID,undefined,27,rice,filler,D,75,square65.jpg,square85.jpg,GoalB,memory-momentum10,NULL
1682785913,59a49b913681b8984a6d1d78999421ab,PennController,30,0,experiment,NULL,PennController,29,_PreloadFailed_,fixation.png,1682785621932,sonaID,undefined,27,rice,filler,D,75,square65.jpg,square85.jpg,GoalB,memory-momentum10,NULL
1682785913,59a49b913681b8984a6d1d78999421ab,PennController,30,0,experiment,NULL,Canvas,canvas6,Print,NA,1682785629692,sonaID,undefined,27,rice,filler,D,75,square65.jpg,square85.jpg,GoalB,memory-momentum10,NULL
1682785913,59a49b913681b8984a6d1d78999421ab,PennController,30,0,experiment,NULL,Selector,choice,Selection,option1,1682785635760,sonaID,undefined,27,rice,filler,D,75,square65.jpg,square85.jpg,GoalB,memory-momentum10,option2;option1
1682785913,59a49b913681b8984a6d1d78999421ab,PennController,30,0,experiment,NULL,PennController,29,_Trial_,End,1682785635762,sonaID,undefined,27,rice,filler,D,75,square65.jpg,square85.jpg,GoalB,memory-momentum10,NULL
1682785913,59a49b913681b8984a6d1d78999421ab,PennController,9,0,experiment,NULL,PennController,8,_Header_,End,1682785635764,sonaID,undefined,6,flower,critical,D,75,flower65.jpg,flower85.jpg,low ,memory-momentum10,NULL
1682785913,59a49b913681b8984a6d1d78999421ab,PennController,9,0,experiment,NULL,PennController,8,_Header_,Start,1682785635764,sonaID,undefined,6,flower,critical,D,75,flower65.jpg,flower85.jpg,low ,memory-momentum10,NULL
1682785913,59a49b913681b8984a6d1d78999421ab,PennController,9,0,experiment,NULL,PennController,8,_Trial_,Start,1682785635764,sonaID,undefined,6,flower,critical,D,75,flower65.jpg,flower85.jpg,low ,memory-momentum10,NULL
1682785913,59a49b913681b8984a6d1d78999421ab,PennController,9,0,experiment,NULL,Canvas,canvas6,Print,NA,1682785643518,sonaID,undefined,6,flower,critical,D,75,flower65.jpg,flower85.jpg,low ,memory-momentum10,NULL
1682785913,59a49b913681b8984a6d1d78999421ab,PennController,9,0,experiment,NULL,Selector,choice,Selection,option2,1682785646700,sonaID,undefined,6,flower,critical,D,75,flower65.jpg,flower85.jpg,low ,memory-momentum10,option2;option1
1682785913,59a49b913681b8984a6d1d78999421ab,PennController,9,0,experiment,NULL,PennController,8,_Trial_,End,1682785646701,sonaID,undefined,6,flower,critical,D,75,flower65.jpg,flower85.jpg,low ,memory-momentum10,NULL
1682785913,59a49b913681b8984a6d1d78999421ab,PennController,17,0,experiment,NULL,PennController,16,_Header_,End,1682785646703,sonaID,undefined,14,cover,critical,D,50,cover42.jpg,cover60.jpg,low ,memory-momentum10,NULL
1682785913,59a49b913681b8984a6d1d78999421ab,PennController,17,0,experiment,NULL,PennController,16,_Header_,Start,1682785646703,sonaID,undefined,14,cover,critical,D,50,cover42.jpg,cover60.jpg,low ,memory-momentum10,NULL
1682785913,59a49b913681b8984a6d1d78999421ab,PennController,17,0,experiment,NULL,PennController,16,_Trial_,Start,1682785646703,sonaID,undefined,14,cover,critical,D,50,cover42.jpg,cover60.jpg,low ,memory-momentum10,NULL
1682785913,59a49b913681b8984a6d1d78999421ab,PennController,17,0,experiment,NULL,Canvas,canvas6,Print,NA,1682785654855,sonaID,undefined,14,cover,critical,D,50,cover42.jpg,cover60.jpg,low ,memory-momentum10,NULL
1682785913,59a49b913681b8984a6d1d78999421ab,PennController,17,0,experiment,NULL,Selector,choice,Selection,option1,1682785658035,sonaID,undefined,14,cover,critical,D,50,cover42.jpg,cover60.jpg,low ,memory-momentum10,option1;option2
1682785913,59a49b913681b8984a6d1d78999421ab,PennController,17,0,experiment,NULL,PennController,16,_Trial_,End,1682785658036,sonaID,undefined,14,cover,critical,D,50,cover42.jpg,cover60.jpg,low ,memory-momentum10,NULL
1682785913,59a49b913681b8984a6d1d78999421ab,PennController,23,0,experiment,NULL,PennController,22,_Header_,End,1682785658038,sonaID,undefined,20,cat,filler,D,50,cat40.jpg,cat60.jpg,GoalA,memory-momentum10,NULL
1682785913,59a49b913681b8984a6d1d78999421ab,PennController,23,0,experiment,NULL,PennController,22,_Header_,Start,1682785658038,sonaID,undefined,20,cat,filler,D,50,cat40.jpg,cat60.jpg,GoalA,memory-momentum10,NULL
1682785913,59a49b913681b8984a6d1d78999421ab,PennController,23,0,experiment,NULL,PennController,22,_Trial_,Start,1682785658038,sonaID,undefined,20,cat,filler,D,50,cat40.jpg,cat60.jpg,GoalA,memory-momentum10,NULL
1682785913,59a49b913681b8984a6d1d78999421ab,PennController,23,0,experiment,NULL,Canvas,canvas6,Print,NA,1682785664790,sonaID,undefined,20,cat,filler,D,50,cat40.jpg,cat60.jpg,GoalA,memory-momentum10,NULL
1682785913,59a49b913681b8984a6d1d78999421ab,PennController,23,0,experiment,NULL,Selector,choice,Selection,option2,1682785666144,sonaID,undefined,20,cat,filler,D,50,cat40.jpg,cat60.jpg,GoalA,memory-momentum10,option1;option2
1682785913,59a49b913681b8984a6d1d78999421ab,PennController,23,0,experiment,NULL,PennController,22,_Trial_,End,1682785666146,sonaID,undefined,20,cat,filler,D,50,cat40.jpg,cat60.jpg,GoalA,memory-momentum10,NULL
1682785913,59a49b913681b8984a6d1d78999421ab,PennController,31,0,experiment,NULL,PennController,30,_Header_,End,1682785666148,sonaID,undefined,28,sort,filler,D,25,sort15.jpg,sort35.jpg,GoalA,memory-momentum10,NULL
1682785913,59a49b913681b8984a6d1d78999421ab,PennController,31,0,experiment,NULL,PennController,30,_Header_,Start,1682785666148,sonaID,undefined,28,sort,filler,D,25,sort15.jpg,sort35.jpg,GoalA,memory-momentum10,NULL
1682785913,59a49b913681b8984a6d1d78999421ab,PennController,31,0,experiment,NULL,PennController,30,_Trial_,Start,1682785666148,sonaID,undefined,28,sort,filler,D,25,sort15.jpg,sort35.jpg,GoalA,memory-momentum10,NULL
1682785913,59a49b913681b8984a6d1d78999421ab,PennController,31,0,experiment,NULL,Canvas,canvas6,Print,NA,1682785671908,sonaID,undefined,28,sort,filler,D,25,sort15.jpg,sort35.jpg,GoalA,memory-momentum10,NULL
1682785913,59a49b913681b8984a6d1d78999421ab,PennController,31,0,experiment,NULL,Selector,choice,Selection,option2,1682785676401,sonaID,undefined,28,sort,filler,D,25,sort15.jpg,sort35.jpg,GoalA,memory-momentum10,option2;option1
1682785913,59a49b913681b8984a6d1d78999421ab,PennController,31,0,experiment,NULL,PennController,30,_Trial_,End,1682785676403,sonaID,undefined,28,sort,filler,D,25,sort15.jpg,sort35.jpg,GoalA,memory-momentum10,NULL
1682785913,59a49b913681b8984a6d1d78999421ab,PennController,24,0,experiment,NULL,PennController,23,_Header_,End,1682785676405,sonaID,undefined,21,visit,filler,D,75,visit65.jpg,visit85.jpg,GoalB,memory-momentum10,NULL
1682785913,59a49b913681b8984a6d1d78999421ab,PennController,24,0,experiment,NULL,PennController,23,_Header_,Start,1682785676405,sonaID,undefined,21,visit,filler,D,75,visit65.jpg,visit85.jpg,GoalB,memory-momentum10,NULL
1682785913,59a49b913681b8984a6d1d78999421ab,PennController,24,0,experiment,NULL,PennController,23,_Trial_,Start,1682785676405,sonaID,undefined,21,visit,filler,D,75,visit65.jpg,visit85.jpg,GoalB,memory-momentum10,NULL
1682785913,59a49b913681b8984a6d1d78999421ab,PennController,24,0,experiment,NULL,Canvas,canvas6,Print,NA,1682785684158,sonaID,undefined,21,visit,filler,D,75,visit65.jpg,visit85.jpg,GoalB,memory-momentum10,NULL
1682785913,59a49b913681b8984a6d1d78999421ab,PennController,24,0,experiment,NULL,Selector,choice,Selection,option2,1682785686023,sonaID,undefined,21,visit,filler,D,75,visit65.jpg,visit85.jpg,GoalB,memory-momentum10,option2;option1
1682785913,59a49b913681b8984a6d1d78999421ab,PennController,24,0,experiment,NULL,PennController,23,_Trial_,End,1682785686024,sonaID,undefined,21,visit,filler,D,75,visit65.jpg,visit85.jpg,GoalB,memory-momentum10,NULL
1682785913,59a49b913681b8984a6d1d78999421ab,PennController,11,0,experiment,NULL,PennController,10,_Header_,Start,1682785686025,sonaID,undefined,8,cucumber,critical,D,50,cucumber42.jpg,cucumber60.jpg,low ,memory-momentum10,NULL
1682785913,59a49b913681b8984a6d1d78999421ab,PennController,11,0,experiment,NULL,PennController,10,_Trial_,Start,1682785686025,sonaID,undefined,8,cucumber,critical,D,50,cucumber42.jpg,cucumber60.jpg,low ,memory-momentum10,NULL
1682785913,59a49b913681b8984a6d1d78999421ab,PennController,11,0,experiment,NULL,PennController,10,_Header_,End,1682785686026,sonaID,undefined,8,cucumber,critical,D,50,cucumber42.jpg,cucumber60.jpg,low ,memory-momentum10,NULL
1682785913,59a49b913681b8984a6d1d78999421ab,PennController,11,0,experiment,NULL,Canvas,canvas6,Print,NA,1682785694174,sonaID,undefined,8,cucumber,critical,D,50,cucumber42.jpg,cucumber60.jpg,low ,memory-momentum10,NULL
1682785913,59a49b913681b8984a6d1d78999421ab,PennController,11,0,experiment,NULL,Selector,choice,Selection,option2,1682785699367,sonaID,undefined,8,cucumber,critical,D,50,cucumber42.jpg,cucumber60.jpg,low ,memory-momentum10,option2;option1
1682785913,59a49b913681b8984a6d1d78999421ab,PennController,11,0,experiment,NULL,PennController,10,_Trial_,End,1682785699369,sonaID,undefined,8,cucumber,critical,D,50,cucumber42.jpg,cucumber60.jpg,low ,memory-momentum10,NULL
1682785913,59a49b913681b8984a6d1d78999421ab,PennController,25,0,experiment,NULL,PennController,24,_Header_,End,1682785699370,sonaID,undefined,22,wall,filler,D,25,wall15.jpg,wall35.jpg,GoalA,memory-momentum10,NULL
1682785913,59a49b913681b8984a6d1d78999421ab,PennController,25,0,experiment,NULL,PennController,24,_Header_,Start,1682785699370,sonaID,undefined,22,wall,filler,D,25,wall15.jpg,wall35.jpg,GoalA,memory-momentum10,NULL
1682785913,59a49b913681b8984a6d1d78999421ab,PennController,25,0,experiment,NULL,PennController,24,_Trial_,Start,1682785699370,sonaID,undefined,22,wall,filler,D,25,wall15.jpg,wall35.jpg,GoalA,memory-momentum10,NULL
1682785913,59a49b913681b8984a6d1d78999421ab,PennController,25,0,experiment,NULL,Canvas,canvas6,Print,NA,1682785705115,sonaID,undefined,22,wall,filler,D,25,wall15.jpg,wall35.jpg,GoalA,memory-momentum10,NULL
1682785913,59a49b913681b8984a6d1d78999421ab,PennController,25,0,experiment,NULL,Selector,choice,Selection,option1,1682785709400,sonaID,undefined,22,wall,filler,D,25,wall15.jpg,wall35.jpg,GoalA,memory-momentum10,option2;option1
1682785913,59a49b913681b8984a6d1d78999421ab,PennController,25,0,experiment,NULL,PennController,24,_Trial_,End,1682785709401,sonaID,undefined,22,wall,filler,D,25,wall15.jpg,wall35.jpg,GoalA,memory-momentum10,NULL
1682785913,59a49b913681b8984a6d1d78999421ab,PennController,32,0,experiment,NULL,PennController,31,_Header_,End,1682785709403,sonaID,undefined,29,frog,filler,D,50,frog40.jpg,frog60.jpg,GoalB,memory-momentum10,NULL
1682785913,59a49b913681b8984a6d1d78999421ab,PennController,32,0,experiment,NULL,PennController,31,_Header_,Start,1682785709403,sonaID,undefined,29,frog,filler,D,50,frog40.jpg,frog60.jpg,GoalB,memory-momentum10,NULL
1682785913,59a49b913681b8984a6d1d78999421ab,PennController,32,0,experiment,NULL,PennController,31,_Trial_,Start,1682785709403,sonaID,undefined,29,frog,filler,D,50,frog40.jpg,frog60.jpg,GoalB,memory-momentum10,NULL
1682785913,59a49b913681b8984a6d1d78999421ab,PennController,32,0,experiment,NULL,Canvas,canvas6,Print,NA,1682785716160,sonaID,undefined,29,frog,filler,D,50,frog40.jpg,frog60.jpg,GoalB,memory-momentum10,NULL
1682785913,59a49b913681b8984a6d1d78999421ab,PennController,32,0,experiment,NULL,Selector,choice,Selection,option1,1682785718388,sonaID,undefined,29,frog,filler,D,50,frog40.jpg,frog60.jpg,GoalB,memory-momentum10,option2;option1
1682785913,59a49b913681b8984a6d1d78999421ab,PennController,32,0,experiment,NULL,PennController,31,_Trial_,End,1682785718390,sonaID,undefined,29,frog,filler,D,50,frog40.jpg,frog60.jpg,GoalB,memory-momentum10,NULL
1682785913,59a49b913681b8984a6d1d78999421ab,PennController,5,0,experiment,NULL,PennController,4,_Header_,End,1682785718392,sonaID,undefined,2,door,critical,D,50,door40.jpg,door60.jpg,low ,memory-momentum10,NULL
1682785913,59a49b913681b8984a6d1d78999421ab,PennController,5,0,experiment,NULL,PennController,4,_Header_,Start,1682785718392,sonaID,undefined,2,door,critical,D,50,door40.jpg,door60.jpg,low ,memory-momentum10,NULL
1682785913,59a49b913681b8984a6d1d78999421ab,PennController,5,0,experiment,NULL,PennController,4,_Trial_,Start,1682785718392,sonaID,undefined,2,door,critical,D,50,door40.jpg,door60.jpg,low ,memory-momentum10,NULL
1682785913,59a49b913681b8984a6d1d78999421ab,PennController,5,0,experiment,NULL,Canvas,canvas6,Print,NA,1682785725139,sonaID,undefined,2,door,critical,D,50,door40.jpg,door60.jpg,low ,memory-momentum10,NULL
1682785913,59a49b913681b8984a6d1d78999421ab,PennController,5,0,experiment,NULL,Selector,choice,Selection,option1,1682785729608,sonaID,undefined,2,door,critical,D,50,door40.jpg,door60.jpg,low ,memory-momentum10,option1;option2
1682785913,59a49b913681b8984a6d1d78999421ab,PennController,5,0,experiment,NULL,PennController,4,_Trial_,End,1682785729609,sonaID,undefined,2,door,critical,D,50,door40.jpg,door60.jpg,low ,memory-momentum10,NULL
1682785913,59a49b913681b8984a6d1d78999421ab,PennController,22,0,experiment,NULL,PennController,21,_Header_,End,1682785729611,sonaID,undefined,19,cup,filler,D,25,cup15.jpg,cup35.jpg,GoalB,memory-momentum10,NULL
1682785913,59a49b913681b8984a6d1d78999421ab,PennController,22,0,experiment,NULL,PennController,21,_Header_,Start,1682785729611,sonaID,undefined,19,cup,filler,D,25,cup15.jpg,cup35.jpg,GoalB,memory-momentum10,NULL
1682785913,59a49b913681b8984a6d1d78999421ab,PennController,22,0,experiment,NULL,PennController,21,_Trial_,Start,1682785729611,sonaID,undefined,19,cup,filler,D,25,cup15.jpg,cup35.jpg,GoalB,memory-momentum10,NULL
1682785913,59a49b913681b8984a6d1d78999421ab,PennController,22,0,experiment,NULL,Canvas,canvas6,Print,NA,1682785735354,sonaID,undefined,19,cup,filler,D,25,cup15.jpg,cup35.jpg,GoalB,memory-momentum10,NULL
1682785913,59a49b913681b8984a6d1d78999421ab,PennController,22,0,experiment,NULL,Selector,choice,Selection,option1,1682785740124,sonaID,undefined,19,cup,filler,D,25,cup15.jpg,cup35.jpg,GoalB,memory-momentum10,option2;option1
1682785913,59a49b913681b8984a6d1d78999421ab,PennController,22,0,experiment,NULL,PennController,21,_Trial_,End,1682785740126,sonaID,undefined,19,cup,filler,D,25,cup15.jpg,cup35.jpg,GoalB,memory-momentum10,NULL
1682785913,59a49b913681b8984a6d1d78999421ab,PennController,26,0,experiment,NULL,PennController,25,_Header_,End,1682785740127,sonaID,undefined,23,color,filler,D,50,color40.jpg,color60.jpg,GoalB,memory-momentum10,NULL
1682785913,59a49b913681b8984a6d1d78999421ab,PennController,26,0,experiment,NULL,PennController,25,_Header_,Start,1682785740127,sonaID,undefined,23,color,filler,D,50,color40.jpg,color60.jpg,GoalB,memory-momentum10,NULL
1682785913,59a49b913681b8984a6d1d78999421ab,PennController,26,0,experiment,NULL,PennController,25,_Trial_,Start,1682785740127,sonaID,undefined,23,color,filler,D,50,color40.jpg,color60.jpg,GoalB,memory-momentum10,NULL
1682785913,59a49b913681b8984a6d1d78999421ab,PennController,26,0,experiment,NULL,Canvas,canvas6,Print,NA,1682785746870,sonaID,undefined,23,color,filler,D,50,color40.jpg,color60.jpg,GoalB,memory-momentum10,NULL
1682785913,59a49b913681b8984a6d1d78999421ab,PennController,26,0,experiment,NULL,Selector,choice,Selection,option1,1682785751457,sonaID,undefined,23,color,filler,D,50,color40.jpg,color60.jpg,GoalB,memory-momentum10,option2;option1
1682785913,59a49b913681b8984a6d1d78999421ab,PennController,26,0,experiment,NULL,PennController,25,_Trial_,End,1682785751458,sonaID,undefined,23,color,filler,D,50,color40.jpg,color60.jpg,GoalB,memory-momentum10,NULL
1682785913,59a49b913681b8984a6d1d78999421ab,PennController,4,0,experiment,NULL,PennController,3,_Header_,End,1682785751459,sonaID,undefined,1,vase,critical,D,50,vase10.jpg,vase40.jpg,high,memory-momentum10,NULL
1682785913,59a49b913681b8984a6d1d78999421ab,PennController,4,0,experiment,NULL,PennController,3,_Header_,Start,1682785751459,sonaID,undefined,1,vase,critical,D,50,vase10.jpg,vase40.jpg,high,memory-momentum10,NULL
1682785913,59a49b913681b8984a6d1d78999421ab,PennController,4,0,experiment,NULL,PennController,3,_Trial_,Start,1682785751459,sonaID,undefined,1,vase,critical,D,50,vase10.jpg,vase40.jpg,high,memory-momentum10,NULL
1682785913,59a49b913681b8984a6d1d78999421ab,PennController,4,0,experiment,NULL,Canvas,canvas6,Print,NA,1682785758206,sonaID,undefined,1,vase,critical,D,50,vase10.jpg,vase40.jpg,high,memory-momentum10,NULL
1682785913,59a49b913681b8984a6d1d78999421ab,PennController,4,0,experiment,NULL,Selector,choice,Selection,option2,1682785761286,sonaID,undefined,1,vase,critical,D,50,vase10.jpg,vase40.jpg,high,memory-momentum10,option2;option1
1682785913,59a49b913681b8984a6d1d78999421ab,PennController,4,0,experiment,NULL,PennController,3,_Trial_,End,1682785761287,sonaID,undefined,1,vase,critical,D,50,vase10.jpg,vase40.jpg,high,memory-momentum10,NULL
1682785913,59a49b913681b8984a6d1d78999421ab,PennController,19,0,experiment,NULL,PennController,18,_Header_,End,1682785761288,sonaID,undefined,16,blinds,critical,D,25,blinds15.jpg,blinds33.jpg,low ,memory-momentum10,NULL
1682785913,59a49b913681b8984a6d1d78999421ab,PennController,19,0,experiment,NULL,PennController,18,_Header_,Start,1682785761288,sonaID,undefined,16,blinds,critical,D,25,blinds15.jpg,blinds33.jpg,low ,memory-momentum10,NULL
1682785913,59a49b913681b8984a6d1d78999421ab,PennController,19,0,experiment,NULL,PennController,18,_Trial_,Start,1682785761288,sonaID,undefined,16,blinds,critical,D,25,blinds15.jpg,blinds33.jpg,low ,memory-momentum10,NULL
1682785913,59a49b913681b8984a6d1d78999421ab,PennController,19,0,experiment,NULL,Canvas,canvas6,Print,NA,1682785767638,sonaID,undefined,16,blinds,critical,D,25,blinds15.jpg,blinds33.jpg,low ,memory-momentum10,NULL
1682785913,59a49b913681b8984a6d1d78999421ab,PennController,19,0,experiment,NULL,Selector,choice,Selection,option1,1682785770965,sonaID,undefined,16,blinds,critical,D,25,blinds15.jpg,blinds33.jpg,low ,memory-momentum10,option1;option2
1682785913,59a49b913681b8984a6d1d78999421ab,PennController,19,0,experiment,NULL,PennController,18,_Trial_,End,1682785770966,sonaID,undefined,16,blinds,critical,D,25,blinds15.jpg,blinds33.jpg,low ,memory-momentum10,NULL
1682785913,59a49b913681b8984a6d1d78999421ab,PennController,8,0,experiment,NULL,PennController,7,_Header_,End,1682785770967,sonaID,undefined,5,book,critical,D,50,book40.jpg,book60.jpg,high,memory-momentum10,NULL
1682785913,59a49b913681b8984a6d1d78999421ab,PennController,8,0,experiment,NULL,PennController,7,_Header_,Start,1682785770967,sonaID,undefined,5,book,critical,D,50,book40.jpg,book60.jpg,high,memory-momentum10,NULL
1682785913,59a49b913681b8984a6d1d78999421ab,PennController,8,0,experiment,NULL,PennController,7,_Trial_,Start,1682785770967,sonaID,undefined,5,book,critical,D,50,book40.jpg,book60.jpg,high,memory-momentum10,NULL
1682785913,59a49b913681b8984a6d1d78999421ab,PennController,8,0,experiment,NULL,Canvas,canvas6,Print,NA,1682785777715,sonaID,undefined,5,book,critical,D,50,book40.jpg,book60.jpg,high,memory-momentum10,NULL
1682785913,59a49b913681b8984a6d1d78999421ab,PennController,8,0,experiment,NULL,Selector,choice,Selection,option1,1682785779648,sonaID,undefined,5,book,critical,D,50,book40.jpg,book60.jpg,high,memory-momentum10,option1;option2
1682785913,59a49b913681b8984a6d1d78999421ab,PennController,8,0,experiment,NULL,PennController,7,_Trial_,End,1682785779649,sonaID,undefined,5,book,critical,D,50,book40.jpg,book60.jpg,high,memory-momentum10,NULL
1682785913,59a49b913681b8984a6d1d78999421ab,PennController,6,0,experiment,NULL,PennController,5,_Header_,End,1682785779650,sonaID,undefined,3,clean,critical,D,75,clean65.jpg,clean85.jpg,high,memory-momentum10,NULL
1682785913,59a49b913681b8984a6d1d78999421ab,PennController,6,0,experiment,NULL,PennController,5,_Header_,Start,1682785779650,sonaID,undefined,3,clean,critical,D,75,clean65.jpg,clean85.jpg,high,memory-momentum10,NULL
1682785913,59a49b913681b8984a6d1d78999421ab,PennController,6,0,experiment,NULL,PennController,5,_Trial_,Start,1682785779650,sonaID,undefined,3,clean,critical,D,75,clean65.jpg,clean85.jpg,high,memory-momentum10,NULL
1682785913,59a49b913681b8984a6d1d78999421ab,PennController,6,0,experiment,NULL,Canvas,canvas6,Print,NA,1682785787392,sonaID,undefined,3,clean,critical,D,75,clean65.jpg,clean85.jpg,high,memory-momentum10,NULL
1682785913,59a49b913681b8984a6d1d78999421ab,PennController,6,0,experiment,NULL,Selector,choice,Selection,option1,1682785789143,sonaID,undefined,3,clean,critical,D,75,clean65.jpg,clean85.jpg,high,memory-momentum10,option1;option2
1682785913,59a49b913681b8984a6d1d78999421ab,PennController,6,0,experiment,NULL,PennController,5,_Trial_,End,1682785789144,sonaID,undefined,3,clean,critical,D,75,clean65.jpg,clean85.jpg,high,memory-momentum10,NULL
1682785913,59a49b913681b8984a6d1d78999421ab,PennController,12,0,experiment,NULL,PennController,11,_Header_,End,1682785789145,sonaID,undefined,9,cake,critical,D,75,cake66.jpg,cake84.jpg,high,memory-momentum10,NULL
1682785913,59a49b913681b8984a6d1d78999421ab,PennController,12,0,experiment,NULL,PennController,11,_Header_,Start,1682785789145,sonaID,undefined,9,cake,critical,D,75,cake66.jpg,cake84.jpg,high,memory-momentum10,NULL
1682785913,59a49b913681b8984a6d1d78999421ab,PennController,12,0,experiment,NULL,PennController,11,_Trial_,Start,1682785789145,sonaID,undefined,9,cake,critical,D,75,cake66.jpg,cake84.jpg,high,memory-momentum10,NULL
1682785913,59a49b913681b8984a6d1d78999421ab,PennController,12,0,experiment,NULL,Canvas,canvas6,Print,NA,1682785798893,sonaID,undefined,9,cake,critical,D,75,cake66.jpg,cake84.jpg,high,memory-momentum10,NULL
1682785913,59a49b913681b8984a6d1d78999421ab,PennController,12,0,experiment,NULL,PennController,11,_Trial_,End,1682785803051,sonaID,undefined,9,cake,critical,D,75,cake66.jpg,cake84.jpg,high,memory-momentum10,NULL
1682785913,59a49b913681b8984a6d1d78999421ab,PennController,12,0,experiment,NULL,Selector,choice,Selection,option1,1682785803051,sonaID,undefined,9,cake,critical,D,75,cake66.jpg,cake84.jpg,high,memory-momentum10,option2;option1
1682785913,59a49b913681b8984a6d1d78999421ab,PennController,7,0,experiment,NULL,PennController,6,_Header_,End,1682785803052,sonaID,undefined,4,candy,critical,D,25,candy15.jpg,candy35.jpg,low ,memory-momentum10,NULL
1682785913,59a49b913681b8984a6d1d78999421ab,PennController,7,0,experiment,NULL,PennController,6,_Header_,Start,1682785803052,sonaID,undefined,4,candy,critical,D,25,candy15.jpg,candy35.jpg,low ,memory-momentum10,NULL
1682785913,59a49b913681b8984a6d1d78999421ab,PennController,7,0,experiment,NULL,PennController,6,_Trial_,Start,1682785803052,sonaID,undefined,4,candy,critical,D,25,candy15.jpg,candy35.jpg,low ,memory-momentum10,NULL
1682785913,59a49b913681b8984a6d1d78999421ab,PennController,7,0,experiment,NULL,Canvas,canvas6,Print,NA,1682785808798,sonaID,undefined,4,candy,critical,D,25,candy15.jpg,candy35.jpg,low ,memory-momentum10,NULL
1682785913,59a49b913681b8984a6d1d78999421ab,PennController,7,0,experiment,NULL,Selector,choice,Selection,option2,1682785811191,sonaID,undefined,4,candy,critical,D,25,candy15.jpg,candy35.jpg,low ,memory-momentum10,option2;option1
1682785913,59a49b913681b8984a6d1d78999421ab,PennController,7,0,experiment,NULL,PennController,6,_Trial_,End,1682785811192,sonaID,undefined,4,candy,critical,D,25,candy15.jpg,candy35.jpg,low ,memory-momentum10,NULL
1682785913,59a49b913681b8984a6d1d78999421ab,PennController,29,0,experiment,NULL,PennController,28,_Header_,End,1682785811193,sonaID,undefined,26,sandwich,filler,D,50,sandwich40.jpg,sandwich60.jpg,GoalA,memory-momentum10,NULL
1682785913,59a49b913681b8984a6d1d78999421ab,PennController,29,0,experiment,NULL,PennController,28,_Header_,Start,1682785811193,sonaID,undefined,26,sandwich,filler,D,50,sandwich40.jpg,sandwich60.jpg,GoalA,memory-momentum10,NULL
1682785913,59a49b913681b8984a6d1d78999421ab,PennController,29,0,experiment,NULL,PennController,28,_Trial_,Start,1682785811193,sonaID,undefined,26,sandwich,filler,D,50,sandwich40.jpg,sandwich60.jpg,GoalA,memory-momentum10,NULL
1682785913,59a49b913681b8984a6d1d78999421ab,PennController,29,0,experiment,NULL,Canvas,canvas6,Print,NA,1682785817930,sonaID,undefined,26,sandwich,filler,D,50,sandwich40.jpg,sandwich60.jpg,GoalA,memory-momentum10,NULL
1682785913,59a49b913681b8984a6d1d78999421ab,PennController,29,0,experiment,NULL,Selector,choice,Selection,option1,1682785819310,sonaID,undefined,26,sandwich,filler,D,50,sandwich40.jpg,sandwich60.jpg,GoalA,memory-momentum10,option2;option1
1682785913,59a49b913681b8984a6d1d78999421ab,PennController,29,0,experiment,NULL,PennController,28,_Trial_,End,1682785819311,sonaID,undefined,26,sandwich,filler,D,50,sandwich40.jpg,sandwich60.jpg,GoalA,memory-momentum10,NULL
1682785913,59a49b913681b8984a6d1d78999421ab,PennController,16,0,experiment,NULL,PennController,15,_Header_,End,1682785819312,sonaID,undefined,13,mix,critical,D,25,mix15.jpg,mix35.jpg,high,memory-momentum10,NULL
1682785913,59a49b913681b8984a6d1d78999421ab,PennController,16,0,experiment,NULL,PennController,15,_Header_,Start,1682785819312,sonaID,undefined,13,mix,critical,D,25,mix15.jpg,mix35.jpg,high,memory-momentum10,NULL
1682785913,59a49b913681b8984a6d1d78999421ab,PennController,16,0,experiment,NULL,PennController,15,_Trial_,Start,1682785819312,sonaID,undefined,13,mix,critical,D,25,mix15.jpg,mix35.jpg,high,memory-momentum10,NULL
1682785913,59a49b913681b8984a6d1d78999421ab,PennController,16,0,experiment,NULL,Canvas,canvas6,Print,NA,1682785825055,sonaID,undefined,13,mix,critical,D,25,mix15.jpg,mix35.jpg,high,memory-momentum10,NULL
1682785913,59a49b913681b8984a6d1d78999421ab,PennController,16,0,experiment,NULL,Selector,choice,Selection,option2,1682785828790,sonaID,undefined,13,mix,critical,D,25,mix15.jpg,mix35.jpg,high,memory-momentum10,option2;option1
1682785913,59a49b913681b8984a6d1d78999421ab,PennController,16,0,experiment,NULL,PennController,15,_Trial_,End,1682785828791,sonaID,undefined,13,mix,critical,D,25,mix15.jpg,mix35.jpg,high,memory-momentum10,NULL
1682785913,59a49b913681b8984a6d1d78999421ab,PennController,14,0,experiment,NULL,PennController,13,_Header_,End,1682785828792,sonaID,undefined,11,beads,critical,D,50,beads40.jpg,beads60.jpg,high,memory-momentum10,NULL
1682785913,59a49b913681b8984a6d1d78999421ab,PennController,14,0,experiment,NULL,PennController,13,_Header_,Start,1682785828792,sonaID,undefined,11,beads,critical,D,50,beads40.jpg,beads60.jpg,high,memory-momentum10,NULL
1682785913,59a49b913681b8984a6d1d78999421ab,PennController,14,0,experiment,NULL,PennController,13,_Trial_,Start,1682785828792,sonaID,undefined,11,beads,critical,D,50,beads40.jpg,beads60.jpg,high,memory-momentum10,NULL
1682785913,59a49b913681b8984a6d1d78999421ab,PennController,14,0,experiment,NULL,Canvas,canvas6,Print,NA,1682785835540,sonaID,undefined,11,beads,critical,D,50,beads40.jpg,beads60.jpg,high,memory-momentum10,NULL
1682785913,59a49b913681b8984a6d1d78999421ab,PennController,14,0,experiment,NULL,Selector,choice,Selection,option2,1682785838315,sonaID,undefined,11,beads,critical,D,50,beads40.jpg,beads60.jpg,high,memory-momentum10,option2;option1
1682785913,59a49b913681b8984a6d1d78999421ab,PennController,14,0,experiment,NULL,PennController,13,_Trial_,End,1682785838316,sonaID,undefined,11,beads,critical,D,50,beads40.jpg,beads60.jpg,high,memory-momentum10,NULL
1682785913,59a49b913681b8984a6d1d78999421ab,PennController,18,0,experiment,NULL,PennController,17,_Header_,End,1682785838317,sonaID,undefined,15,zip,critical,D,75,zip65.jpg,zip85.jpg,high,memory-momentum10,NULL
1682785913,59a49b913681b8984a6d1d78999421ab,PennController,18,0,experiment,NULL,PennController,17,_Header_,Start,1682785838317,sonaID,undefined,15,zip,critical,D,75,zip65.jpg,zip85.jpg,high,memory-momentum10,NULL
1682785913,59a49b913681b8984a6d1d78999421ab,PennController,18,0,experiment,NULL,PennController,17,_Trial_,Start,1682785838317,sonaID,undefined,15,zip,critical,D,75,zip65.jpg,zip85.jpg,high,memory-momentum10,NULL
1682785913,59a49b913681b8984a6d1d78999421ab,PennController,18,0,experiment,NULL,Canvas,canvas6,Print,NA,1682785846061,sonaID,undefined,15,zip,critical,D,75,zip65.jpg,zip85.jpg,high,memory-momentum10,NULL
1682785913,59a49b913681b8984a6d1d78999421ab,PennController,18,0,experiment,NULL,Selector,choice,Selection,option1,1682785848439,sonaID,undefined,15,zip,critical,D,75,zip65.jpg,zip85.jpg,high,memory-momentum10,option1;option2
1682785913,59a49b913681b8984a6d1d78999421ab,PennController,18,0,experiment,NULL,PennController,17,_Trial_,End,1682785848440,sonaID,undefined,15,zip,critical,D,75,zip65.jpg,zip85.jpg,high,memory-momentum10,NULL
1682785913,59a49b913681b8984a6d1d78999421ab,PennController,27,0,experiment,NULL,PennController,26,_Header_,End,1682785848441,sonaID,undefined,24,match,filler,D,75,match65.jpg,match85.jpg,GoalA,memory-momentum10,NULL
1682785913,59a49b913681b8984a6d1d78999421ab,PennController,27,0,experiment,NULL,PennController,26,_Header_,Start,1682785848441,sonaID,undefined,24,match,filler,D,75,match65.jpg,match85.jpg,GoalA,memory-momentum10,NULL
1682785913,59a49b913681b8984a6d1d78999421ab,PennController,27,0,experiment,NULL,PennController,26,_Trial_,Start,1682785848441,sonaID,undefined,24,match,filler,D,75,match65.jpg,match85.jpg,GoalA,memory-momentum10,NULL
1682785913,59a49b913681b8984a6d1d78999421ab,PennController,27,0,experiment,NULL,Canvas,canvas6,Print,NA,1682785856188,sonaID,undefined,24,match,filler,D,75,match65.jpg,match85.jpg,GoalA,memory-momentum10,NULL
1682785913,59a49b913681b8984a6d1d78999421ab,PennController,27,0,experiment,NULL,Selector,choice,Selection,option1,1682785858776,sonaID,undefined,24,match,filler,D,75,match65.jpg,match85.jpg,GoalA,memory-momentum10,option1;option2
1682785913,59a49b913681b8984a6d1d78999421ab,PennController,27,0,experiment,NULL,PennController,26,_Trial_,End,1682785858777,sonaID,undefined,24,match,filler,D,75,match65.jpg,match85.jpg,GoalA,memory-momentum10,NULL
1682785913,59a49b913681b8984a6d1d78999421ab,PennController,15,0,experiment,NULL,PennController,14,_Header_,End,1682785858778,sonaID,undefined,12,erase,critical,D,75,erase66.jpg,erase84.jpg,low ,memory-momentum10,NULL
1682785913,59a49b913681b8984a6d1d78999421ab,PennController,15,0,experiment,NULL,PennController,14,_Header_,Start,1682785858778,sonaID,undefined,12,erase,critical,D,75,erase66.jpg,erase84.jpg,low ,memory-momentum10,NULL
1682785913,59a49b913681b8984a6d1d78999421ab,PennController,15,0,experiment,NULL,PennController,14,_Trial_,Start,1682785858778,sonaID,undefined,12,erase,critical,D,75,erase66.jpg,erase84.jpg,low ,memory-momentum10,NULL
1682785913,59a49b913681b8984a6d1d78999421ab,PennController,15,0,experiment,NULL,Canvas,canvas6,Print,NA,1682785868522,sonaID,undefined,12,erase,critical,D,75,erase66.jpg,erase84.jpg,low ,memory-momentum10,NULL
1682785913,59a49b913681b8984a6d1d78999421ab,PennController,15,0,experiment,NULL,Selector,choice,Selection,option1,1682785870170,sonaID,undefined,12,erase,critical,D,75,erase66.jpg,erase84.jpg,low ,memory-momentum10,option1;option2
1682785913,59a49b913681b8984a6d1d78999421ab,PennController,15,0,experiment,NULL,PennController,14,_Trial_,End,1682785870171,sonaID,undefined,12,erase,critical,D,75,erase66.jpg,erase84.jpg,low ,memory-momentum10,NULL
1682785913,59a49b913681b8984a6d1d78999421ab,PennController,13,0,experiment,NULL,PennController,12,_Header_,End,1682785870172,sonaID,undefined,10,train,critical,D,25,train15.jpg,train35.jpg,low ,memory-momentum10,NULL
1682785913,59a49b913681b8984a6d1d78999421ab,PennController,13,0,experiment,NULL,PennController,12,_Header_,Start,1682785870172,sonaID,undefined,10,train,critical,D,25,train15.jpg,train35.jpg,low ,memory-momentum10,NULL
1682785913,59a49b913681b8984a6d1d78999421ab,PennController,13,0,experiment,NULL,PennController,12,_Trial_,Start,1682785870172,sonaID,undefined,10,train,critical,D,25,train15.jpg,train35.jpg,low ,memory-momentum10,NULL
1682785913,59a49b913681b8984a6d1d78999421ab,PennController,13,0,experiment,NULL,Canvas,canvas6,Print,NA,1682785875913,sonaID,undefined,10,train,critical,D,25,train15.jpg,train35.jpg,low ,memory-momentum10,NULL
1682785913,59a49b913681b8984a6d1d78999421ab,PennController,13,0,experiment,NULL,Selector,choice,Selection,option2,1682785880040,sonaID,undefined,10,train,critical,D,25,train15.jpg,train35.jpg,low ,memory-momentum10,option1;option2
1682785913,59a49b913681b8984a6d1d78999421ab,PennController,13,0,experiment,NULL,PennController,12,_Trial_,End,1682785880041,sonaID,undefined,10,train,critical,D,25,train15.jpg,train35.jpg,low ,memory-momentum10,NULL
1682785913,59a49b913681b8984a6d1d78999421ab,PennController,21,0,experiment,NULL,PennController,20,_Header_,End,1682785880041,sonaID,undefined,18,ball,critical,D,75,ball65.jpg,ball85.jpg,low ,memory-momentum10,NULL
1682785913,59a49b913681b8984a6d1d78999421ab,PennController,21,0,experiment,NULL,PennController,20,_Header_,Start,1682785880041,sonaID,undefined,18,ball,critical,D,75,ball65.jpg,ball85.jpg,low ,memory-momentum10,NULL
1682785913,59a49b913681b8984a6d1d78999421ab,PennController,21,0,experiment,NULL,PennController,20,_Trial_,Start,1682785880041,sonaID,undefined,18,ball,critical,D,75,ball65.jpg,ball85.jpg,low ,memory-momentum10,NULL
1682785913,59a49b913681b8984a6d1d78999421ab,PennController,21,0,experiment,NULL,Canvas,canvas6,Print,NA,1682785887782,sonaID,undefined,18,ball,critical,D,75,ball65.jpg,ball85.jpg,low ,memory-momentum10,NULL
1682785913,59a49b913681b8984a6d1d78999421ab,PennController,21,0,experiment,NULL,Selector,choice,Selection,option1,1682785889786,sonaID,undefined,18,ball,critical,D,75,ball65.jpg,ball85.jpg,low ,memory-momentum10,option2;option1
1682785913,59a49b913681b8984a6d1d78999421ab,PennController,21,0,experiment,NULL,PennController,20,_Trial_,End,1682785889787,sonaID,undefined,18,ball,critical,D,75,ball65.jpg,ball85.jpg,low ,memory-momentum10,NULL
1682785913,59a49b913681b8984a6d1d78999421ab,PennController,20,0,experiment,NULL,PennController,19,_Header_,End,1682785889788,sonaID,undefined,17,roll,critical,D,50,roll40.jpg,roll60.jpg,high,memory-momentum10,NULL
1682785913,59a49b913681b8984a6d1d78999421ab,PennController,20,0,experiment,NULL,PennController,19,_Header_,Start,1682785889788,sonaID,undefined,17,roll,critical,D,50,roll40.jpg,roll60.jpg,high,memory-momentum10,NULL
1682785913,59a49b913681b8984a6d1d78999421ab,PennController,20,0,experiment,NULL,PennController,19,_Trial_,Start,1682785889788,sonaID,undefined,17,roll,critical,D,50,roll40.jpg,roll60.jpg,high,memory-momentum10,NULL
1682785913,59a49b913681b8984a6d1d78999421ab,PennController,20,0,experiment,NULL,Canvas,canvas6,Print,NA,1682785896531,sonaID,undefined,17,roll,critical,D,50,roll40.jpg,roll60.jpg,high,memory-momentum10,NULL
1682785913,59a49b913681b8984a6d1d78999421ab,PennController,20,0,experiment,NULL,Selector,choice,Selection,option1,1682785898347,sonaID,undefined,17,roll,critical,D,50,roll40.jpg,roll60.jpg,high,memory-momentum10,option1;option2
1682785913,59a49b913681b8984a6d1d78999421ab,PennController,20,0,experiment,NULL,PennController,19,_Trial_,End,1682785898348,sonaID,undefined,17,roll,critical,D,50,roll40.jpg,roll60.jpg,high,memory-momentum10,NULL
1682785913,59a49b913681b8984a6d1d78999421ab,PennController,10,0,experiment,NULL,PennController,9,_Header_,End,1682785898349,sonaID,undefined,7,stack,critical,D,25,stack15.jpg,stack35.jpg,high,memory-momentum10,NULL
1682785913,59a49b913681b8984a6d1d78999421ab,PennController,10,0,experiment,NULL,PennController,9,_Header_,Start,1682785898349,sonaID,undefined,7,stack,critical,D,25,stack15.jpg,stack35.jpg,high,memory-momentum10,NULL
1682785913,59a49b913681b8984a6d1d78999421ab,PennController,10,0,experiment,NULL,PennController,9,_Trial_,Start,1682785898349,sonaID,undefined,7,stack,critical,D,25,stack15.jpg,stack35.jpg,high,memory-momentum10,NULL
1682785913,59a49b913681b8984a6d1d78999421ab,PennController,10,0,experiment,NULL,Canvas,canvas6,Print,NA,1682785904096,sonaID,undefined,7,stack,critical,D,25,stack15.jpg,stack35.jpg,high,memory-momentum10,NULL
1682785913,59a49b913681b8984a6d1d78999421ab,PennController,10,0,experiment,NULL,Selector,choice,Selection,option1,1682785905842,sonaID,undefined,7,stack,critical,D,25,stack15.jpg,stack35.jpg,high,memory-momentum10,option1;option2
1682785913,59a49b913681b8984a6d1d78999421ab,PennController,10,0,experiment,NULL,PennController,9,_Trial_,End,1682785905843,sonaID,undefined,7,stack,critical,D,25,stack15.jpg,stack35.jpg,high,memory-momentum10,NULL
1682785913,59a49b913681b8984a6d1d78999421ab,PennController,28,0,experiment,NULL,PennController,27,_Header_,End,1682785905844,sonaID,undefined,25,house,filler,D,25,house15.jpg,house35.jpg,GoalB,memory-momentum10,NULL
1682785913,59a49b913681b8984a6d1d78999421ab,PennController,28,0,experiment,NULL,PennController,27,_Header_,Start,1682785905844,sonaID,undefined,25,house,filler,D,25,house15.jpg,house35.jpg,GoalB,memory-momentum10,NULL
1682785913,59a49b913681b8984a6d1d78999421ab,PennController,28,0,experiment,NULL,PennController,27,_Trial_,Start,1682785905844,sonaID,undefined,25,house,filler,D,25,house15.jpg,house35.jpg,GoalB,memory-momentum10,NULL
1682785913,59a49b913681b8984a6d1d78999421ab,PennController,28,0,experiment,NULL,Canvas,canvas6,Print,NA,1682785911588,sonaID,undefined,25,house,filler,D,25,house15.jpg,house35.jpg,GoalB,memory-momentum10,NULL
1682785913,59a49b913681b8984a6d1d78999421ab,PennController,28,0,experiment,NULL,Selector,choice,Selection,option1,1682785912938,sonaID,undefined,25,house,filler,D,25,house15.jpg,house35.jpg,GoalB,memory-momentum10,option2;option1
1682785913,59a49b913681b8984a6d1d78999421ab,PennController,28,0,experiment,NULL,PennController,27,_Trial_,End,1682785912939,sonaID,undefined,25,house,filler,D,25,house15.jpg,house35.jpg,GoalB,memory-momentum10,NULL
