#
# Results on Wednesday April 26 2023 00:30:43 UTC
# USER AGENT: Mozilla/5.0 (Macintosh; Intel Mac OS X 10_15_7) AppleWebKit/537.36 (KHTML, like Gecko) Chrome/112.0.0.0 Safari/537.36
# Design number was non-random = 11
#
# Columns below this comment are as follows:
# 1. Results reception time.
# 2. MD5 hash of participant's IP address.
# 3. Controller name.
# 4. Order number of item.
# 5. Inner element number.
# 6. Label.
# 7. Latin Square Group.
# 8. PennElementType.
# 9. PennElementName.
# 10. Parameter.
# 11. Value.
# 12. EventTime.
# 13. sonaID.
# 14. Comments.
1682469043,1f3e4b1ec14589b4a0c884bff8fb2b54,PennController,2,0,consent,NULL,PennController,0,_Trial_,Start,1682468428179,sonaID,NULL
1682469043,1f3e4b1ec14589b4a0c884bff8fb2b54,PennController,2,0,consent,NULL,PennController,0,_Header_,Start,1682468428179,sonaID,NULL
1682469043,1f3e4b1ec14589b4a0c884bff8fb2b54,PennController,2,0,consent,NULL,PennController,0,_Header_,End,1682468428179,sonaID,NULL
1682469043,1f3e4b1ec14589b4a0c884bff8fb2b54,PennController,2,0,consent,NULL,PennController,0,_Trial_,End,1682468459929,sonaID,NULL
# Columns below this comment are as follows:
# 14. ID.
# 15. Comments.
1682469043,1f3e4b1ec14589b4a0c884bff8fb2b54,PennController,3,0,intro,NULL,PennController,1,_Trial_,Start,1682468459931,sonaID,undefined,NULL
1682469043,1f3e4b1ec14589b4a0c884bff8fb2b54,PennController,3,0,intro,NULL,PennController,1,_Header_,Start,1682468459931,sonaID,undefined,NULL
1682469043,1f3e4b1ec14589b4a0c884bff8fb2b54,PennController,3,0,intro,NULL,PennController,1,_Header_,End,1682468459931,sonaID,undefined,NULL
1682469043,1f3e4b1ec14589b4a0c884bff8fb2b54,PennController,3,0,intro,NULL,TextInput,inputID,EnterReturn,39692723,1682468489047,sonaID,undefined,NULL
1682469043,1f3e4b1ec14589b4a0c884bff8fb2b54,PennController,3,0,intro,NULL,TextInput,inputID,Final,39692723,1682468489054,sonaID,undefined,NULL
1682469043,1f3e4b1ec14589b4a0c884bff8fb2b54,PennController,3,0,intro,NULL,TextInput,inputID,First,,1682468469538,sonaID,undefined,3
1682469043,1f3e4b1ec14589b4a0c884bff8fb2b54,PennController,3,0,intro,NULL,PennController,1,_Trial_,End,1682468489054,sonaID,undefined,NULL
# Columns below this comment are as follows:
# 15. item_number.
# 16. item.
# 17. type.
# 18. Group.
# 19. prog.
# 20. prev_image.
# 21. next_image.
# 22. height.
# 23. memory-momentum10.
# 24. Comments.
1682469043,1f3e4b1ec14589b4a0c884bff8fb2b54,PennController,28,0,experiment,NULL,PennController,27,_Trial_,Start,1682468489056,sonaID,undefined,25,house,filler,F,75,house65.jpg,house85.jpg,GoalB,memory-momentum10,NULL
1682469043,1f3e4b1ec14589b4a0c884bff8fb2b54,PennController,28,0,experiment,NULL,PennController,27,_Header_,Start,1682468489056,sonaID,undefined,25,house,filler,F,75,house65.jpg,house85.jpg,GoalB,memory-momentum10,NULL
1682469043,1f3e4b1ec14589b4a0c884bff8fb2b54,PennController,28,0,experiment,NULL,PennController,27,_Header_,End,1682468489056,sonaID,undefined,25,house,filler,F,75,house65.jpg,house85.jpg,GoalB,memory-momentum10,NULL
1682469043,1f3e4b1ec14589b4a0c884bff8fb2b54,PennController,28,0,experiment,NULL,Canvas,canvas6,Print,NA,1682468496768,sonaID,undefined,25,house,filler,F,75,house65.jpg,house85.jpg,GoalB,memory-momentum10,NULL
1682469043,1f3e4b1ec14589b4a0c884bff8fb2b54,PennController,28,0,experiment,NULL,Video,progression,buffer,0.003073,1682468492585,sonaID,undefined,25,house,filler,F,75,house65.jpg,house85.jpg,GoalB,memory-momentum10,NULL
1682469043,1f3e4b1ec14589b4a0c884bff8fb2b54,PennController,28,0,experiment,NULL,Selector,choice,Selection,option2,1682468504991,sonaID,undefined,25,house,filler,F,75,house65.jpg,house85.jpg,GoalB,memory-momentum10,option1;option2
1682469043,1f3e4b1ec14589b4a0c884bff8fb2b54,PennController,28,0,experiment,NULL,PennController,27,_Trial_,End,1682468504994,sonaID,undefined,25,house,filler,F,75,house65.jpg,house85.jpg,GoalB,memory-momentum10,NULL
1682469043,1f3e4b1ec14589b4a0c884bff8fb2b54,PennController,25,0,experiment,NULL,PennController,24,_Trial_,Start,1682468504996,sonaID,undefined,22,wall,filler,F,75,wall65.jpg,wall85.jpg,GoalA,memory-momentum10,NULL
1682469043,1f3e4b1ec14589b4a0c884bff8fb2b54,PennController,25,0,experiment,NULL,PennController,24,_Header_,Start,1682468504996,sonaID,undefined,22,wall,filler,F,75,wall65.jpg,wall85.jpg,GoalA,memory-momentum10,NULL
1682469043,1f3e4b1ec14589b4a0c884bff8fb2b54,PennController,25,0,experiment,NULL,PennController,24,_Header_,End,1682468504996,sonaID,undefined,22,wall,filler,F,75,wall65.jpg,wall85.jpg,GoalA,memory-momentum10,NULL
1682469043,1f3e4b1ec14589b4a0c884bff8fb2b54,PennController,25,0,experiment,NULL,Canvas,canvas6,Print,NA,1682468512698,sonaID,undefined,22,wall,filler,F,75,wall65.jpg,wall85.jpg,GoalA,memory-momentum10,NULL
1682469043,1f3e4b1ec14589b4a0c884bff8fb2b54,PennController,25,0,experiment,NULL,Video,progression,buffer,0.004638,1682468508530,sonaID,undefined,22,wall,filler,F,75,wall65.jpg,wall85.jpg,GoalA,memory-momentum10,NULL
1682469043,1f3e4b1ec14589b4a0c884bff8fb2b54,PennController,25,0,experiment,NULL,Selector,choice,Selection,option2,1682468515137,sonaID,undefined,22,wall,filler,F,75,wall65.jpg,wall85.jpg,GoalA,memory-momentum10,option2;option1
1682469043,1f3e4b1ec14589b4a0c884bff8fb2b54,PennController,25,0,experiment,NULL,PennController,24,_Trial_,End,1682468515138,sonaID,undefined,22,wall,filler,F,75,wall65.jpg,wall85.jpg,GoalA,memory-momentum10,NULL
1682469043,1f3e4b1ec14589b4a0c884bff8fb2b54,PennController,7,0,experiment,NULL,PennController,6,_Trial_,Start,1682468515139,sonaID,undefined,4,candy,critical,F,75,candy65.jpg,candy85.jpg,low ,memory-momentum10,NULL
1682469043,1f3e4b1ec14589b4a0c884bff8fb2b54,PennController,7,0,experiment,NULL,PennController,6,_Header_,Start,1682468515139,sonaID,undefined,4,candy,critical,F,75,candy65.jpg,candy85.jpg,low ,memory-momentum10,NULL
1682469043,1f3e4b1ec14589b4a0c884bff8fb2b54,PennController,7,0,experiment,NULL,PennController,6,_Header_,End,1682468515139,sonaID,undefined,4,candy,critical,F,75,candy65.jpg,candy85.jpg,low ,memory-momentum10,NULL
1682469043,1f3e4b1ec14589b4a0c884bff8fb2b54,PennController,7,0,experiment,NULL,Canvas,canvas6,Print,NA,1682468522848,sonaID,undefined,4,candy,critical,F,75,candy65.jpg,candy85.jpg,low ,memory-momentum10,NULL
1682469043,1f3e4b1ec14589b4a0c884bff8fb2b54,PennController,7,0,experiment,NULL,Video,progression,buffer,0.003336,1682468518671,sonaID,undefined,4,candy,critical,F,75,candy65.jpg,candy85.jpg,low ,memory-momentum10,NULL
1682469043,1f3e4b1ec14589b4a0c884bff8fb2b54,PennController,7,0,experiment,NULL,Selector,choice,Selection,option1,1682468525622,sonaID,undefined,4,candy,critical,F,75,candy65.jpg,candy85.jpg,low ,memory-momentum10,option2;option1
1682469043,1f3e4b1ec14589b4a0c884bff8fb2b54,PennController,7,0,experiment,NULL,PennController,6,_Trial_,End,1682468525624,sonaID,undefined,4,candy,critical,F,75,candy65.jpg,candy85.jpg,low ,memory-momentum10,NULL
1682469043,1f3e4b1ec14589b4a0c884bff8fb2b54,PennController,9,0,experiment,NULL,PennController,8,_Trial_,Start,1682468525627,sonaID,undefined,6,flower,critical,F,50,flower40.jpg,flower60.jpg,low ,memory-momentum10,NULL
1682469043,1f3e4b1ec14589b4a0c884bff8fb2b54,PennController,9,0,experiment,NULL,PennController,8,_Header_,Start,1682468525627,sonaID,undefined,6,flower,critical,F,50,flower40.jpg,flower60.jpg,low ,memory-momentum10,NULL
1682469043,1f3e4b1ec14589b4a0c884bff8fb2b54,PennController,9,0,experiment,NULL,PennController,8,_Header_,End,1682468525627,sonaID,undefined,6,flower,critical,F,50,flower40.jpg,flower60.jpg,low ,memory-momentum10,NULL
1682469043,1f3e4b1ec14589b4a0c884bff8fb2b54,PennController,9,0,experiment,NULL,Canvas,canvas6,Print,NA,1682468532334,sonaID,undefined,6,flower,critical,F,50,flower40.jpg,flower60.jpg,low ,memory-momentum10,NULL
1682469043,1f3e4b1ec14589b4a0c884bff8fb2b54,PennController,9,0,experiment,NULL,Video,progression,buffer,0.004769,1682468529156,sonaID,undefined,6,flower,critical,F,50,flower40.jpg,flower60.jpg,low ,memory-momentum10,NULL
1682469043,1f3e4b1ec14589b4a0c884bff8fb2b54,PennController,9,0,experiment,NULL,Selector,choice,Selection,option1,1682468534172,sonaID,undefined,6,flower,critical,F,50,flower40.jpg,flower60.jpg,low ,memory-momentum10,option2;option1
1682469043,1f3e4b1ec14589b4a0c884bff8fb2b54,PennController,9,0,experiment,NULL,PennController,8,_Trial_,End,1682468534173,sonaID,undefined,6,flower,critical,F,50,flower40.jpg,flower60.jpg,low ,memory-momentum10,NULL
1682469043,1f3e4b1ec14589b4a0c884bff8fb2b54,PennController,18,0,experiment,NULL,PennController,17,_Trial_,Start,1682468534175,sonaID,undefined,15,zip,critical,F,50,zip40.jpg,zip60.jpg,high,memory-momentum10,NULL
1682469043,1f3e4b1ec14589b4a0c884bff8fb2b54,PennController,18,0,experiment,NULL,PennController,17,_Header_,Start,1682468534175,sonaID,undefined,15,zip,critical,F,50,zip40.jpg,zip60.jpg,high,memory-momentum10,NULL
1682469043,1f3e4b1ec14589b4a0c884bff8fb2b54,PennController,18,0,experiment,NULL,PennController,17,_Header_,End,1682468534175,sonaID,undefined,15,zip,critical,F,50,zip40.jpg,zip60.jpg,high,memory-momentum10,NULL
1682469043,1f3e4b1ec14589b4a0c884bff8fb2b54,PennController,18,0,experiment,NULL,Canvas,canvas6,Print,NA,1682468540876,sonaID,undefined,15,zip,critical,F,50,zip40.jpg,zip60.jpg,high,memory-momentum10,NULL
1682469043,1f3e4b1ec14589b4a0c884bff8fb2b54,PennController,18,0,experiment,NULL,Video,progression,buffer,0.003736,1682468537703,sonaID,undefined,15,zip,critical,F,50,zip40.jpg,zip60.jpg,high,memory-momentum10,NULL
1682469043,1f3e4b1ec14589b4a0c884bff8fb2b54,PennController,18,0,experiment,NULL,Selector,choice,Selection,option2,1682468542670,sonaID,undefined,15,zip,critical,F,50,zip40.jpg,zip60.jpg,high,memory-momentum10,option1;option2
1682469043,1f3e4b1ec14589b4a0c884bff8fb2b54,PennController,18,0,experiment,NULL,PennController,17,_Trial_,End,1682468542672,sonaID,undefined,15,zip,critical,F,50,zip40.jpg,zip60.jpg,high,memory-momentum10,NULL
1682469043,1f3e4b1ec14589b4a0c884bff8fb2b54,PennController,4,0,experiment,NULL,PennController,3,_Trial_,Start,1682468542673,sonaID,undefined,1,vase,critical,F,25,vase60.jpg,vase90.jpg,high,memory-momentum10,NULL
1682469043,1f3e4b1ec14589b4a0c884bff8fb2b54,PennController,4,0,experiment,NULL,PennController,3,_Header_,Start,1682468542673,sonaID,undefined,1,vase,critical,F,25,vase60.jpg,vase90.jpg,high,memory-momentum10,NULL
1682469043,1f3e4b1ec14589b4a0c884bff8fb2b54,PennController,4,0,experiment,NULL,PennController,3,_Header_,End,1682468542673,sonaID,undefined,1,vase,critical,F,25,vase60.jpg,vase90.jpg,high,memory-momentum10,NULL
1682469043,1f3e4b1ec14589b4a0c884bff8fb2b54,PennController,4,0,experiment,NULL,Canvas,canvas6,Print,NA,1682468548378,sonaID,undefined,1,vase,critical,F,25,vase60.jpg,vase90.jpg,high,memory-momentum10,NULL
1682469043,1f3e4b1ec14589b4a0c884bff8fb2b54,PennController,4,0,experiment,NULL,Video,progression,buffer,0.003737,1682468546207,sonaID,undefined,1,vase,critical,F,25,vase60.jpg,vase90.jpg,high,memory-momentum10,NULL
1682469043,1f3e4b1ec14589b4a0c884bff8fb2b54,PennController,4,0,experiment,NULL,Selector,choice,Selection,option1,1682468550605,sonaID,undefined,1,vase,critical,F,25,vase60.jpg,vase90.jpg,high,memory-momentum10,option2;option1
1682469043,1f3e4b1ec14589b4a0c884bff8fb2b54,PennController,4,0,experiment,NULL,PennController,3,_Trial_,End,1682468550607,sonaID,undefined,1,vase,critical,F,25,vase60.jpg,vase90.jpg,high,memory-momentum10,NULL
1682469043,1f3e4b1ec14589b4a0c884bff8fb2b54,PennController,15,0,experiment,NULL,PennController,14,_Trial_,Start,1682468550609,sonaID,undefined,12,erase,critical,F,50,erase42.jpg,erase60.jpg,low ,memory-momentum10,NULL
1682469043,1f3e4b1ec14589b4a0c884bff8fb2b54,PennController,15,0,experiment,NULL,PennController,14,_Header_,Start,1682468550609,sonaID,undefined,12,erase,critical,F,50,erase42.jpg,erase60.jpg,low ,memory-momentum10,NULL
1682469043,1f3e4b1ec14589b4a0c884bff8fb2b54,PennController,15,0,experiment,NULL,PennController,14,_Header_,End,1682468550609,sonaID,undefined,12,erase,critical,F,50,erase42.jpg,erase60.jpg,low ,memory-momentum10,NULL
1682469043,1f3e4b1ec14589b4a0c884bff8fb2b54,PennController,15,0,experiment,NULL,Canvas,canvas6,Print,NA,1682468558698,sonaID,undefined,12,erase,critical,F,50,erase42.jpg,erase60.jpg,low ,memory-momentum10,NULL
1682469043,1f3e4b1ec14589b4a0c884bff8fb2b54,PennController,15,0,experiment,NULL,Video,progression,buffer,0.002471,1682468554132,sonaID,undefined,12,erase,critical,F,50,erase42.jpg,erase60.jpg,low ,memory-momentum10,NULL
1682469043,1f3e4b1ec14589b4a0c884bff8fb2b54,PennController,15,0,experiment,NULL,Selector,choice,Selection,option2,1682468562488,sonaID,undefined,12,erase,critical,F,50,erase42.jpg,erase60.jpg,low ,memory-momentum10,option1;option2
1682469043,1f3e4b1ec14589b4a0c884bff8fb2b54,PennController,15,0,experiment,NULL,PennController,14,_Trial_,End,1682468562490,sonaID,undefined,12,erase,critical,F,50,erase42.jpg,erase60.jpg,low ,memory-momentum10,NULL
1682469043,1f3e4b1ec14589b4a0c884bff8fb2b54,PennController,22,0,experiment,NULL,PennController,21,_Trial_,Start,1682468562491,sonaID,undefined,19,cup,filler,F,75,cup65.jpg,cup85.jpg,GoalB,memory-momentum10,NULL
1682469043,1f3e4b1ec14589b4a0c884bff8fb2b54,PennController,22,0,experiment,NULL,PennController,21,_Header_,Start,1682468562491,sonaID,undefined,19,cup,filler,F,75,cup65.jpg,cup85.jpg,GoalB,memory-momentum10,NULL
1682469043,1f3e4b1ec14589b4a0c884bff8fb2b54,PennController,22,0,experiment,NULL,PennController,21,_Header_,End,1682468562491,sonaID,undefined,19,cup,filler,F,75,cup65.jpg,cup85.jpg,GoalB,memory-momentum10,NULL
1682469043,1f3e4b1ec14589b4a0c884bff8fb2b54,PennController,22,0,experiment,NULL,Canvas,canvas6,Print,NA,1682468570196,sonaID,undefined,19,cup,filler,F,75,cup65.jpg,cup85.jpg,GoalB,memory-momentum10,NULL
1682469043,1f3e4b1ec14589b4a0c884bff8fb2b54,PennController,22,0,experiment,NULL,Video,progression,buffer,0.004334,1682468566024,sonaID,undefined,19,cup,filler,F,75,cup65.jpg,cup85.jpg,GoalB,memory-momentum10,NULL
1682469043,1f3e4b1ec14589b4a0c884bff8fb2b54,PennController,22,0,experiment,NULL,Selector,choice,Selection,option2,1682468574739,sonaID,undefined,19,cup,filler,F,75,cup65.jpg,cup85.jpg,GoalB,memory-momentum10,option2;option1
1682469043,1f3e4b1ec14589b4a0c884bff8fb2b54,PennController,22,0,experiment,NULL,PennController,21,_Trial_,End,1682468574741,sonaID,undefined,19,cup,filler,F,75,cup65.jpg,cup85.jpg,GoalB,memory-momentum10,NULL
1682469043,1f3e4b1ec14589b4a0c884bff8fb2b54,PennController,13,0,experiment,NULL,PennController,12,_Trial_,Start,1682468574743,sonaID,undefined,10,train,critical,F,75,train65.jpg,train85.jpg,low ,memory-momentum10,NULL
1682469043,1f3e4b1ec14589b4a0c884bff8fb2b54,PennController,13,0,experiment,NULL,PennController,12,_Header_,Start,1682468574743,sonaID,undefined,10,train,critical,F,75,train65.jpg,train85.jpg,low ,memory-momentum10,NULL
1682469043,1f3e4b1ec14589b4a0c884bff8fb2b54,PennController,13,0,experiment,NULL,PennController,12,_Header_,End,1682468574743,sonaID,undefined,10,train,critical,F,75,train65.jpg,train85.jpg,low ,memory-momentum10,NULL
1682469043,1f3e4b1ec14589b4a0c884bff8fb2b54,PennController,13,0,experiment,NULL,Canvas,canvas6,Print,NA,1682468582443,sonaID,undefined,10,train,critical,F,75,train65.jpg,train85.jpg,low ,memory-momentum10,NULL
1682469043,1f3e4b1ec14589b4a0c884bff8fb2b54,PennController,13,0,experiment,NULL,Video,progression,buffer,0.00349,1682468578270,sonaID,undefined,10,train,critical,F,75,train65.jpg,train85.jpg,low ,memory-momentum10,NULL
1682469043,1f3e4b1ec14589b4a0c884bff8fb2b54,PennController,13,0,experiment,NULL,Selector,choice,Selection,option2,1682468585205,sonaID,undefined,10,train,critical,F,75,train65.jpg,train85.jpg,low ,memory-momentum10,option1;option2
1682469043,1f3e4b1ec14589b4a0c884bff8fb2b54,PennController,13,0,experiment,NULL,PennController,12,_Trial_,End,1682468585207,sonaID,undefined,10,train,critical,F,75,train65.jpg,train85.jpg,low ,memory-momentum10,NULL
1682469043,1f3e4b1ec14589b4a0c884bff8fb2b54,PennController,5,0,experiment,NULL,PennController,4,_Trial_,Start,1682468585209,sonaID,undefined,2,door,critical,F,25,door15.jpg,door35.jpg,low ,memory-momentum10,NULL
1682469043,1f3e4b1ec14589b4a0c884bff8fb2b54,PennController,5,0,experiment,NULL,PennController,4,_Header_,Start,1682468585209,sonaID,undefined,2,door,critical,F,25,door15.jpg,door35.jpg,low ,memory-momentum10,NULL
1682469043,1f3e4b1ec14589b4a0c884bff8fb2b54,PennController,5,0,experiment,NULL,PennController,4,_Header_,End,1682468585209,sonaID,undefined,2,door,critical,F,25,door15.jpg,door35.jpg,low ,memory-momentum10,NULL
1682469043,1f3e4b1ec14589b4a0c884bff8fb2b54,PennController,5,0,experiment,NULL,Canvas,canvas6,Print,NA,1682468590915,sonaID,undefined,2,door,critical,F,25,door15.jpg,door35.jpg,low ,memory-momentum10,NULL
1682469043,1f3e4b1ec14589b4a0c884bff8fb2b54,PennController,5,0,experiment,NULL,Video,progression,buffer,0.004714,1682468588739,sonaID,undefined,2,door,critical,F,25,door15.jpg,door35.jpg,low ,memory-momentum10,NULL
1682469043,1f3e4b1ec14589b4a0c884bff8fb2b54,PennController,5,0,experiment,NULL,Selector,choice,Selection,option2,1682468594271,sonaID,undefined,2,door,critical,F,25,door15.jpg,door35.jpg,low ,memory-momentum10,option1;option2
1682469043,1f3e4b1ec14589b4a0c884bff8fb2b54,PennController,5,0,experiment,NULL,PennController,4,_Trial_,End,1682468594274,sonaID,undefined,2,door,critical,F,25,door15.jpg,door35.jpg,low ,memory-momentum10,NULL
1682469043,1f3e4b1ec14589b4a0c884bff8fb2b54,PennController,12,0,experiment,NULL,PennController,11,_Trial_,Start,1682468594276,sonaID,undefined,9,cake,critical,F,50,cake42.jpg,cake60.jpg,high,memory-momentum10,NULL
1682469043,1f3e4b1ec14589b4a0c884bff8fb2b54,PennController,12,0,experiment,NULL,PennController,11,_Header_,Start,1682468594276,sonaID,undefined,9,cake,critical,F,50,cake42.jpg,cake60.jpg,high,memory-momentum10,NULL
1682469043,1f3e4b1ec14589b4a0c884bff8fb2b54,PennController,12,0,experiment,NULL,PennController,11,_Header_,End,1682468594276,sonaID,undefined,9,cake,critical,F,50,cake42.jpg,cake60.jpg,high,memory-momentum10,NULL
1682469043,1f3e4b1ec14589b4a0c884bff8fb2b54,PennController,12,0,experiment,NULL,Canvas,canvas6,Print,NA,1682468602362,sonaID,undefined,9,cake,critical,F,50,cake42.jpg,cake60.jpg,high,memory-momentum10,NULL
1682469043,1f3e4b1ec14589b4a0c884bff8fb2b54,PennController,12,0,experiment,NULL,Video,progression,buffer,0.003883,1682468597800,sonaID,undefined,9,cake,critical,F,50,cake42.jpg,cake60.jpg,high,memory-momentum10,NULL
1682469043,1f3e4b1ec14589b4a0c884bff8fb2b54,PennController,12,0,experiment,NULL,Selector,choice,Selection,option2,1682468603621,sonaID,undefined,9,cake,critical,F,50,cake42.jpg,cake60.jpg,high,memory-momentum10,option1;option2
1682469043,1f3e4b1ec14589b4a0c884bff8fb2b54,PennController,12,0,experiment,NULL,PennController,11,_Trial_,End,1682468603623,sonaID,undefined,9,cake,critical,F,50,cake42.jpg,cake60.jpg,high,memory-momentum10,NULL
1682469043,1f3e4b1ec14589b4a0c884bff8fb2b54,PennController,23,0,experiment,NULL,PennController,22,_Trial_,Start,1682468603624,sonaID,undefined,20,cat,filler,F,25,cat15.jpg,cat35.jpg,GoalA,memory-momentum10,NULL
1682469043,1f3e4b1ec14589b4a0c884bff8fb2b54,PennController,23,0,experiment,NULL,PennController,22,_Header_,Start,1682468603624,sonaID,undefined,20,cat,filler,F,25,cat15.jpg,cat35.jpg,GoalA,memory-momentum10,NULL
1682469043,1f3e4b1ec14589b4a0c884bff8fb2b54,PennController,23,0,experiment,NULL,PennController,22,_Header_,End,1682468603624,sonaID,undefined,20,cat,filler,F,25,cat15.jpg,cat35.jpg,GoalA,memory-momentum10,NULL
1682469043,1f3e4b1ec14589b4a0c884bff8fb2b54,PennController,23,0,experiment,NULL,Canvas,canvas6,Print,NA,1682468609330,sonaID,undefined,20,cat,filler,F,25,cat15.jpg,cat35.jpg,GoalA,memory-momentum10,NULL
1682469043,1f3e4b1ec14589b4a0c884bff8fb2b54,PennController,23,0,experiment,NULL,Video,progression,buffer,0.003469,1682468607154,sonaID,undefined,20,cat,filler,F,25,cat15.jpg,cat35.jpg,GoalA,memory-momentum10,NULL
1682469043,1f3e4b1ec14589b4a0c884bff8fb2b54,PennController,23,0,experiment,NULL,Selector,choice,Selection,option2,1682468612155,sonaID,undefined,20,cat,filler,F,25,cat15.jpg,cat35.jpg,GoalA,memory-momentum10,option2;option1
1682469043,1f3e4b1ec14589b4a0c884bff8fb2b54,PennController,23,0,experiment,NULL,PennController,22,_Trial_,End,1682468612157,sonaID,undefined,20,cat,filler,F,25,cat15.jpg,cat35.jpg,GoalA,memory-momentum10,NULL
1682469043,1f3e4b1ec14589b4a0c884bff8fb2b54,PennController,14,0,experiment,NULL,PennController,13,_Trial_,Start,1682468612158,sonaID,undefined,11,beads,critical,F,25,beads15.jpg,beads35.jpg,high,memory-momentum10,NULL
1682469043,1f3e4b1ec14589b4a0c884bff8fb2b54,PennController,14,0,experiment,NULL,PennController,13,_Header_,Start,1682468612158,sonaID,undefined,11,beads,critical,F,25,beads15.jpg,beads35.jpg,high,memory-momentum10,NULL
1682469043,1f3e4b1ec14589b4a0c884bff8fb2b54,PennController,14,0,experiment,NULL,PennController,13,_Header_,End,1682468612158,sonaID,undefined,11,beads,critical,F,25,beads15.jpg,beads35.jpg,high,memory-momentum10,NULL
1682469043,1f3e4b1ec14589b4a0c884bff8fb2b54,PennController,14,0,experiment,NULL,Canvas,canvas6,Print,NA,1682468617866,sonaID,undefined,11,beads,critical,F,25,beads15.jpg,beads35.jpg,high,memory-momentum10,NULL
1682469043,1f3e4b1ec14589b4a0c884bff8fb2b54,PennController,14,0,experiment,NULL,Video,progression,buffer,0.003425,1682468615691,sonaID,undefined,11,beads,critical,F,25,beads15.jpg,beads35.jpg,high,memory-momentum10,NULL
1682469043,1f3e4b1ec14589b4a0c884bff8fb2b54,PennController,14,0,experiment,NULL,Selector,choice,Selection,option2,1682468622454,sonaID,undefined,11,beads,critical,F,25,beads15.jpg,beads35.jpg,high,memory-momentum10,option2;option1
1682469043,1f3e4b1ec14589b4a0c884bff8fb2b54,PennController,14,0,experiment,NULL,PennController,13,_Trial_,End,1682468622456,sonaID,undefined,11,beads,critical,F,25,beads15.jpg,beads35.jpg,high,memory-momentum10,NULL
1682469043,1f3e4b1ec14589b4a0c884bff8fb2b54,PennController,17,0,experiment,NULL,PennController,16,_Trial_,Start,1682468622458,sonaID,undefined,14,cover,critical,F,25,cover15.jpg,cover33.jpg,low ,memory-momentum10,NULL
1682469043,1f3e4b1ec14589b4a0c884bff8fb2b54,PennController,17,0,experiment,NULL,PennController,16,_Header_,Start,1682468622458,sonaID,undefined,14,cover,critical,F,25,cover15.jpg,cover33.jpg,low ,memory-momentum10,NULL
1682469043,1f3e4b1ec14589b4a0c884bff8fb2b54,PennController,17,0,experiment,NULL,PennController,16,_Header_,End,1682468622458,sonaID,undefined,14,cover,critical,F,25,cover15.jpg,cover33.jpg,low ,memory-momentum10,NULL
1682469043,1f3e4b1ec14589b4a0c884bff8fb2b54,PennController,17,0,experiment,NULL,Canvas,canvas6,Print,NA,1682468628766,sonaID,undefined,14,cover,critical,F,25,cover15.jpg,cover33.jpg,low ,memory-momentum10,NULL
1682469043,1f3e4b1ec14589b4a0c884bff8fb2b54,PennController,17,0,experiment,NULL,Video,progression,buffer,0.003994,1682468625989,sonaID,undefined,14,cover,critical,F,25,cover15.jpg,cover33.jpg,low ,memory-momentum10,NULL
1682469043,1f3e4b1ec14589b4a0c884bff8fb2b54,PennController,17,0,experiment,NULL,Selector,choice,Selection,option1,1682468637105,sonaID,undefined,14,cover,critical,F,25,cover15.jpg,cover33.jpg,low ,memory-momentum10,option1;option2
1682469043,1f3e4b1ec14589b4a0c884bff8fb2b54,PennController,17,0,experiment,NULL,PennController,16,_Trial_,End,1682468637107,sonaID,undefined,14,cover,critical,F,25,cover15.jpg,cover33.jpg,low ,memory-momentum10,NULL
1682469043,1f3e4b1ec14589b4a0c884bff8fb2b54,PennController,10,0,experiment,NULL,PennController,9,_Trial_,Start,1682468637109,sonaID,undefined,7,stack,critical,F,75,stack65.jpg,stack85.jpg,high,memory-momentum10,NULL
1682469043,1f3e4b1ec14589b4a0c884bff8fb2b54,PennController,10,0,experiment,NULL,PennController,9,_Header_,Start,1682468637109,sonaID,undefined,7,stack,critical,F,75,stack65.jpg,stack85.jpg,high,memory-momentum10,NULL
1682469043,1f3e4b1ec14589b4a0c884bff8fb2b54,PennController,10,0,experiment,NULL,PennController,9,_Header_,End,1682468637109,sonaID,undefined,7,stack,critical,F,75,stack65.jpg,stack85.jpg,high,memory-momentum10,NULL
1682469043,1f3e4b1ec14589b4a0c884bff8fb2b54,PennController,10,0,experiment,NULL,Canvas,canvas6,Print,NA,1682468644812,sonaID,undefined,7,stack,critical,F,75,stack65.jpg,stack85.jpg,high,memory-momentum10,NULL
1682469043,1f3e4b1ec14589b4a0c884bff8fb2b54,PennController,10,0,experiment,NULL,Video,progression,buffer,0.003294,1682468640636,sonaID,undefined,7,stack,critical,F,75,stack65.jpg,stack85.jpg,high,memory-momentum10,NULL
1682469043,1f3e4b1ec14589b4a0c884bff8fb2b54,PennController,10,0,experiment,NULL,Selector,choice,Selection,option1,1682468654572,sonaID,undefined,7,stack,critical,F,75,stack65.jpg,stack85.jpg,high,memory-momentum10,option1;option2
1682469043,1f3e4b1ec14589b4a0c884bff8fb2b54,PennController,10,0,experiment,NULL,PennController,9,_Trial_,End,1682468654573,sonaID,undefined,7,stack,critical,F,75,stack65.jpg,stack85.jpg,high,memory-momentum10,NULL
1682469043,1f3e4b1ec14589b4a0c884bff8fb2b54,PennController,6,0,experiment,NULL,PennController,5,_Trial_,Start,1682468654575,sonaID,undefined,3,clean,critical,F,50,clean40.jpg,clean60.jpg,high,memory-momentum10,NULL
1682469043,1f3e4b1ec14589b4a0c884bff8fb2b54,PennController,6,0,experiment,NULL,PennController,5,_Header_,Start,1682468654575,sonaID,undefined,3,clean,critical,F,50,clean40.jpg,clean60.jpg,high,memory-momentum10,NULL
1682469043,1f3e4b1ec14589b4a0c884bff8fb2b54,PennController,6,0,experiment,NULL,PennController,5,_Header_,End,1682468654575,sonaID,undefined,3,clean,critical,F,50,clean40.jpg,clean60.jpg,high,memory-momentum10,NULL
1682469043,1f3e4b1ec14589b4a0c884bff8fb2b54,PennController,6,0,experiment,NULL,Canvas,canvas6,Print,NA,1682468661282,sonaID,undefined,3,clean,critical,F,50,clean40.jpg,clean60.jpg,high,memory-momentum10,NULL
1682469043,1f3e4b1ec14589b4a0c884bff8fb2b54,PennController,6,0,experiment,NULL,Video,progression,buffer,0.003603,1682468658108,sonaID,undefined,3,clean,critical,F,50,clean40.jpg,clean60.jpg,high,memory-momentum10,NULL
1682469043,1f3e4b1ec14589b4a0c884bff8fb2b54,PennController,6,0,experiment,NULL,Selector,choice,Selection,option2,1682468662538,sonaID,undefined,3,clean,critical,F,50,clean40.jpg,clean60.jpg,high,memory-momentum10,option2;option1
1682469043,1f3e4b1ec14589b4a0c884bff8fb2b54,PennController,6,0,experiment,NULL,PennController,5,_Trial_,End,1682468662540,sonaID,undefined,3,clean,critical,F,50,clean40.jpg,clean60.jpg,high,memory-momentum10,NULL
1682469043,1f3e4b1ec14589b4a0c884bff8fb2b54,PennController,16,0,experiment,NULL,PennController,15,_Trial_,Start,1682468662541,sonaID,undefined,13,mix,critical,F,75,mix65.jpg,mix85.jpg,high,memory-momentum10,NULL
1682469043,1f3e4b1ec14589b4a0c884bff8fb2b54,PennController,16,0,experiment,NULL,PennController,15,_Header_,Start,1682468662541,sonaID,undefined,13,mix,critical,F,75,mix65.jpg,mix85.jpg,high,memory-momentum10,NULL
1682469043,1f3e4b1ec14589b4a0c884bff8fb2b54,PennController,16,0,experiment,NULL,PennController,15,_Header_,End,1682468662541,sonaID,undefined,13,mix,critical,F,75,mix65.jpg,mix85.jpg,high,memory-momentum10,NULL
1682469043,1f3e4b1ec14589b4a0c884bff8fb2b54,PennController,16,0,experiment,NULL,Canvas,canvas6,Print,NA,1682468670247,sonaID,undefined,13,mix,critical,F,75,mix65.jpg,mix85.jpg,high,memory-momentum10,NULL
1682469043,1f3e4b1ec14589b4a0c884bff8fb2b54,PennController,16,0,experiment,NULL,Video,progression,buffer,0.003509,1682468666071,sonaID,undefined,13,mix,critical,F,75,mix65.jpg,mix85.jpg,high,memory-momentum10,NULL
1682469043,1f3e4b1ec14589b4a0c884bff8fb2b54,PennController,16,0,experiment,NULL,Selector,choice,Selection,option2,1682468671705,sonaID,undefined,13,mix,critical,F,75,mix65.jpg,mix85.jpg,high,memory-momentum10,option2;option1
1682469043,1f3e4b1ec14589b4a0c884bff8fb2b54,PennController,16,0,experiment,NULL,PennController,15,_Trial_,End,1682468671707,sonaID,undefined,13,mix,critical,F,75,mix65.jpg,mix85.jpg,high,memory-momentum10,NULL
1682469043,1f3e4b1ec14589b4a0c884bff8fb2b54,PennController,20,0,experiment,NULL,PennController,19,_Trial_,Start,1682468671709,sonaID,undefined,17,roll,critical,F,25,roll15.jpg,roll35.jpg,high,memory-momentum10,NULL
1682469043,1f3e4b1ec14589b4a0c884bff8fb2b54,PennController,20,0,experiment,NULL,PennController,19,_Header_,Start,1682468671709,sonaID,undefined,17,roll,critical,F,25,roll15.jpg,roll35.jpg,high,memory-momentum10,NULL
1682469043,1f3e4b1ec14589b4a0c884bff8fb2b54,PennController,20,0,experiment,NULL,PennController,19,_Header_,End,1682468671709,sonaID,undefined,17,roll,critical,F,25,roll15.jpg,roll35.jpg,high,memory-momentum10,NULL
1682469043,1f3e4b1ec14589b4a0c884bff8fb2b54,PennController,20,0,experiment,NULL,Canvas,canvas6,Print,NA,1682468677415,sonaID,undefined,17,roll,critical,F,25,roll15.jpg,roll35.jpg,high,memory-momentum10,NULL
1682469043,1f3e4b1ec14589b4a0c884bff8fb2b54,PennController,20,0,experiment,NULL,Video,progression,buffer,0.002533,1682468675233,sonaID,undefined,17,roll,critical,F,25,roll15.jpg,roll35.jpg,high,memory-momentum10,NULL
1682469043,1f3e4b1ec14589b4a0c884bff8fb2b54,PennController,20,0,experiment,NULL,Selector,choice,Selection,option1,1682468687554,sonaID,undefined,17,roll,critical,F,25,roll15.jpg,roll35.jpg,high,memory-momentum10,option2;option1
1682469043,1f3e4b1ec14589b4a0c884bff8fb2b54,PennController,20,0,experiment,NULL,PennController,19,_Trial_,End,1682468687556,sonaID,undefined,17,roll,critical,F,25,roll15.jpg,roll35.jpg,high,memory-momentum10,NULL
1682469043,1f3e4b1ec14589b4a0c884bff8fb2b54,PennController,24,0,experiment,NULL,PennController,23,_Trial_,Start,1682468687558,sonaID,undefined,21,visit,filler,F,50,visit40.jpg,visit60.jpg,GoalB,memory-momentum10,NULL
1682469043,1f3e4b1ec14589b4a0c884bff8fb2b54,PennController,24,0,experiment,NULL,PennController,23,_Header_,Start,1682468687558,sonaID,undefined,21,visit,filler,F,50,visit40.jpg,visit60.jpg,GoalB,memory-momentum10,NULL
1682469043,1f3e4b1ec14589b4a0c884bff8fb2b54,PennController,24,0,experiment,NULL,PennController,23,_Header_,End,1682468687558,sonaID,undefined,21,visit,filler,F,50,visit40.jpg,visit60.jpg,GoalB,memory-momentum10,NULL
1682469043,1f3e4b1ec14589b4a0c884bff8fb2b54,PennController,24,0,experiment,NULL,Canvas,canvas6,Print,NA,1682468694260,sonaID,undefined,21,visit,filler,F,50,visit40.jpg,visit60.jpg,GoalB,memory-momentum10,NULL
1682469043,1f3e4b1ec14589b4a0c884bff8fb2b54,PennController,24,0,experiment,NULL,Video,progression,buffer,0.003918,1682468691088,sonaID,undefined,21,visit,filler,F,50,visit40.jpg,visit60.jpg,GoalB,memory-momentum10,NULL
1682469043,1f3e4b1ec14589b4a0c884bff8fb2b54,PennController,24,0,experiment,NULL,Selector,choice,Selection,option1,1682468698672,sonaID,undefined,21,visit,filler,F,50,visit40.jpg,visit60.jpg,GoalB,memory-momentum10,option1;option2
1682469043,1f3e4b1ec14589b4a0c884bff8fb2b54,PennController,24,0,experiment,NULL,PennController,23,_Trial_,End,1682468698673,sonaID,undefined,21,visit,filler,F,50,visit40.jpg,visit60.jpg,GoalB,memory-momentum10,NULL
1682469043,1f3e4b1ec14589b4a0c884bff8fb2b54,PennController,21,0,experiment,NULL,PennController,20,_Trial_,Start,1682468698675,sonaID,undefined,18,ball,critical,F,50,ball40.jpg,ball60.jpg,low ,memory-momentum10,NULL
1682469043,1f3e4b1ec14589b4a0c884bff8fb2b54,PennController,21,0,experiment,NULL,PennController,20,_Header_,Start,1682468698675,sonaID,undefined,18,ball,critical,F,50,ball40.jpg,ball60.jpg,low ,memory-momentum10,NULL
1682469043,1f3e4b1ec14589b4a0c884bff8fb2b54,PennController,21,0,experiment,NULL,PennController,20,_Header_,End,1682468698675,sonaID,undefined,18,ball,critical,F,50,ball40.jpg,ball60.jpg,low ,memory-momentum10,NULL
1682469043,1f3e4b1ec14589b4a0c884bff8fb2b54,PennController,21,0,experiment,NULL,Canvas,canvas6,Print,NA,1682468705380,sonaID,undefined,18,ball,critical,F,50,ball40.jpg,ball60.jpg,low ,memory-momentum10,NULL
1682469043,1f3e4b1ec14589b4a0c884bff8fb2b54,PennController,21,0,experiment,NULL,Video,progression,buffer,0.004645,1682468702203,sonaID,undefined,18,ball,critical,F,50,ball40.jpg,ball60.jpg,low ,memory-momentum10,NULL
1682469043,1f3e4b1ec14589b4a0c884bff8fb2b54,PennController,21,0,experiment,NULL,Selector,choice,Selection,option1,1682468706988,sonaID,undefined,18,ball,critical,F,50,ball40.jpg,ball60.jpg,low ,memory-momentum10,option1;option2
1682469043,1f3e4b1ec14589b4a0c884bff8fb2b54,PennController,21,0,experiment,NULL,PennController,20,_Trial_,End,1682468706990,sonaID,undefined,18,ball,critical,F,50,ball40.jpg,ball60.jpg,low ,memory-momentum10,NULL
1682469043,1f3e4b1ec14589b4a0c884bff8fb2b54,PennController,19,0,experiment,NULL,PennController,18,_Trial_,Start,1682468706991,sonaID,undefined,16,blinds,critical,F,75,blinds66.jpg,blinds84.jpg,low ,memory-momentum10,NULL
1682469043,1f3e4b1ec14589b4a0c884bff8fb2b54,PennController,19,0,experiment,NULL,PennController,18,_Header_,Start,1682468706991,sonaID,undefined,16,blinds,critical,F,75,blinds66.jpg,blinds84.jpg,low ,memory-momentum10,NULL
1682469043,1f3e4b1ec14589b4a0c884bff8fb2b54,PennController,19,0,experiment,NULL,PennController,18,_Header_,End,1682468706991,sonaID,undefined,16,blinds,critical,F,75,blinds66.jpg,blinds84.jpg,low ,memory-momentum10,NULL
1682469043,1f3e4b1ec14589b4a0c884bff8fb2b54,PennController,19,0,experiment,NULL,Canvas,canvas6,Print,NA,1682468716678,sonaID,undefined,16,blinds,critical,F,75,blinds66.jpg,blinds84.jpg,low ,memory-momentum10,NULL
1682469043,1f3e4b1ec14589b4a0c884bff8fb2b54,PennController,19,0,experiment,NULL,Video,progression,buffer,0.001266,1682468710514,sonaID,undefined,16,blinds,critical,F,75,blinds66.jpg,blinds84.jpg,low ,memory-momentum10,NULL
1682469043,1f3e4b1ec14589b4a0c884bff8fb2b54,PennController,19,0,experiment,NULL,Selector,choice,Selection,option2,1682468755688,sonaID,undefined,16,blinds,critical,F,75,blinds66.jpg,blinds84.jpg,low ,memory-momentum10,option1;option2
1682469043,1f3e4b1ec14589b4a0c884bff8fb2b54,PennController,19,0,experiment,NULL,PennController,18,_Trial_,End,1682468755689,sonaID,undefined,16,blinds,critical,F,75,blinds66.jpg,blinds84.jpg,low ,memory-momentum10,NULL
1682469043,1f3e4b1ec14589b4a0c884bff8fb2b54,PennController,26,0,experiment,NULL,PennController,25,_Trial_,Start,1682468755691,sonaID,undefined,23,color,filler,F,25,color15.jpg,color35.jpg,GoalB,memory-momentum10,NULL
1682469043,1f3e4b1ec14589b4a0c884bff8fb2b54,PennController,26,0,experiment,NULL,PennController,25,_Header_,Start,1682468755691,sonaID,undefined,23,color,filler,F,25,color15.jpg,color35.jpg,GoalB,memory-momentum10,NULL
1682469043,1f3e4b1ec14589b4a0c884bff8fb2b54,PennController,26,0,experiment,NULL,PennController,25,_Header_,End,1682468755691,sonaID,undefined,23,color,filler,F,25,color15.jpg,color35.jpg,GoalB,memory-momentum10,NULL
1682469043,1f3e4b1ec14589b4a0c884bff8fb2b54,PennController,26,0,experiment,NULL,Canvas,canvas6,Print,NA,1682468761395,sonaID,undefined,23,color,filler,F,25,color15.jpg,color35.jpg,GoalB,memory-momentum10,NULL
1682469043,1f3e4b1ec14589b4a0c884bff8fb2b54,PennController,26,0,experiment,NULL,Video,progression,buffer,0.003508,1682468759220,sonaID,undefined,23,color,filler,F,25,color15.jpg,color35.jpg,GoalB,memory-momentum10,NULL
1682469043,1f3e4b1ec14589b4a0c884bff8fb2b54,PennController,26,0,experiment,NULL,Selector,choice,Selection,option2,1682468764871,sonaID,undefined,23,color,filler,F,25,color15.jpg,color35.jpg,GoalB,memory-momentum10,option1;option2
1682469043,1f3e4b1ec14589b4a0c884bff8fb2b54,PennController,26,0,experiment,NULL,PennController,25,_Trial_,End,1682468764873,sonaID,undefined,23,color,filler,F,25,color15.jpg,color35.jpg,GoalB,memory-momentum10,NULL
1682469043,1f3e4b1ec14589b4a0c884bff8fb2b54,PennController,11,0,experiment,NULL,PennController,10,_Trial_,Start,1682468764875,sonaID,undefined,8,cucumber,critical,F,25,cucumber15.jpg,cucumber33.jpg,low ,memory-momentum10,NULL
1682469043,1f3e4b1ec14589b4a0c884bff8fb2b54,PennController,11,0,experiment,NULL,PennController,10,_Header_,Start,1682468764875,sonaID,undefined,8,cucumber,critical,F,25,cucumber15.jpg,cucumber33.jpg,low ,memory-momentum10,NULL
1682469043,1f3e4b1ec14589b4a0c884bff8fb2b54,PennController,11,0,experiment,NULL,PennController,10,_Header_,End,1682468764875,sonaID,undefined,8,cucumber,critical,F,25,cucumber15.jpg,cucumber33.jpg,low ,memory-momentum10,NULL
1682469043,1f3e4b1ec14589b4a0c884bff8fb2b54,PennController,11,0,experiment,NULL,Canvas,canvas6,Print,NA,1682468771183,sonaID,undefined,8,cucumber,critical,F,25,cucumber15.jpg,cucumber33.jpg,low ,memory-momentum10,NULL
1682469043,1f3e4b1ec14589b4a0c884bff8fb2b54,PennController,11,0,experiment,NULL,Video,progression,buffer,0.003677,1682468768404,sonaID,undefined,8,cucumber,critical,F,25,cucumber15.jpg,cucumber33.jpg,low ,memory-momentum10,NULL
1682469043,1f3e4b1ec14589b4a0c884bff8fb2b54,PennController,11,0,experiment,NULL,Selector,choice,Selection,option2,1682468781621,sonaID,undefined,8,cucumber,critical,F,25,cucumber15.jpg,cucumber33.jpg,low ,memory-momentum10,option1;option2
1682469043,1f3e4b1ec14589b4a0c884bff8fb2b54,PennController,11,0,experiment,NULL,PennController,10,_Trial_,End,1682468781623,sonaID,undefined,8,cucumber,critical,F,25,cucumber15.jpg,cucumber33.jpg,low ,memory-momentum10,NULL
1682469043,1f3e4b1ec14589b4a0c884bff8fb2b54,PennController,31,0,experiment,NULL,PennController,30,_Trial_,Start,1682468781626,sonaID,undefined,28,sort,filler,F,75,sort65.jpg,sort85.jpg,GoalA,memory-momentum10,NULL
1682469043,1f3e4b1ec14589b4a0c884bff8fb2b54,PennController,31,0,experiment,NULL,PennController,30,_Header_,Start,1682468781626,sonaID,undefined,28,sort,filler,F,75,sort65.jpg,sort85.jpg,GoalA,memory-momentum10,NULL
1682469043,1f3e4b1ec14589b4a0c884bff8fb2b54,PennController,31,0,experiment,NULL,PennController,30,_Header_,End,1682468781626,sonaID,undefined,28,sort,filler,F,75,sort65.jpg,sort85.jpg,GoalA,memory-momentum10,NULL
1682469043,1f3e4b1ec14589b4a0c884bff8fb2b54,PennController,31,0,experiment,NULL,Canvas,canvas6,Print,NA,1682468789312,sonaID,undefined,28,sort,filler,F,75,sort65.jpg,sort85.jpg,GoalA,memory-momentum10,NULL
1682469043,1f3e4b1ec14589b4a0c884bff8fb2b54,PennController,31,0,experiment,NULL,Video,progression,buffer,0.002819,1682468785148,sonaID,undefined,28,sort,filler,F,75,sort65.jpg,sort85.jpg,GoalA,memory-momentum10,NULL
1682469043,1f3e4b1ec14589b4a0c884bff8fb2b54,PennController,31,0,experiment,NULL,Selector,choice,Selection,option1,1682468792222,sonaID,undefined,28,sort,filler,F,75,sort65.jpg,sort85.jpg,GoalA,memory-momentum10,option1;option2
1682469043,1f3e4b1ec14589b4a0c884bff8fb2b54,PennController,31,0,experiment,NULL,PennController,30,_Trial_,End,1682468792224,sonaID,undefined,28,sort,filler,F,75,sort65.jpg,sort85.jpg,GoalA,memory-momentum10,NULL
1682469043,1f3e4b1ec14589b4a0c884bff8fb2b54,PennController,8,0,experiment,NULL,PennController,7,_Trial_,Start,1682468792225,sonaID,undefined,5,book,critical,F,25,book15.jpg,book35.jpg,high,memory-momentum10,NULL
1682469043,1f3e4b1ec14589b4a0c884bff8fb2b54,PennController,8,0,experiment,NULL,PennController,7,_Header_,Start,1682468792225,sonaID,undefined,5,book,critical,F,25,book15.jpg,book35.jpg,high,memory-momentum10,NULL
1682469043,1f3e4b1ec14589b4a0c884bff8fb2b54,PennController,8,0,experiment,NULL,PennController,7,_Header_,End,1682468792225,sonaID,undefined,5,book,critical,F,25,book15.jpg,book35.jpg,high,memory-momentum10,NULL
1682469043,1f3e4b1ec14589b4a0c884bff8fb2b54,PennController,8,0,experiment,NULL,Canvas,canvas6,Print,NA,1682468797926,sonaID,undefined,5,book,critical,F,25,book15.jpg,book35.jpg,high,memory-momentum10,NULL
1682469043,1f3e4b1ec14589b4a0c884bff8fb2b54,PennController,8,0,experiment,NULL,Video,progression,buffer,0.004608,1682468795755,sonaID,undefined,5,book,critical,F,25,book15.jpg,book35.jpg,high,memory-momentum10,NULL
1682469043,1f3e4b1ec14589b4a0c884bff8fb2b54,PennController,8,0,experiment,NULL,Selector,choice,Selection,option2,1682468914154,sonaID,undefined,5,book,critical,F,25,book15.jpg,book35.jpg,high,memory-momentum10,option1;option2
1682469043,1f3e4b1ec14589b4a0c884bff8fb2b54,PennController,8,0,experiment,NULL,PennController,7,_Trial_,End,1682468914159,sonaID,undefined,5,book,critical,F,25,book15.jpg,book35.jpg,high,memory-momentum10,NULL
1682469043,1f3e4b1ec14589b4a0c884bff8fb2b54,PennController,32,0,experiment,NULL,PennController,31,_Trial_,Start,1682468914161,sonaID,undefined,29,frog,filler,F,25,frog15.jpg,frog35.jpg,GoalB,memory-momentum10,NULL
1682469043,1f3e4b1ec14589b4a0c884bff8fb2b54,PennController,32,0,experiment,NULL,PennController,31,_Header_,Start,1682468914161,sonaID,undefined,29,frog,filler,F,25,frog15.jpg,frog35.jpg,GoalB,memory-momentum10,NULL
1682469043,1f3e4b1ec14589b4a0c884bff8fb2b54,PennController,32,0,experiment,NULL,PennController,31,_Header_,End,1682468914161,sonaID,undefined,29,frog,filler,F,25,frog15.jpg,frog35.jpg,GoalB,memory-momentum10,NULL
1682469043,1f3e4b1ec14589b4a0c884bff8fb2b54,PennController,32,0,experiment,NULL,Canvas,canvas6,Print,NA,1682468919863,sonaID,undefined,29,frog,filler,F,25,frog15.jpg,frog35.jpg,GoalB,memory-momentum10,NULL
1682469043,1f3e4b1ec14589b4a0c884bff8fb2b54,PennController,32,0,experiment,NULL,Video,progression,buffer,0.003917,1682468917692,sonaID,undefined,29,frog,filler,F,25,frog15.jpg,frog35.jpg,GoalB,memory-momentum10,NULL
1682469043,1f3e4b1ec14589b4a0c884bff8fb2b54,PennController,32,0,experiment,NULL,Selector,choice,Selection,option2,1682468921055,sonaID,undefined,29,frog,filler,F,25,frog15.jpg,frog35.jpg,GoalB,memory-momentum10,option2;option1
1682469043,1f3e4b1ec14589b4a0c884bff8fb2b54,PennController,32,0,experiment,NULL,PennController,31,_Trial_,End,1682468921056,sonaID,undefined,29,frog,filler,F,25,frog15.jpg,frog35.jpg,GoalB,memory-momentum10,NULL
1682469043,1f3e4b1ec14589b4a0c884bff8fb2b54,PennController,27,0,experiment,NULL,PennController,26,_Trial_,Start,1682468921058,sonaID,undefined,24,match,filler,F,50,match40.jpg,match60.jpg,GoalA,memory-momentum10,NULL
1682469043,1f3e4b1ec14589b4a0c884bff8fb2b54,PennController,27,0,experiment,NULL,PennController,26,_Header_,Start,1682468921058,sonaID,undefined,24,match,filler,F,50,match40.jpg,match60.jpg,GoalA,memory-momentum10,NULL
1682469043,1f3e4b1ec14589b4a0c884bff8fb2b54,PennController,27,0,experiment,NULL,PennController,26,_Header_,End,1682468921058,sonaID,undefined,24,match,filler,F,50,match40.jpg,match60.jpg,GoalA,memory-momentum10,NULL
1682469043,1f3e4b1ec14589b4a0c884bff8fb2b54,PennController,27,0,experiment,NULL,Canvas,canvas6,Print,NA,1682468927763,sonaID,undefined,24,match,filler,F,50,match40.jpg,match60.jpg,GoalA,memory-momentum10,NULL
1682469043,1f3e4b1ec14589b4a0c884bff8fb2b54,PennController,27,0,experiment,NULL,Video,progression,buffer,0.003687,1682468924586,sonaID,undefined,24,match,filler,F,50,match40.jpg,match60.jpg,GoalA,memory-momentum10,NULL
1682469043,1f3e4b1ec14589b4a0c884bff8fb2b54,PennController,27,0,experiment,NULL,Selector,choice,Selection,option2,1682468930621,sonaID,undefined,24,match,filler,F,50,match40.jpg,match60.jpg,GoalA,memory-momentum10,option2;option1
1682469043,1f3e4b1ec14589b4a0c884bff8fb2b54,PennController,27,0,experiment,NULL,PennController,26,_Trial_,End,1682468930622,sonaID,undefined,24,match,filler,F,50,match40.jpg,match60.jpg,GoalA,memory-momentum10,NULL
1682469043,1f3e4b1ec14589b4a0c884bff8fb2b54,PennController,29,0,experiment,NULL,PennController,28,_Trial_,Start,1682468930624,sonaID,undefined,26,sandwich,filler,F,25,sandwich15.jpg,sandwich35.jpg,GoalA,memory-momentum10,NULL
1682469043,1f3e4b1ec14589b4a0c884bff8fb2b54,PennController,29,0,experiment,NULL,PennController,28,_Header_,Start,1682468930624,sonaID,undefined,26,sandwich,filler,F,25,sandwich15.jpg,sandwich35.jpg,GoalA,memory-momentum10,NULL
1682469043,1f3e4b1ec14589b4a0c884bff8fb2b54,PennController,29,0,experiment,NULL,PennController,28,_Header_,End,1682468930624,sonaID,undefined,26,sandwich,filler,F,25,sandwich15.jpg,sandwich35.jpg,GoalA,memory-momentum10,NULL
1682469043,1f3e4b1ec14589b4a0c884bff8fb2b54,PennController,29,0,experiment,NULL,Canvas,canvas6,Print,NA,1682468936335,sonaID,undefined,26,sandwich,filler,F,25,sandwich15.jpg,sandwich35.jpg,GoalA,memory-momentum10,NULL
1682469043,1f3e4b1ec14589b4a0c884bff8fb2b54,PennController,29,0,experiment,NULL,Video,progression,buffer,0.003927,1682468934155,sonaID,undefined,26,sandwich,filler,F,25,sandwich15.jpg,sandwich35.jpg,GoalA,memory-momentum10,NULL
1682469043,1f3e4b1ec14589b4a0c884bff8fb2b54,PennController,29,0,experiment,NULL,Selector,choice,Selection,option1,1682468937472,sonaID,undefined,26,sandwich,filler,F,25,sandwich15.jpg,sandwich35.jpg,GoalA,memory-momentum10,option1;option2
1682469043,1f3e4b1ec14589b4a0c884bff8fb2b54,PennController,29,0,experiment,NULL,PennController,28,_Trial_,End,1682468937473,sonaID,undefined,26,sandwich,filler,F,25,sandwich15.jpg,sandwich35.jpg,GoalA,memory-momentum10,NULL
1682469043,1f3e4b1ec14589b4a0c884bff8fb2b54,PennController,30,0,experiment,NULL,PennController,29,_PreloadFailed_,fixation.png,1682468997483,sonaID,undefined,27,rice,filler,F,50,square40.jpg,square60.jpg,GoalB,memory-momentum10,NULL
1682469043,1f3e4b1ec14589b4a0c884bff8fb2b54,PennController,30,0,experiment,NULL,PennController,29,_PreloadFailed_,https://raw.githubusercontent.com/karenwli/rep-momentum/main/rice/rice00.jpg,1682468997483,sonaID,undefined,27,rice,filler,F,50,square40.jpg,square60.jpg,GoalB,memory-momentum10,NULL
1682469043,1f3e4b1ec14589b4a0c884bff8fb2b54,PennController,30,0,experiment,NULL,PennController,29,_PreloadFailed_,https://video.wixstatic.com/video/7cb05b_171840eb277a4ada98d979b740149974/144p/mp4/file.mp4,1682468997483,sonaID,undefined,27,rice,filler,F,50,square40.jpg,square60.jpg,GoalB,memory-momentum10,NULL
1682469043,1f3e4b1ec14589b4a0c884bff8fb2b54,PennController,30,0,experiment,NULL,PennController,29,_Trial_,Start,1682468997484,sonaID,undefined,27,rice,filler,F,50,square40.jpg,square60.jpg,GoalB,memory-momentum10,NULL
1682469043,1f3e4b1ec14589b4a0c884bff8fb2b54,PennController,30,0,experiment,NULL,PennController,29,_Header_,Start,1682468997484,sonaID,undefined,27,rice,filler,F,50,square40.jpg,square60.jpg,GoalB,memory-momentum10,NULL
1682469043,1f3e4b1ec14589b4a0c884bff8fb2b54,PennController,30,0,experiment,NULL,PennController,29,_Header_,End,1682468997484,sonaID,undefined,27,rice,filler,F,50,square40.jpg,square60.jpg,GoalB,memory-momentum10,NULL
1682469043,1f3e4b1ec14589b4a0c884bff8fb2b54,PennController,30,0,experiment,NULL,Canvas,canvas6,Print,NA,1682469004194,sonaID,undefined,27,rice,filler,F,50,square40.jpg,square60.jpg,GoalB,memory-momentum10,NULL
1682469043,1f3e4b1ec14589b4a0c884bff8fb2b54,PennController,30,0,experiment,NULL,Video,progression,buffer,0.002703,1682469001017,sonaID,undefined,27,rice,filler,F,50,square40.jpg,square60.jpg,GoalB,memory-momentum10,NULL
1682469043,1f3e4b1ec14589b4a0c884bff8fb2b54,PennController,30,0,experiment,NULL,Selector,choice,Selection,option2,1682469043671,sonaID,undefined,27,rice,filler,F,50,square40.jpg,square60.jpg,GoalB,memory-momentum10,option1;option2
1682469043,1f3e4b1ec14589b4a0c884bff8fb2b54,PennController,30,0,experiment,NULL,PennController,29,_Trial_,End,1682469043673,sonaID,undefined,27,rice,filler,F,50,square40.jpg,square60.jpg,GoalB,memory-momentum10,NULL
