#
# Results on Saturday April 29 2023 22:19:12 UTC
# USER AGENT: Mozilla/5.0 (Macintosh; Intel Mac OS X 10_15_7) AppleWebKit/605.1.15 (KHTML, like Gecko) Version/15.5 Safari/605.1.15
# Design number was non-random = 30
#
# Columns below this comment are as follows:
# 1. Results reception time.
# 2. MD5 hash of participant's IP address.
# 3. Controller name.
# 4. Order number of item.
# 5. Inner element number.
# 6. Label.
# 7. Latin Square Group.
# 8. PennElementType.
# 9. PennElementName.
# 10. Parameter.
# 11. Value.
# 12. EventTime.
# 13. sonaID.
# 14. Comments.
1682806752,46e95048cdaed0a71eea44e21c33b6fa,PennController,2,0,consent,NULL,PennController,0,_Header_,End,1682806402865,sonaID,NULL
1682806752,46e95048cdaed0a71eea44e21c33b6fa,PennController,2,0,consent,NULL,PennController,0,_Header_,Start,1682806402865,sonaID,NULL
1682806752,46e95048cdaed0a71eea44e21c33b6fa,PennController,2,0,consent,NULL,PennController,0,_Trial_,Start,1682806402865,sonaID,NULL
1682806752,46e95048cdaed0a71eea44e21c33b6fa,PennController,2,0,consent,NULL,PennController,0,_Trial_,End,1682806406408,sonaID,NULL
# Columns below this comment are as follows:
# 14. ID.
# 15. Comments.
1682806752,46e95048cdaed0a71eea44e21c33b6fa,PennController,3,0,intro,NULL,PennController,1,_Header_,End,1682806406410,sonaID,undefined,NULL
1682806752,46e95048cdaed0a71eea44e21c33b6fa,PennController,3,0,intro,NULL,PennController,1,_Header_,Start,1682806406410,sonaID,undefined,NULL
1682806752,46e95048cdaed0a71eea44e21c33b6fa,PennController,3,0,intro,NULL,PennController,1,_Trial_,Start,1682806406410,sonaID,undefined,NULL
1682806752,46e95048cdaed0a71eea44e21c33b6fa,PennController,3,0,intro,NULL,TextInput,inputID,First,,1682806418265,sonaID,undefined,3
1682806752,46e95048cdaed0a71eea44e21c33b6fa,PennController,3,0,intro,NULL,TextInput,inputID,EnterReturn,30844794,1682806428158,sonaID,undefined,NULL
1682806752,46e95048cdaed0a71eea44e21c33b6fa,PennController,3,0,intro,NULL,PennController,1,_Trial_,End,1682806428162,sonaID,undefined,NULL
1682806752,46e95048cdaed0a71eea44e21c33b6fa,PennController,3,0,intro,NULL,TextInput,inputID,Final,30844794,1682806428162,sonaID,undefined,NULL
# Columns below this comment are as follows:
# 15. item_number.
# 16. item.
# 17. type.
# 18. Group.
# 19. prog.
# 20. prev_image.
# 21. next_image.
# 22. height.
# 23. memory-momentum10.
# 24. Comments.
1682806752,46e95048cdaed0a71eea44e21c33b6fa,PennController,32,0,experiment,NULL,PennController,31,_Header_,End,1682806428166,sonaID,undefined,29,frog,filler,A,50,frog40.jpg,frog60.jpg,GoalA,memory-momentum10,NULL
1682806752,46e95048cdaed0a71eea44e21c33b6fa,PennController,32,0,experiment,NULL,PennController,31,_Header_,Start,1682806428166,sonaID,undefined,29,frog,filler,A,50,frog40.jpg,frog60.jpg,GoalA,memory-momentum10,NULL
1682806752,46e95048cdaed0a71eea44e21c33b6fa,PennController,32,0,experiment,NULL,PennController,31,_Trial_,Start,1682806428166,sonaID,undefined,29,frog,filler,A,50,frog40.jpg,frog60.jpg,GoalA,memory-momentum10,NULL
1682806752,46e95048cdaed0a71eea44e21c33b6fa,PennController,32,0,experiment,NULL,Canvas,canvas6,Print,NA,1682806434927,sonaID,undefined,29,frog,filler,A,50,frog40.jpg,frog60.jpg,GoalA,memory-momentum10,NULL
1682806752,46e95048cdaed0a71eea44e21c33b6fa,PennController,32,0,experiment,NULL,Selector,choice,Selection,option2,1682806439676,sonaID,undefined,29,frog,filler,A,50,frog40.jpg,frog60.jpg,GoalA,memory-momentum10,option2;option1
1682806752,46e95048cdaed0a71eea44e21c33b6fa,PennController,32,0,experiment,NULL,PennController,31,_Trial_,End,1682806439681,sonaID,undefined,29,frog,filler,A,50,frog40.jpg,frog60.jpg,GoalA,memory-momentum10,NULL
1682806752,46e95048cdaed0a71eea44e21c33b6fa,PennController,28,0,experiment,NULL,PennController,27,_Header_,End,1682806439684,sonaID,undefined,25,house,filler,A,25,house15.jpg,house35.jpg,GoalA,memory-momentum10,NULL
1682806752,46e95048cdaed0a71eea44e21c33b6fa,PennController,28,0,experiment,NULL,PennController,27,_Header_,Start,1682806439684,sonaID,undefined,25,house,filler,A,25,house15.jpg,house35.jpg,GoalA,memory-momentum10,NULL
1682806752,46e95048cdaed0a71eea44e21c33b6fa,PennController,28,0,experiment,NULL,PennController,27,_Trial_,Start,1682806439684,sonaID,undefined,25,house,filler,A,25,house15.jpg,house35.jpg,GoalA,memory-momentum10,NULL
1682806752,46e95048cdaed0a71eea44e21c33b6fa,PennController,28,0,experiment,NULL,Canvas,canvas6,Print,NA,1682806445438,sonaID,undefined,25,house,filler,A,25,house15.jpg,house35.jpg,GoalA,memory-momentum10,NULL
1682806752,46e95048cdaed0a71eea44e21c33b6fa,PennController,28,0,experiment,NULL,Selector,choice,Selection,option2,1682806448642,sonaID,undefined,25,house,filler,A,25,house15.jpg,house35.jpg,GoalA,memory-momentum10,option1;option2
1682806752,46e95048cdaed0a71eea44e21c33b6fa,PennController,28,0,experiment,NULL,PennController,27,_Trial_,End,1682806448645,sonaID,undefined,25,house,filler,A,25,house15.jpg,house35.jpg,GoalA,memory-momentum10,NULL
1682806752,46e95048cdaed0a71eea44e21c33b6fa,PennController,24,0,experiment,NULL,PennController,23,_Header_,End,1682806448649,sonaID,undefined,21,visit,filler,A,75,visit65.jpg,visit85.jpg,GoalA,memory-momentum10,NULL
1682806752,46e95048cdaed0a71eea44e21c33b6fa,PennController,24,0,experiment,NULL,PennController,23,_Header_,Start,1682806448649,sonaID,undefined,21,visit,filler,A,75,visit65.jpg,visit85.jpg,GoalA,memory-momentum10,NULL
1682806752,46e95048cdaed0a71eea44e21c33b6fa,PennController,24,0,experiment,NULL,PennController,23,_Trial_,Start,1682806448649,sonaID,undefined,21,visit,filler,A,75,visit65.jpg,visit85.jpg,GoalA,memory-momentum10,NULL
1682806752,46e95048cdaed0a71eea44e21c33b6fa,PennController,24,0,experiment,NULL,Canvas,canvas6,Print,NA,1682806456403,sonaID,undefined,21,visit,filler,A,75,visit65.jpg,visit85.jpg,GoalA,memory-momentum10,NULL
1682806752,46e95048cdaed0a71eea44e21c33b6fa,PennController,24,0,experiment,NULL,Selector,choice,Selection,option2,1682806458320,sonaID,undefined,21,visit,filler,A,75,visit65.jpg,visit85.jpg,GoalA,memory-momentum10,option1;option2
1682806752,46e95048cdaed0a71eea44e21c33b6fa,PennController,24,0,experiment,NULL,PennController,23,_Trial_,End,1682806458323,sonaID,undefined,21,visit,filler,A,75,visit65.jpg,visit85.jpg,GoalA,memory-momentum10,NULL
1682806752,46e95048cdaed0a71eea44e21c33b6fa,PennController,25,0,experiment,NULL,PennController,24,_Trial_,Start,1682806458325,sonaID,undefined,22,wall,filler,A,25,wall15.jpg,wall35.jpg,GoalB,memory-momentum10,NULL
1682806752,46e95048cdaed0a71eea44e21c33b6fa,PennController,25,0,experiment,NULL,PennController,24,_Header_,End,1682806458326,sonaID,undefined,22,wall,filler,A,25,wall15.jpg,wall35.jpg,GoalB,memory-momentum10,NULL
1682806752,46e95048cdaed0a71eea44e21c33b6fa,PennController,25,0,experiment,NULL,PennController,24,_Header_,Start,1682806458326,sonaID,undefined,22,wall,filler,A,25,wall15.jpg,wall35.jpg,GoalB,memory-momentum10,NULL
1682806752,46e95048cdaed0a71eea44e21c33b6fa,PennController,25,0,experiment,NULL,Canvas,canvas6,Print,NA,1682806464076,sonaID,undefined,22,wall,filler,A,25,wall15.jpg,wall35.jpg,GoalB,memory-momentum10,NULL
1682806752,46e95048cdaed0a71eea44e21c33b6fa,PennController,25,0,experiment,NULL,Selector,choice,Selection,option1,1682806467786,sonaID,undefined,22,wall,filler,A,25,wall15.jpg,wall35.jpg,GoalB,memory-momentum10,option2;option1
1682806752,46e95048cdaed0a71eea44e21c33b6fa,PennController,25,0,experiment,NULL,PennController,24,_Trial_,End,1682806467788,sonaID,undefined,22,wall,filler,A,25,wall15.jpg,wall35.jpg,GoalB,memory-momentum10,NULL
1682806752,46e95048cdaed0a71eea44e21c33b6fa,PennController,19,0,experiment,NULL,PennController,18,_Header_,End,1682806467792,sonaID,undefined,16,blinds,critical,A,25,blinds15.jpg,blinds33.jpg,high,memory-momentum10,NULL
1682806752,46e95048cdaed0a71eea44e21c33b6fa,PennController,19,0,experiment,NULL,PennController,18,_Header_,Start,1682806467792,sonaID,undefined,16,blinds,critical,A,25,blinds15.jpg,blinds33.jpg,high,memory-momentum10,NULL
1682806752,46e95048cdaed0a71eea44e21c33b6fa,PennController,19,0,experiment,NULL,PennController,18,_Trial_,Start,1682806467792,sonaID,undefined,16,blinds,critical,A,25,blinds15.jpg,blinds33.jpg,high,memory-momentum10,NULL
1682806752,46e95048cdaed0a71eea44e21c33b6fa,PennController,19,0,experiment,NULL,Canvas,canvas6,Print,NA,1682806474138,sonaID,undefined,16,blinds,critical,A,25,blinds15.jpg,blinds33.jpg,high,memory-momentum10,NULL
1682806752,46e95048cdaed0a71eea44e21c33b6fa,PennController,19,0,experiment,NULL,Selector,choice,Selection,option1,1682806476425,sonaID,undefined,16,blinds,critical,A,25,blinds15.jpg,blinds33.jpg,high,memory-momentum10,option2;option1
1682806752,46e95048cdaed0a71eea44e21c33b6fa,PennController,19,0,experiment,NULL,PennController,18,_Trial_,End,1682806476427,sonaID,undefined,16,blinds,critical,A,25,blinds15.jpg,blinds33.jpg,high,memory-momentum10,NULL
1682806752,46e95048cdaed0a71eea44e21c33b6fa,PennController,16,0,experiment,NULL,PennController,15,_Header_,End,1682806476430,sonaID,undefined,13,mix,critical,A,25,mix15.jpg,mix35.jpg,low ,memory-momentum10,NULL
1682806752,46e95048cdaed0a71eea44e21c33b6fa,PennController,16,0,experiment,NULL,PennController,15,_Header_,Start,1682806476430,sonaID,undefined,13,mix,critical,A,25,mix15.jpg,mix35.jpg,low ,memory-momentum10,NULL
1682806752,46e95048cdaed0a71eea44e21c33b6fa,PennController,16,0,experiment,NULL,PennController,15,_Trial_,Start,1682806476430,sonaID,undefined,13,mix,critical,A,25,mix15.jpg,mix35.jpg,low ,memory-momentum10,NULL
1682806752,46e95048cdaed0a71eea44e21c33b6fa,PennController,16,0,experiment,NULL,Canvas,canvas6,Print,NA,1682806482182,sonaID,undefined,13,mix,critical,A,25,mix15.jpg,mix35.jpg,low ,memory-momentum10,NULL
1682806752,46e95048cdaed0a71eea44e21c33b6fa,PennController,16,0,experiment,NULL,Selector,choice,Selection,option1,1682806483547,sonaID,undefined,13,mix,critical,A,25,mix15.jpg,mix35.jpg,low ,memory-momentum10,option2;option1
1682806752,46e95048cdaed0a71eea44e21c33b6fa,PennController,16,0,experiment,NULL,PennController,15,_Trial_,End,1682806483550,sonaID,undefined,13,mix,critical,A,25,mix15.jpg,mix35.jpg,low ,memory-momentum10,NULL
1682806752,46e95048cdaed0a71eea44e21c33b6fa,PennController,27,0,experiment,NULL,PennController,26,_Header_,End,1682806483553,sonaID,undefined,24,match,filler,A,75,match65.jpg,match85.jpg,GoalB,memory-momentum10,NULL
1682806752,46e95048cdaed0a71eea44e21c33b6fa,PennController,27,0,experiment,NULL,PennController,26,_Header_,Start,1682806483553,sonaID,undefined,24,match,filler,A,75,match65.jpg,match85.jpg,GoalB,memory-momentum10,NULL
1682806752,46e95048cdaed0a71eea44e21c33b6fa,PennController,27,0,experiment,NULL,PennController,26,_Trial_,Start,1682806483553,sonaID,undefined,24,match,filler,A,75,match65.jpg,match85.jpg,GoalB,memory-momentum10,NULL
1682806752,46e95048cdaed0a71eea44e21c33b6fa,PennController,27,0,experiment,NULL,Canvas,canvas6,Print,NA,1682806491300,sonaID,undefined,24,match,filler,A,75,match65.jpg,match85.jpg,GoalB,memory-momentum10,NULL
1682806752,46e95048cdaed0a71eea44e21c33b6fa,PennController,27,0,experiment,NULL,Selector,choice,Selection,option2,1682806492630,sonaID,undefined,24,match,filler,A,75,match65.jpg,match85.jpg,GoalB,memory-momentum10,option1;option2
1682806752,46e95048cdaed0a71eea44e21c33b6fa,PennController,27,0,experiment,NULL,PennController,26,_Trial_,End,1682806492633,sonaID,undefined,24,match,filler,A,75,match65.jpg,match85.jpg,GoalB,memory-momentum10,NULL
1682806752,46e95048cdaed0a71eea44e21c33b6fa,PennController,6,0,experiment,NULL,PennController,5,_Header_,End,1682806492636,sonaID,undefined,3,clean,critical,A,75,clean65.jpg,clean85.jpg,low ,memory-momentum10,NULL
1682806752,46e95048cdaed0a71eea44e21c33b6fa,PennController,6,0,experiment,NULL,PennController,5,_Header_,Start,1682806492636,sonaID,undefined,3,clean,critical,A,75,clean65.jpg,clean85.jpg,low ,memory-momentum10,NULL
1682806752,46e95048cdaed0a71eea44e21c33b6fa,PennController,6,0,experiment,NULL,PennController,5,_Trial_,Start,1682806492636,sonaID,undefined,3,clean,critical,A,75,clean65.jpg,clean85.jpg,low ,memory-momentum10,NULL
1682806752,46e95048cdaed0a71eea44e21c33b6fa,PennController,6,0,experiment,NULL,Canvas,canvas6,Print,NA,1682806500384,sonaID,undefined,3,clean,critical,A,75,clean65.jpg,clean85.jpg,low ,memory-momentum10,NULL
1682806752,46e95048cdaed0a71eea44e21c33b6fa,PennController,6,0,experiment,NULL,Selector,choice,Selection,option1,1682806501697,sonaID,undefined,3,clean,critical,A,75,clean65.jpg,clean85.jpg,low ,memory-momentum10,option1;option2
1682806752,46e95048cdaed0a71eea44e21c33b6fa,PennController,6,0,experiment,NULL,PennController,5,_Trial_,End,1682806501700,sonaID,undefined,3,clean,critical,A,75,clean65.jpg,clean85.jpg,low ,memory-momentum10,NULL
1682806752,46e95048cdaed0a71eea44e21c33b6fa,PennController,18,0,experiment,NULL,PennController,17,_Header_,End,1682806501702,sonaID,undefined,15,zip,critical,A,75,zip65.jpg,zip85.jpg,low ,memory-momentum10,NULL
1682806752,46e95048cdaed0a71eea44e21c33b6fa,PennController,18,0,experiment,NULL,PennController,17,_Header_,Start,1682806501702,sonaID,undefined,15,zip,critical,A,75,zip65.jpg,zip85.jpg,low ,memory-momentum10,NULL
1682806752,46e95048cdaed0a71eea44e21c33b6fa,PennController,18,0,experiment,NULL,PennController,17,_Trial_,Start,1682806501702,sonaID,undefined,15,zip,critical,A,75,zip65.jpg,zip85.jpg,low ,memory-momentum10,NULL
1682806752,46e95048cdaed0a71eea44e21c33b6fa,PennController,18,0,experiment,NULL,Canvas,canvas6,Print,NA,1682806509448,sonaID,undefined,15,zip,critical,A,75,zip65.jpg,zip85.jpg,low ,memory-momentum10,NULL
1682806752,46e95048cdaed0a71eea44e21c33b6fa,PennController,18,0,experiment,NULL,Selector,choice,Selection,option2,1682806512519,sonaID,undefined,15,zip,critical,A,75,zip65.jpg,zip85.jpg,low ,memory-momentum10,option2;option1
1682806752,46e95048cdaed0a71eea44e21c33b6fa,PennController,18,0,experiment,NULL,PennController,17,_Trial_,End,1682806512522,sonaID,undefined,15,zip,critical,A,75,zip65.jpg,zip85.jpg,low ,memory-momentum10,NULL
1682806752,46e95048cdaed0a71eea44e21c33b6fa,PennController,14,0,experiment,NULL,PennController,13,_Header_,End,1682806512525,sonaID,undefined,11,beads,critical,A,50,beads40.jpg,beads60.jpg,low ,memory-momentum10,NULL
1682806752,46e95048cdaed0a71eea44e21c33b6fa,PennController,14,0,experiment,NULL,PennController,13,_Header_,Start,1682806512525,sonaID,undefined,11,beads,critical,A,50,beads40.jpg,beads60.jpg,low ,memory-momentum10,NULL
1682806752,46e95048cdaed0a71eea44e21c33b6fa,PennController,14,0,experiment,NULL,PennController,13,_Trial_,Start,1682806512525,sonaID,undefined,11,beads,critical,A,50,beads40.jpg,beads60.jpg,low ,memory-momentum10,NULL
1682806752,46e95048cdaed0a71eea44e21c33b6fa,PennController,14,0,experiment,NULL,Canvas,canvas6,Print,NA,1682806519270,sonaID,undefined,11,beads,critical,A,50,beads40.jpg,beads60.jpg,low ,memory-momentum10,NULL
1682806752,46e95048cdaed0a71eea44e21c33b6fa,PennController,14,0,experiment,NULL,Selector,choice,Selection,option2,1682806521116,sonaID,undefined,11,beads,critical,A,50,beads40.jpg,beads60.jpg,low ,memory-momentum10,option2;option1
1682806752,46e95048cdaed0a71eea44e21c33b6fa,PennController,14,0,experiment,NULL,PennController,13,_Trial_,End,1682806521118,sonaID,undefined,11,beads,critical,A,50,beads40.jpg,beads60.jpg,low ,memory-momentum10,NULL
1682806752,46e95048cdaed0a71eea44e21c33b6fa,PennController,11,0,experiment,NULL,PennController,10,_Header_,End,1682806521121,sonaID,undefined,8,cucumber,critical,A,50,cucumber42.jpg,cucumber60.jpg,high,memory-momentum10,NULL
1682806752,46e95048cdaed0a71eea44e21c33b6fa,PennController,11,0,experiment,NULL,PennController,10,_Header_,Start,1682806521121,sonaID,undefined,8,cucumber,critical,A,50,cucumber42.jpg,cucumber60.jpg,high,memory-momentum10,NULL
1682806752,46e95048cdaed0a71eea44e21c33b6fa,PennController,11,0,experiment,NULL,PennController,10,_Trial_,Start,1682806521121,sonaID,undefined,8,cucumber,critical,A,50,cucumber42.jpg,cucumber60.jpg,high,memory-momentum10,NULL
1682806752,46e95048cdaed0a71eea44e21c33b6fa,PennController,11,0,experiment,NULL,Canvas,canvas6,Print,NA,1682806529260,sonaID,undefined,8,cucumber,critical,A,50,cucumber42.jpg,cucumber60.jpg,high,memory-momentum10,NULL
1682806752,46e95048cdaed0a71eea44e21c33b6fa,PennController,11,0,experiment,NULL,Selector,choice,Selection,option2,1682806532019,sonaID,undefined,8,cucumber,critical,A,50,cucumber42.jpg,cucumber60.jpg,high,memory-momentum10,option2;option1
1682806752,46e95048cdaed0a71eea44e21c33b6fa,PennController,11,0,experiment,NULL,PennController,10,_Trial_,End,1682806532022,sonaID,undefined,8,cucumber,critical,A,50,cucumber42.jpg,cucumber60.jpg,high,memory-momentum10,NULL
1682806752,46e95048cdaed0a71eea44e21c33b6fa,PennController,29,0,experiment,NULL,PennController,28,_Header_,End,1682806532024,sonaID,undefined,26,sandwich,filler,A,50,sandwich40.jpg,sandwich60.jpg,GoalB,memory-momentum10,NULL
1682806752,46e95048cdaed0a71eea44e21c33b6fa,PennController,29,0,experiment,NULL,PennController,28,_Header_,Start,1682806532024,sonaID,undefined,26,sandwich,filler,A,50,sandwich40.jpg,sandwich60.jpg,GoalB,memory-momentum10,NULL
1682806752,46e95048cdaed0a71eea44e21c33b6fa,PennController,29,0,experiment,NULL,PennController,28,_Trial_,Start,1682806532024,sonaID,undefined,26,sandwich,filler,A,50,sandwich40.jpg,sandwich60.jpg,GoalB,memory-momentum10,NULL
1682806752,46e95048cdaed0a71eea44e21c33b6fa,PennController,29,0,experiment,NULL,Canvas,canvas6,Print,NA,1682806538771,sonaID,undefined,26,sandwich,filler,A,50,sandwich40.jpg,sandwich60.jpg,GoalB,memory-momentum10,NULL
1682806752,46e95048cdaed0a71eea44e21c33b6fa,PennController,29,0,experiment,NULL,Selector,choice,Selection,option1,1682806539823,sonaID,undefined,26,sandwich,filler,A,50,sandwich40.jpg,sandwich60.jpg,GoalB,memory-momentum10,option1;option2
1682806752,46e95048cdaed0a71eea44e21c33b6fa,PennController,29,0,experiment,NULL,PennController,28,_Trial_,End,1682806539825,sonaID,undefined,26,sandwich,filler,A,50,sandwich40.jpg,sandwich60.jpg,GoalB,memory-momentum10,NULL
1682806752,46e95048cdaed0a71eea44e21c33b6fa,PennController,5,0,experiment,NULL,PennController,4,_Header_,End,1682806539828,sonaID,undefined,2,door,critical,A,50,door40.jpg,door60.jpg,high,memory-momentum10,NULL
1682806752,46e95048cdaed0a71eea44e21c33b6fa,PennController,5,0,experiment,NULL,PennController,4,_Header_,Start,1682806539828,sonaID,undefined,2,door,critical,A,50,door40.jpg,door60.jpg,high,memory-momentum10,NULL
1682806752,46e95048cdaed0a71eea44e21c33b6fa,PennController,5,0,experiment,NULL,PennController,4,_Trial_,Start,1682806539828,sonaID,undefined,2,door,critical,A,50,door40.jpg,door60.jpg,high,memory-momentum10,NULL
1682806752,46e95048cdaed0a71eea44e21c33b6fa,PennController,5,0,experiment,NULL,Canvas,canvas6,Print,NA,1682806546586,sonaID,undefined,2,door,critical,A,50,door40.jpg,door60.jpg,high,memory-momentum10,NULL
1682806752,46e95048cdaed0a71eea44e21c33b6fa,PennController,5,0,experiment,NULL,Selector,choice,Selection,option1,1682806547691,sonaID,undefined,2,door,critical,A,50,door40.jpg,door60.jpg,high,memory-momentum10,option1;option2
1682806752,46e95048cdaed0a71eea44e21c33b6fa,PennController,5,0,experiment,NULL,PennController,4,_Trial_,End,1682806547694,sonaID,undefined,2,door,critical,A,50,door40.jpg,door60.jpg,high,memory-momentum10,NULL
1682806752,46e95048cdaed0a71eea44e21c33b6fa,PennController,9,0,experiment,NULL,PennController,8,_Header_,End,1682806547698,sonaID,undefined,6,flower,critical,A,75,flower65.jpg,flower85.jpg,high,memory-momentum10,NULL
1682806752,46e95048cdaed0a71eea44e21c33b6fa,PennController,9,0,experiment,NULL,PennController,8,_Header_,Start,1682806547698,sonaID,undefined,6,flower,critical,A,75,flower65.jpg,flower85.jpg,high,memory-momentum10,NULL
1682806752,46e95048cdaed0a71eea44e21c33b6fa,PennController,9,0,experiment,NULL,PennController,8,_Trial_,Start,1682806547698,sonaID,undefined,6,flower,critical,A,75,flower65.jpg,flower85.jpg,high,memory-momentum10,NULL
1682806752,46e95048cdaed0a71eea44e21c33b6fa,PennController,9,0,experiment,NULL,Canvas,canvas6,Print,NA,1682806555447,sonaID,undefined,6,flower,critical,A,75,flower65.jpg,flower85.jpg,high,memory-momentum10,NULL
1682806752,46e95048cdaed0a71eea44e21c33b6fa,PennController,9,0,experiment,NULL,Selector,choice,Selection,option2,1682806557170,sonaID,undefined,6,flower,critical,A,75,flower65.jpg,flower85.jpg,high,memory-momentum10,option1;option2
1682806752,46e95048cdaed0a71eea44e21c33b6fa,PennController,9,0,experiment,NULL,PennController,8,_Trial_,End,1682806557173,sonaID,undefined,6,flower,critical,A,75,flower65.jpg,flower85.jpg,high,memory-momentum10,NULL
1682806752,46e95048cdaed0a71eea44e21c33b6fa,PennController,22,0,experiment,NULL,PennController,21,_Header_,End,1682806557176,sonaID,undefined,19,cup,filler,A,25,cup15.jpg,cup35.jpg,GoalA,memory-momentum10,NULL
1682806752,46e95048cdaed0a71eea44e21c33b6fa,PennController,22,0,experiment,NULL,PennController,21,_Header_,Start,1682806557176,sonaID,undefined,19,cup,filler,A,25,cup15.jpg,cup35.jpg,GoalA,memory-momentum10,NULL
1682806752,46e95048cdaed0a71eea44e21c33b6fa,PennController,22,0,experiment,NULL,PennController,21,_Trial_,Start,1682806557176,sonaID,undefined,19,cup,filler,A,25,cup15.jpg,cup35.jpg,GoalA,memory-momentum10,NULL
1682806752,46e95048cdaed0a71eea44e21c33b6fa,PennController,22,0,experiment,NULL,Canvas,canvas6,Print,NA,1682806562923,sonaID,undefined,19,cup,filler,A,25,cup15.jpg,cup35.jpg,GoalA,memory-momentum10,NULL
1682806752,46e95048cdaed0a71eea44e21c33b6fa,PennController,22,0,experiment,NULL,Selector,choice,Selection,option2,1682806565286,sonaID,undefined,19,cup,filler,A,25,cup15.jpg,cup35.jpg,GoalA,memory-momentum10,option1;option2
1682806752,46e95048cdaed0a71eea44e21c33b6fa,PennController,22,0,experiment,NULL,PennController,21,_Trial_,End,1682806565289,sonaID,undefined,19,cup,filler,A,25,cup15.jpg,cup35.jpg,GoalA,memory-momentum10,NULL
1682806752,46e95048cdaed0a71eea44e21c33b6fa,PennController,13,0,experiment,NULL,PennController,12,_Header_,End,1682806565291,sonaID,undefined,10,train,critical,A,25,train15.jpg,train35.jpg,high,memory-momentum10,NULL
1682806752,46e95048cdaed0a71eea44e21c33b6fa,PennController,13,0,experiment,NULL,PennController,12,_Header_,Start,1682806565291,sonaID,undefined,10,train,critical,A,25,train15.jpg,train35.jpg,high,memory-momentum10,NULL
1682806752,46e95048cdaed0a71eea44e21c33b6fa,PennController,13,0,experiment,NULL,PennController,12,_Trial_,Start,1682806565291,sonaID,undefined,10,train,critical,A,25,train15.jpg,train35.jpg,high,memory-momentum10,NULL
1682806752,46e95048cdaed0a71eea44e21c33b6fa,PennController,13,0,experiment,NULL,Canvas,canvas6,Print,NA,1682806571040,sonaID,undefined,10,train,critical,A,25,train15.jpg,train35.jpg,high,memory-momentum10,NULL
1682806752,46e95048cdaed0a71eea44e21c33b6fa,PennController,13,0,experiment,NULL,Selector,choice,Selection,option2,1682806572223,sonaID,undefined,10,train,critical,A,25,train15.jpg,train35.jpg,high,memory-momentum10,option2;option1
1682806752,46e95048cdaed0a71eea44e21c33b6fa,PennController,13,0,experiment,NULL,PennController,12,_Trial_,End,1682806572226,sonaID,undefined,10,train,critical,A,25,train15.jpg,train35.jpg,high,memory-momentum10,NULL
1682806752,46e95048cdaed0a71eea44e21c33b6fa,PennController,15,0,experiment,NULL,PennController,14,_Header_,End,1682806572229,sonaID,undefined,12,erase,critical,A,75,erase66.jpg,erase84.jpg,high,memory-momentum10,NULL
1682806752,46e95048cdaed0a71eea44e21c33b6fa,PennController,15,0,experiment,NULL,PennController,14,_Header_,Start,1682806572229,sonaID,undefined,12,erase,critical,A,75,erase66.jpg,erase84.jpg,high,memory-momentum10,NULL
1682806752,46e95048cdaed0a71eea44e21c33b6fa,PennController,15,0,experiment,NULL,PennController,14,_Trial_,Start,1682806572229,sonaID,undefined,12,erase,critical,A,75,erase66.jpg,erase84.jpg,high,memory-momentum10,NULL
1682806752,46e95048cdaed0a71eea44e21c33b6fa,PennController,15,0,experiment,NULL,Canvas,canvas6,Print,NA,1682806581972,sonaID,undefined,12,erase,critical,A,75,erase66.jpg,erase84.jpg,high,memory-momentum10,NULL
1682806752,46e95048cdaed0a71eea44e21c33b6fa,PennController,15,0,experiment,NULL,Selector,choice,Selection,option1,1682806583392,sonaID,undefined,12,erase,critical,A,75,erase66.jpg,erase84.jpg,high,memory-momentum10,option2;option1
1682806752,46e95048cdaed0a71eea44e21c33b6fa,PennController,15,0,experiment,NULL,PennController,14,_Trial_,End,1682806583394,sonaID,undefined,12,erase,critical,A,75,erase66.jpg,erase84.jpg,high,memory-momentum10,NULL
1682806752,46e95048cdaed0a71eea44e21c33b6fa,PennController,4,0,experiment,NULL,PennController,3,_Header_,End,1682806583397,sonaID,undefined,1,vase,critical,A,25,vase15.jpg,vase35.jpg,low ,memory-momentum10,NULL
1682806752,46e95048cdaed0a71eea44e21c33b6fa,PennController,4,0,experiment,NULL,PennController,3,_Header_,Start,1682806583397,sonaID,undefined,1,vase,critical,A,25,vase15.jpg,vase35.jpg,low ,memory-momentum10,NULL
1682806752,46e95048cdaed0a71eea44e21c33b6fa,PennController,4,0,experiment,NULL,PennController,3,_Trial_,Start,1682806583397,sonaID,undefined,1,vase,critical,A,25,vase15.jpg,vase35.jpg,low ,memory-momentum10,NULL
1682806752,46e95048cdaed0a71eea44e21c33b6fa,PennController,4,0,experiment,NULL,Canvas,canvas6,Print,NA,1682806589138,sonaID,undefined,1,vase,critical,A,25,vase15.jpg,vase35.jpg,low ,memory-momentum10,NULL
1682806752,46e95048cdaed0a71eea44e21c33b6fa,PennController,4,0,experiment,NULL,Selector,choice,Selection,option2,1682806590359,sonaID,undefined,1,vase,critical,A,25,vase15.jpg,vase35.jpg,low ,memory-momentum10,option2;option1
1682806752,46e95048cdaed0a71eea44e21c33b6fa,PennController,4,0,experiment,NULL,PennController,3,_Trial_,End,1682806590362,sonaID,undefined,1,vase,critical,A,25,vase15.jpg,vase35.jpg,low ,memory-momentum10,NULL
1682806752,46e95048cdaed0a71eea44e21c33b6fa,PennController,7,0,experiment,NULL,PennController,6,_Header_,End,1682806590364,sonaID,undefined,4,candy,critical,A,25,candy15.jpg,candy35.jpg,high,memory-momentum10,NULL
1682806752,46e95048cdaed0a71eea44e21c33b6fa,PennController,7,0,experiment,NULL,PennController,6,_Header_,Start,1682806590364,sonaID,undefined,4,candy,critical,A,25,candy15.jpg,candy35.jpg,high,memory-momentum10,NULL
1682806752,46e95048cdaed0a71eea44e21c33b6fa,PennController,7,0,experiment,NULL,PennController,6,_Trial_,Start,1682806590364,sonaID,undefined,4,candy,critical,A,25,candy15.jpg,candy35.jpg,high,memory-momentum10,NULL
1682806752,46e95048cdaed0a71eea44e21c33b6fa,PennController,7,0,experiment,NULL,Canvas,canvas6,Print,NA,1682806596107,sonaID,undefined,4,candy,critical,A,25,candy15.jpg,candy35.jpg,high,memory-momentum10,NULL
1682806752,46e95048cdaed0a71eea44e21c33b6fa,PennController,7,0,experiment,NULL,Selector,choice,Selection,option2,1682806597190,sonaID,undefined,4,candy,critical,A,25,candy15.jpg,candy35.jpg,high,memory-momentum10,option2;option1
1682806752,46e95048cdaed0a71eea44e21c33b6fa,PennController,7,0,experiment,NULL,PennController,6,_Trial_,End,1682806597192,sonaID,undefined,4,candy,critical,A,25,candy15.jpg,candy35.jpg,high,memory-momentum10,NULL
1682806752,46e95048cdaed0a71eea44e21c33b6fa,PennController,10,0,experiment,NULL,PennController,9,_Header_,End,1682806597195,sonaID,undefined,7,stack,critical,A,25,stack15.jpg,stack35.jpg,low ,memory-momentum10,NULL
1682806752,46e95048cdaed0a71eea44e21c33b6fa,PennController,10,0,experiment,NULL,PennController,9,_Header_,Start,1682806597195,sonaID,undefined,7,stack,critical,A,25,stack15.jpg,stack35.jpg,low ,memory-momentum10,NULL
1682806752,46e95048cdaed0a71eea44e21c33b6fa,PennController,10,0,experiment,NULL,PennController,9,_Trial_,Start,1682806597195,sonaID,undefined,7,stack,critical,A,25,stack15.jpg,stack35.jpg,low ,memory-momentum10,NULL
1682806752,46e95048cdaed0a71eea44e21c33b6fa,PennController,10,0,experiment,NULL,Canvas,canvas6,Print,NA,1682806602937,sonaID,undefined,7,stack,critical,A,25,stack15.jpg,stack35.jpg,low ,memory-momentum10,NULL
1682806752,46e95048cdaed0a71eea44e21c33b6fa,PennController,10,0,experiment,NULL,Selector,choice,Selection,option1,1682806604035,sonaID,undefined,7,stack,critical,A,25,stack15.jpg,stack35.jpg,low ,memory-momentum10,option1;option2
1682806752,46e95048cdaed0a71eea44e21c33b6fa,PennController,10,0,experiment,NULL,PennController,9,_Trial_,End,1682806604037,sonaID,undefined,7,stack,critical,A,25,stack15.jpg,stack35.jpg,low ,memory-momentum10,NULL
1682806752,46e95048cdaed0a71eea44e21c33b6fa,PennController,12,0,experiment,NULL,PennController,11,_Header_,Start,1682806604039,sonaID,undefined,9,cake,critical,A,75,cake66.jpg,cake84.jpg,low ,memory-momentum10,NULL
1682806752,46e95048cdaed0a71eea44e21c33b6fa,PennController,12,0,experiment,NULL,PennController,11,_Trial_,Start,1682806604039,sonaID,undefined,9,cake,critical,A,75,cake66.jpg,cake84.jpg,low ,memory-momentum10,NULL
1682806752,46e95048cdaed0a71eea44e21c33b6fa,PennController,12,0,experiment,NULL,PennController,11,_Header_,End,1682806604040,sonaID,undefined,9,cake,critical,A,75,cake66.jpg,cake84.jpg,low ,memory-momentum10,NULL
1682806752,46e95048cdaed0a71eea44e21c33b6fa,PennController,12,0,experiment,NULL,Canvas,canvas6,Print,NA,1682806613786,sonaID,undefined,9,cake,critical,A,75,cake66.jpg,cake84.jpg,low ,memory-momentum10,NULL
1682806752,46e95048cdaed0a71eea44e21c33b6fa,PennController,12,0,experiment,NULL,Selector,choice,Selection,option2,1682806615483,sonaID,undefined,9,cake,critical,A,75,cake66.jpg,cake84.jpg,low ,memory-momentum10,option2;option1
1682806752,46e95048cdaed0a71eea44e21c33b6fa,PennController,12,0,experiment,NULL,PennController,11,_Trial_,End,1682806615487,sonaID,undefined,9,cake,critical,A,75,cake66.jpg,cake84.jpg,low ,memory-momentum10,NULL
1682806752,46e95048cdaed0a71eea44e21c33b6fa,PennController,23,0,experiment,NULL,PennController,22,_Header_,End,1682806615490,sonaID,undefined,20,cat,filler,A,50,cat40.jpg,cat60.jpg,GoalB,memory-momentum10,NULL
1682806752,46e95048cdaed0a71eea44e21c33b6fa,PennController,23,0,experiment,NULL,PennController,22,_Header_,Start,1682806615490,sonaID,undefined,20,cat,filler,A,50,cat40.jpg,cat60.jpg,GoalB,memory-momentum10,NULL
1682806752,46e95048cdaed0a71eea44e21c33b6fa,PennController,23,0,experiment,NULL,PennController,22,_Trial_,Start,1682806615490,sonaID,undefined,20,cat,filler,A,50,cat40.jpg,cat60.jpg,GoalB,memory-momentum10,NULL
1682806752,46e95048cdaed0a71eea44e21c33b6fa,PennController,23,0,experiment,NULL,Canvas,canvas6,Print,NA,1682806622235,sonaID,undefined,20,cat,filler,A,50,cat40.jpg,cat60.jpg,GoalB,memory-momentum10,NULL
1682806752,46e95048cdaed0a71eea44e21c33b6fa,PennController,23,0,experiment,NULL,Selector,choice,Selection,option2,1682806626088,sonaID,undefined,20,cat,filler,A,50,cat40.jpg,cat60.jpg,GoalB,memory-momentum10,option2;option1
1682806752,46e95048cdaed0a71eea44e21c33b6fa,PennController,23,0,experiment,NULL,PennController,22,_Trial_,End,1682806626091,sonaID,undefined,20,cat,filler,A,50,cat40.jpg,cat60.jpg,GoalB,memory-momentum10,NULL
1682806752,46e95048cdaed0a71eea44e21c33b6fa,PennController,21,0,experiment,NULL,PennController,20,_Header_,End,1682806626094,sonaID,undefined,18,ball,critical,A,75,ball65.jpg,ball85.jpg,high,memory-momentum10,NULL
1682806752,46e95048cdaed0a71eea44e21c33b6fa,PennController,21,0,experiment,NULL,PennController,20,_Header_,Start,1682806626094,sonaID,undefined,18,ball,critical,A,75,ball65.jpg,ball85.jpg,high,memory-momentum10,NULL
1682806752,46e95048cdaed0a71eea44e21c33b6fa,PennController,21,0,experiment,NULL,PennController,20,_Trial_,Start,1682806626094,sonaID,undefined,18,ball,critical,A,75,ball65.jpg,ball85.jpg,high,memory-momentum10,NULL
1682806752,46e95048cdaed0a71eea44e21c33b6fa,PennController,21,0,experiment,NULL,Canvas,canvas6,Print,NA,1682806633840,sonaID,undefined,18,ball,critical,A,75,ball65.jpg,ball85.jpg,high,memory-momentum10,NULL
1682806752,46e95048cdaed0a71eea44e21c33b6fa,PennController,21,0,experiment,NULL,Selector,choice,Selection,option1,1682806636069,sonaID,undefined,18,ball,critical,A,75,ball65.jpg,ball85.jpg,high,memory-momentum10,option1;option2
1682806752,46e95048cdaed0a71eea44e21c33b6fa,PennController,21,0,experiment,NULL,PennController,20,_Trial_,End,1682806636072,sonaID,undefined,18,ball,critical,A,75,ball65.jpg,ball85.jpg,high,memory-momentum10,NULL
1682806752,46e95048cdaed0a71eea44e21c33b6fa,PennController,26,0,experiment,NULL,PennController,25,_Header_,End,1682806636074,sonaID,undefined,23,color,filler,A,50,color40.jpg,color60.jpg,GoalA,memory-momentum10,NULL
1682806752,46e95048cdaed0a71eea44e21c33b6fa,PennController,26,0,experiment,NULL,PennController,25,_Header_,Start,1682806636074,sonaID,undefined,23,color,filler,A,50,color40.jpg,color60.jpg,GoalA,memory-momentum10,NULL
1682806752,46e95048cdaed0a71eea44e21c33b6fa,PennController,26,0,experiment,NULL,PennController,25,_Trial_,Start,1682806636074,sonaID,undefined,23,color,filler,A,50,color40.jpg,color60.jpg,GoalA,memory-momentum10,NULL
1682806752,46e95048cdaed0a71eea44e21c33b6fa,PennController,26,0,experiment,NULL,Canvas,canvas6,Print,NA,1682806642825,sonaID,undefined,23,color,filler,A,50,color40.jpg,color60.jpg,GoalA,memory-momentum10,NULL
1682806752,46e95048cdaed0a71eea44e21c33b6fa,PennController,26,0,experiment,NULL,Selector,choice,Selection,option1,1682806645001,sonaID,undefined,23,color,filler,A,50,color40.jpg,color60.jpg,GoalA,memory-momentum10,option2;option1
1682806752,46e95048cdaed0a71eea44e21c33b6fa,PennController,26,0,experiment,NULL,PennController,25,_Trial_,End,1682806645004,sonaID,undefined,23,color,filler,A,50,color40.jpg,color60.jpg,GoalA,memory-momentum10,NULL
1682806752,46e95048cdaed0a71eea44e21c33b6fa,PennController,31,0,experiment,NULL,PennController,30,_Header_,End,1682806645006,sonaID,undefined,28,sort,filler,A,25,sort15.jpg,sort35.jpg,GoalB,memory-momentum10,NULL
1682806752,46e95048cdaed0a71eea44e21c33b6fa,PennController,31,0,experiment,NULL,PennController,30,_Header_,Start,1682806645006,sonaID,undefined,28,sort,filler,A,25,sort15.jpg,sort35.jpg,GoalB,memory-momentum10,NULL
1682806752,46e95048cdaed0a71eea44e21c33b6fa,PennController,31,0,experiment,NULL,PennController,30,_Trial_,Start,1682806645006,sonaID,undefined,28,sort,filler,A,25,sort15.jpg,sort35.jpg,GoalB,memory-momentum10,NULL
1682806752,46e95048cdaed0a71eea44e21c33b6fa,PennController,31,0,experiment,NULL,Canvas,canvas6,Print,NA,1682806650751,sonaID,undefined,28,sort,filler,A,25,sort15.jpg,sort35.jpg,GoalB,memory-momentum10,NULL
1682806752,46e95048cdaed0a71eea44e21c33b6fa,PennController,31,0,experiment,NULL,Selector,choice,Selection,option1,1682806652149,sonaID,undefined,28,sort,filler,A,25,sort15.jpg,sort35.jpg,GoalB,memory-momentum10,option1;option2
1682806752,46e95048cdaed0a71eea44e21c33b6fa,PennController,31,0,experiment,NULL,PennController,30,_Trial_,End,1682806652151,sonaID,undefined,28,sort,filler,A,25,sort15.jpg,sort35.jpg,GoalB,memory-momentum10,NULL
1682806752,46e95048cdaed0a71eea44e21c33b6fa,PennController,8,0,experiment,NULL,PennController,7,_Header_,End,1682806652154,sonaID,undefined,5,book,critical,A,50,book40.jpg,book60.jpg,low ,memory-momentum10,NULL
1682806752,46e95048cdaed0a71eea44e21c33b6fa,PennController,8,0,experiment,NULL,PennController,7,_Header_,Start,1682806652154,sonaID,undefined,5,book,critical,A,50,book40.jpg,book60.jpg,low ,memory-momentum10,NULL
1682806752,46e95048cdaed0a71eea44e21c33b6fa,PennController,8,0,experiment,NULL,PennController,7,_Trial_,Start,1682806652154,sonaID,undefined,5,book,critical,A,50,book40.jpg,book60.jpg,low ,memory-momentum10,NULL
1682806752,46e95048cdaed0a71eea44e21c33b6fa,PennController,8,0,experiment,NULL,Canvas,canvas6,Print,NA,1682806658897,sonaID,undefined,5,book,critical,A,50,book40.jpg,book60.jpg,low ,memory-momentum10,NULL
1682806752,46e95048cdaed0a71eea44e21c33b6fa,PennController,8,0,experiment,NULL,Selector,choice,Selection,option2,1682806660934,sonaID,undefined,5,book,critical,A,50,book40.jpg,book60.jpg,low ,memory-momentum10,option1;option2
1682806752,46e95048cdaed0a71eea44e21c33b6fa,PennController,8,0,experiment,NULL,PennController,7,_Trial_,End,1682806660935,sonaID,undefined,5,book,critical,A,50,book40.jpg,book60.jpg,low ,memory-momentum10,NULL
1682806752,46e95048cdaed0a71eea44e21c33b6fa,PennController,30,0,experiment,NULL,PennController,29,_PreloadFailed_,https://video.wixstatic.com/video/7cb05b_41aae65ca27d43c3a89b5e46732d18ff/144p/mp4/file.mp4,1682806720937,sonaID,undefined,27,rice,filler,A,75,square65.jpg,square85.jpg,GoalA,memory-momentum10,NULL
1682806752,46e95048cdaed0a71eea44e21c33b6fa,PennController,30,0,experiment,NULL,PennController,29,_PreloadFailed_,https://raw.githubusercontent.com/karenwli/rep-momentum/main/rice/rice00.jpg,1682806720937,sonaID,undefined,27,rice,filler,A,75,square65.jpg,square85.jpg,GoalA,memory-momentum10,NULL
1682806752,46e95048cdaed0a71eea44e21c33b6fa,PennController,30,0,experiment,NULL,PennController,29,_PreloadFailed_,fixation.png,1682806720937,sonaID,undefined,27,rice,filler,A,75,square65.jpg,square85.jpg,GoalA,memory-momentum10,NULL
1682806752,46e95048cdaed0a71eea44e21c33b6fa,PennController,30,0,experiment,NULL,PennController,29,_Header_,End,1682806720938,sonaID,undefined,27,rice,filler,A,75,square65.jpg,square85.jpg,GoalA,memory-momentum10,NULL
1682806752,46e95048cdaed0a71eea44e21c33b6fa,PennController,30,0,experiment,NULL,PennController,29,_Header_,Start,1682806720938,sonaID,undefined,27,rice,filler,A,75,square65.jpg,square85.jpg,GoalA,memory-momentum10,NULL
1682806752,46e95048cdaed0a71eea44e21c33b6fa,PennController,30,0,experiment,NULL,PennController,29,_Trial_,Start,1682806720938,sonaID,undefined,27,rice,filler,A,75,square65.jpg,square85.jpg,GoalA,memory-momentum10,NULL
1682806752,46e95048cdaed0a71eea44e21c33b6fa,PennController,30,0,experiment,NULL,Canvas,canvas6,Print,NA,1682806728688,sonaID,undefined,27,rice,filler,A,75,square65.jpg,square85.jpg,GoalA,memory-momentum10,NULL
1682806752,46e95048cdaed0a71eea44e21c33b6fa,PennController,30,0,experiment,NULL,Selector,choice,Selection,option2,1682806733101,sonaID,undefined,27,rice,filler,A,75,square65.jpg,square85.jpg,GoalA,memory-momentum10,option2;option1
1682806752,46e95048cdaed0a71eea44e21c33b6fa,PennController,30,0,experiment,NULL,PennController,29,_Trial_,End,1682806733103,sonaID,undefined,27,rice,filler,A,75,square65.jpg,square85.jpg,GoalA,memory-momentum10,NULL
1682806752,46e95048cdaed0a71eea44e21c33b6fa,PennController,20,0,experiment,NULL,PennController,19,_Header_,End,1682806733105,sonaID,undefined,17,roll,critical,A,50,roll40.jpg,roll60.jpg,low ,memory-momentum10,NULL
1682806752,46e95048cdaed0a71eea44e21c33b6fa,PennController,20,0,experiment,NULL,PennController,19,_Header_,Start,1682806733105,sonaID,undefined,17,roll,critical,A,50,roll40.jpg,roll60.jpg,low ,memory-momentum10,NULL
1682806752,46e95048cdaed0a71eea44e21c33b6fa,PennController,20,0,experiment,NULL,PennController,19,_Trial_,Start,1682806733105,sonaID,undefined,17,roll,critical,A,50,roll40.jpg,roll60.jpg,low ,memory-momentum10,NULL
1682806752,46e95048cdaed0a71eea44e21c33b6fa,PennController,20,0,experiment,NULL,Canvas,canvas6,Print,NA,1682806739848,sonaID,undefined,17,roll,critical,A,50,roll40.jpg,roll60.jpg,low ,memory-momentum10,NULL
1682806752,46e95048cdaed0a71eea44e21c33b6fa,PennController,20,0,experiment,NULL,Selector,choice,Selection,option2,1682806741214,sonaID,undefined,17,roll,critical,A,50,roll40.jpg,roll60.jpg,low ,memory-momentum10,option2;option1
1682806752,46e95048cdaed0a71eea44e21c33b6fa,PennController,20,0,experiment,NULL,PennController,19,_Trial_,End,1682806741215,sonaID,undefined,17,roll,critical,A,50,roll40.jpg,roll60.jpg,low ,memory-momentum10,NULL
1682806752,46e95048cdaed0a71eea44e21c33b6fa,PennController,17,0,experiment,NULL,PennController,16,_Header_,End,1682806741216,sonaID,undefined,14,cover,critical,A,50,cover42.jpg,cover60.jpg,high,memory-momentum10,NULL
1682806752,46e95048cdaed0a71eea44e21c33b6fa,PennController,17,0,experiment,NULL,PennController,16,_Header_,Start,1682806741216,sonaID,undefined,14,cover,critical,A,50,cover42.jpg,cover60.jpg,high,memory-momentum10,NULL
1682806752,46e95048cdaed0a71eea44e21c33b6fa,PennController,17,0,experiment,NULL,PennController,16,_Trial_,Start,1682806741216,sonaID,undefined,14,cover,critical,A,50,cover42.jpg,cover60.jpg,high,memory-momentum10,NULL
1682806752,46e95048cdaed0a71eea44e21c33b6fa,PennController,17,0,experiment,NULL,Canvas,canvas6,Print,NA,1682806749361,sonaID,undefined,14,cover,critical,A,50,cover42.jpg,cover60.jpg,high,memory-momentum10,NULL
1682806752,46e95048cdaed0a71eea44e21c33b6fa,PennController,17,0,experiment,NULL,Selector,choice,Selection,option1,1682806751345,sonaID,undefined,14,cover,critical,A,50,cover42.jpg,cover60.jpg,high,memory-momentum10,option2;option1
1682806752,46e95048cdaed0a71eea44e21c33b6fa,PennController,17,0,experiment,NULL,PennController,16,_Trial_,End,1682806751347,sonaID,undefined,14,cover,critical,A,50,cover42.jpg,cover60.jpg,high,memory-momentum10,NULL
