#
# Results on Wednesday June 21 2023 19:57:06 UTC
# USER AGENT: Mozilla/5.0 (Windows NT 10.0; Win64; x64) AppleWebKit/537.36 (KHTML, like Gecko) Chrome/114.0.0.0 Safari/537.36
# Design number was non-random = 67
#
# Columns below this comment are as follows:
# 1. Results reception time.
# 2. MD5 hash of participant's IP address.
# 3. Controller name.
# 4. Order number of item.
# 5. Inner element number.
# 6. Label.
# 7. Latin Square Group.
# 8. PennElementType.
# 9. PennElementName.
# 10. Parameter.
# 11. Value.
# 12. EventTime.
# 13. PROLIFIC_ID.
# 14. Comments.
1687377426,132a5fb64b6e00721275d4753a266519,PennController,3,0,consent,NULL,PennController,0,_Trial_,Start,1687377124363,59dbbdce5de9b000017ebf19,NULL
1687377426,132a5fb64b6e00721275d4753a266519,PennController,3,0,consent,NULL,PennController,0,_Header_,Start,1687377124363,59dbbdce5de9b000017ebf19,NULL
1687377426,132a5fb64b6e00721275d4753a266519,PennController,3,0,consent,NULL,PennController,0,_Header_,End,1687377124363,59dbbdce5de9b000017ebf19,NULL
1687377426,132a5fb64b6e00721275d4753a266519,PennController,3,0,consent,NULL,PennController,0,_Trial_,End,1687377126993,59dbbdce5de9b000017ebf19,NULL
# Columns below this comment are as follows:
# 14. ID.
# 15. Comments.
1687377426,132a5fb64b6e00721275d4753a266519,PennController,4,0,intro,NULL,PennController,1,_Trial_,Start,1687377126999,59dbbdce5de9b000017ebf19,59dbbdce5de9b000017ebf19,NULL
1687377426,132a5fb64b6e00721275d4753a266519,PennController,4,0,intro,NULL,PennController,1,_Header_,Start,1687377126999,59dbbdce5de9b000017ebf19,59dbbdce5de9b000017ebf19,NULL
1687377426,132a5fb64b6e00721275d4753a266519,PennController,4,0,intro,NULL,PennController,1,_Header_,End,1687377126999,59dbbdce5de9b000017ebf19,59dbbdce5de9b000017ebf19,NULL
1687377426,132a5fb64b6e00721275d4753a266519,PennController,4,0,intro,NULL,PennController,1,_Trial_,End,1687377138977,59dbbdce5de9b000017ebf19,59dbbdce5de9b000017ebf19,NULL
# Columns below this comment are as follows:
# 15. item_number.
# 16. item.
# 17. type.
# 18. Group.
# 19. prog.
# 20. prev_image.
# 21. next_image.
# 22. height.
# 23. Comments.
1687377426,132a5fb64b6e00721275d4753a266519,PennController,30,0,experiment,NULL,PennController,28,_Trial_,Start,1687377138981,59dbbdce5de9b000017ebf19,59dbbdce5de9b000017ebf19,26,sandwich,filler,F,25,sandwich15.jpg,sandwich35.jpg,GoalA,NULL
1687377426,132a5fb64b6e00721275d4753a266519,PennController,30,0,experiment,NULL,PennController,28,_Header_,Start,1687377138981,59dbbdce5de9b000017ebf19,59dbbdce5de9b000017ebf19,26,sandwich,filler,F,25,sandwich15.jpg,sandwich35.jpg,GoalA,NULL
1687377426,132a5fb64b6e00721275d4753a266519,PennController,30,0,experiment,NULL,PennController,28,_Header_,End,1687377138981,59dbbdce5de9b000017ebf19,59dbbdce5de9b000017ebf19,26,sandwich,filler,F,25,sandwich15.jpg,sandwich35.jpg,GoalA,NULL
1687377426,132a5fb64b6e00721275d4753a266519,PennController,30,0,experiment,NULL,Canvas,canvas6,Print,NA,1687377144738,59dbbdce5de9b000017ebf19,59dbbdce5de9b000017ebf19,26,sandwich,filler,F,25,sandwich15.jpg,sandwich35.jpg,GoalA,NULL
1687377426,132a5fb64b6e00721275d4753a266519,PennController,30,0,experiment,NULL,Video,progression,buffer,0.009809,1687377142565,59dbbdce5de9b000017ebf19,59dbbdce5de9b000017ebf19,26,sandwich,filler,F,25,sandwich15.jpg,sandwich35.jpg,GoalA,NULL
1687377426,132a5fb64b6e00721275d4753a266519,PennController,30,0,experiment,NULL,Selector,choice,Selection,option2,1687377149379,59dbbdce5de9b000017ebf19,59dbbdce5de9b000017ebf19,26,sandwich,filler,F,25,sandwich15.jpg,sandwich35.jpg,GoalA,option2;option1
1687377426,132a5fb64b6e00721275d4753a266519,PennController,30,0,experiment,NULL,PennController,28,_Trial_,End,1687377149383,59dbbdce5de9b000017ebf19,59dbbdce5de9b000017ebf19,26,sandwich,filler,F,25,sandwich15.jpg,sandwich35.jpg,GoalA,NULL
1687377426,132a5fb64b6e00721275d4753a266519,PennController,18,0,experiment,NULL,PennController,16,_Trial_,Start,1687377149388,59dbbdce5de9b000017ebf19,59dbbdce5de9b000017ebf19,14,cover,critical,F,25,cover15.jpg,cover33.jpg,high,NULL
1687377426,132a5fb64b6e00721275d4753a266519,PennController,18,0,experiment,NULL,PennController,16,_Header_,Start,1687377149388,59dbbdce5de9b000017ebf19,59dbbdce5de9b000017ebf19,14,cover,critical,F,25,cover15.jpg,cover33.jpg,high,NULL
1687377426,132a5fb64b6e00721275d4753a266519,PennController,18,0,experiment,NULL,PennController,16,_Header_,End,1687377149388,59dbbdce5de9b000017ebf19,59dbbdce5de9b000017ebf19,14,cover,critical,F,25,cover15.jpg,cover33.jpg,high,NULL
1687377426,132a5fb64b6e00721275d4753a266519,PennController,18,0,experiment,NULL,Canvas,canvas6,Print,NA,1687377155689,59dbbdce5de9b000017ebf19,59dbbdce5de9b000017ebf19,14,cover,critical,F,25,cover15.jpg,cover33.jpg,high,NULL
1687377426,132a5fb64b6e00721275d4753a266519,PennController,18,0,experiment,NULL,Video,progression,buffer,0.00577,1687377152924,59dbbdce5de9b000017ebf19,59dbbdce5de9b000017ebf19,14,cover,critical,F,25,cover15.jpg,cover33.jpg,high,NULL
1687377426,132a5fb64b6e00721275d4753a266519,PennController,18,0,experiment,NULL,Selector,choice,Selection,option2,1687377163239,59dbbdce5de9b000017ebf19,59dbbdce5de9b000017ebf19,14,cover,critical,F,25,cover15.jpg,cover33.jpg,high,option1;option2
1687377426,132a5fb64b6e00721275d4753a266519,PennController,18,0,experiment,NULL,PennController,16,_Trial_,End,1687377163242,59dbbdce5de9b000017ebf19,59dbbdce5de9b000017ebf19,14,cover,critical,F,25,cover15.jpg,cover33.jpg,high,NULL
1687377426,132a5fb64b6e00721275d4753a266519,PennController,20,0,experiment,NULL,PennController,18,_Trial_,Start,1687377163247,59dbbdce5de9b000017ebf19,59dbbdce5de9b000017ebf19,16,blinds,critical,F,75,blinds66.jpg,blinds84.jpg,high,NULL
1687377426,132a5fb64b6e00721275d4753a266519,PennController,20,0,experiment,NULL,PennController,18,_Header_,Start,1687377163247,59dbbdce5de9b000017ebf19,59dbbdce5de9b000017ebf19,16,blinds,critical,F,75,blinds66.jpg,blinds84.jpg,high,NULL
1687377426,132a5fb64b6e00721275d4753a266519,PennController,20,0,experiment,NULL,PennController,18,_Header_,End,1687377163247,59dbbdce5de9b000017ebf19,59dbbdce5de9b000017ebf19,16,blinds,critical,F,75,blinds66.jpg,blinds84.jpg,high,NULL
1687377426,132a5fb64b6e00721275d4753a266519,PennController,20,0,experiment,NULL,Canvas,canvas6,Print,NA,1687377172857,59dbbdce5de9b000017ebf19,59dbbdce5de9b000017ebf19,16,blinds,critical,F,75,blinds66.jpg,blinds84.jpg,high,NULL
1687377426,132a5fb64b6e00721275d4753a266519,PennController,20,0,experiment,NULL,Video,progression,buffer,0.008307,1687377166788,59dbbdce5de9b000017ebf19,59dbbdce5de9b000017ebf19,16,blinds,critical,F,75,blinds66.jpg,blinds84.jpg,high,NULL
1687377426,132a5fb64b6e00721275d4753a266519,PennController,20,0,experiment,NULL,Selector,choice,Selection,option1,1687377176732,59dbbdce5de9b000017ebf19,59dbbdce5de9b000017ebf19,16,blinds,critical,F,75,blinds66.jpg,blinds84.jpg,high,option1;option2
1687377426,132a5fb64b6e00721275d4753a266519,PennController,20,0,experiment,NULL,PennController,18,_Trial_,End,1687377176736,59dbbdce5de9b000017ebf19,59dbbdce5de9b000017ebf19,16,blinds,critical,F,75,blinds66.jpg,blinds84.jpg,high,NULL
1687377426,132a5fb64b6e00721275d4753a266519,PennController,23,0,experiment,NULL,PennController,21,_Trial_,Start,1687377176739,59dbbdce5de9b000017ebf19,59dbbdce5de9b000017ebf19,19,cup,filler,F,75,cup65.jpg,cup85.jpg,GoalB,NULL
1687377426,132a5fb64b6e00721275d4753a266519,PennController,23,0,experiment,NULL,PennController,21,_Header_,Start,1687377176739,59dbbdce5de9b000017ebf19,59dbbdce5de9b000017ebf19,19,cup,filler,F,75,cup65.jpg,cup85.jpg,GoalB,NULL
1687377426,132a5fb64b6e00721275d4753a266519,PennController,23,0,experiment,NULL,PennController,21,_Header_,End,1687377176739,59dbbdce5de9b000017ebf19,59dbbdce5de9b000017ebf19,19,cup,filler,F,75,cup65.jpg,cup85.jpg,GoalB,NULL
1687377426,132a5fb64b6e00721275d4753a266519,PennController,23,0,experiment,NULL,Canvas,canvas6,Print,NA,1687377184424,59dbbdce5de9b000017ebf19,59dbbdce5de9b000017ebf19,19,cup,filler,F,75,cup65.jpg,cup85.jpg,GoalB,NULL
1687377426,132a5fb64b6e00721275d4753a266519,PennController,23,0,experiment,NULL,Video,progression,buffer,0.004457,1687377180274,59dbbdce5de9b000017ebf19,59dbbdce5de9b000017ebf19,19,cup,filler,F,75,cup65.jpg,cup85.jpg,GoalB,NULL
1687377426,132a5fb64b6e00721275d4753a266519,PennController,23,0,experiment,NULL,Selector,choice,Selection,option1,1687377187058,59dbbdce5de9b000017ebf19,59dbbdce5de9b000017ebf19,19,cup,filler,F,75,cup65.jpg,cup85.jpg,GoalB,option1;option2
1687377426,132a5fb64b6e00721275d4753a266519,PennController,23,0,experiment,NULL,PennController,21,_Trial_,End,1687377187063,59dbbdce5de9b000017ebf19,59dbbdce5de9b000017ebf19,19,cup,filler,F,75,cup65.jpg,cup85.jpg,GoalB,NULL
1687377426,132a5fb64b6e00721275d4753a266519,PennController,33,0,experiment,NULL,PennController,31,_Trial_,Start,1687377187067,59dbbdce5de9b000017ebf19,59dbbdce5de9b000017ebf19,29,frog,filler,F,25,frog15.jpg,frog35.jpg,GoalB,NULL
1687377426,132a5fb64b6e00721275d4753a266519,PennController,33,0,experiment,NULL,PennController,31,_Header_,Start,1687377187067,59dbbdce5de9b000017ebf19,59dbbdce5de9b000017ebf19,29,frog,filler,F,25,frog15.jpg,frog35.jpg,GoalB,NULL
1687377426,132a5fb64b6e00721275d4753a266519,PennController,33,0,experiment,NULL,PennController,31,_Header_,End,1687377187068,59dbbdce5de9b000017ebf19,59dbbdce5de9b000017ebf19,29,frog,filler,F,25,frog15.jpg,frog35.jpg,GoalB,NULL
1687377426,132a5fb64b6e00721275d4753a266519,PennController,33,0,experiment,NULL,Canvas,canvas6,Print,NA,1687377192793,59dbbdce5de9b000017ebf19,59dbbdce5de9b000017ebf19,29,frog,filler,F,25,frog15.jpg,frog35.jpg,GoalB,NULL
1687377426,132a5fb64b6e00721275d4753a266519,PennController,33,0,experiment,NULL,Video,progression,buffer,0.009092,1687377190622,59dbbdce5de9b000017ebf19,59dbbdce5de9b000017ebf19,29,frog,filler,F,25,frog15.jpg,frog35.jpg,GoalB,NULL
1687377426,132a5fb64b6e00721275d4753a266519,PennController,33,0,experiment,NULL,Selector,choice,Selection,option2,1687377195706,59dbbdce5de9b000017ebf19,59dbbdce5de9b000017ebf19,29,frog,filler,F,25,frog15.jpg,frog35.jpg,GoalB,option1;option2
1687377426,132a5fb64b6e00721275d4753a266519,PennController,33,0,experiment,NULL,PennController,31,_Trial_,End,1687377195709,59dbbdce5de9b000017ebf19,59dbbdce5de9b000017ebf19,29,frog,filler,F,25,frog15.jpg,frog35.jpg,GoalB,NULL
1687377426,132a5fb64b6e00721275d4753a266519,PennController,8,0,experiment,NULL,PennController,6,_Trial_,Start,1687377195713,59dbbdce5de9b000017ebf19,59dbbdce5de9b000017ebf19,4,candy,critical,F,75,candy65.jpg,candy85.jpg,high,NULL
1687377426,132a5fb64b6e00721275d4753a266519,PennController,8,0,experiment,NULL,PennController,6,_Header_,Start,1687377195713,59dbbdce5de9b000017ebf19,59dbbdce5de9b000017ebf19,4,candy,critical,F,75,candy65.jpg,candy85.jpg,high,NULL
1687377426,132a5fb64b6e00721275d4753a266519,PennController,8,0,experiment,NULL,PennController,6,_Header_,End,1687377195713,59dbbdce5de9b000017ebf19,59dbbdce5de9b000017ebf19,4,candy,critical,F,75,candy65.jpg,candy85.jpg,high,NULL
1687377426,132a5fb64b6e00721275d4753a266519,PennController,8,0,experiment,NULL,Canvas,canvas6,Print,NA,1687377203392,59dbbdce5de9b000017ebf19,59dbbdce5de9b000017ebf19,4,candy,critical,F,75,candy65.jpg,candy85.jpg,high,NULL
1687377426,132a5fb64b6e00721275d4753a266519,PennController,8,0,experiment,NULL,Video,progression,buffer,0.010186,1687377199258,59dbbdce5de9b000017ebf19,59dbbdce5de9b000017ebf19,4,candy,critical,F,75,candy65.jpg,candy85.jpg,high,NULL
1687377426,132a5fb64b6e00721275d4753a266519,PennController,8,0,experiment,NULL,Selector,choice,Selection,option2,1687377212879,59dbbdce5de9b000017ebf19,59dbbdce5de9b000017ebf19,4,candy,critical,F,75,candy65.jpg,candy85.jpg,high,option2;option1
1687377426,132a5fb64b6e00721275d4753a266519,PennController,8,0,experiment,NULL,PennController,6,_Trial_,End,1687377212882,59dbbdce5de9b000017ebf19,59dbbdce5de9b000017ebf19,4,candy,critical,F,75,candy65.jpg,candy85.jpg,high,NULL
1687377426,132a5fb64b6e00721275d4753a266519,PennController,16,0,experiment,NULL,PennController,14,_Trial_,Start,1687377212886,59dbbdce5de9b000017ebf19,59dbbdce5de9b000017ebf19,12,erase,critical,F,50,erase42.jpg,erase60.jpg,high,NULL
1687377426,132a5fb64b6e00721275d4753a266519,PennController,16,0,experiment,NULL,PennController,14,_Header_,Start,1687377212886,59dbbdce5de9b000017ebf19,59dbbdce5de9b000017ebf19,12,erase,critical,F,50,erase42.jpg,erase60.jpg,high,NULL
1687377426,132a5fb64b6e00721275d4753a266519,PennController,16,0,experiment,NULL,PennController,14,_Header_,End,1687377212886,59dbbdce5de9b000017ebf19,59dbbdce5de9b000017ebf19,12,erase,critical,F,50,erase42.jpg,erase60.jpg,high,NULL
1687377426,132a5fb64b6e00721275d4753a266519,PennController,16,0,experiment,NULL,Canvas,canvas6,Print,NA,1687377220961,59dbbdce5de9b000017ebf19,59dbbdce5de9b000017ebf19,12,erase,critical,F,50,erase42.jpg,erase60.jpg,high,NULL
1687377426,132a5fb64b6e00721275d4753a266519,PennController,16,0,experiment,NULL,Video,progression,buffer,0.008268,1687377216426,59dbbdce5de9b000017ebf19,59dbbdce5de9b000017ebf19,12,erase,critical,F,50,erase42.jpg,erase60.jpg,high,NULL
1687377426,132a5fb64b6e00721275d4753a266519,PennController,16,0,experiment,NULL,Selector,choice,Selection,option2,1687377224738,59dbbdce5de9b000017ebf19,59dbbdce5de9b000017ebf19,12,erase,critical,F,50,erase42.jpg,erase60.jpg,high,option1;option2
1687377426,132a5fb64b6e00721275d4753a266519,PennController,16,0,experiment,NULL,PennController,14,_Trial_,End,1687377224740,59dbbdce5de9b000017ebf19,59dbbdce5de9b000017ebf19,12,erase,critical,F,50,erase42.jpg,erase60.jpg,high,NULL
1687377426,132a5fb64b6e00721275d4753a266519,PennController,22,0,experiment,NULL,PennController,20,_Trial_,Start,1687377224743,59dbbdce5de9b000017ebf19,59dbbdce5de9b000017ebf19,18,ball,critical,F,50,ball40.jpg,ball60.jpg,high,NULL
1687377426,132a5fb64b6e00721275d4753a266519,PennController,22,0,experiment,NULL,PennController,20,_Header_,Start,1687377224743,59dbbdce5de9b000017ebf19,59dbbdce5de9b000017ebf19,18,ball,critical,F,50,ball40.jpg,ball60.jpg,high,NULL
1687377426,132a5fb64b6e00721275d4753a266519,PennController,22,0,experiment,NULL,PennController,20,_Header_,End,1687377224743,59dbbdce5de9b000017ebf19,59dbbdce5de9b000017ebf19,18,ball,critical,F,50,ball40.jpg,ball60.jpg,high,NULL
1687377426,132a5fb64b6e00721275d4753a266519,PennController,22,0,experiment,NULL,Canvas,canvas6,Print,NA,1687377231411,59dbbdce5de9b000017ebf19,59dbbdce5de9b000017ebf19,18,ball,critical,F,50,ball40.jpg,ball60.jpg,high,NULL
1687377426,132a5fb64b6e00721275d4753a266519,PennController,22,0,experiment,NULL,Video,progression,buffer,0.006782,1687377228285,59dbbdce5de9b000017ebf19,59dbbdce5de9b000017ebf19,18,ball,critical,F,50,ball40.jpg,ball60.jpg,high,NULL
1687377426,132a5fb64b6e00721275d4753a266519,PennController,22,0,experiment,NULL,Selector,choice,Selection,option2,1687377233598,59dbbdce5de9b000017ebf19,59dbbdce5de9b000017ebf19,18,ball,critical,F,50,ball40.jpg,ball60.jpg,high,option1;option2
1687377426,132a5fb64b6e00721275d4753a266519,PennController,22,0,experiment,NULL,PennController,20,_Trial_,End,1687377233601,59dbbdce5de9b000017ebf19,59dbbdce5de9b000017ebf19,18,ball,critical,F,50,ball40.jpg,ball60.jpg,high,NULL
1687377426,132a5fb64b6e00721275d4753a266519,PennController,28,0,experiment,NULL,PennController,26,_Trial_,Start,1687377233604,59dbbdce5de9b000017ebf19,59dbbdce5de9b000017ebf19,24,match,filler,F,50,match40.jpg,match60.jpg,GoalA,NULL
1687377426,132a5fb64b6e00721275d4753a266519,PennController,28,0,experiment,NULL,PennController,26,_Header_,Start,1687377233605,59dbbdce5de9b000017ebf19,59dbbdce5de9b000017ebf19,24,match,filler,F,50,match40.jpg,match60.jpg,GoalA,NULL
1687377426,132a5fb64b6e00721275d4753a266519,PennController,28,0,experiment,NULL,PennController,26,_Header_,End,1687377233605,59dbbdce5de9b000017ebf19,59dbbdce5de9b000017ebf19,24,match,filler,F,50,match40.jpg,match60.jpg,GoalA,NULL
1687377426,132a5fb64b6e00721275d4753a266519,PennController,28,0,experiment,NULL,Canvas,canvas6,Print,NA,1687377240279,59dbbdce5de9b000017ebf19,59dbbdce5de9b000017ebf19,24,match,filler,F,50,match40.jpg,match60.jpg,GoalA,NULL
1687377426,132a5fb64b6e00721275d4753a266519,PennController,28,0,experiment,NULL,Video,progression,buffer,0.008127,1687377237147,59dbbdce5de9b000017ebf19,59dbbdce5de9b000017ebf19,24,match,filler,F,50,match40.jpg,match60.jpg,GoalA,NULL
1687377426,132a5fb64b6e00721275d4753a266519,PennController,28,0,experiment,NULL,Selector,choice,Selection,option2,1687377245623,59dbbdce5de9b000017ebf19,59dbbdce5de9b000017ebf19,24,match,filler,F,50,match40.jpg,match60.jpg,GoalA,option1;option2
1687377426,132a5fb64b6e00721275d4753a266519,PennController,28,0,experiment,NULL,PennController,26,_Trial_,End,1687377245626,59dbbdce5de9b000017ebf19,59dbbdce5de9b000017ebf19,24,match,filler,F,50,match40.jpg,match60.jpg,GoalA,NULL
1687377426,132a5fb64b6e00721275d4753a266519,PennController,6,0,experiment,NULL,PennController,4,_Trial_,Start,1687377245630,59dbbdce5de9b000017ebf19,59dbbdce5de9b000017ebf19,2,door,critical,F,25,door15.jpg,door35.jpg,high,NULL
1687377426,132a5fb64b6e00721275d4753a266519,PennController,6,0,experiment,NULL,PennController,4,_Header_,Start,1687377245630,59dbbdce5de9b000017ebf19,59dbbdce5de9b000017ebf19,2,door,critical,F,25,door15.jpg,door35.jpg,high,NULL
1687377426,132a5fb64b6e00721275d4753a266519,PennController,6,0,experiment,NULL,PennController,4,_Header_,End,1687377245630,59dbbdce5de9b000017ebf19,59dbbdce5de9b000017ebf19,2,door,critical,F,25,door15.jpg,door35.jpg,high,NULL
1687377426,132a5fb64b6e00721275d4753a266519,PennController,6,0,experiment,NULL,Canvas,canvas6,Print,NA,1687377251338,59dbbdce5de9b000017ebf19,59dbbdce5de9b000017ebf19,2,door,critical,F,25,door15.jpg,door35.jpg,high,NULL
1687377426,132a5fb64b6e00721275d4753a266519,PennController,6,0,experiment,NULL,Video,progression,buffer,0.005672,1687377249167,59dbbdce5de9b000017ebf19,59dbbdce5de9b000017ebf19,2,door,critical,F,25,door15.jpg,door35.jpg,high,NULL
1687377426,132a5fb64b6e00721275d4753a266519,PennController,6,0,experiment,NULL,Selector,choice,Selection,option2,1687377253224,59dbbdce5de9b000017ebf19,59dbbdce5de9b000017ebf19,2,door,critical,F,25,door15.jpg,door35.jpg,high,option1;option2
1687377426,132a5fb64b6e00721275d4753a266519,PennController,6,0,experiment,NULL,PennController,4,_Trial_,End,1687377253227,59dbbdce5de9b000017ebf19,59dbbdce5de9b000017ebf19,2,door,critical,F,25,door15.jpg,door35.jpg,high,NULL
1687377426,132a5fb64b6e00721275d4753a266519,PennController,17,0,experiment,NULL,PennController,15,_Trial_,Start,1687377253229,59dbbdce5de9b000017ebf19,59dbbdce5de9b000017ebf19,13,mix,critical,F,75,mix65.jpg,mix85.jpg,high,NULL
1687377426,132a5fb64b6e00721275d4753a266519,PennController,17,0,experiment,NULL,PennController,15,_Header_,Start,1687377253229,59dbbdce5de9b000017ebf19,59dbbdce5de9b000017ebf19,13,mix,critical,F,75,mix65.jpg,mix85.jpg,high,NULL
1687377426,132a5fb64b6e00721275d4753a266519,PennController,17,0,experiment,NULL,PennController,15,_Header_,End,1687377253229,59dbbdce5de9b000017ebf19,59dbbdce5de9b000017ebf19,13,mix,critical,F,75,mix65.jpg,mix85.jpg,high,NULL
1687377426,132a5fb64b6e00721275d4753a266519,PennController,17,0,experiment,NULL,Canvas,canvas6,Print,NA,1687377260882,59dbbdce5de9b000017ebf19,59dbbdce5de9b000017ebf19,13,mix,critical,F,75,mix65.jpg,mix85.jpg,high,NULL
1687377426,132a5fb64b6e00721275d4753a266519,PennController,17,0,experiment,NULL,Video,progression,buffer,0.005719,1687377256766,59dbbdce5de9b000017ebf19,59dbbdce5de9b000017ebf19,13,mix,critical,F,75,mix65.jpg,mix85.jpg,high,NULL
1687377426,132a5fb64b6e00721275d4753a266519,PennController,17,0,experiment,NULL,Selector,choice,Selection,option2,1687377263955,59dbbdce5de9b000017ebf19,59dbbdce5de9b000017ebf19,13,mix,critical,F,75,mix65.jpg,mix85.jpg,high,option2;option1
1687377426,132a5fb64b6e00721275d4753a266519,PennController,17,0,experiment,NULL,PennController,15,_Trial_,End,1687377263957,59dbbdce5de9b000017ebf19,59dbbdce5de9b000017ebf19,13,mix,critical,F,75,mix65.jpg,mix85.jpg,high,NULL
1687377426,132a5fb64b6e00721275d4753a266519,PennController,14,0,experiment,NULL,PennController,12,_Trial_,Start,1687377263961,59dbbdce5de9b000017ebf19,59dbbdce5de9b000017ebf19,10,train,critical,F,75,train65.jpg,train85.jpg,high,NULL
1687377426,132a5fb64b6e00721275d4753a266519,PennController,14,0,experiment,NULL,PennController,12,_Header_,Start,1687377263961,59dbbdce5de9b000017ebf19,59dbbdce5de9b000017ebf19,10,train,critical,F,75,train65.jpg,train85.jpg,high,NULL
1687377426,132a5fb64b6e00721275d4753a266519,PennController,14,0,experiment,NULL,PennController,12,_Header_,End,1687377263961,59dbbdce5de9b000017ebf19,59dbbdce5de9b000017ebf19,10,train,critical,F,75,train65.jpg,train85.jpg,high,NULL
1687377426,132a5fb64b6e00721275d4753a266519,PennController,14,0,experiment,NULL,Canvas,canvas6,Print,NA,1687377271669,59dbbdce5de9b000017ebf19,59dbbdce5de9b000017ebf19,10,train,critical,F,75,train65.jpg,train85.jpg,high,NULL
1687377426,132a5fb64b6e00721275d4753a266519,PennController,14,0,experiment,NULL,Video,progression,buffer,0.005779,1687377267502,59dbbdce5de9b000017ebf19,59dbbdce5de9b000017ebf19,10,train,critical,F,75,train65.jpg,train85.jpg,high,NULL
1687377426,132a5fb64b6e00721275d4753a266519,PennController,14,0,experiment,NULL,Selector,choice,Selection,option2,1687377273726,59dbbdce5de9b000017ebf19,59dbbdce5de9b000017ebf19,10,train,critical,F,75,train65.jpg,train85.jpg,high,option2;option1
1687377426,132a5fb64b6e00721275d4753a266519,PennController,14,0,experiment,NULL,PennController,12,_Trial_,End,1687377273729,59dbbdce5de9b000017ebf19,59dbbdce5de9b000017ebf19,10,train,critical,F,75,train65.jpg,train85.jpg,high,NULL
1687377426,132a5fb64b6e00721275d4753a266519,PennController,29,0,experiment,NULL,PennController,27,_Trial_,Start,1687377273731,59dbbdce5de9b000017ebf19,59dbbdce5de9b000017ebf19,25,house,filler,F,75,house65.jpg,house85.jpg,GoalB,NULL
1687377426,132a5fb64b6e00721275d4753a266519,PennController,29,0,experiment,NULL,PennController,27,_Header_,Start,1687377273731,59dbbdce5de9b000017ebf19,59dbbdce5de9b000017ebf19,25,house,filler,F,75,house65.jpg,house85.jpg,GoalB,NULL
1687377426,132a5fb64b6e00721275d4753a266519,PennController,29,0,experiment,NULL,PennController,27,_Header_,End,1687377273731,59dbbdce5de9b000017ebf19,59dbbdce5de9b000017ebf19,25,house,filler,F,75,house65.jpg,house85.jpg,GoalB,NULL
1687377426,132a5fb64b6e00721275d4753a266519,PennController,29,0,experiment,NULL,Canvas,canvas6,Print,NA,1687377281438,59dbbdce5de9b000017ebf19,59dbbdce5de9b000017ebf19,25,house,filler,F,75,house65.jpg,house85.jpg,GoalB,NULL
1687377426,132a5fb64b6e00721275d4753a266519,PennController,29,0,experiment,NULL,Video,progression,buffer,0.006446,1687377277271,59dbbdce5de9b000017ebf19,59dbbdce5de9b000017ebf19,25,house,filler,F,75,house65.jpg,house85.jpg,GoalB,NULL
1687377426,132a5fb64b6e00721275d4753a266519,PennController,29,0,experiment,NULL,Selector,choice,Selection,option2,1687377284274,59dbbdce5de9b000017ebf19,59dbbdce5de9b000017ebf19,25,house,filler,F,75,house65.jpg,house85.jpg,GoalB,option1;option2
1687377426,132a5fb64b6e00721275d4753a266519,PennController,29,0,experiment,NULL,PennController,27,_Trial_,End,1687377284277,59dbbdce5de9b000017ebf19,59dbbdce5de9b000017ebf19,25,house,filler,F,75,house65.jpg,house85.jpg,GoalB,NULL
1687377426,132a5fb64b6e00721275d4753a266519,PennController,9,0,experiment,NULL,PennController,7,_Trial_,Start,1687377284280,59dbbdce5de9b000017ebf19,59dbbdce5de9b000017ebf19,5,book,critical,F,25,book15.jpg,book35.jpg,high,NULL
1687377426,132a5fb64b6e00721275d4753a266519,PennController,9,0,experiment,NULL,PennController,7,_Header_,Start,1687377284280,59dbbdce5de9b000017ebf19,59dbbdce5de9b000017ebf19,5,book,critical,F,25,book15.jpg,book35.jpg,high,NULL
1687377426,132a5fb64b6e00721275d4753a266519,PennController,9,0,experiment,NULL,PennController,7,_Header_,End,1687377284280,59dbbdce5de9b000017ebf19,59dbbdce5de9b000017ebf19,5,book,critical,F,25,book15.jpg,book35.jpg,high,NULL
1687377426,132a5fb64b6e00721275d4753a266519,PennController,9,0,experiment,NULL,Canvas,canvas6,Print,NA,1687377289988,59dbbdce5de9b000017ebf19,59dbbdce5de9b000017ebf19,5,book,critical,F,25,book15.jpg,book35.jpg,high,NULL
1687377426,132a5fb64b6e00721275d4753a266519,PennController,9,0,experiment,NULL,Video,progression,buffer,0.00721,1687377287822,59dbbdce5de9b000017ebf19,59dbbdce5de9b000017ebf19,5,book,critical,F,25,book15.jpg,book35.jpg,high,NULL
1687377426,132a5fb64b6e00721275d4753a266519,PennController,9,0,experiment,NULL,Selector,choice,Selection,option1,1687377291597,59dbbdce5de9b000017ebf19,59dbbdce5de9b000017ebf19,5,book,critical,F,25,book15.jpg,book35.jpg,high,option1;option2
1687377426,132a5fb64b6e00721275d4753a266519,PennController,9,0,experiment,NULL,PennController,7,_Trial_,End,1687377291599,59dbbdce5de9b000017ebf19,59dbbdce5de9b000017ebf19,5,book,critical,F,25,book15.jpg,book35.jpg,high,NULL
1687377426,132a5fb64b6e00721275d4753a266519,PennController,31,0,experiment,NULL,PennController,29,_Trial_,Start,1687377291601,59dbbdce5de9b000017ebf19,59dbbdce5de9b000017ebf19,27,square,filler,F,50,square40.jpg,square60.jpg,GoalB,NULL
1687377426,132a5fb64b6e00721275d4753a266519,PennController,31,0,experiment,NULL,PennController,29,_Header_,Start,1687377291601,59dbbdce5de9b000017ebf19,59dbbdce5de9b000017ebf19,27,square,filler,F,50,square40.jpg,square60.jpg,GoalB,NULL
1687377426,132a5fb64b6e00721275d4753a266519,PennController,31,0,experiment,NULL,PennController,29,_Header_,End,1687377291601,59dbbdce5de9b000017ebf19,59dbbdce5de9b000017ebf19,27,square,filler,F,50,square40.jpg,square60.jpg,GoalB,NULL
1687377426,132a5fb64b6e00721275d4753a266519,PennController,31,0,experiment,NULL,Canvas,canvas6,Print,NA,1687377298304,59dbbdce5de9b000017ebf19,59dbbdce5de9b000017ebf19,27,square,filler,F,50,square40.jpg,square60.jpg,GoalB,NULL
1687377426,132a5fb64b6e00721275d4753a266519,PennController,31,0,experiment,NULL,Video,progression,buffer,0.008269,1687377295139,59dbbdce5de9b000017ebf19,59dbbdce5de9b000017ebf19,27,square,filler,F,50,square40.jpg,square60.jpg,GoalB,NULL
1687377426,132a5fb64b6e00721275d4753a266519,PennController,31,0,experiment,NULL,Selector,choice,Selection,option2,1687377300078,59dbbdce5de9b000017ebf19,59dbbdce5de9b000017ebf19,27,square,filler,F,50,square40.jpg,square60.jpg,GoalB,option2;option1
1687377426,132a5fb64b6e00721275d4753a266519,PennController,31,0,experiment,NULL,PennController,29,_Trial_,End,1687377300081,59dbbdce5de9b000017ebf19,59dbbdce5de9b000017ebf19,27,square,filler,F,50,square40.jpg,square60.jpg,GoalB,NULL
1687377426,132a5fb64b6e00721275d4753a266519,PennController,26,0,experiment,NULL,PennController,24,_Trial_,Start,1687377300083,59dbbdce5de9b000017ebf19,59dbbdce5de9b000017ebf19,22,wall,filler,F,75,wall65.jpg,wall85.jpg,GoalA,NULL
1687377426,132a5fb64b6e00721275d4753a266519,PennController,26,0,experiment,NULL,PennController,24,_Header_,Start,1687377300083,59dbbdce5de9b000017ebf19,59dbbdce5de9b000017ebf19,22,wall,filler,F,75,wall65.jpg,wall85.jpg,GoalA,NULL
1687377426,132a5fb64b6e00721275d4753a266519,PennController,26,0,experiment,NULL,PennController,24,_Header_,End,1687377300083,59dbbdce5de9b000017ebf19,59dbbdce5de9b000017ebf19,22,wall,filler,F,75,wall65.jpg,wall85.jpg,GoalA,NULL
1687377426,132a5fb64b6e00721275d4753a266519,PennController,26,0,experiment,NULL,Canvas,canvas6,Print,NA,1687377307771,59dbbdce5de9b000017ebf19,59dbbdce5de9b000017ebf19,22,wall,filler,F,75,wall65.jpg,wall85.jpg,GoalA,NULL
1687377426,132a5fb64b6e00721275d4753a266519,PennController,26,0,experiment,NULL,Video,progression,buffer,0.006593,1687377303624,59dbbdce5de9b000017ebf19,59dbbdce5de9b000017ebf19,22,wall,filler,F,75,wall65.jpg,wall85.jpg,GoalA,NULL
1687377426,132a5fb64b6e00721275d4753a266519,PennController,26,0,experiment,NULL,Selector,choice,Selection,option2,1687377309687,59dbbdce5de9b000017ebf19,59dbbdce5de9b000017ebf19,22,wall,filler,F,75,wall65.jpg,wall85.jpg,GoalA,option2;option1
1687377426,132a5fb64b6e00721275d4753a266519,PennController,26,0,experiment,NULL,PennController,24,_Trial_,End,1687377309690,59dbbdce5de9b000017ebf19,59dbbdce5de9b000017ebf19,22,wall,filler,F,75,wall65.jpg,wall85.jpg,GoalA,NULL
1687377426,132a5fb64b6e00721275d4753a266519,PennController,10,0,experiment,NULL,PennController,8,_Trial_,Start,1687377309693,59dbbdce5de9b000017ebf19,59dbbdce5de9b000017ebf19,6,flower,critical,F,50,flower40.jpg,flower60.jpg,high,NULL
1687377426,132a5fb64b6e00721275d4753a266519,PennController,10,0,experiment,NULL,PennController,8,_Header_,Start,1687377309693,59dbbdce5de9b000017ebf19,59dbbdce5de9b000017ebf19,6,flower,critical,F,50,flower40.jpg,flower60.jpg,high,NULL
1687377426,132a5fb64b6e00721275d4753a266519,PennController,10,0,experiment,NULL,PennController,8,_Header_,End,1687377309693,59dbbdce5de9b000017ebf19,59dbbdce5de9b000017ebf19,6,flower,critical,F,50,flower40.jpg,flower60.jpg,high,NULL
1687377426,132a5fb64b6e00721275d4753a266519,PennController,10,0,experiment,NULL,Canvas,canvas6,Print,NA,1687377316406,59dbbdce5de9b000017ebf19,59dbbdce5de9b000017ebf19,6,flower,critical,F,50,flower40.jpg,flower60.jpg,high,NULL
1687377426,132a5fb64b6e00721275d4753a266519,PennController,10,0,experiment,NULL,Video,progression,buffer,0.007998,1687377313232,59dbbdce5de9b000017ebf19,59dbbdce5de9b000017ebf19,6,flower,critical,F,50,flower40.jpg,flower60.jpg,high,NULL
1687377426,132a5fb64b6e00721275d4753a266519,PennController,10,0,experiment,NULL,Selector,choice,Selection,option1,1687377317749,59dbbdce5de9b000017ebf19,59dbbdce5de9b000017ebf19,6,flower,critical,F,50,flower40.jpg,flower60.jpg,high,option1;option2
1687377426,132a5fb64b6e00721275d4753a266519,PennController,10,0,experiment,NULL,PennController,8,_Trial_,End,1687377317752,59dbbdce5de9b000017ebf19,59dbbdce5de9b000017ebf19,6,flower,critical,F,50,flower40.jpg,flower60.jpg,high,NULL
1687377426,132a5fb64b6e00721275d4753a266519,PennController,5,0,experiment,NULL,PennController,3,_Trial_,Start,1687377317755,59dbbdce5de9b000017ebf19,59dbbdce5de9b000017ebf19,1,vase,critical,F,75,vase65.jpg,vase85.jpg,high,NULL
1687377426,132a5fb64b6e00721275d4753a266519,PennController,5,0,experiment,NULL,PennController,3,_Header_,Start,1687377317755,59dbbdce5de9b000017ebf19,59dbbdce5de9b000017ebf19,1,vase,critical,F,75,vase65.jpg,vase85.jpg,high,NULL
1687377426,132a5fb64b6e00721275d4753a266519,PennController,5,0,experiment,NULL,PennController,3,_Header_,End,1687377317755,59dbbdce5de9b000017ebf19,59dbbdce5de9b000017ebf19,1,vase,critical,F,75,vase65.jpg,vase85.jpg,high,NULL
1687377426,132a5fb64b6e00721275d4753a266519,PennController,5,0,experiment,NULL,Canvas,canvas6,Print,NA,1687377325455,59dbbdce5de9b000017ebf19,59dbbdce5de9b000017ebf19,1,vase,critical,F,75,vase65.jpg,vase85.jpg,high,NULL
1687377426,132a5fb64b6e00721275d4753a266519,PennController,5,0,experiment,NULL,Video,progression,buffer,0.006657,1687377321295,59dbbdce5de9b000017ebf19,59dbbdce5de9b000017ebf19,1,vase,critical,F,75,vase65.jpg,vase85.jpg,high,NULL
1687377426,132a5fb64b6e00721275d4753a266519,PennController,5,0,experiment,NULL,Selector,choice,Selection,option2,1687377327888,59dbbdce5de9b000017ebf19,59dbbdce5de9b000017ebf19,1,vase,critical,F,75,vase65.jpg,vase85.jpg,high,option1;option2
1687377426,132a5fb64b6e00721275d4753a266519,PennController,5,0,experiment,NULL,PennController,3,_Trial_,End,1687377327891,59dbbdce5de9b000017ebf19,59dbbdce5de9b000017ebf19,1,vase,critical,F,75,vase65.jpg,vase85.jpg,high,NULL
1687377426,132a5fb64b6e00721275d4753a266519,PennController,12,0,experiment,NULL,PennController,10,_Trial_,Start,1687377327894,59dbbdce5de9b000017ebf19,59dbbdce5de9b000017ebf19,8,cucumber,critical,F,25,cucumber15.jpg,cucumber33.jpg,high,NULL
1687377426,132a5fb64b6e00721275d4753a266519,PennController,12,0,experiment,NULL,PennController,10,_Header_,Start,1687377327894,59dbbdce5de9b000017ebf19,59dbbdce5de9b000017ebf19,8,cucumber,critical,F,25,cucumber15.jpg,cucumber33.jpg,high,NULL
1687377426,132a5fb64b6e00721275d4753a266519,PennController,12,0,experiment,NULL,PennController,10,_Header_,End,1687377327894,59dbbdce5de9b000017ebf19,59dbbdce5de9b000017ebf19,8,cucumber,critical,F,25,cucumber15.jpg,cucumber33.jpg,high,NULL
1687377426,132a5fb64b6e00721275d4753a266519,PennController,12,0,experiment,NULL,Canvas,canvas6,Print,NA,1687377334208,59dbbdce5de9b000017ebf19,59dbbdce5de9b000017ebf19,8,cucumber,critical,F,25,cucumber15.jpg,cucumber33.jpg,high,NULL
1687377426,132a5fb64b6e00721275d4753a266519,PennController,12,0,experiment,NULL,Video,progression,buffer,0.008092,1687377331434,59dbbdce5de9b000017ebf19,59dbbdce5de9b000017ebf19,8,cucumber,critical,F,25,cucumber15.jpg,cucumber33.jpg,high,NULL
1687377426,132a5fb64b6e00721275d4753a266519,PennController,12,0,experiment,NULL,Selector,choice,Selection,option1,1687377335518,59dbbdce5de9b000017ebf19,59dbbdce5de9b000017ebf19,8,cucumber,critical,F,25,cucumber15.jpg,cucumber33.jpg,high,option1;option2
1687377426,132a5fb64b6e00721275d4753a266519,PennController,12,0,experiment,NULL,PennController,10,_Trial_,End,1687377335521,59dbbdce5de9b000017ebf19,59dbbdce5de9b000017ebf19,8,cucumber,critical,F,25,cucumber15.jpg,cucumber33.jpg,high,NULL
1687377426,132a5fb64b6e00721275d4753a266519,PennController,11,0,experiment,NULL,PennController,9,_Trial_,Start,1687377335523,59dbbdce5de9b000017ebf19,59dbbdce5de9b000017ebf19,7,stack,critical,F,75,stack65.jpg,stack85.jpg,high,NULL
1687377426,132a5fb64b6e00721275d4753a266519,PennController,11,0,experiment,NULL,PennController,9,_Header_,Start,1687377335523,59dbbdce5de9b000017ebf19,59dbbdce5de9b000017ebf19,7,stack,critical,F,75,stack65.jpg,stack85.jpg,high,NULL
1687377426,132a5fb64b6e00721275d4753a266519,PennController,11,0,experiment,NULL,PennController,9,_Header_,End,1687377335523,59dbbdce5de9b000017ebf19,59dbbdce5de9b000017ebf19,7,stack,critical,F,75,stack65.jpg,stack85.jpg,high,NULL
1687377426,132a5fb64b6e00721275d4753a266519,PennController,11,0,experiment,NULL,Canvas,canvas6,Print,NA,1687377343227,59dbbdce5de9b000017ebf19,59dbbdce5de9b000017ebf19,7,stack,critical,F,75,stack65.jpg,stack85.jpg,high,NULL
1687377426,132a5fb64b6e00721275d4753a266519,PennController,11,0,experiment,NULL,Video,progression,buffer,0.005756,1687377339060,59dbbdce5de9b000017ebf19,59dbbdce5de9b000017ebf19,7,stack,critical,F,75,stack65.jpg,stack85.jpg,high,NULL
1687377426,132a5fb64b6e00721275d4753a266519,PennController,11,0,experiment,NULL,Selector,choice,Selection,option2,1687377348228,59dbbdce5de9b000017ebf19,59dbbdce5de9b000017ebf19,7,stack,critical,F,75,stack65.jpg,stack85.jpg,high,option1;option2
1687377426,132a5fb64b6e00721275d4753a266519,PennController,11,0,experiment,NULL,PennController,9,_Trial_,End,1687377348231,59dbbdce5de9b000017ebf19,59dbbdce5de9b000017ebf19,7,stack,critical,F,75,stack65.jpg,stack85.jpg,high,NULL
1687377426,132a5fb64b6e00721275d4753a266519,PennController,25,0,experiment,NULL,PennController,23,_Trial_,Start,1687377348234,59dbbdce5de9b000017ebf19,59dbbdce5de9b000017ebf19,21,visit,filler,F,50,visit40.jpg,visit60.jpg,GoalB,NULL
1687377426,132a5fb64b6e00721275d4753a266519,PennController,25,0,experiment,NULL,PennController,23,_Header_,Start,1687377348234,59dbbdce5de9b000017ebf19,59dbbdce5de9b000017ebf19,21,visit,filler,F,50,visit40.jpg,visit60.jpg,GoalB,NULL
1687377426,132a5fb64b6e00721275d4753a266519,PennController,25,0,experiment,NULL,PennController,23,_Header_,End,1687377348234,59dbbdce5de9b000017ebf19,59dbbdce5de9b000017ebf19,21,visit,filler,F,50,visit40.jpg,visit60.jpg,GoalB,NULL
1687377426,132a5fb64b6e00721275d4753a266519,PennController,25,0,experiment,NULL,Canvas,canvas6,Print,NA,1687377354926,59dbbdce5de9b000017ebf19,59dbbdce5de9b000017ebf19,21,visit,filler,F,50,visit40.jpg,visit60.jpg,GoalB,NULL
1687377426,132a5fb64b6e00721275d4753a266519,PennController,25,0,experiment,NULL,Video,progression,buffer,0.007641,1687377351777,59dbbdce5de9b000017ebf19,59dbbdce5de9b000017ebf19,21,visit,filler,F,50,visit40.jpg,visit60.jpg,GoalB,NULL
1687377426,132a5fb64b6e00721275d4753a266519,PennController,25,0,experiment,NULL,Selector,choice,Selection,option2,1687377356995,59dbbdce5de9b000017ebf19,59dbbdce5de9b000017ebf19,21,visit,filler,F,50,visit40.jpg,visit60.jpg,GoalB,option2;option1
1687377426,132a5fb64b6e00721275d4753a266519,PennController,25,0,experiment,NULL,PennController,23,_Trial_,End,1687377356998,59dbbdce5de9b000017ebf19,59dbbdce5de9b000017ebf19,21,visit,filler,F,50,visit40.jpg,visit60.jpg,GoalB,NULL
1687377426,132a5fb64b6e00721275d4753a266519,PennController,15,0,experiment,NULL,PennController,13,_Trial_,Start,1687377357000,59dbbdce5de9b000017ebf19,59dbbdce5de9b000017ebf19,11,beads,critical,F,25,beads15.jpg,beads35.jpg,high,NULL
1687377426,132a5fb64b6e00721275d4753a266519,PennController,15,0,experiment,NULL,PennController,13,_Header_,Start,1687377357000,59dbbdce5de9b000017ebf19,59dbbdce5de9b000017ebf19,11,beads,critical,F,25,beads15.jpg,beads35.jpg,high,NULL
1687377426,132a5fb64b6e00721275d4753a266519,PennController,15,0,experiment,NULL,PennController,13,_Header_,End,1687377357000,59dbbdce5de9b000017ebf19,59dbbdce5de9b000017ebf19,11,beads,critical,F,25,beads15.jpg,beads35.jpg,high,NULL
1687377426,132a5fb64b6e00721275d4753a266519,PennController,15,0,experiment,NULL,Canvas,canvas6,Print,NA,1687377362696,59dbbdce5de9b000017ebf19,59dbbdce5de9b000017ebf19,11,beads,critical,F,25,beads15.jpg,beads35.jpg,high,NULL
1687377426,132a5fb64b6e00721275d4753a266519,PennController,15,0,experiment,NULL,Video,progression,buffer,0.007941,1687377360542,59dbbdce5de9b000017ebf19,59dbbdce5de9b000017ebf19,11,beads,critical,F,25,beads15.jpg,beads35.jpg,high,NULL
1687377426,132a5fb64b6e00721275d4753a266519,PennController,15,0,experiment,NULL,Selector,choice,Selection,option1,1687377364210,59dbbdce5de9b000017ebf19,59dbbdce5de9b000017ebf19,11,beads,critical,F,25,beads15.jpg,beads35.jpg,high,option2;option1
1687377426,132a5fb64b6e00721275d4753a266519,PennController,15,0,experiment,NULL,PennController,13,_Trial_,End,1687377364213,59dbbdce5de9b000017ebf19,59dbbdce5de9b000017ebf19,11,beads,critical,F,25,beads15.jpg,beads35.jpg,high,NULL
1687377426,132a5fb64b6e00721275d4753a266519,PennController,32,0,experiment,NULL,PennController,30,_Trial_,Start,1687377364216,59dbbdce5de9b000017ebf19,59dbbdce5de9b000017ebf19,28,sort,filler,F,75,sort65.jpg,sort85.jpg,GoalA,NULL
1687377426,132a5fb64b6e00721275d4753a266519,PennController,32,0,experiment,NULL,PennController,30,_Header_,Start,1687377364216,59dbbdce5de9b000017ebf19,59dbbdce5de9b000017ebf19,28,sort,filler,F,75,sort65.jpg,sort85.jpg,GoalA,NULL
1687377426,132a5fb64b6e00721275d4753a266519,PennController,32,0,experiment,NULL,PennController,30,_Header_,End,1687377364216,59dbbdce5de9b000017ebf19,59dbbdce5de9b000017ebf19,28,sort,filler,F,75,sort65.jpg,sort85.jpg,GoalA,NULL
1687377426,132a5fb64b6e00721275d4753a266519,PennController,32,0,experiment,NULL,Canvas,canvas6,Print,NA,1687377371912,59dbbdce5de9b000017ebf19,59dbbdce5de9b000017ebf19,28,sort,filler,F,75,sort65.jpg,sort85.jpg,GoalA,NULL
1687377426,132a5fb64b6e00721275d4753a266519,PennController,32,0,experiment,NULL,Video,progression,buffer,0.00759,1687377367760,59dbbdce5de9b000017ebf19,59dbbdce5de9b000017ebf19,28,sort,filler,F,75,sort65.jpg,sort85.jpg,GoalA,NULL
1687377426,132a5fb64b6e00721275d4753a266519,PennController,32,0,experiment,NULL,Selector,choice,Selection,option2,1687377375741,59dbbdce5de9b000017ebf19,59dbbdce5de9b000017ebf19,28,sort,filler,F,75,sort65.jpg,sort85.jpg,GoalA,option1;option2
1687377426,132a5fb64b6e00721275d4753a266519,PennController,32,0,experiment,NULL,PennController,30,_Trial_,End,1687377375744,59dbbdce5de9b000017ebf19,59dbbdce5de9b000017ebf19,28,sort,filler,F,75,sort65.jpg,sort85.jpg,GoalA,NULL
1687377426,132a5fb64b6e00721275d4753a266519,PennController,13,0,experiment,NULL,PennController,11,_Trial_,Start,1687377375747,59dbbdce5de9b000017ebf19,59dbbdce5de9b000017ebf19,9,cake,critical,F,50,cake42.jpg,cake60.jpg,high,NULL
1687377426,132a5fb64b6e00721275d4753a266519,PennController,13,0,experiment,NULL,PennController,11,_Header_,Start,1687377375747,59dbbdce5de9b000017ebf19,59dbbdce5de9b000017ebf19,9,cake,critical,F,50,cake42.jpg,cake60.jpg,high,NULL
1687377426,132a5fb64b6e00721275d4753a266519,PennController,13,0,experiment,NULL,PennController,11,_Header_,End,1687377375747,59dbbdce5de9b000017ebf19,59dbbdce5de9b000017ebf19,9,cake,critical,F,50,cake42.jpg,cake60.jpg,high,NULL
1687377426,132a5fb64b6e00721275d4753a266519,PennController,13,0,experiment,NULL,Canvas,canvas6,Print,NA,1687377383795,59dbbdce5de9b000017ebf19,59dbbdce5de9b000017ebf19,9,cake,critical,F,50,cake42.jpg,cake60.jpg,high,NULL
1687377426,132a5fb64b6e00721275d4753a266519,PennController,13,0,experiment,NULL,Video,progression,buffer,0.007962,1687377379290,59dbbdce5de9b000017ebf19,59dbbdce5de9b000017ebf19,9,cake,critical,F,50,cake42.jpg,cake60.jpg,high,NULL
1687377426,132a5fb64b6e00721275d4753a266519,PennController,13,0,experiment,NULL,Selector,choice,Selection,option2,1687377385239,59dbbdce5de9b000017ebf19,59dbbdce5de9b000017ebf19,9,cake,critical,F,50,cake42.jpg,cake60.jpg,high,option1;option2
1687377426,132a5fb64b6e00721275d4753a266519,PennController,13,0,experiment,NULL,PennController,11,_Trial_,End,1687377385242,59dbbdce5de9b000017ebf19,59dbbdce5de9b000017ebf19,9,cake,critical,F,50,cake42.jpg,cake60.jpg,high,NULL
1687377426,132a5fb64b6e00721275d4753a266519,PennController,19,0,experiment,NULL,PennController,17,_Trial_,Start,1687377385244,59dbbdce5de9b000017ebf19,59dbbdce5de9b000017ebf19,15,zip,critical,F,50,zip40.jpg,zip60.jpg,high,NULL
1687377426,132a5fb64b6e00721275d4753a266519,PennController,19,0,experiment,NULL,PennController,17,_Header_,Start,1687377385244,59dbbdce5de9b000017ebf19,59dbbdce5de9b000017ebf19,15,zip,critical,F,50,zip40.jpg,zip60.jpg,high,NULL
1687377426,132a5fb64b6e00721275d4753a266519,PennController,19,0,experiment,NULL,PennController,17,_Header_,End,1687377385244,59dbbdce5de9b000017ebf19,59dbbdce5de9b000017ebf19,15,zip,critical,F,50,zip40.jpg,zip60.jpg,high,NULL
1687377426,132a5fb64b6e00721275d4753a266519,PennController,19,0,experiment,NULL,Canvas,canvas6,Print,NA,1687377391932,59dbbdce5de9b000017ebf19,59dbbdce5de9b000017ebf19,15,zip,critical,F,50,zip40.jpg,zip60.jpg,high,NULL
1687377426,132a5fb64b6e00721275d4753a266519,PennController,19,0,experiment,NULL,Video,progression,buffer,0.006183,1687377388784,59dbbdce5de9b000017ebf19,59dbbdce5de9b000017ebf19,15,zip,critical,F,50,zip40.jpg,zip60.jpg,high,NULL
1687377426,132a5fb64b6e00721275d4753a266519,PennController,19,0,experiment,NULL,Selector,choice,Selection,option2,1687377393974,59dbbdce5de9b000017ebf19,59dbbdce5de9b000017ebf19,15,zip,critical,F,50,zip40.jpg,zip60.jpg,high,option1;option2
1687377426,132a5fb64b6e00721275d4753a266519,PennController,19,0,experiment,NULL,PennController,17,_Trial_,End,1687377393977,59dbbdce5de9b000017ebf19,59dbbdce5de9b000017ebf19,15,zip,critical,F,50,zip40.jpg,zip60.jpg,high,NULL
1687377426,132a5fb64b6e00721275d4753a266519,PennController,21,0,experiment,NULL,PennController,19,_Trial_,Start,1687377393979,59dbbdce5de9b000017ebf19,59dbbdce5de9b000017ebf19,17,roll,critical,F,25,roll15.jpg,roll35.jpg,high,NULL
1687377426,132a5fb64b6e00721275d4753a266519,PennController,21,0,experiment,NULL,PennController,19,_Header_,Start,1687377393979,59dbbdce5de9b000017ebf19,59dbbdce5de9b000017ebf19,17,roll,critical,F,25,roll15.jpg,roll35.jpg,high,NULL
1687377426,132a5fb64b6e00721275d4753a266519,PennController,21,0,experiment,NULL,PennController,19,_Header_,End,1687377393979,59dbbdce5de9b000017ebf19,59dbbdce5de9b000017ebf19,17,roll,critical,F,25,roll15.jpg,roll35.jpg,high,NULL
1687377426,132a5fb64b6e00721275d4753a266519,PennController,21,0,experiment,NULL,Canvas,canvas6,Print,NA,1687377399687,59dbbdce5de9b000017ebf19,59dbbdce5de9b000017ebf19,17,roll,critical,F,25,roll15.jpg,roll35.jpg,high,NULL
1687377426,132a5fb64b6e00721275d4753a266519,PennController,21,0,experiment,NULL,Video,progression,buffer,0.005606,1687377397518,59dbbdce5de9b000017ebf19,59dbbdce5de9b000017ebf19,17,roll,critical,F,25,roll15.jpg,roll35.jpg,high,NULL
1687377426,132a5fb64b6e00721275d4753a266519,PennController,21,0,experiment,NULL,Selector,choice,Selection,option1,1687377401493,59dbbdce5de9b000017ebf19,59dbbdce5de9b000017ebf19,17,roll,critical,F,25,roll15.jpg,roll35.jpg,high,option2;option1
1687377426,132a5fb64b6e00721275d4753a266519,PennController,21,0,experiment,NULL,PennController,19,_Trial_,End,1687377401496,59dbbdce5de9b000017ebf19,59dbbdce5de9b000017ebf19,17,roll,critical,F,25,roll15.jpg,roll35.jpg,high,NULL
1687377426,132a5fb64b6e00721275d4753a266519,PennController,24,0,experiment,NULL,PennController,22,_Trial_,Start,1687377401499,59dbbdce5de9b000017ebf19,59dbbdce5de9b000017ebf19,20,cat,filler,F,25,cat15.jpg,cat35.jpg,GoalA,NULL
1687377426,132a5fb64b6e00721275d4753a266519,PennController,24,0,experiment,NULL,PennController,22,_Header_,Start,1687377401499,59dbbdce5de9b000017ebf19,59dbbdce5de9b000017ebf19,20,cat,filler,F,25,cat15.jpg,cat35.jpg,GoalA,NULL
1687377426,132a5fb64b6e00721275d4753a266519,PennController,24,0,experiment,NULL,PennController,22,_Header_,End,1687377401499,59dbbdce5de9b000017ebf19,59dbbdce5de9b000017ebf19,20,cat,filler,F,25,cat15.jpg,cat35.jpg,GoalA,NULL
1687377426,132a5fb64b6e00721275d4753a266519,PennController,24,0,experiment,NULL,Canvas,canvas6,Print,NA,1687377407197,59dbbdce5de9b000017ebf19,59dbbdce5de9b000017ebf19,20,cat,filler,F,25,cat15.jpg,cat35.jpg,GoalA,NULL
1687377426,132a5fb64b6e00721275d4753a266519,PennController,24,0,experiment,NULL,Video,progression,buffer,0.005627,1687377405034,59dbbdce5de9b000017ebf19,59dbbdce5de9b000017ebf19,20,cat,filler,F,25,cat15.jpg,cat35.jpg,GoalA,NULL
1687377426,132a5fb64b6e00721275d4753a266519,PennController,24,0,experiment,NULL,Selector,choice,Selection,option2,1687377409190,59dbbdce5de9b000017ebf19,59dbbdce5de9b000017ebf19,20,cat,filler,F,25,cat15.jpg,cat35.jpg,GoalA,option2;option1
1687377426,132a5fb64b6e00721275d4753a266519,PennController,24,0,experiment,NULL,PennController,22,_Trial_,End,1687377409193,59dbbdce5de9b000017ebf19,59dbbdce5de9b000017ebf19,20,cat,filler,F,25,cat15.jpg,cat35.jpg,GoalA,NULL
1687377426,132a5fb64b6e00721275d4753a266519,PennController,7,0,experiment,NULL,PennController,5,_Trial_,Start,1687377409195,59dbbdce5de9b000017ebf19,59dbbdce5de9b000017ebf19,3,clean,critical,F,50,clean40.jpg,clean60.jpg,high,NULL
1687377426,132a5fb64b6e00721275d4753a266519,PennController,7,0,experiment,NULL,PennController,5,_Header_,Start,1687377409195,59dbbdce5de9b000017ebf19,59dbbdce5de9b000017ebf19,3,clean,critical,F,50,clean40.jpg,clean60.jpg,high,NULL
1687377426,132a5fb64b6e00721275d4753a266519,PennController,7,0,experiment,NULL,PennController,5,_Header_,End,1687377409195,59dbbdce5de9b000017ebf19,59dbbdce5de9b000017ebf19,3,clean,critical,F,50,clean40.jpg,clean60.jpg,high,NULL
1687377426,132a5fb64b6e00721275d4753a266519,PennController,7,0,experiment,NULL,Canvas,canvas6,Print,NA,1687377415863,59dbbdce5de9b000017ebf19,59dbbdce5de9b000017ebf19,3,clean,critical,F,50,clean40.jpg,clean60.jpg,high,NULL
1687377426,132a5fb64b6e00721275d4753a266519,PennController,7,0,experiment,NULL,Video,progression,buffer,0.001667,1687377412724,59dbbdce5de9b000017ebf19,59dbbdce5de9b000017ebf19,3,clean,critical,F,50,clean40.jpg,clean60.jpg,high,NULL
1687377426,132a5fb64b6e00721275d4753a266519,PennController,7,0,experiment,NULL,Selector,choice,Selection,option2,1687377416849,59dbbdce5de9b000017ebf19,59dbbdce5de9b000017ebf19,3,clean,critical,F,50,clean40.jpg,clean60.jpg,high,option2;option1
1687377426,132a5fb64b6e00721275d4753a266519,PennController,7,0,experiment,NULL,PennController,5,_Trial_,End,1687377416851,59dbbdce5de9b000017ebf19,59dbbdce5de9b000017ebf19,3,clean,critical,F,50,clean40.jpg,clean60.jpg,high,NULL
1687377426,132a5fb64b6e00721275d4753a266519,PennController,27,0,experiment,NULL,PennController,25,_Trial_,Start,1687377416855,59dbbdce5de9b000017ebf19,59dbbdce5de9b000017ebf19,23,color,filler,F,25,color15.jpg,color35.jpg,GoalB,NULL
1687377426,132a5fb64b6e00721275d4753a266519,PennController,27,0,experiment,NULL,PennController,25,_Header_,Start,1687377416855,59dbbdce5de9b000017ebf19,59dbbdce5de9b000017ebf19,23,color,filler,F,25,color15.jpg,color35.jpg,GoalB,NULL
1687377426,132a5fb64b6e00721275d4753a266519,PennController,27,0,experiment,NULL,PennController,25,_Header_,End,1687377416855,59dbbdce5de9b000017ebf19,59dbbdce5de9b000017ebf19,23,color,filler,F,25,color15.jpg,color35.jpg,GoalB,NULL
1687377426,132a5fb64b6e00721275d4753a266519,PennController,27,0,experiment,NULL,Canvas,canvas6,Print,NA,1687377422566,59dbbdce5de9b000017ebf19,59dbbdce5de9b000017ebf19,23,color,filler,F,25,color15.jpg,color35.jpg,GoalB,NULL
1687377426,132a5fb64b6e00721275d4753a266519,PennController,27,0,experiment,NULL,Video,progression,buffer,0.01412,1687377420403,59dbbdce5de9b000017ebf19,59dbbdce5de9b000017ebf19,23,color,filler,F,25,color15.jpg,color35.jpg,GoalB,NULL
1687377426,132a5fb64b6e00721275d4753a266519,PennController,27,0,experiment,NULL,Selector,choice,Selection,option2,1687377424056,59dbbdce5de9b000017ebf19,59dbbdce5de9b000017ebf19,23,color,filler,F,25,color15.jpg,color35.jpg,GoalB,option1;option2
1687377426,132a5fb64b6e00721275d4753a266519,PennController,27,0,experiment,NULL,PennController,25,_Trial_,End,1687377424059,59dbbdce5de9b000017ebf19,59dbbdce5de9b000017ebf19,23,color,filler,F,25,color15.jpg,color35.jpg,GoalB,NULL
