#
# Results on Tuesday June 20 2023 18:56:07 UTC
# USER AGENT: Mozilla/5.0 (Windows NT 10.0; Win64; x64; rv:109.0) Gecko/20100101 Firefox/114.0
# Design number was non-random = 3
#
# Columns below this comment are as follows:
# 1. Results reception time.
# 2. MD5 hash of participant's IP address.
# 3. Controller name.
# 4. Order number of item.
# 5. Inner element number.
# 6. Label.
# 7. Latin Square Group.
# 8. PennElementType.
# 9. PennElementName.
# 10. Parameter.
# 11. Value.
# 12. EventTime.
# 13. PROLIFIC_ID.
# 14. Comments.
1687287367,1ab80b66ef1e498fe9fef39fc2fb2370,PennController,2,0,consent,NULL,PennController,0,_Trial_,Start,1687286993238,60617c7346cd805e5bfc8893,NULL
1687287367,1ab80b66ef1e498fe9fef39fc2fb2370,PennController,2,0,consent,NULL,PennController,0,_Header_,Start,1687286993238,60617c7346cd805e5bfc8893,NULL
1687287367,1ab80b66ef1e498fe9fef39fc2fb2370,PennController,2,0,consent,NULL,PennController,0,_Header_,End,1687286993238,60617c7346cd805e5bfc8893,NULL
1687287367,1ab80b66ef1e498fe9fef39fc2fb2370,PennController,2,0,consent,NULL,PennController,0,_Trial_,End,1687287052798,60617c7346cd805e5bfc8893,NULL
# Columns below this comment are as follows:
# 14. ID.
# 15. Comments.
1687287367,1ab80b66ef1e498fe9fef39fc2fb2370,PennController,3,0,intro,NULL,PennController,1,_Trial_,Start,1687287052808,60617c7346cd805e5bfc8893,60617c7346cd805e5bfc8893,NULL
1687287367,1ab80b66ef1e498fe9fef39fc2fb2370,PennController,3,0,intro,NULL,PennController,1,_Header_,Start,1687287052808,60617c7346cd805e5bfc8893,60617c7346cd805e5bfc8893,NULL
1687287367,1ab80b66ef1e498fe9fef39fc2fb2370,PennController,3,0,intro,NULL,PennController,1,_Header_,End,1687287052809,60617c7346cd805e5bfc8893,60617c7346cd805e5bfc8893,NULL
1687287367,1ab80b66ef1e498fe9fef39fc2fb2370,PennController,3,0,intro,NULL,PennController,1,_Trial_,End,1687287086430,60617c7346cd805e5bfc8893,60617c7346cd805e5bfc8893,NULL
# Columns below this comment are as follows:
# 15. item_number.
# 16. item.
# 17. type.
# 18. Group.
# 19. prog.
# 20. prev_image.
# 21. next_image.
# 22. height.
# 23. Comments.
1687287367,1ab80b66ef1e498fe9fef39fc2fb2370,PennController,10,0,experiment,NULL,PennController,9,_Trial_,Start,1687287086460,60617c7346cd805e5bfc8893,60617c7346cd805e5bfc8893,7,stack,critical,D,25,stack15.jpg,stack35.jpg,high,NULL
1687287367,1ab80b66ef1e498fe9fef39fc2fb2370,PennController,10,0,experiment,NULL,PennController,9,_Header_,Start,1687287086460,60617c7346cd805e5bfc8893,60617c7346cd805e5bfc8893,7,stack,critical,D,25,stack15.jpg,stack35.jpg,high,NULL
1687287367,1ab80b66ef1e498fe9fef39fc2fb2370,PennController,10,0,experiment,NULL,PennController,9,_Header_,End,1687287086460,60617c7346cd805e5bfc8893,60617c7346cd805e5bfc8893,7,stack,critical,D,25,stack15.jpg,stack35.jpg,high,NULL
1687287367,1ab80b66ef1e498fe9fef39fc2fb2370,PennController,10,0,experiment,NULL,Video,progression,buffer,0,1687287090082,60617c7346cd805e5bfc8893,60617c7346cd805e5bfc8893,7,stack,critical,D,25,stack15.jpg,stack35.jpg,high,NULL
1687287367,1ab80b66ef1e498fe9fef39fc2fb2370,PennController,10,0,experiment,NULL,Canvas,canvas6,Print,NA,1687287092369,60617c7346cd805e5bfc8893,60617c7346cd805e5bfc8893,7,stack,critical,D,25,stack15.jpg,stack35.jpg,high,NULL
1687287367,1ab80b66ef1e498fe9fef39fc2fb2370,PennController,10,0,experiment,NULL,Selector,choice,Selection,option1,1687287095310,60617c7346cd805e5bfc8893,60617c7346cd805e5bfc8893,7,stack,critical,D,25,stack15.jpg,stack35.jpg,high,option2;option1
1687287367,1ab80b66ef1e498fe9fef39fc2fb2370,PennController,10,0,experiment,NULL,PennController,9,_Trial_,End,1687287095315,60617c7346cd805e5bfc8893,60617c7346cd805e5bfc8893,7,stack,critical,D,25,stack15.jpg,stack35.jpg,high,NULL
1687287367,1ab80b66ef1e498fe9fef39fc2fb2370,PennController,6,0,experiment,NULL,PennController,5,_Trial_,Start,1687287095320,60617c7346cd805e5bfc8893,60617c7346cd805e5bfc8893,3,clean,critical,D,75,clean65.jpg,clean85.jpg,high,NULL
1687287367,1ab80b66ef1e498fe9fef39fc2fb2370,PennController,6,0,experiment,NULL,PennController,5,_Header_,Start,1687287095320,60617c7346cd805e5bfc8893,60617c7346cd805e5bfc8893,3,clean,critical,D,75,clean65.jpg,clean85.jpg,high,NULL
1687287367,1ab80b66ef1e498fe9fef39fc2fb2370,PennController,6,0,experiment,NULL,PennController,5,_Header_,End,1687287095320,60617c7346cd805e5bfc8893,60617c7346cd805e5bfc8893,3,clean,critical,D,75,clean65.jpg,clean85.jpg,high,NULL
1687287367,1ab80b66ef1e498fe9fef39fc2fb2370,PennController,6,0,experiment,NULL,Video,progression,buffer,0,1687287098879,60617c7346cd805e5bfc8893,60617c7346cd805e5bfc8893,3,clean,critical,D,75,clean65.jpg,clean85.jpg,high,NULL
1687287367,1ab80b66ef1e498fe9fef39fc2fb2370,PennController,6,0,experiment,NULL,Canvas,canvas6,Print,NA,1687287103157,60617c7346cd805e5bfc8893,60617c7346cd805e5bfc8893,3,clean,critical,D,75,clean65.jpg,clean85.jpg,high,NULL
1687287367,1ab80b66ef1e498fe9fef39fc2fb2370,PennController,6,0,experiment,NULL,Selector,choice,Selection,option2,1687287105462,60617c7346cd805e5bfc8893,60617c7346cd805e5bfc8893,3,clean,critical,D,75,clean65.jpg,clean85.jpg,high,option2;option1
1687287367,1ab80b66ef1e498fe9fef39fc2fb2370,PennController,6,0,experiment,NULL,PennController,5,_Trial_,End,1687287105465,60617c7346cd805e5bfc8893,60617c7346cd805e5bfc8893,3,clean,critical,D,75,clean65.jpg,clean85.jpg,high,NULL
1687287367,1ab80b66ef1e498fe9fef39fc2fb2370,PennController,25,0,experiment,NULL,PennController,24,_Trial_,Start,1687287105469,60617c7346cd805e5bfc8893,60617c7346cd805e5bfc8893,22,wall,filler,D,25,wall15.jpg,wall35.jpg,GoalA,NULL
1687287367,1ab80b66ef1e498fe9fef39fc2fb2370,PennController,25,0,experiment,NULL,PennController,24,_Header_,Start,1687287105469,60617c7346cd805e5bfc8893,60617c7346cd805e5bfc8893,22,wall,filler,D,25,wall15.jpg,wall35.jpg,GoalA,NULL
1687287367,1ab80b66ef1e498fe9fef39fc2fb2370,PennController,25,0,experiment,NULL,PennController,24,_Header_,End,1687287105469,60617c7346cd805e5bfc8893,60617c7346cd805e5bfc8893,22,wall,filler,D,25,wall15.jpg,wall35.jpg,GoalA,NULL
1687287367,1ab80b66ef1e498fe9fef39fc2fb2370,PennController,25,0,experiment,NULL,Video,progression,buffer,0,1687287109035,60617c7346cd805e5bfc8893,60617c7346cd805e5bfc8893,22,wall,filler,D,25,wall15.jpg,wall35.jpg,GoalA,NULL
1687287367,1ab80b66ef1e498fe9fef39fc2fb2370,PennController,25,0,experiment,NULL,Canvas,canvas6,Print,NA,1687287111310,60617c7346cd805e5bfc8893,60617c7346cd805e5bfc8893,22,wall,filler,D,25,wall15.jpg,wall35.jpg,GoalA,NULL
1687287367,1ab80b66ef1e498fe9fef39fc2fb2370,PennController,25,0,experiment,NULL,Selector,choice,Selection,option1,1687287113350,60617c7346cd805e5bfc8893,60617c7346cd805e5bfc8893,22,wall,filler,D,25,wall15.jpg,wall35.jpg,GoalA,option1;option2
1687287367,1ab80b66ef1e498fe9fef39fc2fb2370,PennController,25,0,experiment,NULL,PennController,24,_Trial_,End,1687287113353,60617c7346cd805e5bfc8893,60617c7346cd805e5bfc8893,22,wall,filler,D,25,wall15.jpg,wall35.jpg,GoalA,NULL
1687287367,1ab80b66ef1e498fe9fef39fc2fb2370,PennController,9,0,experiment,NULL,PennController,8,_Trial_,Start,1687287113356,60617c7346cd805e5bfc8893,60617c7346cd805e5bfc8893,6,flower,critical,D,75,flower65.jpg,flower85.jpg,high,NULL
1687287367,1ab80b66ef1e498fe9fef39fc2fb2370,PennController,9,0,experiment,NULL,PennController,8,_Header_,Start,1687287113356,60617c7346cd805e5bfc8893,60617c7346cd805e5bfc8893,6,flower,critical,D,75,flower65.jpg,flower85.jpg,high,NULL
1687287367,1ab80b66ef1e498fe9fef39fc2fb2370,PennController,9,0,experiment,NULL,PennController,8,_Header_,End,1687287113357,60617c7346cd805e5bfc8893,60617c7346cd805e5bfc8893,6,flower,critical,D,75,flower65.jpg,flower85.jpg,high,NULL
1687287367,1ab80b66ef1e498fe9fef39fc2fb2370,PennController,9,0,experiment,NULL,Video,progression,buffer,0,1687287116917,60617c7346cd805e5bfc8893,60617c7346cd805e5bfc8893,6,flower,critical,D,75,flower65.jpg,flower85.jpg,high,NULL
1687287367,1ab80b66ef1e498fe9fef39fc2fb2370,PennController,9,0,experiment,NULL,Canvas,canvas6,Print,NA,1687287121206,60617c7346cd805e5bfc8893,60617c7346cd805e5bfc8893,6,flower,critical,D,75,flower65.jpg,flower85.jpg,high,NULL
1687287367,1ab80b66ef1e498fe9fef39fc2fb2370,PennController,9,0,experiment,NULL,Selector,choice,Selection,option1,1687287122524,60617c7346cd805e5bfc8893,60617c7346cd805e5bfc8893,6,flower,critical,D,75,flower65.jpg,flower85.jpg,high,option1;option2
1687287367,1ab80b66ef1e498fe9fef39fc2fb2370,PennController,9,0,experiment,NULL,PennController,8,_Trial_,End,1687287122527,60617c7346cd805e5bfc8893,60617c7346cd805e5bfc8893,6,flower,critical,D,75,flower65.jpg,flower85.jpg,high,NULL
1687287367,1ab80b66ef1e498fe9fef39fc2fb2370,PennController,15,0,experiment,NULL,PennController,14,_Trial_,Start,1687287122529,60617c7346cd805e5bfc8893,60617c7346cd805e5bfc8893,12,erase,critical,D,75,erase66.jpg,erase84.jpg,high,NULL
1687287367,1ab80b66ef1e498fe9fef39fc2fb2370,PennController,15,0,experiment,NULL,PennController,14,_Header_,Start,1687287122529,60617c7346cd805e5bfc8893,60617c7346cd805e5bfc8893,12,erase,critical,D,75,erase66.jpg,erase84.jpg,high,NULL
1687287367,1ab80b66ef1e498fe9fef39fc2fb2370,PennController,15,0,experiment,NULL,PennController,14,_Header_,End,1687287122529,60617c7346cd805e5bfc8893,60617c7346cd805e5bfc8893,12,erase,critical,D,75,erase66.jpg,erase84.jpg,high,NULL
1687287367,1ab80b66ef1e498fe9fef39fc2fb2370,PennController,15,0,experiment,NULL,Video,progression,buffer,0,1687287126107,60617c7346cd805e5bfc8893,60617c7346cd805e5bfc8893,12,erase,critical,D,75,erase66.jpg,erase84.jpg,high,NULL
1687287367,1ab80b66ef1e498fe9fef39fc2fb2370,PennController,15,0,experiment,NULL,Canvas,canvas6,Print,NA,1687287132410,60617c7346cd805e5bfc8893,60617c7346cd805e5bfc8893,12,erase,critical,D,75,erase66.jpg,erase84.jpg,high,NULL
1687287367,1ab80b66ef1e498fe9fef39fc2fb2370,PennController,15,0,experiment,NULL,Selector,choice,Selection,option2,1687287133966,60617c7346cd805e5bfc8893,60617c7346cd805e5bfc8893,12,erase,critical,D,75,erase66.jpg,erase84.jpg,high,option1;option2
1687287367,1ab80b66ef1e498fe9fef39fc2fb2370,PennController,15,0,experiment,NULL,PennController,14,_Trial_,End,1687287133970,60617c7346cd805e5bfc8893,60617c7346cd805e5bfc8893,12,erase,critical,D,75,erase66.jpg,erase84.jpg,high,NULL
1687287367,1ab80b66ef1e498fe9fef39fc2fb2370,PennController,24,0,experiment,NULL,PennController,23,_Trial_,Start,1687287133978,60617c7346cd805e5bfc8893,60617c7346cd805e5bfc8893,21,visit,filler,D,75,visit65.jpg,visit85.jpg,GoalB,NULL
1687287367,1ab80b66ef1e498fe9fef39fc2fb2370,PennController,24,0,experiment,NULL,PennController,23,_Header_,Start,1687287133978,60617c7346cd805e5bfc8893,60617c7346cd805e5bfc8893,21,visit,filler,D,75,visit65.jpg,visit85.jpg,GoalB,NULL
1687287367,1ab80b66ef1e498fe9fef39fc2fb2370,PennController,24,0,experiment,NULL,PennController,23,_Header_,End,1687287133978,60617c7346cd805e5bfc8893,60617c7346cd805e5bfc8893,21,visit,filler,D,75,visit65.jpg,visit85.jpg,GoalB,NULL
1687287367,1ab80b66ef1e498fe9fef39fc2fb2370,PennController,24,0,experiment,NULL,Video,progression,buffer,0,1687287137568,60617c7346cd805e5bfc8893,60617c7346cd805e5bfc8893,21,visit,filler,D,75,visit65.jpg,visit85.jpg,GoalB,NULL
1687287367,1ab80b66ef1e498fe9fef39fc2fb2370,PennController,24,0,experiment,NULL,Canvas,canvas6,Print,NA,1687287141843,60617c7346cd805e5bfc8893,60617c7346cd805e5bfc8893,21,visit,filler,D,75,visit65.jpg,visit85.jpg,GoalB,NULL
1687287367,1ab80b66ef1e498fe9fef39fc2fb2370,PennController,24,0,experiment,NULL,Selector,choice,Selection,option2,1687287143507,60617c7346cd805e5bfc8893,60617c7346cd805e5bfc8893,21,visit,filler,D,75,visit65.jpg,visit85.jpg,GoalB,option1;option2
1687287367,1ab80b66ef1e498fe9fef39fc2fb2370,PennController,24,0,experiment,NULL,PennController,23,_Trial_,End,1687287143510,60617c7346cd805e5bfc8893,60617c7346cd805e5bfc8893,21,visit,filler,D,75,visit65.jpg,visit85.jpg,GoalB,NULL
1687287367,1ab80b66ef1e498fe9fef39fc2fb2370,PennController,26,0,experiment,NULL,PennController,25,_Trial_,Start,1687287143514,60617c7346cd805e5bfc8893,60617c7346cd805e5bfc8893,23,color,filler,D,50,color40.jpg,color60.jpg,GoalB,NULL
1687287367,1ab80b66ef1e498fe9fef39fc2fb2370,PennController,26,0,experiment,NULL,PennController,25,_Header_,Start,1687287143514,60617c7346cd805e5bfc8893,60617c7346cd805e5bfc8893,23,color,filler,D,50,color40.jpg,color60.jpg,GoalB,NULL
1687287367,1ab80b66ef1e498fe9fef39fc2fb2370,PennController,26,0,experiment,NULL,PennController,25,_Header_,End,1687287143514,60617c7346cd805e5bfc8893,60617c7346cd805e5bfc8893,23,color,filler,D,50,color40.jpg,color60.jpg,GoalB,NULL
1687287367,1ab80b66ef1e498fe9fef39fc2fb2370,PennController,26,0,experiment,NULL,Video,progression,buffer,0,1687287147075,60617c7346cd805e5bfc8893,60617c7346cd805e5bfc8893,23,color,filler,D,50,color40.jpg,color60.jpg,GoalB,NULL
1687287367,1ab80b66ef1e498fe9fef39fc2fb2370,PennController,26,0,experiment,NULL,Canvas,canvas6,Print,NA,1687287150370,60617c7346cd805e5bfc8893,60617c7346cd805e5bfc8893,23,color,filler,D,50,color40.jpg,color60.jpg,GoalB,NULL
1687287367,1ab80b66ef1e498fe9fef39fc2fb2370,PennController,26,0,experiment,NULL,Selector,choice,Selection,option2,1687287152963,60617c7346cd805e5bfc8893,60617c7346cd805e5bfc8893,23,color,filler,D,50,color40.jpg,color60.jpg,GoalB,option1;option2
1687287367,1ab80b66ef1e498fe9fef39fc2fb2370,PennController,26,0,experiment,NULL,PennController,25,_Trial_,End,1687287152967,60617c7346cd805e5bfc8893,60617c7346cd805e5bfc8893,23,color,filler,D,50,color40.jpg,color60.jpg,GoalB,NULL
1687287367,1ab80b66ef1e498fe9fef39fc2fb2370,PennController,4,0,experiment,NULL,PennController,3,_Trial_,Start,1687287152971,60617c7346cd805e5bfc8893,60617c7346cd805e5bfc8893,1,vase,critical,D,25,vase15.jpg,vase35.jpg,high,NULL
1687287367,1ab80b66ef1e498fe9fef39fc2fb2370,PennController,4,0,experiment,NULL,PennController,3,_Header_,Start,1687287152971,60617c7346cd805e5bfc8893,60617c7346cd805e5bfc8893,1,vase,critical,D,25,vase15.jpg,vase35.jpg,high,NULL
1687287367,1ab80b66ef1e498fe9fef39fc2fb2370,PennController,4,0,experiment,NULL,PennController,3,_Header_,End,1687287152971,60617c7346cd805e5bfc8893,60617c7346cd805e5bfc8893,1,vase,critical,D,25,vase15.jpg,vase35.jpg,high,NULL
1687287367,1ab80b66ef1e498fe9fef39fc2fb2370,PennController,4,0,experiment,NULL,Video,progression,buffer,0,1687287156545,60617c7346cd805e5bfc8893,60617c7346cd805e5bfc8893,1,vase,critical,D,25,vase15.jpg,vase35.jpg,high,NULL
1687287367,1ab80b66ef1e498fe9fef39fc2fb2370,PennController,4,0,experiment,NULL,Canvas,canvas6,Print,NA,1687287158810,60617c7346cd805e5bfc8893,60617c7346cd805e5bfc8893,1,vase,critical,D,25,vase15.jpg,vase35.jpg,high,NULL
1687287367,1ab80b66ef1e498fe9fef39fc2fb2370,PennController,4,0,experiment,NULL,Selector,choice,Selection,option2,1687287161601,60617c7346cd805e5bfc8893,60617c7346cd805e5bfc8893,1,vase,critical,D,25,vase15.jpg,vase35.jpg,high,option2;option1
1687287367,1ab80b66ef1e498fe9fef39fc2fb2370,PennController,4,0,experiment,NULL,PennController,3,_Trial_,End,1687287161604,60617c7346cd805e5bfc8893,60617c7346cd805e5bfc8893,1,vase,critical,D,25,vase15.jpg,vase35.jpg,high,NULL
1687287367,1ab80b66ef1e498fe9fef39fc2fb2370,PennController,30,0,experiment,NULL,PennController,29,_Trial_,Start,1687287161608,60617c7346cd805e5bfc8893,60617c7346cd805e5bfc8893,27,square,filler,D,75,square65.jpg,square85.jpg,GoalB,NULL
1687287367,1ab80b66ef1e498fe9fef39fc2fb2370,PennController,30,0,experiment,NULL,PennController,29,_Header_,Start,1687287161608,60617c7346cd805e5bfc8893,60617c7346cd805e5bfc8893,27,square,filler,D,75,square65.jpg,square85.jpg,GoalB,NULL
1687287367,1ab80b66ef1e498fe9fef39fc2fb2370,PennController,30,0,experiment,NULL,PennController,29,_Header_,End,1687287161608,60617c7346cd805e5bfc8893,60617c7346cd805e5bfc8893,27,square,filler,D,75,square65.jpg,square85.jpg,GoalB,NULL
1687287367,1ab80b66ef1e498fe9fef39fc2fb2370,PennController,30,0,experiment,NULL,Video,progression,buffer,0,1687287165168,60617c7346cd805e5bfc8893,60617c7346cd805e5bfc8893,27,square,filler,D,75,square65.jpg,square85.jpg,GoalB,NULL
1687287367,1ab80b66ef1e498fe9fef39fc2fb2370,PennController,30,0,experiment,NULL,Canvas,canvas6,Print,NA,1687287169442,60617c7346cd805e5bfc8893,60617c7346cd805e5bfc8893,27,square,filler,D,75,square65.jpg,square85.jpg,GoalB,NULL
1687287367,1ab80b66ef1e498fe9fef39fc2fb2370,PennController,30,0,experiment,NULL,Selector,choice,Selection,option2,1687287172273,60617c7346cd805e5bfc8893,60617c7346cd805e5bfc8893,27,square,filler,D,75,square65.jpg,square85.jpg,GoalB,option2;option1
1687287367,1ab80b66ef1e498fe9fef39fc2fb2370,PennController,30,0,experiment,NULL,PennController,29,_Trial_,End,1687287172276,60617c7346cd805e5bfc8893,60617c7346cd805e5bfc8893,27,square,filler,D,75,square65.jpg,square85.jpg,GoalB,NULL
1687287367,1ab80b66ef1e498fe9fef39fc2fb2370,PennController,13,0,experiment,NULL,PennController,12,_Trial_,Start,1687287172279,60617c7346cd805e5bfc8893,60617c7346cd805e5bfc8893,10,train,critical,D,25,train15.jpg,train35.jpg,high,NULL
1687287367,1ab80b66ef1e498fe9fef39fc2fb2370,PennController,13,0,experiment,NULL,PennController,12,_Header_,Start,1687287172279,60617c7346cd805e5bfc8893,60617c7346cd805e5bfc8893,10,train,critical,D,25,train15.jpg,train35.jpg,high,NULL
1687287367,1ab80b66ef1e498fe9fef39fc2fb2370,PennController,13,0,experiment,NULL,PennController,12,_Header_,End,1687287172279,60617c7346cd805e5bfc8893,60617c7346cd805e5bfc8893,10,train,critical,D,25,train15.jpg,train35.jpg,high,NULL
1687287367,1ab80b66ef1e498fe9fef39fc2fb2370,PennController,13,0,experiment,NULL,Video,progression,buffer,0,1687287175851,60617c7346cd805e5bfc8893,60617c7346cd805e5bfc8893,10,train,critical,D,25,train15.jpg,train35.jpg,high,NULL
1687287367,1ab80b66ef1e498fe9fef39fc2fb2370,PennController,13,0,experiment,NULL,Canvas,canvas6,Print,NA,1687287178112,60617c7346cd805e5bfc8893,60617c7346cd805e5bfc8893,10,train,critical,D,25,train15.jpg,train35.jpg,high,NULL
1687287367,1ab80b66ef1e498fe9fef39fc2fb2370,PennController,13,0,experiment,NULL,Selector,choice,Selection,option2,1687287181120,60617c7346cd805e5bfc8893,60617c7346cd805e5bfc8893,10,train,critical,D,25,train15.jpg,train35.jpg,high,option1;option2
1687287367,1ab80b66ef1e498fe9fef39fc2fb2370,PennController,13,0,experiment,NULL,PennController,12,_Trial_,End,1687287181123,60617c7346cd805e5bfc8893,60617c7346cd805e5bfc8893,10,train,critical,D,25,train15.jpg,train35.jpg,high,NULL
1687287367,1ab80b66ef1e498fe9fef39fc2fb2370,PennController,18,0,experiment,NULL,PennController,17,_Trial_,Start,1687287181126,60617c7346cd805e5bfc8893,60617c7346cd805e5bfc8893,15,zip,critical,D,75,zip65.jpg,zip85.jpg,high,NULL
1687287367,1ab80b66ef1e498fe9fef39fc2fb2370,PennController,18,0,experiment,NULL,PennController,17,_Header_,Start,1687287181126,60617c7346cd805e5bfc8893,60617c7346cd805e5bfc8893,15,zip,critical,D,75,zip65.jpg,zip85.jpg,high,NULL
1687287367,1ab80b66ef1e498fe9fef39fc2fb2370,PennController,18,0,experiment,NULL,PennController,17,_Header_,End,1687287181126,60617c7346cd805e5bfc8893,60617c7346cd805e5bfc8893,15,zip,critical,D,75,zip65.jpg,zip85.jpg,high,NULL
1687287367,1ab80b66ef1e498fe9fef39fc2fb2370,PennController,18,0,experiment,NULL,Video,progression,buffer,0,1687287184699,60617c7346cd805e5bfc8893,60617c7346cd805e5bfc8893,15,zip,critical,D,75,zip65.jpg,zip85.jpg,high,NULL
1687287367,1ab80b66ef1e498fe9fef39fc2fb2370,PennController,18,0,experiment,NULL,Canvas,canvas6,Print,NA,1687287188174,60617c7346cd805e5bfc8893,60617c7346cd805e5bfc8893,15,zip,critical,D,75,zip65.jpg,zip85.jpg,high,NULL
1687287367,1ab80b66ef1e498fe9fef39fc2fb2370,PennController,18,0,experiment,NULL,Selector,choice,Selection,option2,1687287190968,60617c7346cd805e5bfc8893,60617c7346cd805e5bfc8893,15,zip,critical,D,75,zip65.jpg,zip85.jpg,high,option1;option2
1687287367,1ab80b66ef1e498fe9fef39fc2fb2370,PennController,18,0,experiment,NULL,PennController,17,_Trial_,End,1687287190970,60617c7346cd805e5bfc8893,60617c7346cd805e5bfc8893,15,zip,critical,D,75,zip65.jpg,zip85.jpg,high,NULL
1687287367,1ab80b66ef1e498fe9fef39fc2fb2370,PennController,22,0,experiment,NULL,PennController,21,_Trial_,Start,1687287190973,60617c7346cd805e5bfc8893,60617c7346cd805e5bfc8893,19,cup,filler,D,25,cup15.jpg,cup35.jpg,GoalB,NULL
1687287367,1ab80b66ef1e498fe9fef39fc2fb2370,PennController,22,0,experiment,NULL,PennController,21,_Header_,Start,1687287190973,60617c7346cd805e5bfc8893,60617c7346cd805e5bfc8893,19,cup,filler,D,25,cup15.jpg,cup35.jpg,GoalB,NULL
1687287367,1ab80b66ef1e498fe9fef39fc2fb2370,PennController,22,0,experiment,NULL,PennController,21,_Header_,End,1687287190973,60617c7346cd805e5bfc8893,60617c7346cd805e5bfc8893,19,cup,filler,D,25,cup15.jpg,cup35.jpg,GoalB,NULL
1687287367,1ab80b66ef1e498fe9fef39fc2fb2370,PennController,22,0,experiment,NULL,Video,progression,buffer,0,1687287194549,60617c7346cd805e5bfc8893,60617c7346cd805e5bfc8893,19,cup,filler,D,25,cup15.jpg,cup35.jpg,GoalB,NULL
1687287367,1ab80b66ef1e498fe9fef39fc2fb2370,PennController,22,0,experiment,NULL,Canvas,canvas6,Print,NA,1687287196835,60617c7346cd805e5bfc8893,60617c7346cd805e5bfc8893,19,cup,filler,D,25,cup15.jpg,cup35.jpg,GoalB,NULL
1687287367,1ab80b66ef1e498fe9fef39fc2fb2370,PennController,22,0,experiment,NULL,Selector,choice,Selection,option2,1687287198343,60617c7346cd805e5bfc8893,60617c7346cd805e5bfc8893,19,cup,filler,D,25,cup15.jpg,cup35.jpg,GoalB,option1;option2
1687287367,1ab80b66ef1e498fe9fef39fc2fb2370,PennController,22,0,experiment,NULL,PennController,21,_Trial_,End,1687287198346,60617c7346cd805e5bfc8893,60617c7346cd805e5bfc8893,19,cup,filler,D,25,cup15.jpg,cup35.jpg,GoalB,NULL
1687287367,1ab80b66ef1e498fe9fef39fc2fb2370,PennController,32,0,experiment,NULL,PennController,31,_Trial_,Start,1687287198349,60617c7346cd805e5bfc8893,60617c7346cd805e5bfc8893,29,frog,filler,D,50,frog40.jpg,frog60.jpg,GoalB,NULL
1687287367,1ab80b66ef1e498fe9fef39fc2fb2370,PennController,32,0,experiment,NULL,PennController,31,_Header_,Start,1687287198349,60617c7346cd805e5bfc8893,60617c7346cd805e5bfc8893,29,frog,filler,D,50,frog40.jpg,frog60.jpg,GoalB,NULL
1687287367,1ab80b66ef1e498fe9fef39fc2fb2370,PennController,32,0,experiment,NULL,PennController,31,_Header_,End,1687287198349,60617c7346cd805e5bfc8893,60617c7346cd805e5bfc8893,29,frog,filler,D,50,frog40.jpg,frog60.jpg,GoalB,NULL
1687287367,1ab80b66ef1e498fe9fef39fc2fb2370,PennController,32,0,experiment,NULL,Video,progression,buffer,0,1687287201902,60617c7346cd805e5bfc8893,60617c7346cd805e5bfc8893,29,frog,filler,D,50,frog40.jpg,frog60.jpg,GoalB,NULL
1687287367,1ab80b66ef1e498fe9fef39fc2fb2370,PennController,32,0,experiment,NULL,Canvas,canvas6,Print,NA,1687287205187,60617c7346cd805e5bfc8893,60617c7346cd805e5bfc8893,29,frog,filler,D,50,frog40.jpg,frog60.jpg,GoalB,NULL
1687287367,1ab80b66ef1e498fe9fef39fc2fb2370,PennController,32,0,experiment,NULL,Selector,choice,Selection,option2,1687287206853,60617c7346cd805e5bfc8893,60617c7346cd805e5bfc8893,29,frog,filler,D,50,frog40.jpg,frog60.jpg,GoalB,option2;option1
1687287367,1ab80b66ef1e498fe9fef39fc2fb2370,PennController,32,0,experiment,NULL,PennController,31,_Trial_,End,1687287206856,60617c7346cd805e5bfc8893,60617c7346cd805e5bfc8893,29,frog,filler,D,50,frog40.jpg,frog60.jpg,GoalB,NULL
1687287367,1ab80b66ef1e498fe9fef39fc2fb2370,PennController,8,0,experiment,NULL,PennController,7,_Trial_,Start,1687287206859,60617c7346cd805e5bfc8893,60617c7346cd805e5bfc8893,5,book,critical,D,50,book40.jpg,book60.jpg,high,NULL
1687287367,1ab80b66ef1e498fe9fef39fc2fb2370,PennController,8,0,experiment,NULL,PennController,7,_Header_,Start,1687287206859,60617c7346cd805e5bfc8893,60617c7346cd805e5bfc8893,5,book,critical,D,50,book40.jpg,book60.jpg,high,NULL
1687287367,1ab80b66ef1e498fe9fef39fc2fb2370,PennController,8,0,experiment,NULL,PennController,7,_Header_,End,1687287206859,60617c7346cd805e5bfc8893,60617c7346cd805e5bfc8893,5,book,critical,D,50,book40.jpg,book60.jpg,high,NULL
1687287367,1ab80b66ef1e498fe9fef39fc2fb2370,PennController,8,0,experiment,NULL,Video,progression,buffer,0,1687287210420,60617c7346cd805e5bfc8893,60617c7346cd805e5bfc8893,5,book,critical,D,50,book40.jpg,book60.jpg,high,NULL
1687287367,1ab80b66ef1e498fe9fef39fc2fb2370,PennController,8,0,experiment,NULL,Canvas,canvas6,Print,NA,1687287213708,60617c7346cd805e5bfc8893,60617c7346cd805e5bfc8893,5,book,critical,D,50,book40.jpg,book60.jpg,high,NULL
1687287367,1ab80b66ef1e498fe9fef39fc2fb2370,PennController,8,0,experiment,NULL,Selector,choice,Selection,option2,1687287215155,60617c7346cd805e5bfc8893,60617c7346cd805e5bfc8893,5,book,critical,D,50,book40.jpg,book60.jpg,high,option2;option1
1687287367,1ab80b66ef1e498fe9fef39fc2fb2370,PennController,8,0,experiment,NULL,PennController,7,_Trial_,End,1687287215157,60617c7346cd805e5bfc8893,60617c7346cd805e5bfc8893,5,book,critical,D,50,book40.jpg,book60.jpg,high,NULL
1687287367,1ab80b66ef1e498fe9fef39fc2fb2370,PennController,17,0,experiment,NULL,PennController,16,_Trial_,Start,1687287215162,60617c7346cd805e5bfc8893,60617c7346cd805e5bfc8893,14,cover,critical,D,50,cover42.jpg,cover60.jpg,high,NULL
1687287367,1ab80b66ef1e498fe9fef39fc2fb2370,PennController,17,0,experiment,NULL,PennController,16,_Header_,Start,1687287215162,60617c7346cd805e5bfc8893,60617c7346cd805e5bfc8893,14,cover,critical,D,50,cover42.jpg,cover60.jpg,high,NULL
1687287367,1ab80b66ef1e498fe9fef39fc2fb2370,PennController,17,0,experiment,NULL,PennController,16,_Header_,End,1687287215162,60617c7346cd805e5bfc8893,60617c7346cd805e5bfc8893,14,cover,critical,D,50,cover42.jpg,cover60.jpg,high,NULL
1687287367,1ab80b66ef1e498fe9fef39fc2fb2370,PennController,17,0,experiment,NULL,Video,progression,buffer,0,1687287218721,60617c7346cd805e5bfc8893,60617c7346cd805e5bfc8893,14,cover,critical,D,50,cover42.jpg,cover60.jpg,high,NULL
1687287367,1ab80b66ef1e498fe9fef39fc2fb2370,PennController,17,0,experiment,NULL,Canvas,canvas6,Print,NA,1687287223408,60617c7346cd805e5bfc8893,60617c7346cd805e5bfc8893,14,cover,critical,D,50,cover42.jpg,cover60.jpg,high,NULL
1687287367,1ab80b66ef1e498fe9fef39fc2fb2370,PennController,17,0,experiment,NULL,Selector,choice,Selection,option2,1687287227785,60617c7346cd805e5bfc8893,60617c7346cd805e5bfc8893,14,cover,critical,D,50,cover42.jpg,cover60.jpg,high,option2;option1
1687287367,1ab80b66ef1e498fe9fef39fc2fb2370,PennController,17,0,experiment,NULL,PennController,16,_Trial_,End,1687287227789,60617c7346cd805e5bfc8893,60617c7346cd805e5bfc8893,14,cover,critical,D,50,cover42.jpg,cover60.jpg,high,NULL
1687287367,1ab80b66ef1e498fe9fef39fc2fb2370,PennController,19,0,experiment,NULL,PennController,18,_Trial_,Start,1687287227791,60617c7346cd805e5bfc8893,60617c7346cd805e5bfc8893,16,blinds,critical,D,25,blinds15.jpg,blinds33.jpg,high,NULL
1687287367,1ab80b66ef1e498fe9fef39fc2fb2370,PennController,19,0,experiment,NULL,PennController,18,_Header_,Start,1687287227791,60617c7346cd805e5bfc8893,60617c7346cd805e5bfc8893,16,blinds,critical,D,25,blinds15.jpg,blinds33.jpg,high,NULL
1687287367,1ab80b66ef1e498fe9fef39fc2fb2370,PennController,19,0,experiment,NULL,PennController,18,_Header_,End,1687287227791,60617c7346cd805e5bfc8893,60617c7346cd805e5bfc8893,16,blinds,critical,D,25,blinds15.jpg,blinds33.jpg,high,NULL
1687287367,1ab80b66ef1e498fe9fef39fc2fb2370,PennController,19,0,experiment,NULL,Video,progression,buffer,0,1687287231367,60617c7346cd805e5bfc8893,60617c7346cd805e5bfc8893,16,blinds,critical,D,25,blinds15.jpg,blinds33.jpg,high,NULL
1687287367,1ab80b66ef1e498fe9fef39fc2fb2370,PennController,19,0,experiment,NULL,Canvas,canvas6,Print,NA,1687287234243,60617c7346cd805e5bfc8893,60617c7346cd805e5bfc8893,16,blinds,critical,D,25,blinds15.jpg,blinds33.jpg,high,NULL
1687287367,1ab80b66ef1e498fe9fef39fc2fb2370,PennController,19,0,experiment,NULL,Selector,choice,Selection,option1,1687287236372,60617c7346cd805e5bfc8893,60617c7346cd805e5bfc8893,16,blinds,critical,D,25,blinds15.jpg,blinds33.jpg,high,option2;option1
1687287367,1ab80b66ef1e498fe9fef39fc2fb2370,PennController,19,0,experiment,NULL,PennController,18,_Trial_,End,1687287236375,60617c7346cd805e5bfc8893,60617c7346cd805e5bfc8893,16,blinds,critical,D,25,blinds15.jpg,blinds33.jpg,high,NULL
1687287367,1ab80b66ef1e498fe9fef39fc2fb2370,PennController,12,0,experiment,NULL,PennController,11,_Trial_,Start,1687287236377,60617c7346cd805e5bfc8893,60617c7346cd805e5bfc8893,9,cake,critical,D,75,cake66.jpg,cake84.jpg,high,NULL
1687287367,1ab80b66ef1e498fe9fef39fc2fb2370,PennController,12,0,experiment,NULL,PennController,11,_Header_,Start,1687287236377,60617c7346cd805e5bfc8893,60617c7346cd805e5bfc8893,9,cake,critical,D,75,cake66.jpg,cake84.jpg,high,NULL
1687287367,1ab80b66ef1e498fe9fef39fc2fb2370,PennController,12,0,experiment,NULL,PennController,11,_Header_,End,1687287236377,60617c7346cd805e5bfc8893,60617c7346cd805e5bfc8893,9,cake,critical,D,75,cake66.jpg,cake84.jpg,high,NULL
1687287367,1ab80b66ef1e498fe9fef39fc2fb2370,PennController,12,0,experiment,NULL,Video,progression,buffer,0,1687287239939,60617c7346cd805e5bfc8893,60617c7346cd805e5bfc8893,9,cake,critical,D,75,cake66.jpg,cake84.jpg,high,NULL
1687287367,1ab80b66ef1e498fe9fef39fc2fb2370,PennController,12,0,experiment,NULL,Canvas,canvas6,Print,NA,1687287246223,60617c7346cd805e5bfc8893,60617c7346cd805e5bfc8893,9,cake,critical,D,75,cake66.jpg,cake84.jpg,high,NULL
1687287367,1ab80b66ef1e498fe9fef39fc2fb2370,PennController,12,0,experiment,NULL,Selector,choice,Selection,option2,1687287249321,60617c7346cd805e5bfc8893,60617c7346cd805e5bfc8893,9,cake,critical,D,75,cake66.jpg,cake84.jpg,high,option2;option1
1687287367,1ab80b66ef1e498fe9fef39fc2fb2370,PennController,12,0,experiment,NULL,PennController,11,_Trial_,End,1687287249323,60617c7346cd805e5bfc8893,60617c7346cd805e5bfc8893,9,cake,critical,D,75,cake66.jpg,cake84.jpg,high,NULL
1687287367,1ab80b66ef1e498fe9fef39fc2fb2370,PennController,29,0,experiment,NULL,PennController,28,_Trial_,Start,1687287249326,60617c7346cd805e5bfc8893,60617c7346cd805e5bfc8893,26,sandwich,filler,D,50,sandwich40.jpg,sandwich60.jpg,GoalA,NULL
1687287367,1ab80b66ef1e498fe9fef39fc2fb2370,PennController,29,0,experiment,NULL,PennController,28,_Header_,Start,1687287249326,60617c7346cd805e5bfc8893,60617c7346cd805e5bfc8893,26,sandwich,filler,D,50,sandwich40.jpg,sandwich60.jpg,GoalA,NULL
1687287367,1ab80b66ef1e498fe9fef39fc2fb2370,PennController,29,0,experiment,NULL,PennController,28,_Header_,End,1687287249326,60617c7346cd805e5bfc8893,60617c7346cd805e5bfc8893,26,sandwich,filler,D,50,sandwich40.jpg,sandwich60.jpg,GoalA,NULL
1687287367,1ab80b66ef1e498fe9fef39fc2fb2370,PennController,29,0,experiment,NULL,Video,progression,buffer,0,1687287252937,60617c7346cd805e5bfc8893,60617c7346cd805e5bfc8893,26,sandwich,filler,D,50,sandwich40.jpg,sandwich60.jpg,GoalA,NULL
1687287367,1ab80b66ef1e498fe9fef39fc2fb2370,PennController,29,0,experiment,NULL,Canvas,canvas6,Print,NA,1687287256220,60617c7346cd805e5bfc8893,60617c7346cd805e5bfc8893,26,sandwich,filler,D,50,sandwich40.jpg,sandwich60.jpg,GoalA,NULL
1687287367,1ab80b66ef1e498fe9fef39fc2fb2370,PennController,29,0,experiment,NULL,Selector,choice,Selection,option1,1687287257674,60617c7346cd805e5bfc8893,60617c7346cd805e5bfc8893,26,sandwich,filler,D,50,sandwich40.jpg,sandwich60.jpg,GoalA,option1;option2
1687287367,1ab80b66ef1e498fe9fef39fc2fb2370,PennController,29,0,experiment,NULL,PennController,28,_Trial_,End,1687287257677,60617c7346cd805e5bfc8893,60617c7346cd805e5bfc8893,26,sandwich,filler,D,50,sandwich40.jpg,sandwich60.jpg,GoalA,NULL
1687287367,1ab80b66ef1e498fe9fef39fc2fb2370,PennController,20,0,experiment,NULL,PennController,19,_Trial_,Start,1687287257680,60617c7346cd805e5bfc8893,60617c7346cd805e5bfc8893,17,roll,critical,D,50,roll40.jpg,roll60.jpg,high,NULL
1687287367,1ab80b66ef1e498fe9fef39fc2fb2370,PennController,20,0,experiment,NULL,PennController,19,_Header_,Start,1687287257680,60617c7346cd805e5bfc8893,60617c7346cd805e5bfc8893,17,roll,critical,D,50,roll40.jpg,roll60.jpg,high,NULL
1687287367,1ab80b66ef1e498fe9fef39fc2fb2370,PennController,20,0,experiment,NULL,PennController,19,_Header_,End,1687287257680,60617c7346cd805e5bfc8893,60617c7346cd805e5bfc8893,17,roll,critical,D,50,roll40.jpg,roll60.jpg,high,NULL
1687287367,1ab80b66ef1e498fe9fef39fc2fb2370,PennController,20,0,experiment,NULL,Video,progression,buffer,0,1687287261240,60617c7346cd805e5bfc8893,60617c7346cd805e5bfc8893,17,roll,critical,D,50,roll40.jpg,roll60.jpg,high,NULL
1687287367,1ab80b66ef1e498fe9fef39fc2fb2370,PennController,20,0,experiment,NULL,Canvas,canvas6,Print,NA,1687287264524,60617c7346cd805e5bfc8893,60617c7346cd805e5bfc8893,17,roll,critical,D,50,roll40.jpg,roll60.jpg,high,NULL
1687287367,1ab80b66ef1e498fe9fef39fc2fb2370,PennController,20,0,experiment,NULL,Selector,choice,Selection,option2,1687287266730,60617c7346cd805e5bfc8893,60617c7346cd805e5bfc8893,17,roll,critical,D,50,roll40.jpg,roll60.jpg,high,option2;option1
1687287367,1ab80b66ef1e498fe9fef39fc2fb2370,PennController,20,0,experiment,NULL,PennController,19,_Trial_,End,1687287266733,60617c7346cd805e5bfc8893,60617c7346cd805e5bfc8893,17,roll,critical,D,50,roll40.jpg,roll60.jpg,high,NULL
1687287367,1ab80b66ef1e498fe9fef39fc2fb2370,PennController,5,0,experiment,NULL,PennController,4,_Trial_,Start,1687287266734,60617c7346cd805e5bfc8893,60617c7346cd805e5bfc8893,2,door,critical,D,50,door40.jpg,door60.jpg,high,NULL
1687287367,1ab80b66ef1e498fe9fef39fc2fb2370,PennController,5,0,experiment,NULL,PennController,4,_Header_,Start,1687287266734,60617c7346cd805e5bfc8893,60617c7346cd805e5bfc8893,2,door,critical,D,50,door40.jpg,door60.jpg,high,NULL
1687287367,1ab80b66ef1e498fe9fef39fc2fb2370,PennController,5,0,experiment,NULL,PennController,4,_Header_,End,1687287266735,60617c7346cd805e5bfc8893,60617c7346cd805e5bfc8893,2,door,critical,D,50,door40.jpg,door60.jpg,high,NULL
1687287367,1ab80b66ef1e498fe9fef39fc2fb2370,PennController,5,0,experiment,NULL,Video,progression,buffer,0,1687287270310,60617c7346cd805e5bfc8893,60617c7346cd805e5bfc8893,2,door,critical,D,50,door40.jpg,door60.jpg,high,NULL
1687287367,1ab80b66ef1e498fe9fef39fc2fb2370,PennController,5,0,experiment,NULL,Canvas,canvas6,Print,NA,1687287273574,60617c7346cd805e5bfc8893,60617c7346cd805e5bfc8893,2,door,critical,D,50,door40.jpg,door60.jpg,high,NULL
1687287367,1ab80b66ef1e498fe9fef39fc2fb2370,PennController,5,0,experiment,NULL,Selector,choice,Selection,option1,1687287276716,60617c7346cd805e5bfc8893,60617c7346cd805e5bfc8893,2,door,critical,D,50,door40.jpg,door60.jpg,high,option1;option2
1687287367,1ab80b66ef1e498fe9fef39fc2fb2370,PennController,5,0,experiment,NULL,PennController,4,_Trial_,End,1687287276718,60617c7346cd805e5bfc8893,60617c7346cd805e5bfc8893,2,door,critical,D,50,door40.jpg,door60.jpg,high,NULL
1687287367,1ab80b66ef1e498fe9fef39fc2fb2370,PennController,7,0,experiment,NULL,PennController,6,_Trial_,Start,1687287276721,60617c7346cd805e5bfc8893,60617c7346cd805e5bfc8893,4,candy,critical,D,25,candy15.jpg,candy35.jpg,high,NULL
1687287367,1ab80b66ef1e498fe9fef39fc2fb2370,PennController,7,0,experiment,NULL,PennController,6,_Header_,Start,1687287276721,60617c7346cd805e5bfc8893,60617c7346cd805e5bfc8893,4,candy,critical,D,25,candy15.jpg,candy35.jpg,high,NULL
1687287367,1ab80b66ef1e498fe9fef39fc2fb2370,PennController,7,0,experiment,NULL,PennController,6,_Header_,End,1687287276721,60617c7346cd805e5bfc8893,60617c7346cd805e5bfc8893,4,candy,critical,D,25,candy15.jpg,candy35.jpg,high,NULL
1687287367,1ab80b66ef1e498fe9fef39fc2fb2370,PennController,7,0,experiment,NULL,Video,progression,buffer,0,1687287280280,60617c7346cd805e5bfc8893,60617c7346cd805e5bfc8893,4,candy,critical,D,25,candy15.jpg,candy35.jpg,high,NULL
1687287367,1ab80b66ef1e498fe9fef39fc2fb2370,PennController,7,0,experiment,NULL,Canvas,canvas6,Print,NA,1687287282572,60617c7346cd805e5bfc8893,60617c7346cd805e5bfc8893,4,candy,critical,D,25,candy15.jpg,candy35.jpg,high,NULL
1687287367,1ab80b66ef1e498fe9fef39fc2fb2370,PennController,7,0,experiment,NULL,Selector,choice,Selection,option1,1687287285544,60617c7346cd805e5bfc8893,60617c7346cd805e5bfc8893,4,candy,critical,D,25,candy15.jpg,candy35.jpg,high,option1;option2
1687287367,1ab80b66ef1e498fe9fef39fc2fb2370,PennController,7,0,experiment,NULL,PennController,6,_Trial_,End,1687287285547,60617c7346cd805e5bfc8893,60617c7346cd805e5bfc8893,4,candy,critical,D,25,candy15.jpg,candy35.jpg,high,NULL
1687287367,1ab80b66ef1e498fe9fef39fc2fb2370,PennController,11,0,experiment,NULL,PennController,10,_Trial_,Start,1687287285549,60617c7346cd805e5bfc8893,60617c7346cd805e5bfc8893,8,cucumber,critical,D,50,cucumber42.jpg,cucumber60.jpg,high,NULL
1687287367,1ab80b66ef1e498fe9fef39fc2fb2370,PennController,11,0,experiment,NULL,PennController,10,_Header_,Start,1687287285549,60617c7346cd805e5bfc8893,60617c7346cd805e5bfc8893,8,cucumber,critical,D,50,cucumber42.jpg,cucumber60.jpg,high,NULL
1687287367,1ab80b66ef1e498fe9fef39fc2fb2370,PennController,11,0,experiment,NULL,PennController,10,_Header_,End,1687287285549,60617c7346cd805e5bfc8893,60617c7346cd805e5bfc8893,8,cucumber,critical,D,50,cucumber42.jpg,cucumber60.jpg,high,NULL
1687287367,1ab80b66ef1e498fe9fef39fc2fb2370,PennController,11,0,experiment,NULL,Video,progression,buffer,0,1687287289098,60617c7346cd805e5bfc8893,60617c7346cd805e5bfc8893,8,cucumber,critical,D,50,cucumber42.jpg,cucumber60.jpg,high,NULL
1687287367,1ab80b66ef1e498fe9fef39fc2fb2370,PennController,11,0,experiment,NULL,Canvas,canvas6,Print,NA,1687287293773,60617c7346cd805e5bfc8893,60617c7346cd805e5bfc8893,8,cucumber,critical,D,50,cucumber42.jpg,cucumber60.jpg,high,NULL
1687287367,1ab80b66ef1e498fe9fef39fc2fb2370,PennController,11,0,experiment,NULL,Selector,choice,Selection,option1,1687287297167,60617c7346cd805e5bfc8893,60617c7346cd805e5bfc8893,8,cucumber,critical,D,50,cucumber42.jpg,cucumber60.jpg,high,option2;option1
1687287367,1ab80b66ef1e498fe9fef39fc2fb2370,PennController,11,0,experiment,NULL,PennController,10,_Trial_,End,1687287297170,60617c7346cd805e5bfc8893,60617c7346cd805e5bfc8893,8,cucumber,critical,D,50,cucumber42.jpg,cucumber60.jpg,high,NULL
1687287367,1ab80b66ef1e498fe9fef39fc2fb2370,PennController,21,0,experiment,NULL,PennController,20,_Trial_,Start,1687287297172,60617c7346cd805e5bfc8893,60617c7346cd805e5bfc8893,18,ball,critical,D,75,ball65.jpg,ball85.jpg,high,NULL
1687287367,1ab80b66ef1e498fe9fef39fc2fb2370,PennController,21,0,experiment,NULL,PennController,20,_Header_,Start,1687287297172,60617c7346cd805e5bfc8893,60617c7346cd805e5bfc8893,18,ball,critical,D,75,ball65.jpg,ball85.jpg,high,NULL
1687287367,1ab80b66ef1e498fe9fef39fc2fb2370,PennController,21,0,experiment,NULL,PennController,20,_Header_,End,1687287297172,60617c7346cd805e5bfc8893,60617c7346cd805e5bfc8893,18,ball,critical,D,75,ball65.jpg,ball85.jpg,high,NULL
1687287367,1ab80b66ef1e498fe9fef39fc2fb2370,PennController,21,0,experiment,NULL,Video,progression,buffer,0,1687287300728,60617c7346cd805e5bfc8893,60617c7346cd805e5bfc8893,18,ball,critical,D,75,ball65.jpg,ball85.jpg,high,NULL
1687287367,1ab80b66ef1e498fe9fef39fc2fb2370,PennController,21,0,experiment,NULL,Canvas,canvas6,Print,NA,1687287305035,60617c7346cd805e5bfc8893,60617c7346cd805e5bfc8893,18,ball,critical,D,75,ball65.jpg,ball85.jpg,high,NULL
1687287367,1ab80b66ef1e498fe9fef39fc2fb2370,PennController,21,0,experiment,NULL,Selector,choice,Selection,option2,1687287309011,60617c7346cd805e5bfc8893,60617c7346cd805e5bfc8893,18,ball,critical,D,75,ball65.jpg,ball85.jpg,high,option1;option2
1687287367,1ab80b66ef1e498fe9fef39fc2fb2370,PennController,21,0,experiment,NULL,PennController,20,_Trial_,End,1687287309014,60617c7346cd805e5bfc8893,60617c7346cd805e5bfc8893,18,ball,critical,D,75,ball65.jpg,ball85.jpg,high,NULL
1687287367,1ab80b66ef1e498fe9fef39fc2fb2370,PennController,16,0,experiment,NULL,PennController,15,_Trial_,Start,1687287309017,60617c7346cd805e5bfc8893,60617c7346cd805e5bfc8893,13,mix,critical,D,25,mix15.jpg,mix35.jpg,high,NULL
1687287367,1ab80b66ef1e498fe9fef39fc2fb2370,PennController,16,0,experiment,NULL,PennController,15,_Header_,Start,1687287309017,60617c7346cd805e5bfc8893,60617c7346cd805e5bfc8893,13,mix,critical,D,25,mix15.jpg,mix35.jpg,high,NULL
1687287367,1ab80b66ef1e498fe9fef39fc2fb2370,PennController,16,0,experiment,NULL,PennController,15,_Header_,End,1687287309017,60617c7346cd805e5bfc8893,60617c7346cd805e5bfc8893,13,mix,critical,D,25,mix15.jpg,mix35.jpg,high,NULL
1687287367,1ab80b66ef1e498fe9fef39fc2fb2370,PennController,16,0,experiment,NULL,Video,progression,buffer,0,1687287312609,60617c7346cd805e5bfc8893,60617c7346cd805e5bfc8893,13,mix,critical,D,25,mix15.jpg,mix35.jpg,high,NULL
1687287367,1ab80b66ef1e498fe9fef39fc2fb2370,PennController,16,0,experiment,NULL,Canvas,canvas6,Print,NA,1687287314896,60617c7346cd805e5bfc8893,60617c7346cd805e5bfc8893,13,mix,critical,D,25,mix15.jpg,mix35.jpg,high,NULL
1687287367,1ab80b66ef1e498fe9fef39fc2fb2370,PennController,16,0,experiment,NULL,Selector,choice,Selection,option1,1687287317757,60617c7346cd805e5bfc8893,60617c7346cd805e5bfc8893,13,mix,critical,D,25,mix15.jpg,mix35.jpg,high,option2;option1
1687287367,1ab80b66ef1e498fe9fef39fc2fb2370,PennController,16,0,experiment,NULL,PennController,15,_Trial_,End,1687287317760,60617c7346cd805e5bfc8893,60617c7346cd805e5bfc8893,13,mix,critical,D,25,mix15.jpg,mix35.jpg,high,NULL
1687287367,1ab80b66ef1e498fe9fef39fc2fb2370,PennController,14,0,experiment,NULL,PennController,13,_Trial_,Start,1687287317761,60617c7346cd805e5bfc8893,60617c7346cd805e5bfc8893,11,beads,critical,D,50,beads40.jpg,beads60.jpg,high,NULL
1687287367,1ab80b66ef1e498fe9fef39fc2fb2370,PennController,14,0,experiment,NULL,PennController,13,_Header_,Start,1687287317761,60617c7346cd805e5bfc8893,60617c7346cd805e5bfc8893,11,beads,critical,D,50,beads40.jpg,beads60.jpg,high,NULL
1687287367,1ab80b66ef1e498fe9fef39fc2fb2370,PennController,14,0,experiment,NULL,PennController,13,_Header_,End,1687287317761,60617c7346cd805e5bfc8893,60617c7346cd805e5bfc8893,11,beads,critical,D,50,beads40.jpg,beads60.jpg,high,NULL
1687287367,1ab80b66ef1e498fe9fef39fc2fb2370,PennController,14,0,experiment,NULL,Video,progression,buffer,0,1687287321333,60617c7346cd805e5bfc8893,60617c7346cd805e5bfc8893,11,beads,critical,D,50,beads40.jpg,beads60.jpg,high,NULL
1687287367,1ab80b66ef1e498fe9fef39fc2fb2370,PennController,14,0,experiment,NULL,Canvas,canvas6,Print,NA,1687287324615,60617c7346cd805e5bfc8893,60617c7346cd805e5bfc8893,11,beads,critical,D,50,beads40.jpg,beads60.jpg,high,NULL
1687287367,1ab80b66ef1e498fe9fef39fc2fb2370,PennController,14,0,experiment,NULL,Selector,choice,Selection,option2,1687287330046,60617c7346cd805e5bfc8893,60617c7346cd805e5bfc8893,11,beads,critical,D,50,beads40.jpg,beads60.jpg,high,option1;option2
1687287367,1ab80b66ef1e498fe9fef39fc2fb2370,PennController,14,0,experiment,NULL,PennController,13,_Trial_,End,1687287330048,60617c7346cd805e5bfc8893,60617c7346cd805e5bfc8893,11,beads,critical,D,50,beads40.jpg,beads60.jpg,high,NULL
1687287367,1ab80b66ef1e498fe9fef39fc2fb2370,PennController,31,0,experiment,NULL,PennController,30,_Trial_,Start,1687287330050,60617c7346cd805e5bfc8893,60617c7346cd805e5bfc8893,28,sort,filler,D,25,sort15.jpg,sort35.jpg,GoalA,NULL
1687287367,1ab80b66ef1e498fe9fef39fc2fb2370,PennController,31,0,experiment,NULL,PennController,30,_Header_,Start,1687287330050,60617c7346cd805e5bfc8893,60617c7346cd805e5bfc8893,28,sort,filler,D,25,sort15.jpg,sort35.jpg,GoalA,NULL
1687287367,1ab80b66ef1e498fe9fef39fc2fb2370,PennController,31,0,experiment,NULL,PennController,30,_Header_,End,1687287330050,60617c7346cd805e5bfc8893,60617c7346cd805e5bfc8893,28,sort,filler,D,25,sort15.jpg,sort35.jpg,GoalA,NULL
1687287367,1ab80b66ef1e498fe9fef39fc2fb2370,PennController,31,0,experiment,NULL,Video,progression,buffer,0,1687287333611,60617c7346cd805e5bfc8893,60617c7346cd805e5bfc8893,28,sort,filler,D,25,sort15.jpg,sort35.jpg,GoalA,NULL
1687287367,1ab80b66ef1e498fe9fef39fc2fb2370,PennController,31,0,experiment,NULL,Canvas,canvas6,Print,NA,1687287335895,60617c7346cd805e5bfc8893,60617c7346cd805e5bfc8893,28,sort,filler,D,25,sort15.jpg,sort35.jpg,GoalA,NULL
1687287367,1ab80b66ef1e498fe9fef39fc2fb2370,PennController,31,0,experiment,NULL,Selector,choice,Selection,option2,1687287340072,60617c7346cd805e5bfc8893,60617c7346cd805e5bfc8893,28,sort,filler,D,25,sort15.jpg,sort35.jpg,GoalA,option2;option1
1687287367,1ab80b66ef1e498fe9fef39fc2fb2370,PennController,31,0,experiment,NULL,PennController,30,_Trial_,End,1687287340075,60617c7346cd805e5bfc8893,60617c7346cd805e5bfc8893,28,sort,filler,D,25,sort15.jpg,sort35.jpg,GoalA,NULL
1687287367,1ab80b66ef1e498fe9fef39fc2fb2370,PennController,23,0,experiment,NULL,PennController,22,_Trial_,Start,1687287340077,60617c7346cd805e5bfc8893,60617c7346cd805e5bfc8893,20,cat,filler,D,50,cat40.jpg,cat60.jpg,GoalA,NULL
1687287367,1ab80b66ef1e498fe9fef39fc2fb2370,PennController,23,0,experiment,NULL,PennController,22,_Header_,Start,1687287340077,60617c7346cd805e5bfc8893,60617c7346cd805e5bfc8893,20,cat,filler,D,50,cat40.jpg,cat60.jpg,GoalA,NULL
1687287367,1ab80b66ef1e498fe9fef39fc2fb2370,PennController,23,0,experiment,NULL,PennController,22,_Header_,End,1687287340077,60617c7346cd805e5bfc8893,60617c7346cd805e5bfc8893,20,cat,filler,D,50,cat40.jpg,cat60.jpg,GoalA,NULL
1687287367,1ab80b66ef1e498fe9fef39fc2fb2370,PennController,23,0,experiment,NULL,Video,progression,buffer,0,1687287343622,60617c7346cd805e5bfc8893,60617c7346cd805e5bfc8893,20,cat,filler,D,50,cat40.jpg,cat60.jpg,GoalA,NULL
1687287367,1ab80b66ef1e498fe9fef39fc2fb2370,PennController,23,0,experiment,NULL,Canvas,canvas6,Print,NA,1687287346917,60617c7346cd805e5bfc8893,60617c7346cd805e5bfc8893,20,cat,filler,D,50,cat40.jpg,cat60.jpg,GoalA,NULL
1687287367,1ab80b66ef1e498fe9fef39fc2fb2370,PennController,23,0,experiment,NULL,Selector,choice,Selection,option2,1687287348139,60617c7346cd805e5bfc8893,60617c7346cd805e5bfc8893,20,cat,filler,D,50,cat40.jpg,cat60.jpg,GoalA,option1;option2
1687287367,1ab80b66ef1e498fe9fef39fc2fb2370,PennController,23,0,experiment,NULL,PennController,22,_Trial_,End,1687287348141,60617c7346cd805e5bfc8893,60617c7346cd805e5bfc8893,20,cat,filler,D,50,cat40.jpg,cat60.jpg,GoalA,NULL
1687287367,1ab80b66ef1e498fe9fef39fc2fb2370,PennController,28,0,experiment,NULL,PennController,27,_Trial_,Start,1687287348142,60617c7346cd805e5bfc8893,60617c7346cd805e5bfc8893,25,house,filler,D,25,house15.jpg,house35.jpg,GoalB,NULL
1687287367,1ab80b66ef1e498fe9fef39fc2fb2370,PennController,28,0,experiment,NULL,PennController,27,_Header_,Start,1687287348142,60617c7346cd805e5bfc8893,60617c7346cd805e5bfc8893,25,house,filler,D,25,house15.jpg,house35.jpg,GoalB,NULL
1687287367,1ab80b66ef1e498fe9fef39fc2fb2370,PennController,28,0,experiment,NULL,PennController,27,_Header_,End,1687287348142,60617c7346cd805e5bfc8893,60617c7346cd805e5bfc8893,25,house,filler,D,25,house15.jpg,house35.jpg,GoalB,NULL
1687287367,1ab80b66ef1e498fe9fef39fc2fb2370,PennController,28,0,experiment,NULL,Video,progression,buffer,0,1687287351705,60617c7346cd805e5bfc8893,60617c7346cd805e5bfc8893,25,house,filler,D,25,house15.jpg,house35.jpg,GoalB,NULL
1687287367,1ab80b66ef1e498fe9fef39fc2fb2370,PennController,28,0,experiment,NULL,Canvas,canvas6,Print,NA,1687287353978,60617c7346cd805e5bfc8893,60617c7346cd805e5bfc8893,25,house,filler,D,25,house15.jpg,house35.jpg,GoalB,NULL
1687287367,1ab80b66ef1e498fe9fef39fc2fb2370,PennController,28,0,experiment,NULL,Selector,choice,Selection,option2,1687287354855,60617c7346cd805e5bfc8893,60617c7346cd805e5bfc8893,25,house,filler,D,25,house15.jpg,house35.jpg,GoalB,option1;option2
1687287367,1ab80b66ef1e498fe9fef39fc2fb2370,PennController,28,0,experiment,NULL,PennController,27,_Trial_,End,1687287354857,60617c7346cd805e5bfc8893,60617c7346cd805e5bfc8893,25,house,filler,D,25,house15.jpg,house35.jpg,GoalB,NULL
1687287367,1ab80b66ef1e498fe9fef39fc2fb2370,PennController,27,0,experiment,NULL,PennController,26,_Trial_,Start,1687287354859,60617c7346cd805e5bfc8893,60617c7346cd805e5bfc8893,24,match,filler,D,75,match65.jpg,match85.jpg,GoalA,NULL
1687287367,1ab80b66ef1e498fe9fef39fc2fb2370,PennController,27,0,experiment,NULL,PennController,26,_Header_,Start,1687287354859,60617c7346cd805e5bfc8893,60617c7346cd805e5bfc8893,24,match,filler,D,75,match65.jpg,match85.jpg,GoalA,NULL
1687287367,1ab80b66ef1e498fe9fef39fc2fb2370,PennController,27,0,experiment,NULL,PennController,26,_Header_,End,1687287354859,60617c7346cd805e5bfc8893,60617c7346cd805e5bfc8893,24,match,filler,D,75,match65.jpg,match85.jpg,GoalA,NULL
1687287367,1ab80b66ef1e498fe9fef39fc2fb2370,PennController,27,0,experiment,NULL,Video,progression,buffer,0,1687287358413,60617c7346cd805e5bfc8893,60617c7346cd805e5bfc8893,24,match,filler,D,75,match65.jpg,match85.jpg,GoalA,NULL
1687287367,1ab80b66ef1e498fe9fef39fc2fb2370,PennController,27,0,experiment,NULL,Canvas,canvas6,Print,NA,1687287362689,60617c7346cd805e5bfc8893,60617c7346cd805e5bfc8893,24,match,filler,D,75,match65.jpg,match85.jpg,GoalA,NULL
1687287367,1ab80b66ef1e498fe9fef39fc2fb2370,PennController,27,0,experiment,NULL,Selector,choice,Selection,option2,1687287364463,60617c7346cd805e5bfc8893,60617c7346cd805e5bfc8893,24,match,filler,D,75,match65.jpg,match85.jpg,GoalA,option2;option1
1687287367,1ab80b66ef1e498fe9fef39fc2fb2370,PennController,27,0,experiment,NULL,PennController,26,_Trial_,End,1687287364465,60617c7346cd805e5bfc8893,60617c7346cd805e5bfc8893,24,match,filler,D,75,match65.jpg,match85.jpg,GoalA,NULL
