#
# Results on Wednesday June 21 2023 19:56:36 UTC
# USER AGENT: Mozilla/5.0 (Windows NT 10.0; Win64; x64) AppleWebKit/537.36 (KHTML, like Gecko) Chrome/114.0.0.0 Safari/537.36
# Design number was non-random = 67
#
# Columns below this comment are as follows:
# 1. Results reception time.
# 2. MD5 hash of participant's IP address.
# 3. Controller name.
# 4. Order number of item.
# 5. Inner element number.
# 6. Label.
# 7. Latin Square Group.
# 8. PennElementType.
# 9. PennElementName.
# 10. Parameter.
# 11. Value.
# 12. EventTime.
# 13. PROLIFIC_ID.
# 14. Comments.
1687377396,e9c6af53851dd84f92e08800e6161981,PennController,3,0,consent,NULL,PennController,0,_Trial_,Start,1687377111999,644990bf7ab5ad7c33445b71,NULL
1687377396,e9c6af53851dd84f92e08800e6161981,PennController,3,0,consent,NULL,PennController,0,_Header_,Start,1687377111999,644990bf7ab5ad7c33445b71,NULL
1687377396,e9c6af53851dd84f92e08800e6161981,PennController,3,0,consent,NULL,PennController,0,_Header_,End,1687377112000,644990bf7ab5ad7c33445b71,NULL
1687377396,e9c6af53851dd84f92e08800e6161981,PennController,3,0,consent,NULL,PennController,0,_Trial_,End,1687377113647,644990bf7ab5ad7c33445b71,NULL
# Columns below this comment are as follows:
# 14. ID.
# 15. Comments.
1687377396,e9c6af53851dd84f92e08800e6161981,PennController,4,0,intro,NULL,PennController,1,_Trial_,Start,1687377113648,644990bf7ab5ad7c33445b71,644990bf7ab5ad7c33445b71,NULL
1687377396,e9c6af53851dd84f92e08800e6161981,PennController,4,0,intro,NULL,PennController,1,_Header_,Start,1687377113648,644990bf7ab5ad7c33445b71,644990bf7ab5ad7c33445b71,NULL
1687377396,e9c6af53851dd84f92e08800e6161981,PennController,4,0,intro,NULL,PennController,1,_Header_,End,1687377113648,644990bf7ab5ad7c33445b71,644990bf7ab5ad7c33445b71,NULL
1687377396,e9c6af53851dd84f92e08800e6161981,PennController,4,0,intro,NULL,PennController,1,_Trial_,End,1687377125298,644990bf7ab5ad7c33445b71,644990bf7ab5ad7c33445b71,NULL
# Columns below this comment are as follows:
# 15. item_number.
# 16. item.
# 17. type.
# 18. Group.
# 19. prog.
# 20. prev_image.
# 21. next_image.
# 22. height.
# 23. Comments.
1687377396,e9c6af53851dd84f92e08800e6161981,PennController,18,0,experiment,NULL,PennController,16,_Trial_,Start,1687377125299,644990bf7ab5ad7c33445b71,644990bf7ab5ad7c33445b71,14,cover,critical,F,25,cover15.jpg,cover33.jpg,high,NULL
1687377396,e9c6af53851dd84f92e08800e6161981,PennController,18,0,experiment,NULL,PennController,16,_Header_,Start,1687377125299,644990bf7ab5ad7c33445b71,644990bf7ab5ad7c33445b71,14,cover,critical,F,25,cover15.jpg,cover33.jpg,high,NULL
1687377396,e9c6af53851dd84f92e08800e6161981,PennController,18,0,experiment,NULL,PennController,16,_Header_,End,1687377125299,644990bf7ab5ad7c33445b71,644990bf7ab5ad7c33445b71,14,cover,critical,F,25,cover15.jpg,cover33.jpg,high,NULL
1687377396,e9c6af53851dd84f92e08800e6161981,PennController,18,0,experiment,NULL,Canvas,canvas6,Print,NA,1687377131612,644990bf7ab5ad7c33445b71,644990bf7ab5ad7c33445b71,14,cover,critical,F,25,cover15.jpg,cover33.jpg,high,NULL
1687377396,e9c6af53851dd84f92e08800e6161981,PennController,18,0,experiment,NULL,Video,progression,buffer,0.002008,1687377128826,644990bf7ab5ad7c33445b71,644990bf7ab5ad7c33445b71,14,cover,critical,F,25,cover15.jpg,cover33.jpg,high,NULL
1687377396,e9c6af53851dd84f92e08800e6161981,PennController,18,0,experiment,NULL,Selector,choice,Selection,option2,1687377134107,644990bf7ab5ad7c33445b71,644990bf7ab5ad7c33445b71,14,cover,critical,F,25,cover15.jpg,cover33.jpg,high,option1;option2
1687377396,e9c6af53851dd84f92e08800e6161981,PennController,18,0,experiment,NULL,PennController,16,_Trial_,End,1687377134108,644990bf7ab5ad7c33445b71,644990bf7ab5ad7c33445b71,14,cover,critical,F,25,cover15.jpg,cover33.jpg,high,NULL
1687377396,e9c6af53851dd84f92e08800e6161981,PennController,33,0,experiment,NULL,PennController,31,_Trial_,Start,1687377134109,644990bf7ab5ad7c33445b71,644990bf7ab5ad7c33445b71,29,frog,filler,F,25,frog15.jpg,frog35.jpg,GoalB,NULL
1687377396,e9c6af53851dd84f92e08800e6161981,PennController,33,0,experiment,NULL,PennController,31,_Header_,Start,1687377134109,644990bf7ab5ad7c33445b71,644990bf7ab5ad7c33445b71,29,frog,filler,F,25,frog15.jpg,frog35.jpg,GoalB,NULL
1687377396,e9c6af53851dd84f92e08800e6161981,PennController,33,0,experiment,NULL,PennController,31,_Header_,End,1687377134109,644990bf7ab5ad7c33445b71,644990bf7ab5ad7c33445b71,29,frog,filler,F,25,frog15.jpg,frog35.jpg,GoalB,NULL
1687377396,e9c6af53851dd84f92e08800e6161981,PennController,33,0,experiment,NULL,Canvas,canvas6,Print,NA,1687377139830,644990bf7ab5ad7c33445b71,644990bf7ab5ad7c33445b71,29,frog,filler,F,25,frog15.jpg,frog35.jpg,GoalB,NULL
1687377396,e9c6af53851dd84f92e08800e6161981,PennController,33,0,experiment,NULL,Video,progression,buffer,0.004865,1687377137633,644990bf7ab5ad7c33445b71,644990bf7ab5ad7c33445b71,29,frog,filler,F,25,frog15.jpg,frog35.jpg,GoalB,NULL
1687377396,e9c6af53851dd84f92e08800e6161981,PennController,33,0,experiment,NULL,Selector,choice,Selection,option2,1687377141046,644990bf7ab5ad7c33445b71,644990bf7ab5ad7c33445b71,29,frog,filler,F,25,frog15.jpg,frog35.jpg,GoalB,option1;option2
1687377396,e9c6af53851dd84f92e08800e6161981,PennController,33,0,experiment,NULL,PennController,31,_Trial_,End,1687377141046,644990bf7ab5ad7c33445b71,644990bf7ab5ad7c33445b71,29,frog,filler,F,25,frog15.jpg,frog35.jpg,GoalB,NULL
1687377396,e9c6af53851dd84f92e08800e6161981,PennController,16,0,experiment,NULL,PennController,14,_Trial_,Start,1687377141047,644990bf7ab5ad7c33445b71,644990bf7ab5ad7c33445b71,12,erase,critical,F,50,erase42.jpg,erase60.jpg,high,NULL
1687377396,e9c6af53851dd84f92e08800e6161981,PennController,16,0,experiment,NULL,PennController,14,_Header_,Start,1687377141047,644990bf7ab5ad7c33445b71,644990bf7ab5ad7c33445b71,12,erase,critical,F,50,erase42.jpg,erase60.jpg,high,NULL
1687377396,e9c6af53851dd84f92e08800e6161981,PennController,16,0,experiment,NULL,PennController,14,_Header_,End,1687377141047,644990bf7ab5ad7c33445b71,644990bf7ab5ad7c33445b71,12,erase,critical,F,50,erase42.jpg,erase60.jpg,high,NULL
1687377396,e9c6af53851dd84f92e08800e6161981,PennController,16,0,experiment,NULL,Canvas,canvas6,Print,NA,1687377149169,644990bf7ab5ad7c33445b71,644990bf7ab5ad7c33445b71,12,erase,critical,F,50,erase42.jpg,erase60.jpg,high,NULL
1687377396,e9c6af53851dd84f92e08800e6161981,PennController,16,0,experiment,NULL,Video,progression,buffer,0.002406,1687377144568,644990bf7ab5ad7c33445b71,644990bf7ab5ad7c33445b71,12,erase,critical,F,50,erase42.jpg,erase60.jpg,high,NULL
1687377396,e9c6af53851dd84f92e08800e6161981,PennController,16,0,experiment,NULL,Selector,choice,Selection,option2,1687377150581,644990bf7ab5ad7c33445b71,644990bf7ab5ad7c33445b71,12,erase,critical,F,50,erase42.jpg,erase60.jpg,high,option1;option2
1687377396,e9c6af53851dd84f92e08800e6161981,PennController,16,0,experiment,NULL,PennController,14,_Trial_,End,1687377150582,644990bf7ab5ad7c33445b71,644990bf7ab5ad7c33445b71,12,erase,critical,F,50,erase42.jpg,erase60.jpg,high,NULL
1687377396,e9c6af53851dd84f92e08800e6161981,PennController,21,0,experiment,NULL,PennController,19,_Trial_,Start,1687377150583,644990bf7ab5ad7c33445b71,644990bf7ab5ad7c33445b71,17,roll,critical,F,25,roll15.jpg,roll35.jpg,high,NULL
1687377396,e9c6af53851dd84f92e08800e6161981,PennController,21,0,experiment,NULL,PennController,19,_Header_,Start,1687377150583,644990bf7ab5ad7c33445b71,644990bf7ab5ad7c33445b71,17,roll,critical,F,25,roll15.jpg,roll35.jpg,high,NULL
1687377396,e9c6af53851dd84f92e08800e6161981,PennController,21,0,experiment,NULL,PennController,19,_Header_,End,1687377150583,644990bf7ab5ad7c33445b71,644990bf7ab5ad7c33445b71,17,roll,critical,F,25,roll15.jpg,roll35.jpg,high,NULL
1687377396,e9c6af53851dd84f92e08800e6161981,PennController,21,0,experiment,NULL,Canvas,canvas6,Print,NA,1687377156321,644990bf7ab5ad7c33445b71,644990bf7ab5ad7c33445b71,17,roll,critical,F,25,roll15.jpg,roll35.jpg,high,NULL
1687377396,e9c6af53851dd84f92e08800e6161981,PennController,21,0,experiment,NULL,Video,progression,buffer,0.00753,1687377154126,644990bf7ab5ad7c33445b71,644990bf7ab5ad7c33445b71,17,roll,critical,F,25,roll15.jpg,roll35.jpg,high,NULL
1687377396,e9c6af53851dd84f92e08800e6161981,PennController,21,0,experiment,NULL,Selector,choice,Selection,option1,1687377164839,644990bf7ab5ad7c33445b71,644990bf7ab5ad7c33445b71,17,roll,critical,F,25,roll15.jpg,roll35.jpg,high,option1;option2
1687377396,e9c6af53851dd84f92e08800e6161981,PennController,21,0,experiment,NULL,PennController,19,_Trial_,End,1687377164840,644990bf7ab5ad7c33445b71,644990bf7ab5ad7c33445b71,17,roll,critical,F,25,roll15.jpg,roll35.jpg,high,NULL
1687377396,e9c6af53851dd84f92e08800e6161981,PennController,13,0,experiment,NULL,PennController,11,_Trial_,Start,1687377164841,644990bf7ab5ad7c33445b71,644990bf7ab5ad7c33445b71,9,cake,critical,F,50,cake42.jpg,cake60.jpg,high,NULL
1687377396,e9c6af53851dd84f92e08800e6161981,PennController,13,0,experiment,NULL,PennController,11,_Header_,Start,1687377164841,644990bf7ab5ad7c33445b71,644990bf7ab5ad7c33445b71,9,cake,critical,F,50,cake42.jpg,cake60.jpg,high,NULL
1687377396,e9c6af53851dd84f92e08800e6161981,PennController,13,0,experiment,NULL,PennController,11,_Header_,End,1687377164841,644990bf7ab5ad7c33445b71,644990bf7ab5ad7c33445b71,9,cake,critical,F,50,cake42.jpg,cake60.jpg,high,NULL
1687377396,e9c6af53851dd84f92e08800e6161981,PennController,13,0,experiment,NULL,Canvas,canvas6,Print,NA,1687377172974,644990bf7ab5ad7c33445b71,644990bf7ab5ad7c33445b71,9,cake,critical,F,50,cake42.jpg,cake60.jpg,high,NULL
1687377396,e9c6af53851dd84f92e08800e6161981,PennController,13,0,experiment,NULL,Video,progression,buffer,0.006808,1687377168388,644990bf7ab5ad7c33445b71,644990bf7ab5ad7c33445b71,9,cake,critical,F,50,cake42.jpg,cake60.jpg,high,NULL
1687377396,e9c6af53851dd84f92e08800e6161981,PennController,13,0,experiment,NULL,Selector,choice,Selection,option2,1687377175070,644990bf7ab5ad7c33445b71,644990bf7ab5ad7c33445b71,9,cake,critical,F,50,cake42.jpg,cake60.jpg,high,option2;option1
1687377396,e9c6af53851dd84f92e08800e6161981,PennController,13,0,experiment,NULL,PennController,11,_Trial_,End,1687377175071,644990bf7ab5ad7c33445b71,644990bf7ab5ad7c33445b71,9,cake,critical,F,50,cake42.jpg,cake60.jpg,high,NULL
1687377396,e9c6af53851dd84f92e08800e6161981,PennController,25,0,experiment,NULL,PennController,23,_Trial_,Start,1687377175071,644990bf7ab5ad7c33445b71,644990bf7ab5ad7c33445b71,21,visit,filler,F,50,visit40.jpg,visit60.jpg,GoalB,NULL
1687377396,e9c6af53851dd84f92e08800e6161981,PennController,25,0,experiment,NULL,PennController,23,_Header_,Start,1687377175071,644990bf7ab5ad7c33445b71,644990bf7ab5ad7c33445b71,21,visit,filler,F,50,visit40.jpg,visit60.jpg,GoalB,NULL
1687377396,e9c6af53851dd84f92e08800e6161981,PennController,25,0,experiment,NULL,PennController,23,_Header_,End,1687377175071,644990bf7ab5ad7c33445b71,644990bf7ab5ad7c33445b71,21,visit,filler,F,50,visit40.jpg,visit60.jpg,GoalB,NULL
1687377396,e9c6af53851dd84f92e08800e6161981,PennController,25,0,experiment,NULL,Canvas,canvas6,Print,NA,1687377181775,644990bf7ab5ad7c33445b71,644990bf7ab5ad7c33445b71,21,visit,filler,F,50,visit40.jpg,visit60.jpg,GoalB,NULL
1687377396,e9c6af53851dd84f92e08800e6161981,PennController,25,0,experiment,NULL,Video,progression,buffer,0.00205,1687377178585,644990bf7ab5ad7c33445b71,644990bf7ab5ad7c33445b71,21,visit,filler,F,50,visit40.jpg,visit60.jpg,GoalB,NULL
1687377396,e9c6af53851dd84f92e08800e6161981,PennController,25,0,experiment,NULL,Selector,choice,Selection,option2,1687377185731,644990bf7ab5ad7c33445b71,644990bf7ab5ad7c33445b71,21,visit,filler,F,50,visit40.jpg,visit60.jpg,GoalB,option1;option2
1687377396,e9c6af53851dd84f92e08800e6161981,PennController,25,0,experiment,NULL,PennController,23,_Trial_,End,1687377185732,644990bf7ab5ad7c33445b71,644990bf7ab5ad7c33445b71,21,visit,filler,F,50,visit40.jpg,visit60.jpg,GoalB,NULL
1687377396,e9c6af53851dd84f92e08800e6161981,PennController,24,0,experiment,NULL,PennController,22,_Trial_,Start,1687377185733,644990bf7ab5ad7c33445b71,644990bf7ab5ad7c33445b71,20,cat,filler,F,25,cat15.jpg,cat35.jpg,GoalA,NULL
1687377396,e9c6af53851dd84f92e08800e6161981,PennController,24,0,experiment,NULL,PennController,22,_Header_,Start,1687377185733,644990bf7ab5ad7c33445b71,644990bf7ab5ad7c33445b71,20,cat,filler,F,25,cat15.jpg,cat35.jpg,GoalA,NULL
1687377396,e9c6af53851dd84f92e08800e6161981,PennController,24,0,experiment,NULL,PennController,22,_Header_,End,1687377185733,644990bf7ab5ad7c33445b71,644990bf7ab5ad7c33445b71,20,cat,filler,F,25,cat15.jpg,cat35.jpg,GoalA,NULL
1687377396,e9c6af53851dd84f92e08800e6161981,PennController,24,0,experiment,NULL,Canvas,canvas6,Print,NA,1687377191459,644990bf7ab5ad7c33445b71,644990bf7ab5ad7c33445b71,20,cat,filler,F,25,cat15.jpg,cat35.jpg,GoalA,NULL
1687377396,e9c6af53851dd84f92e08800e6161981,PennController,24,0,experiment,NULL,Video,progression,buffer,0.003629,1687377189251,644990bf7ab5ad7c33445b71,644990bf7ab5ad7c33445b71,20,cat,filler,F,25,cat15.jpg,cat35.jpg,GoalA,NULL
1687377396,e9c6af53851dd84f92e08800e6161981,PennController,24,0,experiment,NULL,Selector,choice,Selection,option2,1687377193154,644990bf7ab5ad7c33445b71,644990bf7ab5ad7c33445b71,20,cat,filler,F,25,cat15.jpg,cat35.jpg,GoalA,option1;option2
1687377396,e9c6af53851dd84f92e08800e6161981,PennController,24,0,experiment,NULL,PennController,22,_Trial_,End,1687377193155,644990bf7ab5ad7c33445b71,644990bf7ab5ad7c33445b71,20,cat,filler,F,25,cat15.jpg,cat35.jpg,GoalA,NULL
1687377396,e9c6af53851dd84f92e08800e6161981,PennController,29,0,experiment,NULL,PennController,27,_Trial_,Start,1687377193155,644990bf7ab5ad7c33445b71,644990bf7ab5ad7c33445b71,25,house,filler,F,75,house65.jpg,house85.jpg,GoalB,NULL
1687377396,e9c6af53851dd84f92e08800e6161981,PennController,29,0,experiment,NULL,PennController,27,_Header_,Start,1687377193155,644990bf7ab5ad7c33445b71,644990bf7ab5ad7c33445b71,25,house,filler,F,75,house65.jpg,house85.jpg,GoalB,NULL
1687377396,e9c6af53851dd84f92e08800e6161981,PennController,29,0,experiment,NULL,PennController,27,_Header_,End,1687377193155,644990bf7ab5ad7c33445b71,644990bf7ab5ad7c33445b71,25,house,filler,F,75,house65.jpg,house85.jpg,GoalB,NULL
1687377396,e9c6af53851dd84f92e08800e6161981,PennController,29,0,experiment,NULL,Canvas,canvas6,Print,NA,1687377200888,644990bf7ab5ad7c33445b71,644990bf7ab5ad7c33445b71,25,house,filler,F,75,house65.jpg,house85.jpg,GoalB,NULL
1687377396,e9c6af53851dd84f92e08800e6161981,PennController,29,0,experiment,NULL,Video,progression,buffer,0.006895,1687377196687,644990bf7ab5ad7c33445b71,644990bf7ab5ad7c33445b71,25,house,filler,F,75,house65.jpg,house85.jpg,GoalB,NULL
1687377396,e9c6af53851dd84f92e08800e6161981,PennController,29,0,experiment,NULL,Selector,choice,Selection,option1,1687377203388,644990bf7ab5ad7c33445b71,644990bf7ab5ad7c33445b71,25,house,filler,F,75,house65.jpg,house85.jpg,GoalB,option2;option1
1687377396,e9c6af53851dd84f92e08800e6161981,PennController,29,0,experiment,NULL,PennController,27,_Trial_,End,1687377203389,644990bf7ab5ad7c33445b71,644990bf7ab5ad7c33445b71,25,house,filler,F,75,house65.jpg,house85.jpg,GoalB,NULL
1687377396,e9c6af53851dd84f92e08800e6161981,PennController,11,0,experiment,NULL,PennController,9,_Trial_,Start,1687377203389,644990bf7ab5ad7c33445b71,644990bf7ab5ad7c33445b71,7,stack,critical,F,75,stack65.jpg,stack85.jpg,high,NULL
1687377396,e9c6af53851dd84f92e08800e6161981,PennController,11,0,experiment,NULL,PennController,9,_Header_,Start,1687377203389,644990bf7ab5ad7c33445b71,644990bf7ab5ad7c33445b71,7,stack,critical,F,75,stack65.jpg,stack85.jpg,high,NULL
1687377396,e9c6af53851dd84f92e08800e6161981,PennController,11,0,experiment,NULL,PennController,9,_Header_,End,1687377203390,644990bf7ab5ad7c33445b71,644990bf7ab5ad7c33445b71,7,stack,critical,F,75,stack65.jpg,stack85.jpg,high,NULL
1687377396,e9c6af53851dd84f92e08800e6161981,PennController,11,0,experiment,NULL,Canvas,canvas6,Print,NA,1687377211122,644990bf7ab5ad7c33445b71,644990bf7ab5ad7c33445b71,7,stack,critical,F,75,stack65.jpg,stack85.jpg,high,NULL
1687377396,e9c6af53851dd84f92e08800e6161981,PennController,11,0,experiment,NULL,Video,progression,buffer,0.006166,1687377206916,644990bf7ab5ad7c33445b71,644990bf7ab5ad7c33445b71,7,stack,critical,F,75,stack65.jpg,stack85.jpg,high,NULL
1687377396,e9c6af53851dd84f92e08800e6161981,PennController,11,0,experiment,NULL,Selector,choice,Selection,option2,1687377213222,644990bf7ab5ad7c33445b71,644990bf7ab5ad7c33445b71,7,stack,critical,F,75,stack65.jpg,stack85.jpg,high,option2;option1
1687377396,e9c6af53851dd84f92e08800e6161981,PennController,11,0,experiment,NULL,PennController,9,_Trial_,End,1687377213222,644990bf7ab5ad7c33445b71,644990bf7ab5ad7c33445b71,7,stack,critical,F,75,stack65.jpg,stack85.jpg,high,NULL
1687377396,e9c6af53851dd84f92e08800e6161981,PennController,9,0,experiment,NULL,PennController,7,_Trial_,Start,1687377213223,644990bf7ab5ad7c33445b71,644990bf7ab5ad7c33445b71,5,book,critical,F,25,book15.jpg,book35.jpg,high,NULL
1687377396,e9c6af53851dd84f92e08800e6161981,PennController,9,0,experiment,NULL,PennController,7,_Header_,Start,1687377213223,644990bf7ab5ad7c33445b71,644990bf7ab5ad7c33445b71,5,book,critical,F,25,book15.jpg,book35.jpg,high,NULL
1687377396,e9c6af53851dd84f92e08800e6161981,PennController,9,0,experiment,NULL,PennController,7,_Header_,End,1687377213223,644990bf7ab5ad7c33445b71,644990bf7ab5ad7c33445b71,5,book,critical,F,25,book15.jpg,book35.jpg,high,NULL
1687377396,e9c6af53851dd84f92e08800e6161981,PennController,9,0,experiment,NULL,Canvas,canvas6,Print,NA,1687377218967,644990bf7ab5ad7c33445b71,644990bf7ab5ad7c33445b71,5,book,critical,F,25,book15.jpg,book35.jpg,high,NULL
1687377396,e9c6af53851dd84f92e08800e6161981,PennController,9,0,experiment,NULL,Video,progression,buffer,0.005461,1687377216757,644990bf7ab5ad7c33445b71,644990bf7ab5ad7c33445b71,5,book,critical,F,25,book15.jpg,book35.jpg,high,NULL
1687377396,e9c6af53851dd84f92e08800e6161981,PennController,9,0,experiment,NULL,Selector,choice,Selection,option1,1687377223030,644990bf7ab5ad7c33445b71,644990bf7ab5ad7c33445b71,5,book,critical,F,25,book15.jpg,book35.jpg,high,option2;option1
1687377396,e9c6af53851dd84f92e08800e6161981,PennController,9,0,experiment,NULL,PennController,7,_Trial_,End,1687377223031,644990bf7ab5ad7c33445b71,644990bf7ab5ad7c33445b71,5,book,critical,F,25,book15.jpg,book35.jpg,high,NULL
1687377396,e9c6af53851dd84f92e08800e6161981,PennController,19,0,experiment,NULL,PennController,17,_Trial_,Start,1687377223031,644990bf7ab5ad7c33445b71,644990bf7ab5ad7c33445b71,15,zip,critical,F,50,zip40.jpg,zip60.jpg,high,NULL
1687377396,e9c6af53851dd84f92e08800e6161981,PennController,19,0,experiment,NULL,PennController,17,_Header_,Start,1687377223031,644990bf7ab5ad7c33445b71,644990bf7ab5ad7c33445b71,15,zip,critical,F,50,zip40.jpg,zip60.jpg,high,NULL
1687377396,e9c6af53851dd84f92e08800e6161981,PennController,19,0,experiment,NULL,PennController,17,_Header_,End,1687377223031,644990bf7ab5ad7c33445b71,644990bf7ab5ad7c33445b71,15,zip,critical,F,50,zip40.jpg,zip60.jpg,high,NULL
1687377396,e9c6af53851dd84f92e08800e6161981,PennController,19,0,experiment,NULL,Canvas,canvas6,Print,NA,1687377229760,644990bf7ab5ad7c33445b71,644990bf7ab5ad7c33445b71,15,zip,critical,F,50,zip40.jpg,zip60.jpg,high,NULL
1687377396,e9c6af53851dd84f92e08800e6161981,PennController,19,0,experiment,NULL,Video,progression,buffer,0.00361,1687377226562,644990bf7ab5ad7c33445b71,644990bf7ab5ad7c33445b71,15,zip,critical,F,50,zip40.jpg,zip60.jpg,high,NULL
1687377396,e9c6af53851dd84f92e08800e6161981,PennController,19,0,experiment,NULL,Selector,choice,Selection,option2,1687377232696,644990bf7ab5ad7c33445b71,644990bf7ab5ad7c33445b71,15,zip,critical,F,50,zip40.jpg,zip60.jpg,high,option1;option2
1687377396,e9c6af53851dd84f92e08800e6161981,PennController,19,0,experiment,NULL,PennController,17,_Trial_,End,1687377232696,644990bf7ab5ad7c33445b71,644990bf7ab5ad7c33445b71,15,zip,critical,F,50,zip40.jpg,zip60.jpg,high,NULL
1687377396,e9c6af53851dd84f92e08800e6161981,PennController,31,0,experiment,NULL,PennController,29,_Trial_,Start,1687377232697,644990bf7ab5ad7c33445b71,644990bf7ab5ad7c33445b71,27,square,filler,F,50,square40.jpg,square60.jpg,GoalB,NULL
1687377396,e9c6af53851dd84f92e08800e6161981,PennController,31,0,experiment,NULL,PennController,29,_Header_,Start,1687377232697,644990bf7ab5ad7c33445b71,644990bf7ab5ad7c33445b71,27,square,filler,F,50,square40.jpg,square60.jpg,GoalB,NULL
1687377396,e9c6af53851dd84f92e08800e6161981,PennController,31,0,experiment,NULL,PennController,29,_Header_,End,1687377232697,644990bf7ab5ad7c33445b71,644990bf7ab5ad7c33445b71,27,square,filler,F,50,square40.jpg,square60.jpg,GoalB,NULL
1687377396,e9c6af53851dd84f92e08800e6161981,PennController,31,0,experiment,NULL,Canvas,canvas6,Print,NA,1687377239416,644990bf7ab5ad7c33445b71,644990bf7ab5ad7c33445b71,27,square,filler,F,50,square40.jpg,square60.jpg,GoalB,NULL
1687377396,e9c6af53851dd84f92e08800e6161981,PennController,31,0,experiment,NULL,Video,progression,buffer,0.002522,1687377236215,644990bf7ab5ad7c33445b71,644990bf7ab5ad7c33445b71,27,square,filler,F,50,square40.jpg,square60.jpg,GoalB,NULL
1687377396,e9c6af53851dd84f92e08800e6161981,PennController,31,0,experiment,NULL,Selector,choice,Selection,option1,1687377240419,644990bf7ab5ad7c33445b71,644990bf7ab5ad7c33445b71,27,square,filler,F,50,square40.jpg,square60.jpg,GoalB,option2;option1
1687377396,e9c6af53851dd84f92e08800e6161981,PennController,31,0,experiment,NULL,PennController,29,_Trial_,End,1687377240419,644990bf7ab5ad7c33445b71,644990bf7ab5ad7c33445b71,27,square,filler,F,50,square40.jpg,square60.jpg,GoalB,NULL
1687377396,e9c6af53851dd84f92e08800e6161981,PennController,22,0,experiment,NULL,PennController,20,_Trial_,Start,1687377240420,644990bf7ab5ad7c33445b71,644990bf7ab5ad7c33445b71,18,ball,critical,F,50,ball40.jpg,ball60.jpg,high,NULL
1687377396,e9c6af53851dd84f92e08800e6161981,PennController,22,0,experiment,NULL,PennController,20,_Header_,Start,1687377240420,644990bf7ab5ad7c33445b71,644990bf7ab5ad7c33445b71,18,ball,critical,F,50,ball40.jpg,ball60.jpg,high,NULL
1687377396,e9c6af53851dd84f92e08800e6161981,PennController,22,0,experiment,NULL,PennController,20,_Header_,End,1687377240420,644990bf7ab5ad7c33445b71,644990bf7ab5ad7c33445b71,18,ball,critical,F,50,ball40.jpg,ball60.jpg,high,NULL
1687377396,e9c6af53851dd84f92e08800e6161981,PennController,22,0,experiment,NULL,Canvas,canvas6,Print,NA,1687377247153,644990bf7ab5ad7c33445b71,644990bf7ab5ad7c33445b71,18,ball,critical,F,50,ball40.jpg,ball60.jpg,high,NULL
1687377396,e9c6af53851dd84f92e08800e6161981,PennController,22,0,experiment,NULL,Video,progression,buffer,0.005216,1687377243946,644990bf7ab5ad7c33445b71,644990bf7ab5ad7c33445b71,18,ball,critical,F,50,ball40.jpg,ball60.jpg,high,NULL
1687377396,e9c6af53851dd84f92e08800e6161981,PennController,22,0,experiment,NULL,Selector,choice,Selection,option1,1687377248979,644990bf7ab5ad7c33445b71,644990bf7ab5ad7c33445b71,18,ball,critical,F,50,ball40.jpg,ball60.jpg,high,option2;option1
1687377396,e9c6af53851dd84f92e08800e6161981,PennController,22,0,experiment,NULL,PennController,20,_Trial_,End,1687377248979,644990bf7ab5ad7c33445b71,644990bf7ab5ad7c33445b71,18,ball,critical,F,50,ball40.jpg,ball60.jpg,high,NULL
1687377396,e9c6af53851dd84f92e08800e6161981,PennController,28,0,experiment,NULL,PennController,26,_Trial_,Start,1687377248980,644990bf7ab5ad7c33445b71,644990bf7ab5ad7c33445b71,24,match,filler,F,50,match40.jpg,match60.jpg,GoalA,NULL
1687377396,e9c6af53851dd84f92e08800e6161981,PennController,28,0,experiment,NULL,PennController,26,_Header_,Start,1687377248980,644990bf7ab5ad7c33445b71,644990bf7ab5ad7c33445b71,24,match,filler,F,50,match40.jpg,match60.jpg,GoalA,NULL
1687377396,e9c6af53851dd84f92e08800e6161981,PennController,28,0,experiment,NULL,PennController,26,_Header_,End,1687377248980,644990bf7ab5ad7c33445b71,644990bf7ab5ad7c33445b71,24,match,filler,F,50,match40.jpg,match60.jpg,GoalA,NULL
1687377396,e9c6af53851dd84f92e08800e6161981,PennController,28,0,experiment,NULL,Canvas,canvas6,Print,NA,1687377255712,644990bf7ab5ad7c33445b71,644990bf7ab5ad7c33445b71,24,match,filler,F,50,match40.jpg,match60.jpg,GoalA,NULL
1687377396,e9c6af53851dd84f92e08800e6161981,PennController,28,0,experiment,NULL,Video,progression,buffer,0.005519,1687377252516,644990bf7ab5ad7c33445b71,644990bf7ab5ad7c33445b71,24,match,filler,F,50,match40.jpg,match60.jpg,GoalA,NULL
1687377396,e9c6af53851dd84f92e08800e6161981,PennController,28,0,experiment,NULL,Selector,choice,Selection,option2,1687377258102,644990bf7ab5ad7c33445b71,644990bf7ab5ad7c33445b71,24,match,filler,F,50,match40.jpg,match60.jpg,GoalA,option2;option1
1687377396,e9c6af53851dd84f92e08800e6161981,PennController,28,0,experiment,NULL,PennController,26,_Trial_,End,1687377258102,644990bf7ab5ad7c33445b71,644990bf7ab5ad7c33445b71,24,match,filler,F,50,match40.jpg,match60.jpg,GoalA,NULL
1687377396,e9c6af53851dd84f92e08800e6161981,PennController,26,0,experiment,NULL,PennController,24,_Trial_,Start,1687377258103,644990bf7ab5ad7c33445b71,644990bf7ab5ad7c33445b71,22,wall,filler,F,75,wall65.jpg,wall85.jpg,GoalA,NULL
1687377396,e9c6af53851dd84f92e08800e6161981,PennController,26,0,experiment,NULL,PennController,24,_Header_,Start,1687377258103,644990bf7ab5ad7c33445b71,644990bf7ab5ad7c33445b71,22,wall,filler,F,75,wall65.jpg,wall85.jpg,GoalA,NULL
1687377396,e9c6af53851dd84f92e08800e6161981,PennController,26,0,experiment,NULL,PennController,24,_Header_,End,1687377258103,644990bf7ab5ad7c33445b71,644990bf7ab5ad7c33445b71,22,wall,filler,F,75,wall65.jpg,wall85.jpg,GoalA,NULL
1687377396,e9c6af53851dd84f92e08800e6161981,PennController,26,0,experiment,NULL,Canvas,canvas6,Print,NA,1687377265810,644990bf7ab5ad7c33445b71,644990bf7ab5ad7c33445b71,22,wall,filler,F,75,wall65.jpg,wall85.jpg,GoalA,NULL
1687377396,e9c6af53851dd84f92e08800e6161981,PennController,26,0,experiment,NULL,Video,progression,buffer,0.001715,1687377261616,644990bf7ab5ad7c33445b71,644990bf7ab5ad7c33445b71,22,wall,filler,F,75,wall65.jpg,wall85.jpg,GoalA,NULL
1687377396,e9c6af53851dd84f92e08800e6161981,PennController,26,0,experiment,NULL,Selector,choice,Selection,option2,1687377267420,644990bf7ab5ad7c33445b71,644990bf7ab5ad7c33445b71,22,wall,filler,F,75,wall65.jpg,wall85.jpg,GoalA,option2;option1
1687377396,e9c6af53851dd84f92e08800e6161981,PennController,26,0,experiment,NULL,PennController,24,_Trial_,End,1687377267420,644990bf7ab5ad7c33445b71,644990bf7ab5ad7c33445b71,22,wall,filler,F,75,wall65.jpg,wall85.jpg,GoalA,NULL
1687377396,e9c6af53851dd84f92e08800e6161981,PennController,10,0,experiment,NULL,PennController,8,_Trial_,Start,1687377267421,644990bf7ab5ad7c33445b71,644990bf7ab5ad7c33445b71,6,flower,critical,F,50,flower40.jpg,flower60.jpg,high,NULL
1687377396,e9c6af53851dd84f92e08800e6161981,PennController,10,0,experiment,NULL,PennController,8,_Header_,Start,1687377267421,644990bf7ab5ad7c33445b71,644990bf7ab5ad7c33445b71,6,flower,critical,F,50,flower40.jpg,flower60.jpg,high,NULL
1687377396,e9c6af53851dd84f92e08800e6161981,PennController,10,0,experiment,NULL,PennController,8,_Header_,End,1687377267421,644990bf7ab5ad7c33445b71,644990bf7ab5ad7c33445b71,6,flower,critical,F,50,flower40.jpg,flower60.jpg,high,NULL
1687377396,e9c6af53851dd84f92e08800e6161981,PennController,10,0,experiment,NULL,Canvas,canvas6,Print,NA,1687377274145,644990bf7ab5ad7c33445b71,644990bf7ab5ad7c33445b71,6,flower,critical,F,50,flower40.jpg,flower60.jpg,high,NULL
1687377396,e9c6af53851dd84f92e08800e6161981,PennController,10,0,experiment,NULL,Video,progression,buffer,0.001412,1687377270939,644990bf7ab5ad7c33445b71,644990bf7ab5ad7c33445b71,6,flower,critical,F,50,flower40.jpg,flower60.jpg,high,NULL
1687377396,e9c6af53851dd84f92e08800e6161981,PennController,10,0,experiment,NULL,Selector,choice,Selection,option1,1687377275471,644990bf7ab5ad7c33445b71,644990bf7ab5ad7c33445b71,6,flower,critical,F,50,flower40.jpg,flower60.jpg,high,option1;option2
1687377396,e9c6af53851dd84f92e08800e6161981,PennController,10,0,experiment,NULL,PennController,8,_Trial_,End,1687377275471,644990bf7ab5ad7c33445b71,644990bf7ab5ad7c33445b71,6,flower,critical,F,50,flower40.jpg,flower60.jpg,high,NULL
1687377396,e9c6af53851dd84f92e08800e6161981,PennController,23,0,experiment,NULL,PennController,21,_Trial_,Start,1687377275472,644990bf7ab5ad7c33445b71,644990bf7ab5ad7c33445b71,19,cup,filler,F,75,cup65.jpg,cup85.jpg,GoalB,NULL
1687377396,e9c6af53851dd84f92e08800e6161981,PennController,23,0,experiment,NULL,PennController,21,_Header_,Start,1687377275472,644990bf7ab5ad7c33445b71,644990bf7ab5ad7c33445b71,19,cup,filler,F,75,cup65.jpg,cup85.jpg,GoalB,NULL
1687377396,e9c6af53851dd84f92e08800e6161981,PennController,23,0,experiment,NULL,PennController,21,_Header_,End,1687377275472,644990bf7ab5ad7c33445b71,644990bf7ab5ad7c33445b71,19,cup,filler,F,75,cup65.jpg,cup85.jpg,GoalB,NULL
1687377396,e9c6af53851dd84f92e08800e6161981,PennController,23,0,experiment,NULL,Canvas,canvas6,Print,NA,1687377283191,644990bf7ab5ad7c33445b71,644990bf7ab5ad7c33445b71,19,cup,filler,F,75,cup65.jpg,cup85.jpg,GoalB,NULL
1687377396,e9c6af53851dd84f92e08800e6161981,PennController,23,0,experiment,NULL,Video,progression,buffer,0.001375,1687377278987,644990bf7ab5ad7c33445b71,644990bf7ab5ad7c33445b71,19,cup,filler,F,75,cup65.jpg,cup85.jpg,GoalB,NULL
1687377396,e9c6af53851dd84f92e08800e6161981,PennController,23,0,experiment,NULL,Selector,choice,Selection,option1,1687377285155,644990bf7ab5ad7c33445b71,644990bf7ab5ad7c33445b71,19,cup,filler,F,75,cup65.jpg,cup85.jpg,GoalB,option2;option1
1687377396,e9c6af53851dd84f92e08800e6161981,PennController,23,0,experiment,NULL,PennController,21,_Trial_,End,1687377285155,644990bf7ab5ad7c33445b71,644990bf7ab5ad7c33445b71,19,cup,filler,F,75,cup65.jpg,cup85.jpg,GoalB,NULL
1687377396,e9c6af53851dd84f92e08800e6161981,PennController,27,0,experiment,NULL,PennController,25,_Trial_,Start,1687377285156,644990bf7ab5ad7c33445b71,644990bf7ab5ad7c33445b71,23,color,filler,F,25,color15.jpg,color35.jpg,GoalB,NULL
1687377396,e9c6af53851dd84f92e08800e6161981,PennController,27,0,experiment,NULL,PennController,25,_Header_,Start,1687377285156,644990bf7ab5ad7c33445b71,644990bf7ab5ad7c33445b71,23,color,filler,F,25,color15.jpg,color35.jpg,GoalB,NULL
1687377396,e9c6af53851dd84f92e08800e6161981,PennController,27,0,experiment,NULL,PennController,25,_Header_,End,1687377285156,644990bf7ab5ad7c33445b71,644990bf7ab5ad7c33445b71,23,color,filler,F,25,color15.jpg,color35.jpg,GoalB,NULL
1687377396,e9c6af53851dd84f92e08800e6161981,PennController,27,0,experiment,NULL,Canvas,canvas6,Print,NA,1687377290886,644990bf7ab5ad7c33445b71,644990bf7ab5ad7c33445b71,23,color,filler,F,25,color15.jpg,color35.jpg,GoalB,NULL
1687377396,e9c6af53851dd84f92e08800e6161981,PennController,27,0,experiment,NULL,Video,progression,buffer,0.009346,1687377288685,644990bf7ab5ad7c33445b71,644990bf7ab5ad7c33445b71,23,color,filler,F,25,color15.jpg,color35.jpg,GoalB,NULL
1687377396,e9c6af53851dd84f92e08800e6161981,PennController,27,0,experiment,NULL,Selector,choice,Selection,option1,1687377294255,644990bf7ab5ad7c33445b71,644990bf7ab5ad7c33445b71,23,color,filler,F,25,color15.jpg,color35.jpg,GoalB,option2;option1
1687377396,e9c6af53851dd84f92e08800e6161981,PennController,27,0,experiment,NULL,PennController,25,_Trial_,End,1687377294255,644990bf7ab5ad7c33445b71,644990bf7ab5ad7c33445b71,23,color,filler,F,25,color15.jpg,color35.jpg,GoalB,NULL
1687377396,e9c6af53851dd84f92e08800e6161981,PennController,15,0,experiment,NULL,PennController,13,_Trial_,Start,1687377294256,644990bf7ab5ad7c33445b71,644990bf7ab5ad7c33445b71,11,beads,critical,F,25,beads15.jpg,beads35.jpg,high,NULL
1687377396,e9c6af53851dd84f92e08800e6161981,PennController,15,0,experiment,NULL,PennController,13,_Header_,Start,1687377294256,644990bf7ab5ad7c33445b71,644990bf7ab5ad7c33445b71,11,beads,critical,F,25,beads15.jpg,beads35.jpg,high,NULL
1687377396,e9c6af53851dd84f92e08800e6161981,PennController,15,0,experiment,NULL,PennController,13,_Header_,End,1687377294256,644990bf7ab5ad7c33445b71,644990bf7ab5ad7c33445b71,11,beads,critical,F,25,beads15.jpg,beads35.jpg,high,NULL
1687377396,e9c6af53851dd84f92e08800e6161981,PennController,15,0,experiment,NULL,Canvas,canvas6,Print,NA,1687377299971,644990bf7ab5ad7c33445b71,644990bf7ab5ad7c33445b71,11,beads,critical,F,25,beads15.jpg,beads35.jpg,high,NULL
1687377396,e9c6af53851dd84f92e08800e6161981,PennController,15,0,experiment,NULL,Video,progression,buffer,0.002632,1687377297774,644990bf7ab5ad7c33445b71,644990bf7ab5ad7c33445b71,11,beads,critical,F,25,beads15.jpg,beads35.jpg,high,NULL
1687377396,e9c6af53851dd84f92e08800e6161981,PennController,15,0,experiment,NULL,Selector,choice,Selection,option2,1687377301495,644990bf7ab5ad7c33445b71,644990bf7ab5ad7c33445b71,11,beads,critical,F,25,beads15.jpg,beads35.jpg,high,option1;option2
1687377396,e9c6af53851dd84f92e08800e6161981,PennController,15,0,experiment,NULL,PennController,13,_Trial_,End,1687377301495,644990bf7ab5ad7c33445b71,644990bf7ab5ad7c33445b71,11,beads,critical,F,25,beads15.jpg,beads35.jpg,high,NULL
1687377396,e9c6af53851dd84f92e08800e6161981,PennController,14,0,experiment,NULL,PennController,12,_Trial_,Start,1687377301496,644990bf7ab5ad7c33445b71,644990bf7ab5ad7c33445b71,10,train,critical,F,75,train65.jpg,train85.jpg,high,NULL
1687377396,e9c6af53851dd84f92e08800e6161981,PennController,14,0,experiment,NULL,PennController,12,_Header_,Start,1687377301496,644990bf7ab5ad7c33445b71,644990bf7ab5ad7c33445b71,10,train,critical,F,75,train65.jpg,train85.jpg,high,NULL
1687377396,e9c6af53851dd84f92e08800e6161981,PennController,14,0,experiment,NULL,PennController,12,_Header_,End,1687377301496,644990bf7ab5ad7c33445b71,644990bf7ab5ad7c33445b71,10,train,critical,F,75,train65.jpg,train85.jpg,high,NULL
1687377396,e9c6af53851dd84f92e08800e6161981,PennController,14,0,experiment,NULL,Canvas,canvas6,Print,NA,1687377309224,644990bf7ab5ad7c33445b71,644990bf7ab5ad7c33445b71,10,train,critical,F,75,train65.jpg,train85.jpg,high,NULL
1687377396,e9c6af53851dd84f92e08800e6161981,PennController,14,0,experiment,NULL,Video,progression,buffer,0.006526,1687377305035,644990bf7ab5ad7c33445b71,644990bf7ab5ad7c33445b71,10,train,critical,F,75,train65.jpg,train85.jpg,high,NULL
1687377396,e9c6af53851dd84f92e08800e6161981,PennController,14,0,experiment,NULL,Selector,choice,Selection,option2,1687377310317,644990bf7ab5ad7c33445b71,644990bf7ab5ad7c33445b71,10,train,critical,F,75,train65.jpg,train85.jpg,high,option2;option1
1687377396,e9c6af53851dd84f92e08800e6161981,PennController,14,0,experiment,NULL,PennController,12,_Trial_,End,1687377310317,644990bf7ab5ad7c33445b71,644990bf7ab5ad7c33445b71,10,train,critical,F,75,train65.jpg,train85.jpg,high,NULL
1687377396,e9c6af53851dd84f92e08800e6161981,PennController,5,0,experiment,NULL,PennController,3,_Trial_,Start,1687377310318,644990bf7ab5ad7c33445b71,644990bf7ab5ad7c33445b71,1,vase,critical,F,75,vase65.jpg,vase85.jpg,high,NULL
1687377396,e9c6af53851dd84f92e08800e6161981,PennController,5,0,experiment,NULL,PennController,3,_Header_,Start,1687377310318,644990bf7ab5ad7c33445b71,644990bf7ab5ad7c33445b71,1,vase,critical,F,75,vase65.jpg,vase85.jpg,high,NULL
1687377396,e9c6af53851dd84f92e08800e6161981,PennController,5,0,experiment,NULL,PennController,3,_Header_,End,1687377310318,644990bf7ab5ad7c33445b71,644990bf7ab5ad7c33445b71,1,vase,critical,F,75,vase65.jpg,vase85.jpg,high,NULL
1687377396,e9c6af53851dd84f92e08800e6161981,PennController,5,0,experiment,NULL,Canvas,canvas6,Print,NA,1687377318048,644990bf7ab5ad7c33445b71,644990bf7ab5ad7c33445b71,1,vase,critical,F,75,vase65.jpg,vase85.jpg,high,NULL
1687377396,e9c6af53851dd84f92e08800e6161981,PennController,5,0,experiment,NULL,Video,progression,buffer,0.007167,1687377313848,644990bf7ab5ad7c33445b71,644990bf7ab5ad7c33445b71,1,vase,critical,F,75,vase65.jpg,vase85.jpg,high,NULL
1687377396,e9c6af53851dd84f92e08800e6161981,PennController,5,0,experiment,NULL,Selector,choice,Selection,option2,1687377321031,644990bf7ab5ad7c33445b71,644990bf7ab5ad7c33445b71,1,vase,critical,F,75,vase65.jpg,vase85.jpg,high,option1;option2
1687377396,e9c6af53851dd84f92e08800e6161981,PennController,5,0,experiment,NULL,PennController,3,_Trial_,End,1687377321031,644990bf7ab5ad7c33445b71,644990bf7ab5ad7c33445b71,1,vase,critical,F,75,vase65.jpg,vase85.jpg,high,NULL
1687377396,e9c6af53851dd84f92e08800e6161981,PennController,30,0,experiment,NULL,PennController,28,_Trial_,Start,1687377321032,644990bf7ab5ad7c33445b71,644990bf7ab5ad7c33445b71,26,sandwich,filler,F,25,sandwich15.jpg,sandwich35.jpg,GoalA,NULL
1687377396,e9c6af53851dd84f92e08800e6161981,PennController,30,0,experiment,NULL,PennController,28,_Header_,Start,1687377321032,644990bf7ab5ad7c33445b71,644990bf7ab5ad7c33445b71,26,sandwich,filler,F,25,sandwich15.jpg,sandwich35.jpg,GoalA,NULL
1687377396,e9c6af53851dd84f92e08800e6161981,PennController,30,0,experiment,NULL,PennController,28,_Header_,End,1687377321032,644990bf7ab5ad7c33445b71,644990bf7ab5ad7c33445b71,26,sandwich,filler,F,25,sandwich15.jpg,sandwich35.jpg,GoalA,NULL
1687377396,e9c6af53851dd84f92e08800e6161981,PennController,30,0,experiment,NULL,Canvas,canvas6,Print,NA,1687377326746,644990bf7ab5ad7c33445b71,644990bf7ab5ad7c33445b71,26,sandwich,filler,F,25,sandwich15.jpg,sandwich35.jpg,GoalA,NULL
1687377396,e9c6af53851dd84f92e08800e6161981,PennController,30,0,experiment,NULL,Video,progression,buffer,0.002619,1687377324548,644990bf7ab5ad7c33445b71,644990bf7ab5ad7c33445b71,26,sandwich,filler,F,25,sandwich15.jpg,sandwich35.jpg,GoalA,NULL
1687377396,e9c6af53851dd84f92e08800e6161981,PennController,30,0,experiment,NULL,Selector,choice,Selection,option1,1687377327936,644990bf7ab5ad7c33445b71,644990bf7ab5ad7c33445b71,26,sandwich,filler,F,25,sandwich15.jpg,sandwich35.jpg,GoalA,option2;option1
1687377396,e9c6af53851dd84f92e08800e6161981,PennController,30,0,experiment,NULL,PennController,28,_Trial_,End,1687377327936,644990bf7ab5ad7c33445b71,644990bf7ab5ad7c33445b71,26,sandwich,filler,F,25,sandwich15.jpg,sandwich35.jpg,GoalA,NULL
1687377396,e9c6af53851dd84f92e08800e6161981,PennController,7,0,experiment,NULL,PennController,5,_Trial_,Start,1687377327937,644990bf7ab5ad7c33445b71,644990bf7ab5ad7c33445b71,3,clean,critical,F,50,clean40.jpg,clean60.jpg,high,NULL
1687377396,e9c6af53851dd84f92e08800e6161981,PennController,7,0,experiment,NULL,PennController,5,_Header_,Start,1687377327937,644990bf7ab5ad7c33445b71,644990bf7ab5ad7c33445b71,3,clean,critical,F,50,clean40.jpg,clean60.jpg,high,NULL
1687377396,e9c6af53851dd84f92e08800e6161981,PennController,7,0,experiment,NULL,PennController,5,_Header_,End,1687377327937,644990bf7ab5ad7c33445b71,644990bf7ab5ad7c33445b71,3,clean,critical,F,50,clean40.jpg,clean60.jpg,high,NULL
1687377396,e9c6af53851dd84f92e08800e6161981,PennController,7,0,experiment,NULL,Canvas,canvas6,Print,NA,1687377334656,644990bf7ab5ad7c33445b71,644990bf7ab5ad7c33445b71,3,clean,critical,F,50,clean40.jpg,clean60.jpg,high,NULL
1687377396,e9c6af53851dd84f92e08800e6161981,PennController,7,0,experiment,NULL,Video,progression,buffer,0.005993,1687377331470,644990bf7ab5ad7c33445b71,644990bf7ab5ad7c33445b71,3,clean,critical,F,50,clean40.jpg,clean60.jpg,high,NULL
1687377396,e9c6af53851dd84f92e08800e6161981,PennController,7,0,experiment,NULL,Selector,choice,Selection,option2,1687377336554,644990bf7ab5ad7c33445b71,644990bf7ab5ad7c33445b71,3,clean,critical,F,50,clean40.jpg,clean60.jpg,high,option1;option2
1687377396,e9c6af53851dd84f92e08800e6161981,PennController,7,0,experiment,NULL,PennController,5,_Trial_,End,1687377336555,644990bf7ab5ad7c33445b71,644990bf7ab5ad7c33445b71,3,clean,critical,F,50,clean40.jpg,clean60.jpg,high,NULL
1687377396,e9c6af53851dd84f92e08800e6161981,PennController,8,0,experiment,NULL,PennController,6,_Trial_,Start,1687377336556,644990bf7ab5ad7c33445b71,644990bf7ab5ad7c33445b71,4,candy,critical,F,75,candy65.jpg,candy85.jpg,high,NULL
1687377396,e9c6af53851dd84f92e08800e6161981,PennController,8,0,experiment,NULL,PennController,6,_Header_,Start,1687377336556,644990bf7ab5ad7c33445b71,644990bf7ab5ad7c33445b71,4,candy,critical,F,75,candy65.jpg,candy85.jpg,high,NULL
1687377396,e9c6af53851dd84f92e08800e6161981,PennController,8,0,experiment,NULL,PennController,6,_Header_,End,1687377336556,644990bf7ab5ad7c33445b71,644990bf7ab5ad7c33445b71,4,candy,critical,F,75,candy65.jpg,candy85.jpg,high,NULL
1687377396,e9c6af53851dd84f92e08800e6161981,PennController,8,0,experiment,NULL,Canvas,canvas6,Print,NA,1687377344286,644990bf7ab5ad7c33445b71,644990bf7ab5ad7c33445b71,4,candy,critical,F,75,candy65.jpg,candy85.jpg,high,NULL
1687377396,e9c6af53851dd84f92e08800e6161981,PennController,8,0,experiment,NULL,Video,progression,buffer,0.01262,1687377340097,644990bf7ab5ad7c33445b71,644990bf7ab5ad7c33445b71,4,candy,critical,F,75,candy65.jpg,candy85.jpg,high,NULL
1687377396,e9c6af53851dd84f92e08800e6161981,PennController,8,0,experiment,NULL,Selector,choice,Selection,option1,1687377346739,644990bf7ab5ad7c33445b71,644990bf7ab5ad7c33445b71,4,candy,critical,F,75,candy65.jpg,candy85.jpg,high,option1;option2
1687377396,e9c6af53851dd84f92e08800e6161981,PennController,8,0,experiment,NULL,PennController,6,_Trial_,End,1687377346739,644990bf7ab5ad7c33445b71,644990bf7ab5ad7c33445b71,4,candy,critical,F,75,candy65.jpg,candy85.jpg,high,NULL
1687377396,e9c6af53851dd84f92e08800e6161981,PennController,20,0,experiment,NULL,PennController,18,_Trial_,Start,1687377346740,644990bf7ab5ad7c33445b71,644990bf7ab5ad7c33445b71,16,blinds,critical,F,75,blinds66.jpg,blinds84.jpg,high,NULL
1687377396,e9c6af53851dd84f92e08800e6161981,PennController,20,0,experiment,NULL,PennController,18,_Header_,Start,1687377346740,644990bf7ab5ad7c33445b71,644990bf7ab5ad7c33445b71,16,blinds,critical,F,75,blinds66.jpg,blinds84.jpg,high,NULL
1687377396,e9c6af53851dd84f92e08800e6161981,PennController,20,0,experiment,NULL,PennController,18,_Header_,End,1687377346740,644990bf7ab5ad7c33445b71,644990bf7ab5ad7c33445b71,16,blinds,critical,F,75,blinds66.jpg,blinds84.jpg,high,NULL
1687377396,e9c6af53851dd84f92e08800e6161981,PennController,20,0,experiment,NULL,Canvas,canvas6,Print,NA,1687377356451,644990bf7ab5ad7c33445b71,644990bf7ab5ad7c33445b71,16,blinds,critical,F,75,blinds66.jpg,blinds84.jpg,high,NULL
1687377396,e9c6af53851dd84f92e08800e6161981,PennController,20,0,experiment,NULL,Video,progression,buffer,0.002344,1687377350254,644990bf7ab5ad7c33445b71,644990bf7ab5ad7c33445b71,16,blinds,critical,F,75,blinds66.jpg,blinds84.jpg,high,NULL
1687377396,e9c6af53851dd84f92e08800e6161981,PennController,20,0,experiment,NULL,Selector,choice,Selection,option2,1687377357551,644990bf7ab5ad7c33445b71,644990bf7ab5ad7c33445b71,16,blinds,critical,F,75,blinds66.jpg,blinds84.jpg,high,option1;option2
1687377396,e9c6af53851dd84f92e08800e6161981,PennController,20,0,experiment,NULL,PennController,18,_Trial_,End,1687377357551,644990bf7ab5ad7c33445b71,644990bf7ab5ad7c33445b71,16,blinds,critical,F,75,blinds66.jpg,blinds84.jpg,high,NULL
1687377396,e9c6af53851dd84f92e08800e6161981,PennController,32,0,experiment,NULL,PennController,30,_Trial_,Start,1687377357552,644990bf7ab5ad7c33445b71,644990bf7ab5ad7c33445b71,28,sort,filler,F,75,sort65.jpg,sort85.jpg,GoalA,NULL
1687377396,e9c6af53851dd84f92e08800e6161981,PennController,32,0,experiment,NULL,PennController,30,_Header_,Start,1687377357552,644990bf7ab5ad7c33445b71,644990bf7ab5ad7c33445b71,28,sort,filler,F,75,sort65.jpg,sort85.jpg,GoalA,NULL
1687377396,e9c6af53851dd84f92e08800e6161981,PennController,32,0,experiment,NULL,PennController,30,_Header_,End,1687377357552,644990bf7ab5ad7c33445b71,644990bf7ab5ad7c33445b71,28,sort,filler,F,75,sort65.jpg,sort85.jpg,GoalA,NULL
1687377396,e9c6af53851dd84f92e08800e6161981,PennController,32,0,experiment,NULL,Canvas,canvas6,Print,NA,1687377365258,644990bf7ab5ad7c33445b71,644990bf7ab5ad7c33445b71,28,sort,filler,F,75,sort65.jpg,sort85.jpg,GoalA,NULL
1687377396,e9c6af53851dd84f92e08800e6161981,PennController,32,0,experiment,NULL,Video,progression,buffer,0.002174,1687377361068,644990bf7ab5ad7c33445b71,644990bf7ab5ad7c33445b71,28,sort,filler,F,75,sort65.jpg,sort85.jpg,GoalA,NULL
1687377396,e9c6af53851dd84f92e08800e6161981,PennController,32,0,experiment,NULL,Selector,choice,Selection,option1,1687377367755,644990bf7ab5ad7c33445b71,644990bf7ab5ad7c33445b71,28,sort,filler,F,75,sort65.jpg,sort85.jpg,GoalA,option1;option2
1687377396,e9c6af53851dd84f92e08800e6161981,PennController,32,0,experiment,NULL,PennController,30,_Trial_,End,1687377367755,644990bf7ab5ad7c33445b71,644990bf7ab5ad7c33445b71,28,sort,filler,F,75,sort65.jpg,sort85.jpg,GoalA,NULL
1687377396,e9c6af53851dd84f92e08800e6161981,PennController,12,0,experiment,NULL,PennController,10,_Trial_,Start,1687377367756,644990bf7ab5ad7c33445b71,644990bf7ab5ad7c33445b71,8,cucumber,critical,F,25,cucumber15.jpg,cucumber33.jpg,high,NULL
1687377396,e9c6af53851dd84f92e08800e6161981,PennController,12,0,experiment,NULL,PennController,10,_Header_,Start,1687377367756,644990bf7ab5ad7c33445b71,644990bf7ab5ad7c33445b71,8,cucumber,critical,F,25,cucumber15.jpg,cucumber33.jpg,high,NULL
1687377396,e9c6af53851dd84f92e08800e6161981,PennController,12,0,experiment,NULL,PennController,10,_Header_,End,1687377367756,644990bf7ab5ad7c33445b71,644990bf7ab5ad7c33445b71,8,cucumber,critical,F,25,cucumber15.jpg,cucumber33.jpg,high,NULL
1687377396,e9c6af53851dd84f92e08800e6161981,PennController,12,0,experiment,NULL,Canvas,canvas6,Print,NA,1687377374062,644990bf7ab5ad7c33445b71,644990bf7ab5ad7c33445b71,8,cucumber,critical,F,25,cucumber15.jpg,cucumber33.jpg,high,NULL
1687377396,e9c6af53851dd84f92e08800e6161981,PennController,12,0,experiment,NULL,Video,progression,buffer,0.001609,1687377371268,644990bf7ab5ad7c33445b71,644990bf7ab5ad7c33445b71,8,cucumber,critical,F,25,cucumber15.jpg,cucumber33.jpg,high,NULL
1687377396,e9c6af53851dd84f92e08800e6161981,PennController,12,0,experiment,NULL,Selector,choice,Selection,option1,1687377375945,644990bf7ab5ad7c33445b71,644990bf7ab5ad7c33445b71,8,cucumber,critical,F,25,cucumber15.jpg,cucumber33.jpg,high,option1;option2
1687377396,e9c6af53851dd84f92e08800e6161981,PennController,12,0,experiment,NULL,PennController,10,_Trial_,End,1687377375945,644990bf7ab5ad7c33445b71,644990bf7ab5ad7c33445b71,8,cucumber,critical,F,25,cucumber15.jpg,cucumber33.jpg,high,NULL
1687377396,e9c6af53851dd84f92e08800e6161981,PennController,17,0,experiment,NULL,PennController,15,_Trial_,Start,1687377375946,644990bf7ab5ad7c33445b71,644990bf7ab5ad7c33445b71,13,mix,critical,F,75,mix65.jpg,mix85.jpg,high,NULL
1687377396,e9c6af53851dd84f92e08800e6161981,PennController,17,0,experiment,NULL,PennController,15,_Header_,Start,1687377375946,644990bf7ab5ad7c33445b71,644990bf7ab5ad7c33445b71,13,mix,critical,F,75,mix65.jpg,mix85.jpg,high,NULL
1687377396,e9c6af53851dd84f92e08800e6161981,PennController,17,0,experiment,NULL,PennController,15,_Header_,End,1687377375946,644990bf7ab5ad7c33445b71,644990bf7ab5ad7c33445b71,13,mix,critical,F,75,mix65.jpg,mix85.jpg,high,NULL
1687377396,e9c6af53851dd84f92e08800e6161981,PennController,17,0,experiment,NULL,Canvas,canvas6,Print,NA,1687377383667,644990bf7ab5ad7c33445b71,644990bf7ab5ad7c33445b71,13,mix,critical,F,75,mix65.jpg,mix85.jpg,high,NULL
1687377396,e9c6af53851dd84f92e08800e6161981,PennController,17,0,experiment,NULL,Video,progression,buffer,0.001436,1687377379461,644990bf7ab5ad7c33445b71,644990bf7ab5ad7c33445b71,13,mix,critical,F,75,mix65.jpg,mix85.jpg,high,NULL
1687377396,e9c6af53851dd84f92e08800e6161981,PennController,17,0,experiment,NULL,Selector,choice,Selection,option1,1687377387654,644990bf7ab5ad7c33445b71,644990bf7ab5ad7c33445b71,13,mix,critical,F,75,mix65.jpg,mix85.jpg,high,option2;option1
1687377396,e9c6af53851dd84f92e08800e6161981,PennController,17,0,experiment,NULL,PennController,15,_Trial_,End,1687377387655,644990bf7ab5ad7c33445b71,644990bf7ab5ad7c33445b71,13,mix,critical,F,75,mix65.jpg,mix85.jpg,high,NULL
1687377396,e9c6af53851dd84f92e08800e6161981,PennController,6,0,experiment,NULL,PennController,4,_Trial_,Start,1687377387656,644990bf7ab5ad7c33445b71,644990bf7ab5ad7c33445b71,2,door,critical,F,25,door15.jpg,door35.jpg,high,NULL
1687377396,e9c6af53851dd84f92e08800e6161981,PennController,6,0,experiment,NULL,PennController,4,_Header_,Start,1687377387656,644990bf7ab5ad7c33445b71,644990bf7ab5ad7c33445b71,2,door,critical,F,25,door15.jpg,door35.jpg,high,NULL
1687377396,e9c6af53851dd84f92e08800e6161981,PennController,6,0,experiment,NULL,PennController,4,_Header_,End,1687377387656,644990bf7ab5ad7c33445b71,644990bf7ab5ad7c33445b71,2,door,critical,F,25,door15.jpg,door35.jpg,high,NULL
1687377396,e9c6af53851dd84f92e08800e6161981,PennController,6,0,experiment,NULL,Canvas,canvas6,Print,NA,1687377393391,644990bf7ab5ad7c33445b71,644990bf7ab5ad7c33445b71,2,door,critical,F,25,door15.jpg,door35.jpg,high,NULL
1687377396,e9c6af53851dd84f92e08800e6161981,PennController,6,0,experiment,NULL,Video,progression,buffer,0.005483,1687377391192,644990bf7ab5ad7c33445b71,644990bf7ab5ad7c33445b71,2,door,critical,F,25,door15.jpg,door35.jpg,high,NULL
1687377396,e9c6af53851dd84f92e08800e6161981,PennController,6,0,experiment,NULL,Selector,choice,Selection,option1,1687377395042,644990bf7ab5ad7c33445b71,644990bf7ab5ad7c33445b71,2,door,critical,F,25,door15.jpg,door35.jpg,high,option2;option1
1687377396,e9c6af53851dd84f92e08800e6161981,PennController,6,0,experiment,NULL,PennController,4,_Trial_,End,1687377395042,644990bf7ab5ad7c33445b71,644990bf7ab5ad7c33445b71,2,door,critical,F,25,door15.jpg,door35.jpg,high,NULL
