#
# Results on Tuesday June 20 2023 18:57:49 UTC
# USER AGENT: Mozilla/5.0 (Windows NT 10.0; Win64; x64) AppleWebKit/537.36 (KHTML, like Gecko) Chrome/114.0.0.0 Safari/537.36 Edg/114.0.1823.51
# Design number was non-random = 3
#
# Columns below this comment are as follows:
# 1. Results reception time.
# 2. MD5 hash of participant's IP address.
# 3. Controller name.
# 4. Order number of item.
# 5. Inner element number.
# 6. Label.
# 7. Latin Square Group.
# 8. PennElementType.
# 9. PennElementName.
# 10. Parameter.
# 11. Value.
# 12. EventTime.
# 13. PROLIFIC_ID.
# 14. Comments.
1687287469,322edcb001c66dde2efbeb0348e61954,PennController,2,0,consent,NULL,PennController,0,_Trial_,Start,1687287062747,615f3662d346c88b024e3103,NULL
1687287469,322edcb001c66dde2efbeb0348e61954,PennController,2,0,consent,NULL,PennController,0,_Header_,Start,1687287062747,615f3662d346c88b024e3103,NULL
1687287469,322edcb001c66dde2efbeb0348e61954,PennController,2,0,consent,NULL,PennController,0,_Header_,End,1687287062747,615f3662d346c88b024e3103,NULL
1687287469,322edcb001c66dde2efbeb0348e61954,PennController,2,0,consent,NULL,PennController,0,_Trial_,End,1687287151416,615f3662d346c88b024e3103,NULL
# Columns below this comment are as follows:
# 14. ID.
# 15. Comments.
1687287469,322edcb001c66dde2efbeb0348e61954,PennController,3,0,intro,NULL,PennController,1,_Trial_,Start,1687287151430,615f3662d346c88b024e3103,615f3662d346c88b024e3103,NULL
1687287469,322edcb001c66dde2efbeb0348e61954,PennController,3,0,intro,NULL,PennController,1,_Header_,Start,1687287151430,615f3662d346c88b024e3103,615f3662d346c88b024e3103,NULL
1687287469,322edcb001c66dde2efbeb0348e61954,PennController,3,0,intro,NULL,PennController,1,_Header_,End,1687287151430,615f3662d346c88b024e3103,615f3662d346c88b024e3103,NULL
1687287469,322edcb001c66dde2efbeb0348e61954,PennController,3,0,intro,NULL,PennController,1,_Trial_,End,1687287191991,615f3662d346c88b024e3103,615f3662d346c88b024e3103,NULL
# Columns below this comment are as follows:
# 15. item_number.
# 16. item.
# 17. type.
# 18. Group.
# 19. prog.
# 20. prev_image.
# 21. next_image.
# 22. height.
# 23. Comments.
1687287469,322edcb001c66dde2efbeb0348e61954,PennController,27,0,experiment,NULL,PennController,26,_Trial_,Start,1687287191994,615f3662d346c88b024e3103,615f3662d346c88b024e3103,24,match,filler,D,75,match65.jpg,match85.jpg,GoalA,NULL
1687287469,322edcb001c66dde2efbeb0348e61954,PennController,27,0,experiment,NULL,PennController,26,_Header_,Start,1687287191994,615f3662d346c88b024e3103,615f3662d346c88b024e3103,24,match,filler,D,75,match65.jpg,match85.jpg,GoalA,NULL
1687287469,322edcb001c66dde2efbeb0348e61954,PennController,27,0,experiment,NULL,PennController,26,_Header_,End,1687287191995,615f3662d346c88b024e3103,615f3662d346c88b024e3103,24,match,filler,D,75,match65.jpg,match85.jpg,GoalA,NULL
1687287469,322edcb001c66dde2efbeb0348e61954,PennController,27,0,experiment,NULL,Canvas,canvas6,Print,NA,1687287199833,615f3662d346c88b024e3103,615f3662d346c88b024e3103,24,match,filler,D,75,match65.jpg,match85.jpg,GoalA,NULL
1687287469,322edcb001c66dde2efbeb0348e61954,PennController,27,0,experiment,NULL,Video,progression,buffer,0.01972,1687287195605,615f3662d346c88b024e3103,615f3662d346c88b024e3103,24,match,filler,D,75,match65.jpg,match85.jpg,GoalA,NULL
1687287469,322edcb001c66dde2efbeb0348e61954,PennController,27,0,experiment,NULL,Selector,choice,Selection,option1,1687287207216,615f3662d346c88b024e3103,615f3662d346c88b024e3103,24,match,filler,D,75,match65.jpg,match85.jpg,GoalA,option2;option1
1687287469,322edcb001c66dde2efbeb0348e61954,PennController,27,0,experiment,NULL,PennController,26,_Trial_,End,1687287207227,615f3662d346c88b024e3103,615f3662d346c88b024e3103,24,match,filler,D,75,match65.jpg,match85.jpg,GoalA,NULL
1687287469,322edcb001c66dde2efbeb0348e61954,PennController,5,0,experiment,NULL,PennController,4,_Trial_,Start,1687287207234,615f3662d346c88b024e3103,615f3662d346c88b024e3103,2,door,critical,D,50,door40.jpg,door60.jpg,high,NULL
1687287469,322edcb001c66dde2efbeb0348e61954,PennController,5,0,experiment,NULL,PennController,4,_Header_,Start,1687287207234,615f3662d346c88b024e3103,615f3662d346c88b024e3103,2,door,critical,D,50,door40.jpg,door60.jpg,high,NULL
1687287469,322edcb001c66dde2efbeb0348e61954,PennController,5,0,experiment,NULL,PennController,4,_Header_,End,1687287207235,615f3662d346c88b024e3103,615f3662d346c88b024e3103,2,door,critical,D,50,door40.jpg,door60.jpg,high,NULL
1687287469,322edcb001c66dde2efbeb0348e61954,PennController,5,0,experiment,NULL,Canvas,canvas6,Print,NA,1687287214016,615f3662d346c88b024e3103,615f3662d346c88b024e3103,2,door,critical,D,50,door40.jpg,door60.jpg,high,NULL
1687287469,322edcb001c66dde2efbeb0348e61954,PennController,5,0,experiment,NULL,Video,progression,buffer,0.014693,1687287210821,615f3662d346c88b024e3103,615f3662d346c88b024e3103,2,door,critical,D,50,door40.jpg,door60.jpg,high,NULL
1687287469,322edcb001c66dde2efbeb0348e61954,PennController,5,0,experiment,NULL,Selector,choice,Selection,option1,1687287217967,615f3662d346c88b024e3103,615f3662d346c88b024e3103,2,door,critical,D,50,door40.jpg,door60.jpg,high,option2;option1
1687287469,322edcb001c66dde2efbeb0348e61954,PennController,5,0,experiment,NULL,PennController,4,_Trial_,End,1687287217973,615f3662d346c88b024e3103,615f3662d346c88b024e3103,2,door,critical,D,50,door40.jpg,door60.jpg,high,NULL
1687287469,322edcb001c66dde2efbeb0348e61954,PennController,11,0,experiment,NULL,PennController,10,_Trial_,Start,1687287217978,615f3662d346c88b024e3103,615f3662d346c88b024e3103,8,cucumber,critical,D,50,cucumber42.jpg,cucumber60.jpg,high,NULL
1687287469,322edcb001c66dde2efbeb0348e61954,PennController,11,0,experiment,NULL,PennController,10,_Header_,Start,1687287217978,615f3662d346c88b024e3103,615f3662d346c88b024e3103,8,cucumber,critical,D,50,cucumber42.jpg,cucumber60.jpg,high,NULL
1687287469,322edcb001c66dde2efbeb0348e61954,PennController,11,0,experiment,NULL,PennController,10,_Header_,End,1687287217978,615f3662d346c88b024e3103,615f3662d346c88b024e3103,8,cucumber,critical,D,50,cucumber42.jpg,cucumber60.jpg,high,NULL
1687287469,322edcb001c66dde2efbeb0348e61954,PennController,11,0,experiment,NULL,Canvas,canvas6,Print,NA,1687287226132,615f3662d346c88b024e3103,615f3662d346c88b024e3103,8,cucumber,critical,D,50,cucumber42.jpg,cucumber60.jpg,high,NULL
1687287469,322edcb001c66dde2efbeb0348e61954,PennController,11,0,experiment,NULL,Video,progression,buffer,0.020028,1687287221557,615f3662d346c88b024e3103,615f3662d346c88b024e3103,8,cucumber,critical,D,50,cucumber42.jpg,cucumber60.jpg,high,NULL
1687287469,322edcb001c66dde2efbeb0348e61954,PennController,11,0,experiment,NULL,Selector,choice,Selection,option1,1687287228312,615f3662d346c88b024e3103,615f3662d346c88b024e3103,8,cucumber,critical,D,50,cucumber42.jpg,cucumber60.jpg,high,option1;option2
1687287469,322edcb001c66dde2efbeb0348e61954,PennController,11,0,experiment,NULL,PennController,10,_Trial_,End,1687287228318,615f3662d346c88b024e3103,615f3662d346c88b024e3103,8,cucumber,critical,D,50,cucumber42.jpg,cucumber60.jpg,high,NULL
1687287469,322edcb001c66dde2efbeb0348e61954,PennController,13,0,experiment,NULL,PennController,12,_Trial_,Start,1687287228325,615f3662d346c88b024e3103,615f3662d346c88b024e3103,10,train,critical,D,25,train15.jpg,train35.jpg,high,NULL
1687287469,322edcb001c66dde2efbeb0348e61954,PennController,13,0,experiment,NULL,PennController,12,_Header_,Start,1687287228325,615f3662d346c88b024e3103,615f3662d346c88b024e3103,10,train,critical,D,25,train15.jpg,train35.jpg,high,NULL
1687287469,322edcb001c66dde2efbeb0348e61954,PennController,13,0,experiment,NULL,PennController,12,_Header_,End,1687287228325,615f3662d346c88b024e3103,615f3662d346c88b024e3103,10,train,critical,D,25,train15.jpg,train35.jpg,high,NULL
1687287469,322edcb001c66dde2efbeb0348e61954,PennController,13,0,experiment,NULL,Canvas,canvas6,Print,NA,1687287234095,615f3662d346c88b024e3103,615f3662d346c88b024e3103,10,train,critical,D,25,train15.jpg,train35.jpg,high,NULL
1687287469,322edcb001c66dde2efbeb0348e61954,PennController,13,0,experiment,NULL,Video,progression,buffer,0.017211,1687287231904,615f3662d346c88b024e3103,615f3662d346c88b024e3103,10,train,critical,D,25,train15.jpg,train35.jpg,high,NULL
1687287469,322edcb001c66dde2efbeb0348e61954,PennController,13,0,experiment,NULL,Selector,choice,Selection,option2,1687287236069,615f3662d346c88b024e3103,615f3662d346c88b024e3103,10,train,critical,D,25,train15.jpg,train35.jpg,high,option1;option2
1687287469,322edcb001c66dde2efbeb0348e61954,PennController,13,0,experiment,NULL,PennController,12,_Trial_,End,1687287236074,615f3662d346c88b024e3103,615f3662d346c88b024e3103,10,train,critical,D,25,train15.jpg,train35.jpg,high,NULL
1687287469,322edcb001c66dde2efbeb0348e61954,PennController,15,0,experiment,NULL,PennController,14,_Trial_,Start,1687287236079,615f3662d346c88b024e3103,615f3662d346c88b024e3103,12,erase,critical,D,75,erase66.jpg,erase84.jpg,high,NULL
1687287469,322edcb001c66dde2efbeb0348e61954,PennController,15,0,experiment,NULL,PennController,14,_Header_,Start,1687287236079,615f3662d346c88b024e3103,615f3662d346c88b024e3103,12,erase,critical,D,75,erase66.jpg,erase84.jpg,high,NULL
1687287469,322edcb001c66dde2efbeb0348e61954,PennController,15,0,experiment,NULL,PennController,14,_Header_,End,1687287236079,615f3662d346c88b024e3103,615f3662d346c88b024e3103,12,erase,critical,D,75,erase66.jpg,erase84.jpg,high,NULL
1687287469,322edcb001c66dde2efbeb0348e61954,PennController,15,0,experiment,NULL,Canvas,canvas6,Print,NA,1687287245850,615f3662d346c88b024e3103,615f3662d346c88b024e3103,12,erase,critical,D,75,erase66.jpg,erase84.jpg,high,NULL
1687287469,322edcb001c66dde2efbeb0348e61954,PennController,15,0,experiment,NULL,Video,progression,buffer,0.018469,1687287239670,615f3662d346c88b024e3103,615f3662d346c88b024e3103,12,erase,critical,D,75,erase66.jpg,erase84.jpg,high,NULL
1687287469,322edcb001c66dde2efbeb0348e61954,PennController,15,0,experiment,NULL,Selector,choice,Selection,option2,1687287247785,615f3662d346c88b024e3103,615f3662d346c88b024e3103,12,erase,critical,D,75,erase66.jpg,erase84.jpg,high,option1;option2
1687287469,322edcb001c66dde2efbeb0348e61954,PennController,15,0,experiment,NULL,PennController,14,_Trial_,End,1687287247791,615f3662d346c88b024e3103,615f3662d346c88b024e3103,12,erase,critical,D,75,erase66.jpg,erase84.jpg,high,NULL
1687287469,322edcb001c66dde2efbeb0348e61954,PennController,21,0,experiment,NULL,PennController,20,_Trial_,Start,1687287247796,615f3662d346c88b024e3103,615f3662d346c88b024e3103,18,ball,critical,D,75,ball65.jpg,ball85.jpg,high,NULL
1687287469,322edcb001c66dde2efbeb0348e61954,PennController,21,0,experiment,NULL,PennController,20,_Header_,Start,1687287247796,615f3662d346c88b024e3103,615f3662d346c88b024e3103,18,ball,critical,D,75,ball65.jpg,ball85.jpg,high,NULL
1687287469,322edcb001c66dde2efbeb0348e61954,PennController,21,0,experiment,NULL,PennController,20,_Header_,End,1687287247796,615f3662d346c88b024e3103,615f3662d346c88b024e3103,18,ball,critical,D,75,ball65.jpg,ball85.jpg,high,NULL
1687287469,322edcb001c66dde2efbeb0348e61954,PennController,21,0,experiment,NULL,Canvas,canvas6,Print,NA,1687287255574,615f3662d346c88b024e3103,615f3662d346c88b024e3103,18,ball,critical,D,75,ball65.jpg,ball85.jpg,high,NULL
1687287469,322edcb001c66dde2efbeb0348e61954,PennController,21,0,experiment,NULL,Video,progression,buffer,0.017303,1687287251373,615f3662d346c88b024e3103,615f3662d346c88b024e3103,18,ball,critical,D,75,ball65.jpg,ball85.jpg,high,NULL
1687287469,322edcb001c66dde2efbeb0348e61954,PennController,21,0,experiment,NULL,Selector,choice,Selection,option2,1687287258657,615f3662d346c88b024e3103,615f3662d346c88b024e3103,18,ball,critical,D,75,ball65.jpg,ball85.jpg,high,option2;option1
1687287469,322edcb001c66dde2efbeb0348e61954,PennController,21,0,experiment,NULL,PennController,20,_Trial_,End,1687287258662,615f3662d346c88b024e3103,615f3662d346c88b024e3103,18,ball,critical,D,75,ball65.jpg,ball85.jpg,high,NULL
1687287469,322edcb001c66dde2efbeb0348e61954,PennController,17,0,experiment,NULL,PennController,16,_Trial_,Start,1687287258666,615f3662d346c88b024e3103,615f3662d346c88b024e3103,14,cover,critical,D,50,cover42.jpg,cover60.jpg,high,NULL
1687287469,322edcb001c66dde2efbeb0348e61954,PennController,17,0,experiment,NULL,PennController,16,_Header_,Start,1687287258666,615f3662d346c88b024e3103,615f3662d346c88b024e3103,14,cover,critical,D,50,cover42.jpg,cover60.jpg,high,NULL
1687287469,322edcb001c66dde2efbeb0348e61954,PennController,17,0,experiment,NULL,PennController,16,_Header_,End,1687287258666,615f3662d346c88b024e3103,615f3662d346c88b024e3103,14,cover,critical,D,50,cover42.jpg,cover60.jpg,high,NULL
1687287469,322edcb001c66dde2efbeb0348e61954,PennController,17,0,experiment,NULL,Canvas,canvas6,Print,NA,1687287266853,615f3662d346c88b024e3103,615f3662d346c88b024e3103,14,cover,critical,D,50,cover42.jpg,cover60.jpg,high,NULL
1687287469,322edcb001c66dde2efbeb0348e61954,PennController,17,0,experiment,NULL,Video,progression,buffer,0.017247,1687287262254,615f3662d346c88b024e3103,615f3662d346c88b024e3103,14,cover,critical,D,50,cover42.jpg,cover60.jpg,high,NULL
1687287469,322edcb001c66dde2efbeb0348e61954,PennController,17,0,experiment,NULL,Selector,choice,Selection,option1,1687287268923,615f3662d346c88b024e3103,615f3662d346c88b024e3103,14,cover,critical,D,50,cover42.jpg,cover60.jpg,high,option2;option1
1687287469,322edcb001c66dde2efbeb0348e61954,PennController,17,0,experiment,NULL,PennController,16,_Trial_,End,1687287268929,615f3662d346c88b024e3103,615f3662d346c88b024e3103,14,cover,critical,D,50,cover42.jpg,cover60.jpg,high,NULL
1687287469,322edcb001c66dde2efbeb0348e61954,PennController,6,0,experiment,NULL,PennController,5,_Trial_,Start,1687287268935,615f3662d346c88b024e3103,615f3662d346c88b024e3103,3,clean,critical,D,75,clean65.jpg,clean85.jpg,high,NULL
1687287469,322edcb001c66dde2efbeb0348e61954,PennController,6,0,experiment,NULL,PennController,5,_Header_,Start,1687287268935,615f3662d346c88b024e3103,615f3662d346c88b024e3103,3,clean,critical,D,75,clean65.jpg,clean85.jpg,high,NULL
1687287469,322edcb001c66dde2efbeb0348e61954,PennController,6,0,experiment,NULL,PennController,5,_Header_,End,1687287268935,615f3662d346c88b024e3103,615f3662d346c88b024e3103,3,clean,critical,D,75,clean65.jpg,clean85.jpg,high,NULL
1687287469,322edcb001c66dde2efbeb0348e61954,PennController,6,0,experiment,NULL,Canvas,canvas6,Print,NA,1687287276694,615f3662d346c88b024e3103,615f3662d346c88b024e3103,3,clean,critical,D,75,clean65.jpg,clean85.jpg,high,NULL
1687287469,322edcb001c66dde2efbeb0348e61954,PennController,6,0,experiment,NULL,Video,progression,buffer,0.016486,1687287272518,615f3662d346c88b024e3103,615f3662d346c88b024e3103,3,clean,critical,D,75,clean65.jpg,clean85.jpg,high,NULL
1687287469,322edcb001c66dde2efbeb0348e61954,PennController,6,0,experiment,NULL,Selector,choice,Selection,option1,1687287279436,615f3662d346c88b024e3103,615f3662d346c88b024e3103,3,clean,critical,D,75,clean65.jpg,clean85.jpg,high,option1;option2
1687287469,322edcb001c66dde2efbeb0348e61954,PennController,6,0,experiment,NULL,PennController,5,_Trial_,End,1687287279442,615f3662d346c88b024e3103,615f3662d346c88b024e3103,3,clean,critical,D,75,clean65.jpg,clean85.jpg,high,NULL
1687287469,322edcb001c66dde2efbeb0348e61954,PennController,32,0,experiment,NULL,PennController,31,_Trial_,Start,1687287279446,615f3662d346c88b024e3103,615f3662d346c88b024e3103,29,frog,filler,D,50,frog40.jpg,frog60.jpg,GoalB,NULL
1687287469,322edcb001c66dde2efbeb0348e61954,PennController,32,0,experiment,NULL,PennController,31,_Header_,Start,1687287279446,615f3662d346c88b024e3103,615f3662d346c88b024e3103,29,frog,filler,D,50,frog40.jpg,frog60.jpg,GoalB,NULL
1687287469,322edcb001c66dde2efbeb0348e61954,PennController,32,0,experiment,NULL,PennController,31,_Header_,End,1687287279446,615f3662d346c88b024e3103,615f3662d346c88b024e3103,29,frog,filler,D,50,frog40.jpg,frog60.jpg,GoalB,NULL
1687287469,322edcb001c66dde2efbeb0348e61954,PennController,32,0,experiment,NULL,Canvas,canvas6,Print,NA,1687287286210,615f3662d346c88b024e3103,615f3662d346c88b024e3103,29,frog,filler,D,50,frog40.jpg,frog60.jpg,GoalB,NULL
1687287469,322edcb001c66dde2efbeb0348e61954,PennController,32,0,experiment,NULL,Video,progression,buffer,0.018257,1687287283035,615f3662d346c88b024e3103,615f3662d346c88b024e3103,29,frog,filler,D,50,frog40.jpg,frog60.jpg,GoalB,NULL
1687287469,322edcb001c66dde2efbeb0348e61954,PennController,32,0,experiment,NULL,Selector,choice,Selection,option2,1687287289003,615f3662d346c88b024e3103,615f3662d346c88b024e3103,29,frog,filler,D,50,frog40.jpg,frog60.jpg,GoalB,option2;option1
1687287469,322edcb001c66dde2efbeb0348e61954,PennController,32,0,experiment,NULL,PennController,31,_Trial_,End,1687287289008,615f3662d346c88b024e3103,615f3662d346c88b024e3103,29,frog,filler,D,50,frog40.jpg,frog60.jpg,GoalB,NULL
1687287469,322edcb001c66dde2efbeb0348e61954,PennController,16,0,experiment,NULL,PennController,15,_Trial_,Start,1687287289011,615f3662d346c88b024e3103,615f3662d346c88b024e3103,13,mix,critical,D,25,mix15.jpg,mix35.jpg,high,NULL
1687287469,322edcb001c66dde2efbeb0348e61954,PennController,16,0,experiment,NULL,PennController,15,_Header_,Start,1687287289012,615f3662d346c88b024e3103,615f3662d346c88b024e3103,13,mix,critical,D,25,mix15.jpg,mix35.jpg,high,NULL
1687287469,322edcb001c66dde2efbeb0348e61954,PennController,16,0,experiment,NULL,PennController,15,_Header_,End,1687287289012,615f3662d346c88b024e3103,615f3662d346c88b024e3103,13,mix,critical,D,25,mix15.jpg,mix35.jpg,high,NULL
1687287469,322edcb001c66dde2efbeb0348e61954,PennController,16,0,experiment,NULL,Canvas,canvas6,Print,NA,1687287294778,615f3662d346c88b024e3103,615f3662d346c88b024e3103,13,mix,critical,D,25,mix15.jpg,mix35.jpg,high,NULL
1687287469,322edcb001c66dde2efbeb0348e61954,PennController,16,0,experiment,NULL,Video,progression,buffer,0.017095,1687287292582,615f3662d346c88b024e3103,615f3662d346c88b024e3103,13,mix,critical,D,25,mix15.jpg,mix35.jpg,high,NULL
1687287469,322edcb001c66dde2efbeb0348e61954,PennController,16,0,experiment,NULL,Selector,choice,Selection,option2,1687287296599,615f3662d346c88b024e3103,615f3662d346c88b024e3103,13,mix,critical,D,25,mix15.jpg,mix35.jpg,high,option1;option2
1687287469,322edcb001c66dde2efbeb0348e61954,PennController,16,0,experiment,NULL,PennController,15,_Trial_,End,1687287296604,615f3662d346c88b024e3103,615f3662d346c88b024e3103,13,mix,critical,D,25,mix15.jpg,mix35.jpg,high,NULL
1687287469,322edcb001c66dde2efbeb0348e61954,PennController,29,0,experiment,NULL,PennController,28,_Trial_,Start,1687287296609,615f3662d346c88b024e3103,615f3662d346c88b024e3103,26,sandwich,filler,D,50,sandwich40.jpg,sandwich60.jpg,GoalA,NULL
1687287469,322edcb001c66dde2efbeb0348e61954,PennController,29,0,experiment,NULL,PennController,28,_Header_,Start,1687287296609,615f3662d346c88b024e3103,615f3662d346c88b024e3103,26,sandwich,filler,D,50,sandwich40.jpg,sandwich60.jpg,GoalA,NULL
1687287469,322edcb001c66dde2efbeb0348e61954,PennController,29,0,experiment,NULL,PennController,28,_Header_,End,1687287296610,615f3662d346c88b024e3103,615f3662d346c88b024e3103,26,sandwich,filler,D,50,sandwich40.jpg,sandwich60.jpg,GoalA,NULL
1687287469,322edcb001c66dde2efbeb0348e61954,PennController,29,0,experiment,NULL,Canvas,canvas6,Print,NA,1687287303359,615f3662d346c88b024e3103,615f3662d346c88b024e3103,26,sandwich,filler,D,50,sandwich40.jpg,sandwich60.jpg,GoalA,NULL
1687287469,322edcb001c66dde2efbeb0348e61954,PennController,29,0,experiment,NULL,Video,progression,buffer,0.005823,1687287300186,615f3662d346c88b024e3103,615f3662d346c88b024e3103,26,sandwich,filler,D,50,sandwich40.jpg,sandwich60.jpg,GoalA,NULL
1687287469,322edcb001c66dde2efbeb0348e61954,PennController,29,0,experiment,NULL,Selector,choice,Selection,option1,1687287305509,615f3662d346c88b024e3103,615f3662d346c88b024e3103,26,sandwich,filler,D,50,sandwich40.jpg,sandwich60.jpg,GoalA,option1;option2
1687287469,322edcb001c66dde2efbeb0348e61954,PennController,29,0,experiment,NULL,PennController,28,_Trial_,End,1687287305511,615f3662d346c88b024e3103,615f3662d346c88b024e3103,26,sandwich,filler,D,50,sandwich40.jpg,sandwich60.jpg,GoalA,NULL
1687287469,322edcb001c66dde2efbeb0348e61954,PennController,20,0,experiment,NULL,PennController,19,_Trial_,Start,1687287305512,615f3662d346c88b024e3103,615f3662d346c88b024e3103,17,roll,critical,D,50,roll40.jpg,roll60.jpg,high,NULL
1687287469,322edcb001c66dde2efbeb0348e61954,PennController,20,0,experiment,NULL,PennController,19,_Header_,Start,1687287305512,615f3662d346c88b024e3103,615f3662d346c88b024e3103,17,roll,critical,D,50,roll40.jpg,roll60.jpg,high,NULL
1687287469,322edcb001c66dde2efbeb0348e61954,PennController,20,0,experiment,NULL,PennController,19,_Header_,End,1687287305512,615f3662d346c88b024e3103,615f3662d346c88b024e3103,17,roll,critical,D,50,roll40.jpg,roll60.jpg,high,NULL
1687287469,322edcb001c66dde2efbeb0348e61954,PennController,20,0,experiment,NULL,Canvas,canvas6,Print,NA,1687287312266,615f3662d346c88b024e3103,615f3662d346c88b024e3103,17,roll,critical,D,50,roll40.jpg,roll60.jpg,high,NULL
1687287469,322edcb001c66dde2efbeb0348e61954,PennController,20,0,experiment,NULL,Video,progression,buffer,0.019657,1687287309092,615f3662d346c88b024e3103,615f3662d346c88b024e3103,17,roll,critical,D,50,roll40.jpg,roll60.jpg,high,NULL
1687287469,322edcb001c66dde2efbeb0348e61954,PennController,20,0,experiment,NULL,Selector,choice,Selection,option2,1687287314683,615f3662d346c88b024e3103,615f3662d346c88b024e3103,17,roll,critical,D,50,roll40.jpg,roll60.jpg,high,option1;option2
1687287469,322edcb001c66dde2efbeb0348e61954,PennController,20,0,experiment,NULL,PennController,19,_Trial_,End,1687287314688,615f3662d346c88b024e3103,615f3662d346c88b024e3103,17,roll,critical,D,50,roll40.jpg,roll60.jpg,high,NULL
1687287469,322edcb001c66dde2efbeb0348e61954,PennController,26,0,experiment,NULL,PennController,25,_Trial_,Start,1687287314694,615f3662d346c88b024e3103,615f3662d346c88b024e3103,23,color,filler,D,50,color40.jpg,color60.jpg,GoalB,NULL
1687287469,322edcb001c66dde2efbeb0348e61954,PennController,26,0,experiment,NULL,PennController,25,_Header_,Start,1687287314694,615f3662d346c88b024e3103,615f3662d346c88b024e3103,23,color,filler,D,50,color40.jpg,color60.jpg,GoalB,NULL
1687287469,322edcb001c66dde2efbeb0348e61954,PennController,26,0,experiment,NULL,PennController,25,_Header_,End,1687287314694,615f3662d346c88b024e3103,615f3662d346c88b024e3103,23,color,filler,D,50,color40.jpg,color60.jpg,GoalB,NULL
1687287469,322edcb001c66dde2efbeb0348e61954,PennController,26,0,experiment,NULL,Canvas,canvas6,Print,NA,1687287321447,615f3662d346c88b024e3103,615f3662d346c88b024e3103,23,color,filler,D,50,color40.jpg,color60.jpg,GoalB,NULL
1687287469,322edcb001c66dde2efbeb0348e61954,PennController,26,0,experiment,NULL,Video,progression,buffer,0.027424,1687287318278,615f3662d346c88b024e3103,615f3662d346c88b024e3103,23,color,filler,D,50,color40.jpg,color60.jpg,GoalB,NULL
1687287469,322edcb001c66dde2efbeb0348e61954,PennController,26,0,experiment,NULL,Selector,choice,Selection,option2,1687287324366,615f3662d346c88b024e3103,615f3662d346c88b024e3103,23,color,filler,D,50,color40.jpg,color60.jpg,GoalB,option2;option1
1687287469,322edcb001c66dde2efbeb0348e61954,PennController,26,0,experiment,NULL,PennController,25,_Trial_,End,1687287324367,615f3662d346c88b024e3103,615f3662d346c88b024e3103,23,color,filler,D,50,color40.jpg,color60.jpg,GoalB,NULL
1687287469,322edcb001c66dde2efbeb0348e61954,PennController,31,0,experiment,NULL,PennController,30,_Trial_,Start,1687287324369,615f3662d346c88b024e3103,615f3662d346c88b024e3103,28,sort,filler,D,25,sort15.jpg,sort35.jpg,GoalA,NULL
1687287469,322edcb001c66dde2efbeb0348e61954,PennController,31,0,experiment,NULL,PennController,30,_Header_,Start,1687287324369,615f3662d346c88b024e3103,615f3662d346c88b024e3103,28,sort,filler,D,25,sort15.jpg,sort35.jpg,GoalA,NULL
1687287469,322edcb001c66dde2efbeb0348e61954,PennController,31,0,experiment,NULL,PennController,30,_Header_,End,1687287324369,615f3662d346c88b024e3103,615f3662d346c88b024e3103,28,sort,filler,D,25,sort15.jpg,sort35.jpg,GoalA,NULL
1687287469,322edcb001c66dde2efbeb0348e61954,PennController,31,0,experiment,NULL,Canvas,canvas6,Print,NA,1687287330146,615f3662d346c88b024e3103,615f3662d346c88b024e3103,28,sort,filler,D,25,sort15.jpg,sort35.jpg,GoalA,NULL
1687287469,322edcb001c66dde2efbeb0348e61954,PennController,31,0,experiment,NULL,Video,progression,buffer,0.015108,1687287327951,615f3662d346c88b024e3103,615f3662d346c88b024e3103,28,sort,filler,D,25,sort15.jpg,sort35.jpg,GoalA,NULL
1687287469,322edcb001c66dde2efbeb0348e61954,PennController,31,0,experiment,NULL,Selector,choice,Selection,option2,1687287332335,615f3662d346c88b024e3103,615f3662d346c88b024e3103,28,sort,filler,D,25,sort15.jpg,sort35.jpg,GoalA,option1;option2
1687287469,322edcb001c66dde2efbeb0348e61954,PennController,31,0,experiment,NULL,PennController,30,_Trial_,End,1687287332339,615f3662d346c88b024e3103,615f3662d346c88b024e3103,28,sort,filler,D,25,sort15.jpg,sort35.jpg,GoalA,NULL
1687287469,322edcb001c66dde2efbeb0348e61954,PennController,24,0,experiment,NULL,PennController,23,_Trial_,Start,1687287332343,615f3662d346c88b024e3103,615f3662d346c88b024e3103,21,visit,filler,D,75,visit65.jpg,visit85.jpg,GoalB,NULL
1687287469,322edcb001c66dde2efbeb0348e61954,PennController,24,0,experiment,NULL,PennController,23,_Header_,Start,1687287332343,615f3662d346c88b024e3103,615f3662d346c88b024e3103,21,visit,filler,D,75,visit65.jpg,visit85.jpg,GoalB,NULL
1687287469,322edcb001c66dde2efbeb0348e61954,PennController,24,0,experiment,NULL,PennController,23,_Header_,End,1687287332343,615f3662d346c88b024e3103,615f3662d346c88b024e3103,21,visit,filler,D,75,visit65.jpg,visit85.jpg,GoalB,NULL
1687287469,322edcb001c66dde2efbeb0348e61954,PennController,24,0,experiment,NULL,Canvas,canvas6,Print,NA,1687287340110,615f3662d346c88b024e3103,615f3662d346c88b024e3103,21,visit,filler,D,75,visit65.jpg,visit85.jpg,GoalB,NULL
1687287469,322edcb001c66dde2efbeb0348e61954,PennController,24,0,experiment,NULL,Video,progression,buffer,0.017094,1687287335918,615f3662d346c88b024e3103,615f3662d346c88b024e3103,21,visit,filler,D,75,visit65.jpg,visit85.jpg,GoalB,NULL
1687287469,322edcb001c66dde2efbeb0348e61954,PennController,24,0,experiment,NULL,Selector,choice,Selection,option2,1687287341903,615f3662d346c88b024e3103,615f3662d346c88b024e3103,21,visit,filler,D,75,visit65.jpg,visit85.jpg,GoalB,option1;option2
1687287469,322edcb001c66dde2efbeb0348e61954,PennController,24,0,experiment,NULL,PennController,23,_Trial_,End,1687287341908,615f3662d346c88b024e3103,615f3662d346c88b024e3103,21,visit,filler,D,75,visit65.jpg,visit85.jpg,GoalB,NULL
1687287469,322edcb001c66dde2efbeb0348e61954,PennController,22,0,experiment,NULL,PennController,21,_Trial_,Start,1687287341912,615f3662d346c88b024e3103,615f3662d346c88b024e3103,19,cup,filler,D,25,cup15.jpg,cup35.jpg,GoalB,NULL
1687287469,322edcb001c66dde2efbeb0348e61954,PennController,22,0,experiment,NULL,PennController,21,_Header_,Start,1687287341912,615f3662d346c88b024e3103,615f3662d346c88b024e3103,19,cup,filler,D,25,cup15.jpg,cup35.jpg,GoalB,NULL
1687287469,322edcb001c66dde2efbeb0348e61954,PennController,22,0,experiment,NULL,PennController,21,_Header_,End,1687287341913,615f3662d346c88b024e3103,615f3662d346c88b024e3103,19,cup,filler,D,25,cup15.jpg,cup35.jpg,GoalB,NULL
1687287469,322edcb001c66dde2efbeb0348e61954,PennController,22,0,experiment,NULL,Canvas,canvas6,Print,NA,1687287347673,615f3662d346c88b024e3103,615f3662d346c88b024e3103,19,cup,filler,D,25,cup15.jpg,cup35.jpg,GoalB,NULL
1687287469,322edcb001c66dde2efbeb0348e61954,PennController,22,0,experiment,NULL,Video,progression,buffer,0.016657,1687287345496,615f3662d346c88b024e3103,615f3662d346c88b024e3103,19,cup,filler,D,25,cup15.jpg,cup35.jpg,GoalB,NULL
1687287469,322edcb001c66dde2efbeb0348e61954,PennController,22,0,experiment,NULL,Selector,choice,Selection,option2,1687287349362,615f3662d346c88b024e3103,615f3662d346c88b024e3103,19,cup,filler,D,25,cup15.jpg,cup35.jpg,GoalB,option1;option2
1687287469,322edcb001c66dde2efbeb0348e61954,PennController,22,0,experiment,NULL,PennController,21,_Trial_,End,1687287349367,615f3662d346c88b024e3103,615f3662d346c88b024e3103,19,cup,filler,D,25,cup15.jpg,cup35.jpg,GoalB,NULL
1687287469,322edcb001c66dde2efbeb0348e61954,PennController,25,0,experiment,NULL,PennController,24,_Trial_,Start,1687287349371,615f3662d346c88b024e3103,615f3662d346c88b024e3103,22,wall,filler,D,25,wall15.jpg,wall35.jpg,GoalA,NULL
1687287469,322edcb001c66dde2efbeb0348e61954,PennController,25,0,experiment,NULL,PennController,24,_Header_,Start,1687287349371,615f3662d346c88b024e3103,615f3662d346c88b024e3103,22,wall,filler,D,25,wall15.jpg,wall35.jpg,GoalA,NULL
1687287469,322edcb001c66dde2efbeb0348e61954,PennController,25,0,experiment,NULL,PennController,24,_Header_,End,1687287349371,615f3662d346c88b024e3103,615f3662d346c88b024e3103,22,wall,filler,D,25,wall15.jpg,wall35.jpg,GoalA,NULL
1687287469,322edcb001c66dde2efbeb0348e61954,PennController,25,0,experiment,NULL,Canvas,canvas6,Print,NA,1687287355137,615f3662d346c88b024e3103,615f3662d346c88b024e3103,22,wall,filler,D,25,wall15.jpg,wall35.jpg,GoalA,NULL
1687287469,322edcb001c66dde2efbeb0348e61954,PennController,25,0,experiment,NULL,Video,progression,buffer,0.011613,1687287352941,615f3662d346c88b024e3103,615f3662d346c88b024e3103,22,wall,filler,D,25,wall15.jpg,wall35.jpg,GoalA,NULL
1687287469,322edcb001c66dde2efbeb0348e61954,PennController,25,0,experiment,NULL,Selector,choice,Selection,option1,1687287357141,615f3662d346c88b024e3103,615f3662d346c88b024e3103,22,wall,filler,D,25,wall15.jpg,wall35.jpg,GoalA,option2;option1
1687287469,322edcb001c66dde2efbeb0348e61954,PennController,25,0,experiment,NULL,PennController,24,_Trial_,End,1687287357146,615f3662d346c88b024e3103,615f3662d346c88b024e3103,22,wall,filler,D,25,wall15.jpg,wall35.jpg,GoalA,NULL
1687287469,322edcb001c66dde2efbeb0348e61954,PennController,14,0,experiment,NULL,PennController,13,_Trial_,Start,1687287357150,615f3662d346c88b024e3103,615f3662d346c88b024e3103,11,beads,critical,D,50,beads40.jpg,beads60.jpg,high,NULL
1687287469,322edcb001c66dde2efbeb0348e61954,PennController,14,0,experiment,NULL,PennController,13,_Header_,Start,1687287357150,615f3662d346c88b024e3103,615f3662d346c88b024e3103,11,beads,critical,D,50,beads40.jpg,beads60.jpg,high,NULL
1687287469,322edcb001c66dde2efbeb0348e61954,PennController,14,0,experiment,NULL,PennController,13,_Header_,End,1687287357150,615f3662d346c88b024e3103,615f3662d346c88b024e3103,11,beads,critical,D,50,beads40.jpg,beads60.jpg,high,NULL
1687287469,322edcb001c66dde2efbeb0348e61954,PennController,14,0,experiment,NULL,Canvas,canvas6,Print,NA,1687287363933,615f3662d346c88b024e3103,615f3662d346c88b024e3103,11,beads,critical,D,50,beads40.jpg,beads60.jpg,high,NULL
1687287469,322edcb001c66dde2efbeb0348e61954,PennController,14,0,experiment,NULL,Video,progression,buffer,0.028752,1687287360742,615f3662d346c88b024e3103,615f3662d346c88b024e3103,11,beads,critical,D,50,beads40.jpg,beads60.jpg,high,NULL
1687287469,322edcb001c66dde2efbeb0348e61954,PennController,14,0,experiment,NULL,Selector,choice,Selection,option2,1687287365512,615f3662d346c88b024e3103,615f3662d346c88b024e3103,11,beads,critical,D,50,beads40.jpg,beads60.jpg,high,option1;option2
1687287469,322edcb001c66dde2efbeb0348e61954,PennController,14,0,experiment,NULL,PennController,13,_Trial_,End,1687287365514,615f3662d346c88b024e3103,615f3662d346c88b024e3103,11,beads,critical,D,50,beads40.jpg,beads60.jpg,high,NULL
1687287469,322edcb001c66dde2efbeb0348e61954,PennController,30,0,experiment,NULL,PennController,29,_Trial_,Start,1687287365516,615f3662d346c88b024e3103,615f3662d346c88b024e3103,27,square,filler,D,75,square65.jpg,square85.jpg,GoalB,NULL
1687287469,322edcb001c66dde2efbeb0348e61954,PennController,30,0,experiment,NULL,PennController,29,_Header_,Start,1687287365516,615f3662d346c88b024e3103,615f3662d346c88b024e3103,27,square,filler,D,75,square65.jpg,square85.jpg,GoalB,NULL
1687287469,322edcb001c66dde2efbeb0348e61954,PennController,30,0,experiment,NULL,PennController,29,_Header_,End,1687287365516,615f3662d346c88b024e3103,615f3662d346c88b024e3103,27,square,filler,D,75,square65.jpg,square85.jpg,GoalB,NULL
1687287469,322edcb001c66dde2efbeb0348e61954,PennController,30,0,experiment,NULL,Canvas,canvas6,Print,NA,1687287373236,615f3662d346c88b024e3103,615f3662d346c88b024e3103,27,square,filler,D,75,square65.jpg,square85.jpg,GoalB,NULL
1687287469,322edcb001c66dde2efbeb0348e61954,PennController,30,0,experiment,NULL,Video,progression,buffer,0.018646,1687287369082,615f3662d346c88b024e3103,615f3662d346c88b024e3103,27,square,filler,D,75,square65.jpg,square85.jpg,GoalB,NULL
1687287469,322edcb001c66dde2efbeb0348e61954,PennController,30,0,experiment,NULL,Selector,choice,Selection,option1,1687287375477,615f3662d346c88b024e3103,615f3662d346c88b024e3103,27,square,filler,D,75,square65.jpg,square85.jpg,GoalB,option2;option1
1687287469,322edcb001c66dde2efbeb0348e61954,PennController,30,0,experiment,NULL,PennController,29,_Trial_,End,1687287375481,615f3662d346c88b024e3103,615f3662d346c88b024e3103,27,square,filler,D,75,square65.jpg,square85.jpg,GoalB,NULL
1687287469,322edcb001c66dde2efbeb0348e61954,PennController,4,0,experiment,NULL,PennController,3,_Trial_,Start,1687287375486,615f3662d346c88b024e3103,615f3662d346c88b024e3103,1,vase,critical,D,25,vase15.jpg,vase35.jpg,high,NULL
1687287469,322edcb001c66dde2efbeb0348e61954,PennController,4,0,experiment,NULL,PennController,3,_Header_,Start,1687287375486,615f3662d346c88b024e3103,615f3662d346c88b024e3103,1,vase,critical,D,25,vase15.jpg,vase35.jpg,high,NULL
1687287469,322edcb001c66dde2efbeb0348e61954,PennController,4,0,experiment,NULL,PennController,3,_Header_,End,1687287375486,615f3662d346c88b024e3103,615f3662d346c88b024e3103,1,vase,critical,D,25,vase15.jpg,vase35.jpg,high,NULL
1687287469,322edcb001c66dde2efbeb0348e61954,PennController,4,0,experiment,NULL,Canvas,canvas6,Print,NA,1687287381242,615f3662d346c88b024e3103,615f3662d346c88b024e3103,1,vase,critical,D,25,vase15.jpg,vase35.jpg,high,NULL
1687287469,322edcb001c66dde2efbeb0348e61954,PennController,4,0,experiment,NULL,Video,progression,buffer,0.010813,1687287379060,615f3662d346c88b024e3103,615f3662d346c88b024e3103,1,vase,critical,D,25,vase15.jpg,vase35.jpg,high,NULL
1687287469,322edcb001c66dde2efbeb0348e61954,PennController,4,0,experiment,NULL,Selector,choice,Selection,option2,1687287383144,615f3662d346c88b024e3103,615f3662d346c88b024e3103,1,vase,critical,D,25,vase15.jpg,vase35.jpg,high,option2;option1
1687287469,322edcb001c66dde2efbeb0348e61954,PennController,4,0,experiment,NULL,PennController,3,_Trial_,End,1687287383149,615f3662d346c88b024e3103,615f3662d346c88b024e3103,1,vase,critical,D,25,vase15.jpg,vase35.jpg,high,NULL
1687287469,322edcb001c66dde2efbeb0348e61954,PennController,23,0,experiment,NULL,PennController,22,_Trial_,Start,1687287383153,615f3662d346c88b024e3103,615f3662d346c88b024e3103,20,cat,filler,D,50,cat40.jpg,cat60.jpg,GoalA,NULL
1687287469,322edcb001c66dde2efbeb0348e61954,PennController,23,0,experiment,NULL,PennController,22,_Header_,Start,1687287383153,615f3662d346c88b024e3103,615f3662d346c88b024e3103,20,cat,filler,D,50,cat40.jpg,cat60.jpg,GoalA,NULL
1687287469,322edcb001c66dde2efbeb0348e61954,PennController,23,0,experiment,NULL,PennController,22,_Header_,End,1687287383153,615f3662d346c88b024e3103,615f3662d346c88b024e3103,20,cat,filler,D,50,cat40.jpg,cat60.jpg,GoalA,NULL
1687287469,322edcb001c66dde2efbeb0348e61954,PennController,23,0,experiment,NULL,Canvas,canvas6,Print,NA,1687287389921,615f3662d346c88b024e3103,615f3662d346c88b024e3103,20,cat,filler,D,50,cat40.jpg,cat60.jpg,GoalA,NULL
1687287469,322edcb001c66dde2efbeb0348e61954,PennController,23,0,experiment,NULL,Video,progression,buffer,0.014338,1687287386729,615f3662d346c88b024e3103,615f3662d346c88b024e3103,20,cat,filler,D,50,cat40.jpg,cat60.jpg,GoalA,NULL
1687287469,322edcb001c66dde2efbeb0348e61954,PennController,23,0,experiment,NULL,Selector,choice,Selection,option2,1687287392175,615f3662d346c88b024e3103,615f3662d346c88b024e3103,20,cat,filler,D,50,cat40.jpg,cat60.jpg,GoalA,option1;option2
1687287469,322edcb001c66dde2efbeb0348e61954,PennController,23,0,experiment,NULL,PennController,22,_Trial_,End,1687287392179,615f3662d346c88b024e3103,615f3662d346c88b024e3103,20,cat,filler,D,50,cat40.jpg,cat60.jpg,GoalA,NULL
1687287469,322edcb001c66dde2efbeb0348e61954,PennController,10,0,experiment,NULL,PennController,9,_Trial_,Start,1687287392185,615f3662d346c88b024e3103,615f3662d346c88b024e3103,7,stack,critical,D,25,stack15.jpg,stack35.jpg,high,NULL
1687287469,322edcb001c66dde2efbeb0348e61954,PennController,10,0,experiment,NULL,PennController,9,_Header_,Start,1687287392185,615f3662d346c88b024e3103,615f3662d346c88b024e3103,7,stack,critical,D,25,stack15.jpg,stack35.jpg,high,NULL
1687287469,322edcb001c66dde2efbeb0348e61954,PennController,10,0,experiment,NULL,PennController,9,_Header_,End,1687287392185,615f3662d346c88b024e3103,615f3662d346c88b024e3103,7,stack,critical,D,25,stack15.jpg,stack35.jpg,high,NULL
1687287469,322edcb001c66dde2efbeb0348e61954,PennController,10,0,experiment,NULL,Canvas,canvas6,Print,NA,1687287397955,615f3662d346c88b024e3103,615f3662d346c88b024e3103,7,stack,critical,D,25,stack15.jpg,stack35.jpg,high,NULL
1687287469,322edcb001c66dde2efbeb0348e61954,PennController,10,0,experiment,NULL,Video,progression,buffer,0.017094,1687287395763,615f3662d346c88b024e3103,615f3662d346c88b024e3103,7,stack,critical,D,25,stack15.jpg,stack35.jpg,high,NULL
1687287469,322edcb001c66dde2efbeb0348e61954,PennController,10,0,experiment,NULL,Selector,choice,Selection,option2,1687287400882,615f3662d346c88b024e3103,615f3662d346c88b024e3103,7,stack,critical,D,25,stack15.jpg,stack35.jpg,high,option1;option2
1687287469,322edcb001c66dde2efbeb0348e61954,PennController,10,0,experiment,NULL,PennController,9,_Trial_,End,1687287400886,615f3662d346c88b024e3103,615f3662d346c88b024e3103,7,stack,critical,D,25,stack15.jpg,stack35.jpg,high,NULL
1687287469,322edcb001c66dde2efbeb0348e61954,PennController,28,0,experiment,NULL,PennController,27,_Trial_,Start,1687287400890,615f3662d346c88b024e3103,615f3662d346c88b024e3103,25,house,filler,D,25,house15.jpg,house35.jpg,GoalB,NULL
1687287469,322edcb001c66dde2efbeb0348e61954,PennController,28,0,experiment,NULL,PennController,27,_Header_,Start,1687287400890,615f3662d346c88b024e3103,615f3662d346c88b024e3103,25,house,filler,D,25,house15.jpg,house35.jpg,GoalB,NULL
1687287469,322edcb001c66dde2efbeb0348e61954,PennController,28,0,experiment,NULL,PennController,27,_Header_,End,1687287400890,615f3662d346c88b024e3103,615f3662d346c88b024e3103,25,house,filler,D,25,house15.jpg,house35.jpg,GoalB,NULL
1687287469,322edcb001c66dde2efbeb0348e61954,PennController,28,0,experiment,NULL,Canvas,canvas6,Print,NA,1687287406625,615f3662d346c88b024e3103,615f3662d346c88b024e3103,25,house,filler,D,25,house15.jpg,house35.jpg,GoalB,NULL
1687287469,322edcb001c66dde2efbeb0348e61954,PennController,28,0,experiment,NULL,Video,progression,buffer,0.024984,1687287404464,615f3662d346c88b024e3103,615f3662d346c88b024e3103,25,house,filler,D,25,house15.jpg,house35.jpg,GoalB,NULL
1687287469,322edcb001c66dde2efbeb0348e61954,PennController,28,0,experiment,NULL,Selector,choice,Selection,option2,1687287408501,615f3662d346c88b024e3103,615f3662d346c88b024e3103,25,house,filler,D,25,house15.jpg,house35.jpg,GoalB,option2;option1
1687287469,322edcb001c66dde2efbeb0348e61954,PennController,28,0,experiment,NULL,PennController,27,_Trial_,End,1687287408506,615f3662d346c88b024e3103,615f3662d346c88b024e3103,25,house,filler,D,25,house15.jpg,house35.jpg,GoalB,NULL
1687287469,322edcb001c66dde2efbeb0348e61954,PennController,19,0,experiment,NULL,PennController,18,_Trial_,Start,1687287408511,615f3662d346c88b024e3103,615f3662d346c88b024e3103,16,blinds,critical,D,25,blinds15.jpg,blinds33.jpg,high,NULL
1687287469,322edcb001c66dde2efbeb0348e61954,PennController,19,0,experiment,NULL,PennController,18,_Header_,Start,1687287408511,615f3662d346c88b024e3103,615f3662d346c88b024e3103,16,blinds,critical,D,25,blinds15.jpg,blinds33.jpg,high,NULL
1687287469,322edcb001c66dde2efbeb0348e61954,PennController,19,0,experiment,NULL,PennController,18,_Header_,End,1687287408511,615f3662d346c88b024e3103,615f3662d346c88b024e3103,16,blinds,critical,D,25,blinds15.jpg,blinds33.jpg,high,NULL
1687287469,322edcb001c66dde2efbeb0348e61954,PennController,19,0,experiment,NULL,Canvas,canvas6,Print,NA,1687287414872,615f3662d346c88b024e3103,615f3662d346c88b024e3103,16,blinds,critical,D,25,blinds15.jpg,blinds33.jpg,high,NULL
1687287469,322edcb001c66dde2efbeb0348e61954,PennController,19,0,experiment,NULL,Video,progression,buffer,0.017273,1687287412095,615f3662d346c88b024e3103,615f3662d346c88b024e3103,16,blinds,critical,D,25,blinds15.jpg,blinds33.jpg,high,NULL
1687287469,322edcb001c66dde2efbeb0348e61954,PennController,19,0,experiment,NULL,Selector,choice,Selection,option1,1687287417867,615f3662d346c88b024e3103,615f3662d346c88b024e3103,16,blinds,critical,D,25,blinds15.jpg,blinds33.jpg,high,option2;option1
1687287469,322edcb001c66dde2efbeb0348e61954,PennController,19,0,experiment,NULL,PennController,18,_Trial_,End,1687287417871,615f3662d346c88b024e3103,615f3662d346c88b024e3103,16,blinds,critical,D,25,blinds15.jpg,blinds33.jpg,high,NULL
1687287469,322edcb001c66dde2efbeb0348e61954,PennController,8,0,experiment,NULL,PennController,7,_Trial_,Start,1687287417875,615f3662d346c88b024e3103,615f3662d346c88b024e3103,5,book,critical,D,50,book40.jpg,book60.jpg,high,NULL
1687287469,322edcb001c66dde2efbeb0348e61954,PennController,8,0,experiment,NULL,PennController,7,_Header_,Start,1687287417875,615f3662d346c88b024e3103,615f3662d346c88b024e3103,5,book,critical,D,50,book40.jpg,book60.jpg,high,NULL
1687287469,322edcb001c66dde2efbeb0348e61954,PennController,8,0,experiment,NULL,PennController,7,_Header_,End,1687287417875,615f3662d346c88b024e3103,615f3662d346c88b024e3103,5,book,critical,D,50,book40.jpg,book60.jpg,high,NULL
1687287469,322edcb001c66dde2efbeb0348e61954,PennController,8,0,experiment,NULL,Canvas,canvas6,Print,NA,1687287424622,615f3662d346c88b024e3103,615f3662d346c88b024e3103,5,book,critical,D,50,book40.jpg,book60.jpg,high,NULL
1687287469,322edcb001c66dde2efbeb0348e61954,PennController,8,0,experiment,NULL,Video,progression,buffer,0.022841,1687287421464,615f3662d346c88b024e3103,615f3662d346c88b024e3103,5,book,critical,D,50,book40.jpg,book60.jpg,high,NULL
1687287469,322edcb001c66dde2efbeb0348e61954,PennController,8,0,experiment,NULL,Selector,choice,Selection,option1,1687287427217,615f3662d346c88b024e3103,615f3662d346c88b024e3103,5,book,critical,D,50,book40.jpg,book60.jpg,high,option1;option2
1687287469,322edcb001c66dde2efbeb0348e61954,PennController,8,0,experiment,NULL,PennController,7,_Trial_,End,1687287427222,615f3662d346c88b024e3103,615f3662d346c88b024e3103,5,book,critical,D,50,book40.jpg,book60.jpg,high,NULL
1687287469,322edcb001c66dde2efbeb0348e61954,PennController,12,0,experiment,NULL,PennController,11,_Trial_,Start,1687287427227,615f3662d346c88b024e3103,615f3662d346c88b024e3103,9,cake,critical,D,75,cake66.jpg,cake84.jpg,high,NULL
1687287469,322edcb001c66dde2efbeb0348e61954,PennController,12,0,experiment,NULL,PennController,11,_Header_,Start,1687287427227,615f3662d346c88b024e3103,615f3662d346c88b024e3103,9,cake,critical,D,75,cake66.jpg,cake84.jpg,high,NULL
1687287469,322edcb001c66dde2efbeb0348e61954,PennController,12,0,experiment,NULL,PennController,11,_Header_,End,1687287427227,615f3662d346c88b024e3103,615f3662d346c88b024e3103,9,cake,critical,D,75,cake66.jpg,cake84.jpg,high,NULL
1687287469,322edcb001c66dde2efbeb0348e61954,PennController,12,0,experiment,NULL,Canvas,canvas6,Print,NA,1687287436980,615f3662d346c88b024e3103,615f3662d346c88b024e3103,9,cake,critical,D,75,cake66.jpg,cake84.jpg,high,NULL
1687287469,322edcb001c66dde2efbeb0348e61954,PennController,12,0,experiment,NULL,Video,progression,buffer,0.014808,1687287430803,615f3662d346c88b024e3103,615f3662d346c88b024e3103,9,cake,critical,D,75,cake66.jpg,cake84.jpg,high,NULL
1687287469,322edcb001c66dde2efbeb0348e61954,PennController,12,0,experiment,NULL,Selector,choice,Selection,option2,1687287438712,615f3662d346c88b024e3103,615f3662d346c88b024e3103,9,cake,critical,D,75,cake66.jpg,cake84.jpg,high,option1;option2
1687287469,322edcb001c66dde2efbeb0348e61954,PennController,12,0,experiment,NULL,PennController,11,_Trial_,End,1687287438716,615f3662d346c88b024e3103,615f3662d346c88b024e3103,9,cake,critical,D,75,cake66.jpg,cake84.jpg,high,NULL
1687287469,322edcb001c66dde2efbeb0348e61954,PennController,7,0,experiment,NULL,PennController,6,_Trial_,Start,1687287438721,615f3662d346c88b024e3103,615f3662d346c88b024e3103,4,candy,critical,D,25,candy15.jpg,candy35.jpg,high,NULL
1687287469,322edcb001c66dde2efbeb0348e61954,PennController,7,0,experiment,NULL,PennController,6,_Header_,Start,1687287438721,615f3662d346c88b024e3103,615f3662d346c88b024e3103,4,candy,critical,D,25,candy15.jpg,candy35.jpg,high,NULL
1687287469,322edcb001c66dde2efbeb0348e61954,PennController,7,0,experiment,NULL,PennController,6,_Header_,End,1687287438721,615f3662d346c88b024e3103,615f3662d346c88b024e3103,4,candy,critical,D,25,candy15.jpg,candy35.jpg,high,NULL
1687287469,322edcb001c66dde2efbeb0348e61954,PennController,7,0,experiment,NULL,Canvas,canvas6,Print,NA,1687287444486,615f3662d346c88b024e3103,615f3662d346c88b024e3103,4,candy,critical,D,25,candy15.jpg,candy35.jpg,high,NULL
1687287469,322edcb001c66dde2efbeb0348e61954,PennController,7,0,experiment,NULL,Video,progression,buffer,0.010975,1687287442297,615f3662d346c88b024e3103,615f3662d346c88b024e3103,4,candy,critical,D,25,candy15.jpg,candy35.jpg,high,NULL
1687287469,322edcb001c66dde2efbeb0348e61954,PennController,7,0,experiment,NULL,Selector,choice,Selection,option1,1687287446350,615f3662d346c88b024e3103,615f3662d346c88b024e3103,4,candy,critical,D,25,candy15.jpg,candy35.jpg,high,option2;option1
1687287469,322edcb001c66dde2efbeb0348e61954,PennController,7,0,experiment,NULL,PennController,6,_Trial_,End,1687287446355,615f3662d346c88b024e3103,615f3662d346c88b024e3103,4,candy,critical,D,25,candy15.jpg,candy35.jpg,high,NULL
1687287469,322edcb001c66dde2efbeb0348e61954,PennController,9,0,experiment,NULL,PennController,8,_Trial_,Start,1687287446358,615f3662d346c88b024e3103,615f3662d346c88b024e3103,6,flower,critical,D,75,flower65.jpg,flower85.jpg,high,NULL
1687287469,322edcb001c66dde2efbeb0348e61954,PennController,9,0,experiment,NULL,PennController,8,_Header_,Start,1687287446358,615f3662d346c88b024e3103,615f3662d346c88b024e3103,6,flower,critical,D,75,flower65.jpg,flower85.jpg,high,NULL
1687287469,322edcb001c66dde2efbeb0348e61954,PennController,9,0,experiment,NULL,PennController,8,_Header_,End,1687287446358,615f3662d346c88b024e3103,615f3662d346c88b024e3103,6,flower,critical,D,75,flower65.jpg,flower85.jpg,high,NULL
1687287469,322edcb001c66dde2efbeb0348e61954,PennController,9,0,experiment,NULL,Canvas,canvas6,Print,NA,1687287454110,615f3662d346c88b024e3103,615f3662d346c88b024e3103,6,flower,critical,D,75,flower65.jpg,flower85.jpg,high,NULL
1687287469,322edcb001c66dde2efbeb0348e61954,PennController,9,0,experiment,NULL,Video,progression,buffer,0.015853,1687287449920,615f3662d346c88b024e3103,615f3662d346c88b024e3103,6,flower,critical,D,75,flower65.jpg,flower85.jpg,high,NULL
1687287469,322edcb001c66dde2efbeb0348e61954,PennController,9,0,experiment,NULL,Selector,choice,Selection,option2,1687287456170,615f3662d346c88b024e3103,615f3662d346c88b024e3103,6,flower,critical,D,75,flower65.jpg,flower85.jpg,high,option1;option2
1687287469,322edcb001c66dde2efbeb0348e61954,PennController,9,0,experiment,NULL,PennController,8,_Trial_,End,1687287456175,615f3662d346c88b024e3103,615f3662d346c88b024e3103,6,flower,critical,D,75,flower65.jpg,flower85.jpg,high,NULL
1687287469,322edcb001c66dde2efbeb0348e61954,PennController,18,0,experiment,NULL,PennController,17,_Trial_,Start,1687287456180,615f3662d346c88b024e3103,615f3662d346c88b024e3103,15,zip,critical,D,75,zip65.jpg,zip85.jpg,high,NULL
1687287469,322edcb001c66dde2efbeb0348e61954,PennController,18,0,experiment,NULL,PennController,17,_Header_,Start,1687287456180,615f3662d346c88b024e3103,615f3662d346c88b024e3103,15,zip,critical,D,75,zip65.jpg,zip85.jpg,high,NULL
1687287469,322edcb001c66dde2efbeb0348e61954,PennController,18,0,experiment,NULL,PennController,17,_Header_,End,1687287456180,615f3662d346c88b024e3103,615f3662d346c88b024e3103,15,zip,critical,D,75,zip65.jpg,zip85.jpg,high,NULL
1687287469,322edcb001c66dde2efbeb0348e61954,PennController,18,0,experiment,NULL,Canvas,canvas6,Print,NA,1687287463142,615f3662d346c88b024e3103,615f3662d346c88b024e3103,15,zip,critical,D,75,zip65.jpg,zip85.jpg,high,NULL
1687287469,322edcb001c66dde2efbeb0348e61954,PennController,18,0,experiment,NULL,Video,progression,buffer,0.010638,1687287459760,615f3662d346c88b024e3103,615f3662d346c88b024e3103,15,zip,critical,D,75,zip65.jpg,zip85.jpg,high,NULL
1687287469,322edcb001c66dde2efbeb0348e61954,PennController,18,0,experiment,NULL,Selector,choice,Selection,option2,1687287465522,615f3662d346c88b024e3103,615f3662d346c88b024e3103,15,zip,critical,D,75,zip65.jpg,zip85.jpg,high,option1;option2
1687287469,322edcb001c66dde2efbeb0348e61954,PennController,18,0,experiment,NULL,PennController,17,_Trial_,End,1687287465527,615f3662d346c88b024e3103,615f3662d346c88b024e3103,15,zip,critical,D,75,zip65.jpg,zip85.jpg,high,NULL
