#
# Results on Thursday June 22 2023 05:53:42 UTC
# USER AGENT: Mozilla/5.0 (Windows NT 10.0; Win64; x64) AppleWebKit/537.36 (KHTML, like Gecko) Chrome/114.0.0.0 Safari/537.36 Edg/114.0.1823.51
# Design number was non-random = 87
#
# Columns below this comment are as follows:
# 1. Results reception time.
# 2. MD5 hash of participant's IP address.
# 3. Controller name.
# 4. Order number of item.
# 5. Inner element number.
# 6. Label.
# 7. Latin Square Group.
# 8. PennElementType.
# 9. PennElementName.
# 10. Parameter.
# 11. Value.
# 12. EventTime.
# 13. PROLIFIC_ID.
# 14. Comments.
1687413222,10000b1d751c6663ab7440c9a759941d,PennController,3,0,consent,NULL,PennController,0,_Trial_,Start,1687412748757,63cef382de9c155b386c7a35,NULL
1687413222,10000b1d751c6663ab7440c9a759941d,PennController,3,0,consent,NULL,PennController,0,_Header_,Start,1687412748757,63cef382de9c155b386c7a35,NULL
1687413222,10000b1d751c6663ab7440c9a759941d,PennController,3,0,consent,NULL,PennController,0,_Header_,End,1687412748757,63cef382de9c155b386c7a35,NULL
1687413222,10000b1d751c6663ab7440c9a759941d,PennController,3,0,consent,NULL,PennController,0,_Trial_,End,1687412865461,63cef382de9c155b386c7a35,NULL
# Columns below this comment are as follows:
# 14. ID.
# 15. Comments.
1687413222,10000b1d751c6663ab7440c9a759941d,PennController,4,0,intro,NULL,PennController,1,_Trial_,Start,1687412865464,63cef382de9c155b386c7a35,63cef382de9c155b386c7a35,NULL
1687413222,10000b1d751c6663ab7440c9a759941d,PennController,4,0,intro,NULL,PennController,1,_Header_,Start,1687412865464,63cef382de9c155b386c7a35,63cef382de9c155b386c7a35,NULL
1687413222,10000b1d751c6663ab7440c9a759941d,PennController,4,0,intro,NULL,PennController,1,_Header_,End,1687412865464,63cef382de9c155b386c7a35,63cef382de9c155b386c7a35,NULL
1687413222,10000b1d751c6663ab7440c9a759941d,PennController,4,0,intro,NULL,PennController,1,_Trial_,End,1687412898086,63cef382de9c155b386c7a35,63cef382de9c155b386c7a35,NULL
# Columns below this comment are as follows:
# 15. item_number.
# 16. item.
# 17. type.
# 18. Group.
# 19. prog.
# 20. prev_image.
# 21. next_image.
# 22. height.
# 23. Comments.
1687413222,10000b1d751c6663ab7440c9a759941d,PennController,32,0,experiment,NULL,PennController,30,_Trial_,Start,1687412898087,63cef382de9c155b386c7a35,63cef382de9c155b386c7a35,28,sort,filler,B,50,sort40.jpg,sort60.jpg,GoalB,NULL
1687413222,10000b1d751c6663ab7440c9a759941d,PennController,32,0,experiment,NULL,PennController,30,_Header_,Start,1687412898087,63cef382de9c155b386c7a35,63cef382de9c155b386c7a35,28,sort,filler,B,50,sort40.jpg,sort60.jpg,GoalB,NULL
1687413222,10000b1d751c6663ab7440c9a759941d,PennController,32,0,experiment,NULL,PennController,30,_Header_,End,1687412898087,63cef382de9c155b386c7a35,63cef382de9c155b386c7a35,28,sort,filler,B,50,sort40.jpg,sort60.jpg,GoalB,NULL
1687413222,10000b1d751c6663ab7440c9a759941d,PennController,32,0,experiment,NULL,Canvas,canvas6,Print,NA,1687412904783,63cef382de9c155b386c7a35,63cef382de9c155b386c7a35,28,sort,filler,B,50,sort40.jpg,sort60.jpg,GoalB,NULL
1687413222,10000b1d751c6663ab7440c9a759941d,PennController,32,0,experiment,NULL,Video,progression,buffer,0.002726,1687412901615,63cef382de9c155b386c7a35,63cef382de9c155b386c7a35,28,sort,filler,B,50,sort40.jpg,sort60.jpg,GoalB,NULL
1687413222,10000b1d751c6663ab7440c9a759941d,PennController,32,0,experiment,NULL,Selector,choice,Selection,option2,1687412912956,63cef382de9c155b386c7a35,63cef382de9c155b386c7a35,28,sort,filler,B,50,sort40.jpg,sort60.jpg,GoalB,option2;option1
1687413222,10000b1d751c6663ab7440c9a759941d,PennController,32,0,experiment,NULL,PennController,30,_Trial_,End,1687412912957,63cef382de9c155b386c7a35,63cef382de9c155b386c7a35,28,sort,filler,B,50,sort40.jpg,sort60.jpg,GoalB,NULL
1687413222,10000b1d751c6663ab7440c9a759941d,PennController,19,0,experiment,NULL,PennController,17,_Trial_,Start,1687412912958,63cef382de9c155b386c7a35,63cef382de9c155b386c7a35,15,zip,critical,B,25,zip15.jpg,zip35.jpg,low,NULL
1687413222,10000b1d751c6663ab7440c9a759941d,PennController,19,0,experiment,NULL,PennController,17,_Header_,Start,1687412912958,63cef382de9c155b386c7a35,63cef382de9c155b386c7a35,15,zip,critical,B,25,zip15.jpg,zip35.jpg,low,NULL
1687413222,10000b1d751c6663ab7440c9a759941d,PennController,19,0,experiment,NULL,PennController,17,_Header_,End,1687412912958,63cef382de9c155b386c7a35,63cef382de9c155b386c7a35,15,zip,critical,B,25,zip15.jpg,zip35.jpg,low,NULL
1687413222,10000b1d751c6663ab7440c9a759941d,PennController,19,0,experiment,NULL,Canvas,canvas6,Print,NA,1687412918632,63cef382de9c155b386c7a35,63cef382de9c155b386c7a35,15,zip,critical,B,25,zip15.jpg,zip35.jpg,low,NULL
1687413222,10000b1d751c6663ab7440c9a759941d,PennController,19,0,experiment,NULL,Video,progression,buffer,0.001669,1687412916469,63cef382de9c155b386c7a35,63cef382de9c155b386c7a35,15,zip,critical,B,25,zip15.jpg,zip35.jpg,low,NULL
1687413222,10000b1d751c6663ab7440c9a759941d,PennController,19,0,experiment,NULL,Selector,choice,Selection,option1,1687412920764,63cef382de9c155b386c7a35,63cef382de9c155b386c7a35,15,zip,critical,B,25,zip15.jpg,zip35.jpg,low,option1;option2
1687413222,10000b1d751c6663ab7440c9a759941d,PennController,19,0,experiment,NULL,PennController,17,_Trial_,End,1687412920765,63cef382de9c155b386c7a35,63cef382de9c155b386c7a35,15,zip,critical,B,25,zip15.jpg,zip35.jpg,low,NULL
1687413222,10000b1d751c6663ab7440c9a759941d,PennController,23,0,experiment,NULL,PennController,21,_Trial_,Start,1687412920766,63cef382de9c155b386c7a35,63cef382de9c155b386c7a35,19,cup,filler,B,50,cup40.jpg,cup60.jpg,GoalA,NULL
1687413222,10000b1d751c6663ab7440c9a759941d,PennController,23,0,experiment,NULL,PennController,21,_Header_,Start,1687412920766,63cef382de9c155b386c7a35,63cef382de9c155b386c7a35,19,cup,filler,B,50,cup40.jpg,cup60.jpg,GoalA,NULL
1687413222,10000b1d751c6663ab7440c9a759941d,PennController,23,0,experiment,NULL,PennController,21,_Header_,End,1687412920766,63cef382de9c155b386c7a35,63cef382de9c155b386c7a35,19,cup,filler,B,50,cup40.jpg,cup60.jpg,GoalA,NULL
1687413222,10000b1d751c6663ab7440c9a759941d,PennController,23,0,experiment,NULL,Canvas,canvas6,Print,NA,1687412927447,63cef382de9c155b386c7a35,63cef382de9c155b386c7a35,19,cup,filler,B,50,cup40.jpg,cup60.jpg,GoalA,NULL
1687413222,10000b1d751c6663ab7440c9a759941d,PennController,23,0,experiment,NULL,Video,progression,buffer,0.001641,1687412924276,63cef382de9c155b386c7a35,63cef382de9c155b386c7a35,19,cup,filler,B,50,cup40.jpg,cup60.jpg,GoalA,NULL
1687413222,10000b1d751c6663ab7440c9a759941d,PennController,23,0,experiment,NULL,Selector,choice,Selection,option2,1687412929787,63cef382de9c155b386c7a35,63cef382de9c155b386c7a35,19,cup,filler,B,50,cup40.jpg,cup60.jpg,GoalA,option2;option1
1687413222,10000b1d751c6663ab7440c9a759941d,PennController,23,0,experiment,NULL,PennController,21,_Trial_,End,1687412929788,63cef382de9c155b386c7a35,63cef382de9c155b386c7a35,19,cup,filler,B,50,cup40.jpg,cup60.jpg,GoalA,NULL
1687413222,10000b1d751c6663ab7440c9a759941d,PennController,8,0,experiment,NULL,PennController,6,_Trial_,Start,1687412929789,63cef382de9c155b386c7a35,63cef382de9c155b386c7a35,4,candy,critical,B,50,candy40.jpg,candy60.jpg,low,NULL
1687413222,10000b1d751c6663ab7440c9a759941d,PennController,8,0,experiment,NULL,PennController,6,_Header_,Start,1687412929789,63cef382de9c155b386c7a35,63cef382de9c155b386c7a35,4,candy,critical,B,50,candy40.jpg,candy60.jpg,low,NULL
1687413222,10000b1d751c6663ab7440c9a759941d,PennController,8,0,experiment,NULL,PennController,6,_Header_,End,1687412929789,63cef382de9c155b386c7a35,63cef382de9c155b386c7a35,4,candy,critical,B,50,candy40.jpg,candy60.jpg,low,NULL
1687413222,10000b1d751c6663ab7440c9a759941d,PennController,8,0,experiment,NULL,Canvas,canvas6,Print,NA,1687412936474,63cef382de9c155b386c7a35,63cef382de9c155b386c7a35,4,candy,critical,B,50,candy40.jpg,candy60.jpg,low,NULL
1687413222,10000b1d751c6663ab7440c9a759941d,PennController,8,0,experiment,NULL,Video,progression,buffer,0.001704,1687412933305,63cef382de9c155b386c7a35,63cef382de9c155b386c7a35,4,candy,critical,B,50,candy40.jpg,candy60.jpg,low,NULL
1687413222,10000b1d751c6663ab7440c9a759941d,PennController,8,0,experiment,NULL,Selector,choice,Selection,option1,1687412938418,63cef382de9c155b386c7a35,63cef382de9c155b386c7a35,4,candy,critical,B,50,candy40.jpg,candy60.jpg,low,option1;option2
1687413222,10000b1d751c6663ab7440c9a759941d,PennController,8,0,experiment,NULL,PennController,6,_Trial_,End,1687412938419,63cef382de9c155b386c7a35,63cef382de9c155b386c7a35,4,candy,critical,B,50,candy40.jpg,candy60.jpg,low,NULL
1687413222,10000b1d751c6663ab7440c9a759941d,PennController,14,0,experiment,NULL,PennController,12,_Trial_,Start,1687412938420,63cef382de9c155b386c7a35,63cef382de9c155b386c7a35,10,train,critical,B,50,train40.jpg,train60.jpg,low,NULL
1687413222,10000b1d751c6663ab7440c9a759941d,PennController,14,0,experiment,NULL,PennController,12,_Header_,Start,1687412938420,63cef382de9c155b386c7a35,63cef382de9c155b386c7a35,10,train,critical,B,50,train40.jpg,train60.jpg,low,NULL
1687413222,10000b1d751c6663ab7440c9a759941d,PennController,14,0,experiment,NULL,PennController,12,_Header_,End,1687412938420,63cef382de9c155b386c7a35,63cef382de9c155b386c7a35,10,train,critical,B,50,train40.jpg,train60.jpg,low,NULL
1687413222,10000b1d751c6663ab7440c9a759941d,PennController,14,0,experiment,NULL,Canvas,canvas6,Print,NA,1687412945088,63cef382de9c155b386c7a35,63cef382de9c155b386c7a35,10,train,critical,B,50,train40.jpg,train60.jpg,low,NULL
1687413222,10000b1d751c6663ab7440c9a759941d,PennController,14,0,experiment,NULL,Video,progression,buffer,0.001794,1687412941933,63cef382de9c155b386c7a35,63cef382de9c155b386c7a35,10,train,critical,B,50,train40.jpg,train60.jpg,low,NULL
1687413222,10000b1d751c6663ab7440c9a759941d,PennController,14,0,experiment,NULL,Selector,choice,Selection,option2,1687412948472,63cef382de9c155b386c7a35,63cef382de9c155b386c7a35,10,train,critical,B,50,train40.jpg,train60.jpg,low,option2;option1
1687413222,10000b1d751c6663ab7440c9a759941d,PennController,14,0,experiment,NULL,PennController,12,_Trial_,End,1687412948473,63cef382de9c155b386c7a35,63cef382de9c155b386c7a35,10,train,critical,B,50,train40.jpg,train60.jpg,low,NULL
1687413222,10000b1d751c6663ab7440c9a759941d,PennController,31,0,experiment,NULL,PennController,29,_Trial_,Start,1687412948473,63cef382de9c155b386c7a35,63cef382de9c155b386c7a35,27,square,filler,B,25,square15.jpg,square35.jpg,GoalA,NULL
1687413222,10000b1d751c6663ab7440c9a759941d,PennController,31,0,experiment,NULL,PennController,29,_Header_,Start,1687412948473,63cef382de9c155b386c7a35,63cef382de9c155b386c7a35,27,square,filler,B,25,square15.jpg,square35.jpg,GoalA,NULL
1687413222,10000b1d751c6663ab7440c9a759941d,PennController,31,0,experiment,NULL,PennController,29,_Header_,End,1687412948473,63cef382de9c155b386c7a35,63cef382de9c155b386c7a35,27,square,filler,B,25,square15.jpg,square35.jpg,GoalA,NULL
1687413222,10000b1d751c6663ab7440c9a759941d,PennController,31,0,experiment,NULL,Canvas,canvas6,Print,NA,1687412954151,63cef382de9c155b386c7a35,63cef382de9c155b386c7a35,27,square,filler,B,25,square15.jpg,square35.jpg,GoalA,NULL
1687413222,10000b1d751c6663ab7440c9a759941d,PennController,31,0,experiment,NULL,Video,progression,buffer,0.001522,1687412951986,63cef382de9c155b386c7a35,63cef382de9c155b386c7a35,27,square,filler,B,25,square15.jpg,square35.jpg,GoalA,NULL
1687413222,10000b1d751c6663ab7440c9a759941d,PennController,31,0,experiment,NULL,Selector,choice,Selection,option2,1687412958895,63cef382de9c155b386c7a35,63cef382de9c155b386c7a35,27,square,filler,B,25,square15.jpg,square35.jpg,GoalA,option1;option2
1687413222,10000b1d751c6663ab7440c9a759941d,PennController,31,0,experiment,NULL,PennController,29,_Trial_,End,1687412958896,63cef382de9c155b386c7a35,63cef382de9c155b386c7a35,27,square,filler,B,25,square15.jpg,square35.jpg,GoalA,NULL
1687413222,10000b1d751c6663ab7440c9a759941d,PennController,26,0,experiment,NULL,PennController,24,_Trial_,Start,1687412958896,63cef382de9c155b386c7a35,63cef382de9c155b386c7a35,22,wall,filler,B,50,wall40.jpg,wall60.jpg,GoalB,NULL
1687413222,10000b1d751c6663ab7440c9a759941d,PennController,26,0,experiment,NULL,PennController,24,_Header_,Start,1687412958896,63cef382de9c155b386c7a35,63cef382de9c155b386c7a35,22,wall,filler,B,50,wall40.jpg,wall60.jpg,GoalB,NULL
1687413222,10000b1d751c6663ab7440c9a759941d,PennController,26,0,experiment,NULL,PennController,24,_Header_,End,1687412958896,63cef382de9c155b386c7a35,63cef382de9c155b386c7a35,22,wall,filler,B,50,wall40.jpg,wall60.jpg,GoalB,NULL
1687413222,10000b1d751c6663ab7440c9a759941d,PennController,26,0,experiment,NULL,Canvas,canvas6,Print,NA,1687412965580,63cef382de9c155b386c7a35,63cef382de9c155b386c7a35,22,wall,filler,B,50,wall40.jpg,wall60.jpg,GoalB,NULL
1687413222,10000b1d751c6663ab7440c9a759941d,PennController,26,0,experiment,NULL,Video,progression,buffer,0.002539,1687412962413,63cef382de9c155b386c7a35,63cef382de9c155b386c7a35,22,wall,filler,B,50,wall40.jpg,wall60.jpg,GoalB,NULL
1687413222,10000b1d751c6663ab7440c9a759941d,PennController,26,0,experiment,NULL,Selector,choice,Selection,option2,1687412968097,63cef382de9c155b386c7a35,63cef382de9c155b386c7a35,22,wall,filler,B,50,wall40.jpg,wall60.jpg,GoalB,option2;option1
1687413222,10000b1d751c6663ab7440c9a759941d,PennController,26,0,experiment,NULL,PennController,24,_Trial_,End,1687412968098,63cef382de9c155b386c7a35,63cef382de9c155b386c7a35,22,wall,filler,B,50,wall40.jpg,wall60.jpg,GoalB,NULL
1687413222,10000b1d751c6663ab7440c9a759941d,PennController,7,0,experiment,NULL,PennController,5,_Trial_,Start,1687412968099,63cef382de9c155b386c7a35,63cef382de9c155b386c7a35,3,clean,critical,B,25,clean15.jpg,clean35.jpg,low,NULL
1687413222,10000b1d751c6663ab7440c9a759941d,PennController,7,0,experiment,NULL,PennController,5,_Header_,Start,1687412968099,63cef382de9c155b386c7a35,63cef382de9c155b386c7a35,3,clean,critical,B,25,clean15.jpg,clean35.jpg,low,NULL
1687413222,10000b1d751c6663ab7440c9a759941d,PennController,7,0,experiment,NULL,PennController,5,_Header_,End,1687412968099,63cef382de9c155b386c7a35,63cef382de9c155b386c7a35,3,clean,critical,B,25,clean15.jpg,clean35.jpg,low,NULL
1687413222,10000b1d751c6663ab7440c9a759941d,PennController,7,0,experiment,NULL,Canvas,canvas6,Print,NA,1687412973778,63cef382de9c155b386c7a35,63cef382de9c155b386c7a35,3,clean,critical,B,25,clean15.jpg,clean35.jpg,low,NULL
1687413222,10000b1d751c6663ab7440c9a759941d,PennController,7,0,experiment,NULL,Video,progression,buffer,0.001581,1687412971613,63cef382de9c155b386c7a35,63cef382de9c155b386c7a35,3,clean,critical,B,25,clean15.jpg,clean35.jpg,low,NULL
1687413222,10000b1d751c6663ab7440c9a759941d,PennController,7,0,experiment,NULL,Selector,choice,Selection,option1,1687412977570,63cef382de9c155b386c7a35,63cef382de9c155b386c7a35,3,clean,critical,B,25,clean15.jpg,clean35.jpg,low,option1;option2
1687413222,10000b1d751c6663ab7440c9a759941d,PennController,7,0,experiment,NULL,PennController,5,_Trial_,End,1687412977570,63cef382de9c155b386c7a35,63cef382de9c155b386c7a35,3,clean,critical,B,25,clean15.jpg,clean35.jpg,low,NULL
1687413222,10000b1d751c6663ab7440c9a759941d,PennController,16,0,experiment,NULL,PennController,14,_Trial_,Start,1687412977571,63cef382de9c155b386c7a35,63cef382de9c155b386c7a35,12,erase,critical,B,25,erase15.jpg,erase33.jpg,low,NULL
1687413222,10000b1d751c6663ab7440c9a759941d,PennController,16,0,experiment,NULL,PennController,14,_Header_,Start,1687412977571,63cef382de9c155b386c7a35,63cef382de9c155b386c7a35,12,erase,critical,B,25,erase15.jpg,erase33.jpg,low,NULL
1687413222,10000b1d751c6663ab7440c9a759941d,PennController,16,0,experiment,NULL,PennController,14,_Header_,End,1687412977571,63cef382de9c155b386c7a35,63cef382de9c155b386c7a35,12,erase,critical,B,25,erase15.jpg,erase33.jpg,low,NULL
1687413222,10000b1d751c6663ab7440c9a759941d,PennController,16,0,experiment,NULL,Canvas,canvas6,Print,NA,1687412983857,63cef382de9c155b386c7a35,63cef382de9c155b386c7a35,12,erase,critical,B,25,erase15.jpg,erase33.jpg,low,NULL
1687413222,10000b1d751c6663ab7440c9a759941d,PennController,16,0,experiment,NULL,Video,progression,buffer,0.002614,1687412981089,63cef382de9c155b386c7a35,63cef382de9c155b386c7a35,12,erase,critical,B,25,erase15.jpg,erase33.jpg,low,NULL
1687413222,10000b1d751c6663ab7440c9a759941d,PennController,16,0,experiment,NULL,Selector,choice,Selection,option2,1687412987373,63cef382de9c155b386c7a35,63cef382de9c155b386c7a35,12,erase,critical,B,25,erase15.jpg,erase33.jpg,low,option1;option2
1687413222,10000b1d751c6663ab7440c9a759941d,PennController,16,0,experiment,NULL,PennController,14,_Trial_,End,1687412987374,63cef382de9c155b386c7a35,63cef382de9c155b386c7a35,12,erase,critical,B,25,erase15.jpg,erase33.jpg,low,NULL
1687413222,10000b1d751c6663ab7440c9a759941d,PennController,28,0,experiment,NULL,PennController,26,_Trial_,Start,1687412987375,63cef382de9c155b386c7a35,63cef382de9c155b386c7a35,24,match,filler,B,25,match15.jpg,match35.jpg,GoalB,NULL
1687413222,10000b1d751c6663ab7440c9a759941d,PennController,28,0,experiment,NULL,PennController,26,_Header_,Start,1687412987375,63cef382de9c155b386c7a35,63cef382de9c155b386c7a35,24,match,filler,B,25,match15.jpg,match35.jpg,GoalB,NULL
1687413222,10000b1d751c6663ab7440c9a759941d,PennController,28,0,experiment,NULL,PennController,26,_Header_,End,1687412987375,63cef382de9c155b386c7a35,63cef382de9c155b386c7a35,24,match,filler,B,25,match15.jpg,match35.jpg,GoalB,NULL
1687413222,10000b1d751c6663ab7440c9a759941d,PennController,28,0,experiment,NULL,Canvas,canvas6,Print,NA,1687412993058,63cef382de9c155b386c7a35,63cef382de9c155b386c7a35,24,match,filler,B,25,match15.jpg,match35.jpg,GoalB,NULL
1687413222,10000b1d751c6663ab7440c9a759941d,PennController,28,0,experiment,NULL,Video,progression,buffer,0.001802,1687412990889,63cef382de9c155b386c7a35,63cef382de9c155b386c7a35,24,match,filler,B,25,match15.jpg,match35.jpg,GoalB,NULL
1687413222,10000b1d751c6663ab7440c9a759941d,PennController,28,0,experiment,NULL,Selector,choice,Selection,option2,1687412999319,63cef382de9c155b386c7a35,63cef382de9c155b386c7a35,24,match,filler,B,25,match15.jpg,match35.jpg,GoalB,option2;option1
1687413222,10000b1d751c6663ab7440c9a759941d,PennController,28,0,experiment,NULL,PennController,26,_Trial_,End,1687412999319,63cef382de9c155b386c7a35,63cef382de9c155b386c7a35,24,match,filler,B,25,match15.jpg,match35.jpg,GoalB,NULL
1687413222,10000b1d751c6663ab7440c9a759941d,PennController,10,0,experiment,NULL,PennController,8,_Trial_,Start,1687412999320,63cef382de9c155b386c7a35,63cef382de9c155b386c7a35,6,flower,critical,B,25,flower15.jpg,flower35.jpg,low,NULL
1687413222,10000b1d751c6663ab7440c9a759941d,PennController,10,0,experiment,NULL,PennController,8,_Header_,Start,1687412999320,63cef382de9c155b386c7a35,63cef382de9c155b386c7a35,6,flower,critical,B,25,flower15.jpg,flower35.jpg,low,NULL
1687413222,10000b1d751c6663ab7440c9a759941d,PennController,10,0,experiment,NULL,PennController,8,_Header_,End,1687412999320,63cef382de9c155b386c7a35,63cef382de9c155b386c7a35,6,flower,critical,B,25,flower15.jpg,flower35.jpg,low,NULL
1687413222,10000b1d751c6663ab7440c9a759941d,PennController,10,0,experiment,NULL,Canvas,canvas6,Print,NA,1687413005003,63cef382de9c155b386c7a35,63cef382de9c155b386c7a35,6,flower,critical,B,25,flower15.jpg,flower35.jpg,low,NULL
1687413222,10000b1d751c6663ab7440c9a759941d,PennController,10,0,experiment,NULL,Video,progression,buffer,0.001612,1687413002833,63cef382de9c155b386c7a35,63cef382de9c155b386c7a35,6,flower,critical,B,25,flower15.jpg,flower35.jpg,low,NULL
1687413222,10000b1d751c6663ab7440c9a759941d,PennController,10,0,experiment,NULL,Selector,choice,Selection,option2,1687413009122,63cef382de9c155b386c7a35,63cef382de9c155b386c7a35,6,flower,critical,B,25,flower15.jpg,flower35.jpg,low,option1;option2
1687413222,10000b1d751c6663ab7440c9a759941d,PennController,10,0,experiment,NULL,PennController,8,_Trial_,End,1687413009122,63cef382de9c155b386c7a35,63cef382de9c155b386c7a35,6,flower,critical,B,25,flower15.jpg,flower35.jpg,low,NULL
1687413222,10000b1d751c6663ab7440c9a759941d,PennController,12,0,experiment,NULL,PennController,10,_Trial_,Start,1687413009123,63cef382de9c155b386c7a35,63cef382de9c155b386c7a35,8,cucumber,critical,B,75,cucumber66.jpg,cucumber84.jpg,low,NULL
1687413222,10000b1d751c6663ab7440c9a759941d,PennController,12,0,experiment,NULL,PennController,10,_Header_,Start,1687413009123,63cef382de9c155b386c7a35,63cef382de9c155b386c7a35,8,cucumber,critical,B,75,cucumber66.jpg,cucumber84.jpg,low,NULL
1687413222,10000b1d751c6663ab7440c9a759941d,PennController,12,0,experiment,NULL,PennController,10,_Header_,End,1687413009123,63cef382de9c155b386c7a35,63cef382de9c155b386c7a35,8,cucumber,critical,B,75,cucumber66.jpg,cucumber84.jpg,low,NULL
1687413222,10000b1d751c6663ab7440c9a759941d,PennController,12,0,experiment,NULL,Canvas,canvas6,Print,NA,1687413018797,63cef382de9c155b386c7a35,63cef382de9c155b386c7a35,8,cucumber,critical,B,75,cucumber66.jpg,cucumber84.jpg,low,NULL
1687413222,10000b1d751c6663ab7440c9a759941d,PennController,12,0,experiment,NULL,Video,progression,buffer,0.002576,1687413012638,63cef382de9c155b386c7a35,63cef382de9c155b386c7a35,8,cucumber,critical,B,75,cucumber66.jpg,cucumber84.jpg,low,NULL
1687413222,10000b1d751c6663ab7440c9a759941d,PennController,12,0,experiment,NULL,Selector,choice,Selection,option2,1687413020738,63cef382de9c155b386c7a35,63cef382de9c155b386c7a35,8,cucumber,critical,B,75,cucumber66.jpg,cucumber84.jpg,low,option1;option2
1687413222,10000b1d751c6663ab7440c9a759941d,PennController,12,0,experiment,NULL,PennController,10,_Trial_,End,1687413020738,63cef382de9c155b386c7a35,63cef382de9c155b386c7a35,8,cucumber,critical,B,75,cucumber66.jpg,cucumber84.jpg,low,NULL
1687413222,10000b1d751c6663ab7440c9a759941d,PennController,11,0,experiment,NULL,PennController,9,_Trial_,Start,1687413020739,63cef382de9c155b386c7a35,63cef382de9c155b386c7a35,7,stack,critical,B,50,stack40.jpg,stack60.jpg,low,NULL
1687413222,10000b1d751c6663ab7440c9a759941d,PennController,11,0,experiment,NULL,PennController,9,_Header_,Start,1687413020739,63cef382de9c155b386c7a35,63cef382de9c155b386c7a35,7,stack,critical,B,50,stack40.jpg,stack60.jpg,low,NULL
1687413222,10000b1d751c6663ab7440c9a759941d,PennController,11,0,experiment,NULL,PennController,9,_Header_,End,1687413020739,63cef382de9c155b386c7a35,63cef382de9c155b386c7a35,7,stack,critical,B,50,stack40.jpg,stack60.jpg,low,NULL
1687413222,10000b1d751c6663ab7440c9a759941d,PennController,11,0,experiment,NULL,Canvas,canvas6,Print,NA,1687413027411,63cef382de9c155b386c7a35,63cef382de9c155b386c7a35,7,stack,critical,B,50,stack40.jpg,stack60.jpg,low,NULL
1687413222,10000b1d751c6663ab7440c9a759941d,PennController,11,0,experiment,NULL,Video,progression,buffer,0.002609,1687413024252,63cef382de9c155b386c7a35,63cef382de9c155b386c7a35,7,stack,critical,B,50,stack40.jpg,stack60.jpg,low,NULL
1687413222,10000b1d751c6663ab7440c9a759941d,PennController,11,0,experiment,NULL,Selector,choice,Selection,option1,1687413033975,63cef382de9c155b386c7a35,63cef382de9c155b386c7a35,7,stack,critical,B,50,stack40.jpg,stack60.jpg,low,option1;option2
1687413222,10000b1d751c6663ab7440c9a759941d,PennController,11,0,experiment,NULL,PennController,9,_Trial_,End,1687413033975,63cef382de9c155b386c7a35,63cef382de9c155b386c7a35,7,stack,critical,B,50,stack40.jpg,stack60.jpg,low,NULL
1687413222,10000b1d751c6663ab7440c9a759941d,PennController,13,0,experiment,NULL,PennController,11,_Trial_,Start,1687413033976,63cef382de9c155b386c7a35,63cef382de9c155b386c7a35,9,cake,critical,B,25,cake15.jpg,cake33.jpg,low,NULL
1687413222,10000b1d751c6663ab7440c9a759941d,PennController,13,0,experiment,NULL,PennController,11,_Header_,Start,1687413033976,63cef382de9c155b386c7a35,63cef382de9c155b386c7a35,9,cake,critical,B,25,cake15.jpg,cake33.jpg,low,NULL
1687413222,10000b1d751c6663ab7440c9a759941d,PennController,13,0,experiment,NULL,PennController,11,_Header_,End,1687413033976,63cef382de9c155b386c7a35,63cef382de9c155b386c7a35,9,cake,critical,B,25,cake15.jpg,cake33.jpg,low,NULL
1687413222,10000b1d751c6663ab7440c9a759941d,PennController,13,0,experiment,NULL,Canvas,canvas6,Print,NA,1687413040258,63cef382de9c155b386c7a35,63cef382de9c155b386c7a35,9,cake,critical,B,25,cake15.jpg,cake33.jpg,low,NULL
1687413222,10000b1d751c6663ab7440c9a759941d,PennController,13,0,experiment,NULL,Video,progression,buffer,0.001584,1687413037492,63cef382de9c155b386c7a35,63cef382de9c155b386c7a35,9,cake,critical,B,25,cake15.jpg,cake33.jpg,low,NULL
1687413222,10000b1d751c6663ab7440c9a759941d,PennController,13,0,experiment,NULL,Selector,choice,Selection,option2,1687413047142,63cef382de9c155b386c7a35,63cef382de9c155b386c7a35,9,cake,critical,B,25,cake15.jpg,cake33.jpg,low,option2;option1
1687413222,10000b1d751c6663ab7440c9a759941d,PennController,13,0,experiment,NULL,PennController,11,_Trial_,End,1687413047143,63cef382de9c155b386c7a35,63cef382de9c155b386c7a35,9,cake,critical,B,25,cake15.jpg,cake33.jpg,low,NULL
1687413222,10000b1d751c6663ab7440c9a759941d,PennController,5,0,experiment,NULL,PennController,3,_Trial_,Start,1687413047144,63cef382de9c155b386c7a35,63cef382de9c155b386c7a35,1,vase,critical,B,50,vase40.jpg,vase60.jpg,low,NULL
1687413222,10000b1d751c6663ab7440c9a759941d,PennController,5,0,experiment,NULL,PennController,3,_Header_,Start,1687413047144,63cef382de9c155b386c7a35,63cef382de9c155b386c7a35,1,vase,critical,B,50,vase40.jpg,vase60.jpg,low,NULL
1687413222,10000b1d751c6663ab7440c9a759941d,PennController,5,0,experiment,NULL,PennController,3,_Header_,End,1687413047144,63cef382de9c155b386c7a35,63cef382de9c155b386c7a35,1,vase,critical,B,50,vase40.jpg,vase60.jpg,low,NULL
1687413222,10000b1d751c6663ab7440c9a759941d,PennController,5,0,experiment,NULL,Canvas,canvas6,Print,NA,1687413053821,63cef382de9c155b386c7a35,63cef382de9c155b386c7a35,1,vase,critical,B,50,vase40.jpg,vase60.jpg,low,NULL
1687413222,10000b1d751c6663ab7440c9a759941d,PennController,5,0,experiment,NULL,Video,progression,buffer,0.00241,1687413050658,63cef382de9c155b386c7a35,63cef382de9c155b386c7a35,1,vase,critical,B,50,vase40.jpg,vase60.jpg,low,NULL
1687413222,10000b1d751c6663ab7440c9a759941d,PennController,5,0,experiment,NULL,Selector,choice,Selection,option2,1687413055203,63cef382de9c155b386c7a35,63cef382de9c155b386c7a35,1,vase,critical,B,50,vase40.jpg,vase60.jpg,low,option1;option2
1687413222,10000b1d751c6663ab7440c9a759941d,PennController,5,0,experiment,NULL,PennController,3,_Trial_,End,1687413055204,63cef382de9c155b386c7a35,63cef382de9c155b386c7a35,1,vase,critical,B,50,vase40.jpg,vase60.jpg,low,NULL
1687413222,10000b1d751c6663ab7440c9a759941d,PennController,25,0,experiment,NULL,PennController,23,_Trial_,Start,1687413055204,63cef382de9c155b386c7a35,63cef382de9c155b386c7a35,21,visit,filler,B,25,visit15.jpg,visit35.jpg,GoalA,NULL
1687413222,10000b1d751c6663ab7440c9a759941d,PennController,25,0,experiment,NULL,PennController,23,_Header_,Start,1687413055204,63cef382de9c155b386c7a35,63cef382de9c155b386c7a35,21,visit,filler,B,25,visit15.jpg,visit35.jpg,GoalA,NULL
1687413222,10000b1d751c6663ab7440c9a759941d,PennController,25,0,experiment,NULL,PennController,23,_Header_,End,1687413055204,63cef382de9c155b386c7a35,63cef382de9c155b386c7a35,21,visit,filler,B,25,visit15.jpg,visit35.jpg,GoalA,NULL
1687413222,10000b1d751c6663ab7440c9a759941d,PennController,25,0,experiment,NULL,Canvas,canvas6,Print,NA,1687413060887,63cef382de9c155b386c7a35,63cef382de9c155b386c7a35,21,visit,filler,B,25,visit15.jpg,visit35.jpg,GoalA,NULL
1687413222,10000b1d751c6663ab7440c9a759941d,PennController,25,0,experiment,NULL,Video,progression,buffer,0.002295,1687413058718,63cef382de9c155b386c7a35,63cef382de9c155b386c7a35,21,visit,filler,B,25,visit15.jpg,visit35.jpg,GoalA,NULL
1687413222,10000b1d751c6663ab7440c9a759941d,PennController,25,0,experiment,NULL,Selector,choice,Selection,option2,1687413065786,63cef382de9c155b386c7a35,63cef382de9c155b386c7a35,21,visit,filler,B,25,visit15.jpg,visit35.jpg,GoalA,option1;option2
1687413222,10000b1d751c6663ab7440c9a759941d,PennController,25,0,experiment,NULL,PennController,23,_Trial_,End,1687413065787,63cef382de9c155b386c7a35,63cef382de9c155b386c7a35,21,visit,filler,B,25,visit15.jpg,visit35.jpg,GoalA,NULL
1687413222,10000b1d751c6663ab7440c9a759941d,PennController,24,0,experiment,NULL,PennController,22,_Trial_,Start,1687413065788,63cef382de9c155b386c7a35,63cef382de9c155b386c7a35,20,cat,filler,B,75,cat65.jpg,cat85.jpg,GoalB,NULL
1687413222,10000b1d751c6663ab7440c9a759941d,PennController,24,0,experiment,NULL,PennController,22,_Header_,Start,1687413065788,63cef382de9c155b386c7a35,63cef382de9c155b386c7a35,20,cat,filler,B,75,cat65.jpg,cat85.jpg,GoalB,NULL
1687413222,10000b1d751c6663ab7440c9a759941d,PennController,24,0,experiment,NULL,PennController,22,_Header_,End,1687413065788,63cef382de9c155b386c7a35,63cef382de9c155b386c7a35,20,cat,filler,B,75,cat65.jpg,cat85.jpg,GoalB,NULL
1687413222,10000b1d751c6663ab7440c9a759941d,PennController,24,0,experiment,NULL,Canvas,canvas6,Print,NA,1687413073465,63cef382de9c155b386c7a35,63cef382de9c155b386c7a35,20,cat,filler,B,75,cat65.jpg,cat85.jpg,GoalB,NULL
1687413222,10000b1d751c6663ab7440c9a759941d,PennController,24,0,experiment,NULL,Video,progression,buffer,0.002597,1687413069304,63cef382de9c155b386c7a35,63cef382de9c155b386c7a35,20,cat,filler,B,75,cat65.jpg,cat85.jpg,GoalB,NULL
1687413222,10000b1d751c6663ab7440c9a759941d,PennController,24,0,experiment,NULL,Selector,choice,Selection,option2,1687413086815,63cef382de9c155b386c7a35,63cef382de9c155b386c7a35,20,cat,filler,B,75,cat65.jpg,cat85.jpg,GoalB,option1;option2
1687413222,10000b1d751c6663ab7440c9a759941d,PennController,24,0,experiment,NULL,PennController,22,_Trial_,End,1687413086815,63cef382de9c155b386c7a35,63cef382de9c155b386c7a35,20,cat,filler,B,75,cat65.jpg,cat85.jpg,GoalB,NULL
1687413222,10000b1d751c6663ab7440c9a759941d,PennController,18,0,experiment,NULL,PennController,16,_Trial_,Start,1687413086816,63cef382de9c155b386c7a35,63cef382de9c155b386c7a35,14,cover,critical,B,75,cover66.jpg,cover84.jpg,low,NULL
1687413222,10000b1d751c6663ab7440c9a759941d,PennController,18,0,experiment,NULL,PennController,16,_Header_,Start,1687413086816,63cef382de9c155b386c7a35,63cef382de9c155b386c7a35,14,cover,critical,B,75,cover66.jpg,cover84.jpg,low,NULL
1687413222,10000b1d751c6663ab7440c9a759941d,PennController,18,0,experiment,NULL,PennController,16,_Header_,End,1687413086816,63cef382de9c155b386c7a35,63cef382de9c155b386c7a35,14,cover,critical,B,75,cover66.jpg,cover84.jpg,low,NULL
1687413222,10000b1d751c6663ab7440c9a759941d,PennController,18,0,experiment,NULL,Canvas,canvas6,Print,NA,1687413096492,63cef382de9c155b386c7a35,63cef382de9c155b386c7a35,14,cover,critical,B,75,cover66.jpg,cover84.jpg,low,NULL
1687413222,10000b1d751c6663ab7440c9a759941d,PennController,18,0,experiment,NULL,Video,progression,buffer,0.001511,1687413090334,63cef382de9c155b386c7a35,63cef382de9c155b386c7a35,14,cover,critical,B,75,cover66.jpg,cover84.jpg,low,NULL
1687413222,10000b1d751c6663ab7440c9a759941d,PennController,18,0,experiment,NULL,Selector,choice,Selection,option2,1687413099391,63cef382de9c155b386c7a35,63cef382de9c155b386c7a35,14,cover,critical,B,75,cover66.jpg,cover84.jpg,low,option2;option1
1687413222,10000b1d751c6663ab7440c9a759941d,PennController,18,0,experiment,NULL,PennController,16,_Trial_,End,1687413099391,63cef382de9c155b386c7a35,63cef382de9c155b386c7a35,14,cover,critical,B,75,cover66.jpg,cover84.jpg,low,NULL
1687413222,10000b1d751c6663ab7440c9a759941d,PennController,22,0,experiment,NULL,PennController,20,_Trial_,Start,1687413099392,63cef382de9c155b386c7a35,63cef382de9c155b386c7a35,18,ball,critical,B,25,ball15.jpg,ball35.jpg,low,NULL
1687413222,10000b1d751c6663ab7440c9a759941d,PennController,22,0,experiment,NULL,PennController,20,_Header_,Start,1687413099392,63cef382de9c155b386c7a35,63cef382de9c155b386c7a35,18,ball,critical,B,25,ball15.jpg,ball35.jpg,low,NULL
1687413222,10000b1d751c6663ab7440c9a759941d,PennController,22,0,experiment,NULL,PennController,20,_Header_,End,1687413099392,63cef382de9c155b386c7a35,63cef382de9c155b386c7a35,18,ball,critical,B,25,ball15.jpg,ball35.jpg,low,NULL
1687413222,10000b1d751c6663ab7440c9a759941d,PennController,22,0,experiment,NULL,Canvas,canvas6,Print,NA,1687413105074,63cef382de9c155b386c7a35,63cef382de9c155b386c7a35,18,ball,critical,B,25,ball15.jpg,ball35.jpg,low,NULL
1687413222,10000b1d751c6663ab7440c9a759941d,PennController,22,0,experiment,NULL,Video,progression,buffer,0.002155,1687413102904,63cef382de9c155b386c7a35,63cef382de9c155b386c7a35,18,ball,critical,B,25,ball15.jpg,ball35.jpg,low,NULL
1687413222,10000b1d751c6663ab7440c9a759941d,PennController,22,0,experiment,NULL,Selector,choice,Selection,option2,1687413115652,63cef382de9c155b386c7a35,63cef382de9c155b386c7a35,18,ball,critical,B,25,ball15.jpg,ball35.jpg,low,option1;option2
1687413222,10000b1d751c6663ab7440c9a759941d,PennController,22,0,experiment,NULL,PennController,20,_Trial_,End,1687413115653,63cef382de9c155b386c7a35,63cef382de9c155b386c7a35,18,ball,critical,B,25,ball15.jpg,ball35.jpg,low,NULL
1687413222,10000b1d751c6663ab7440c9a759941d,PennController,6,0,experiment,NULL,PennController,4,_Trial_,Start,1687413115653,63cef382de9c155b386c7a35,63cef382de9c155b386c7a35,2,door,critical,B,75,door65.jpg,door85.jpg,low,NULL
1687413222,10000b1d751c6663ab7440c9a759941d,PennController,6,0,experiment,NULL,PennController,4,_Header_,Start,1687413115653,63cef382de9c155b386c7a35,63cef382de9c155b386c7a35,2,door,critical,B,75,door65.jpg,door85.jpg,low,NULL
1687413222,10000b1d751c6663ab7440c9a759941d,PennController,6,0,experiment,NULL,PennController,4,_Header_,End,1687413115653,63cef382de9c155b386c7a35,63cef382de9c155b386c7a35,2,door,critical,B,75,door65.jpg,door85.jpg,low,NULL
1687413222,10000b1d751c6663ab7440c9a759941d,PennController,6,0,experiment,NULL,Canvas,canvas6,Print,NA,1687413123316,63cef382de9c155b386c7a35,63cef382de9c155b386c7a35,2,door,critical,B,75,door65.jpg,door85.jpg,low,NULL
1687413222,10000b1d751c6663ab7440c9a759941d,PennController,6,0,experiment,NULL,Video,progression,buffer,0.001696,1687413119164,63cef382de9c155b386c7a35,63cef382de9c155b386c7a35,2,door,critical,B,75,door65.jpg,door85.jpg,low,NULL
1687413222,10000b1d751c6663ab7440c9a759941d,PennController,6,0,experiment,NULL,Selector,choice,Selection,option2,1687413125876,63cef382de9c155b386c7a35,63cef382de9c155b386c7a35,2,door,critical,B,75,door65.jpg,door85.jpg,low,option2;option1
1687413222,10000b1d751c6663ab7440c9a759941d,PennController,6,0,experiment,NULL,PennController,4,_Trial_,End,1687413125877,63cef382de9c155b386c7a35,63cef382de9c155b386c7a35,2,door,critical,B,75,door65.jpg,door85.jpg,low,NULL
1687413222,10000b1d751c6663ab7440c9a759941d,PennController,15,0,experiment,NULL,PennController,13,_Trial_,Start,1687413125878,63cef382de9c155b386c7a35,63cef382de9c155b386c7a35,11,beads,critical,B,75,beads65.jpg,beads85.jpg,low,NULL
1687413222,10000b1d751c6663ab7440c9a759941d,PennController,15,0,experiment,NULL,PennController,13,_Header_,Start,1687413125878,63cef382de9c155b386c7a35,63cef382de9c155b386c7a35,11,beads,critical,B,75,beads65.jpg,beads85.jpg,low,NULL
1687413222,10000b1d751c6663ab7440c9a759941d,PennController,15,0,experiment,NULL,PennController,13,_Header_,End,1687413125878,63cef382de9c155b386c7a35,63cef382de9c155b386c7a35,11,beads,critical,B,75,beads65.jpg,beads85.jpg,low,NULL
1687413222,10000b1d751c6663ab7440c9a759941d,PennController,15,0,experiment,NULL,Canvas,canvas6,Print,NA,1687413133548,63cef382de9c155b386c7a35,63cef382de9c155b386c7a35,11,beads,critical,B,75,beads65.jpg,beads85.jpg,low,NULL
1687413222,10000b1d751c6663ab7440c9a759941d,PennController,15,0,experiment,NULL,Video,progression,buffer,0.002657,1687413129393,63cef382de9c155b386c7a35,63cef382de9c155b386c7a35,11,beads,critical,B,75,beads65.jpg,beads85.jpg,low,NULL
1687413222,10000b1d751c6663ab7440c9a759941d,PennController,15,0,experiment,NULL,Selector,choice,Selection,option2,1687413135839,63cef382de9c155b386c7a35,63cef382de9c155b386c7a35,11,beads,critical,B,75,beads65.jpg,beads85.jpg,low,option1;option2
1687413222,10000b1d751c6663ab7440c9a759941d,PennController,15,0,experiment,NULL,PennController,13,_Trial_,End,1687413135840,63cef382de9c155b386c7a35,63cef382de9c155b386c7a35,11,beads,critical,B,75,beads65.jpg,beads85.jpg,low,NULL
1687413222,10000b1d751c6663ab7440c9a759941d,PennController,29,0,experiment,NULL,PennController,27,_Trial_,Start,1687413135841,63cef382de9c155b386c7a35,63cef382de9c155b386c7a35,25,house,filler,B,50,house40.jpg,house60.jpg,GoalA,NULL
1687413222,10000b1d751c6663ab7440c9a759941d,PennController,29,0,experiment,NULL,PennController,27,_Header_,Start,1687413135841,63cef382de9c155b386c7a35,63cef382de9c155b386c7a35,25,house,filler,B,50,house40.jpg,house60.jpg,GoalA,NULL
1687413222,10000b1d751c6663ab7440c9a759941d,PennController,29,0,experiment,NULL,PennController,27,_Header_,End,1687413135841,63cef382de9c155b386c7a35,63cef382de9c155b386c7a35,25,house,filler,B,50,house40.jpg,house60.jpg,GoalA,NULL
1687413222,10000b1d751c6663ab7440c9a759941d,PennController,29,0,experiment,NULL,Canvas,canvas6,Print,NA,1687413142511,63cef382de9c155b386c7a35,63cef382de9c155b386c7a35,25,house,filler,B,50,house40.jpg,house60.jpg,GoalA,NULL
1687413222,10000b1d751c6663ab7440c9a759941d,PennController,29,0,experiment,NULL,Video,progression,buffer,0.001544,1687413139353,63cef382de9c155b386c7a35,63cef382de9c155b386c7a35,25,house,filler,B,50,house40.jpg,house60.jpg,GoalA,NULL
1687413222,10000b1d751c6663ab7440c9a759941d,PennController,29,0,experiment,NULL,Selector,choice,Selection,option1,1687413145071,63cef382de9c155b386c7a35,63cef382de9c155b386c7a35,25,house,filler,B,50,house40.jpg,house60.jpg,GoalA,option1;option2
1687413222,10000b1d751c6663ab7440c9a759941d,PennController,29,0,experiment,NULL,PennController,27,_Trial_,End,1687413145072,63cef382de9c155b386c7a35,63cef382de9c155b386c7a35,25,house,filler,B,50,house40.jpg,house60.jpg,GoalA,NULL
1687413222,10000b1d751c6663ab7440c9a759941d,PennController,27,0,experiment,NULL,PennController,25,_Trial_,Start,1687413145072,63cef382de9c155b386c7a35,63cef382de9c155b386c7a35,23,color,filler,B,75,color65.jpg,color85.jpg,GoalA,NULL
1687413222,10000b1d751c6663ab7440c9a759941d,PennController,27,0,experiment,NULL,PennController,25,_Header_,Start,1687413145072,63cef382de9c155b386c7a35,63cef382de9c155b386c7a35,23,color,filler,B,75,color65.jpg,color85.jpg,GoalA,NULL
1687413222,10000b1d751c6663ab7440c9a759941d,PennController,27,0,experiment,NULL,PennController,25,_Header_,End,1687413145073,63cef382de9c155b386c7a35,63cef382de9c155b386c7a35,23,color,filler,B,75,color65.jpg,color85.jpg,GoalA,NULL
1687413222,10000b1d751c6663ab7440c9a759941d,PennController,27,0,experiment,NULL,Canvas,canvas6,Print,NA,1687413152741,63cef382de9c155b386c7a35,63cef382de9c155b386c7a35,23,color,filler,B,75,color65.jpg,color85.jpg,GoalA,NULL
1687413222,10000b1d751c6663ab7440c9a759941d,PennController,27,0,experiment,NULL,Video,progression,buffer,0.001528,1687413148586,63cef382de9c155b386c7a35,63cef382de9c155b386c7a35,23,color,filler,B,75,color65.jpg,color85.jpg,GoalA,NULL
1687413222,10000b1d751c6663ab7440c9a759941d,PennController,27,0,experiment,NULL,Selector,choice,Selection,option2,1687413154823,63cef382de9c155b386c7a35,63cef382de9c155b386c7a35,23,color,filler,B,75,color65.jpg,color85.jpg,GoalA,option2;option1
1687413222,10000b1d751c6663ab7440c9a759941d,PennController,27,0,experiment,NULL,PennController,25,_Trial_,End,1687413154824,63cef382de9c155b386c7a35,63cef382de9c155b386c7a35,23,color,filler,B,75,color65.jpg,color85.jpg,GoalA,NULL
1687413222,10000b1d751c6663ab7440c9a759941d,PennController,21,0,experiment,NULL,PennController,19,_Trial_,Start,1687413154825,63cef382de9c155b386c7a35,63cef382de9c155b386c7a35,17,roll,critical,B,75,roll65.jpg,roll85.jpg,low,NULL
1687413222,10000b1d751c6663ab7440c9a759941d,PennController,21,0,experiment,NULL,PennController,19,_Header_,Start,1687413154825,63cef382de9c155b386c7a35,63cef382de9c155b386c7a35,17,roll,critical,B,75,roll65.jpg,roll85.jpg,low,NULL
1687413222,10000b1d751c6663ab7440c9a759941d,PennController,21,0,experiment,NULL,PennController,19,_Header_,End,1687413154825,63cef382de9c155b386c7a35,63cef382de9c155b386c7a35,17,roll,critical,B,75,roll65.jpg,roll85.jpg,low,NULL
1687413222,10000b1d751c6663ab7440c9a759941d,PennController,21,0,experiment,NULL,Canvas,canvas6,Print,NA,1687413162508,63cef382de9c155b386c7a35,63cef382de9c155b386c7a35,17,roll,critical,B,75,roll65.jpg,roll85.jpg,low,NULL
1687413222,10000b1d751c6663ab7440c9a759941d,PennController,21,0,experiment,NULL,Video,progression,buffer,0.001473,1687413158340,63cef382de9c155b386c7a35,63cef382de9c155b386c7a35,17,roll,critical,B,75,roll65.jpg,roll85.jpg,low,NULL
1687413222,10000b1d751c6663ab7440c9a759941d,PennController,21,0,experiment,NULL,Selector,choice,Selection,option1,1687413166470,63cef382de9c155b386c7a35,63cef382de9c155b386c7a35,17,roll,critical,B,75,roll65.jpg,roll85.jpg,low,option2;option1
1687413222,10000b1d751c6663ab7440c9a759941d,PennController,21,0,experiment,NULL,PennController,19,_Trial_,End,1687413166470,63cef382de9c155b386c7a35,63cef382de9c155b386c7a35,17,roll,critical,B,75,roll65.jpg,roll85.jpg,low,NULL
1687413222,10000b1d751c6663ab7440c9a759941d,PennController,9,0,experiment,NULL,PennController,7,_Trial_,Start,1687413166471,63cef382de9c155b386c7a35,63cef382de9c155b386c7a35,5,book,critical,B,75,book65.jpg,book85.jpg,low,NULL
1687413222,10000b1d751c6663ab7440c9a759941d,PennController,9,0,experiment,NULL,PennController,7,_Header_,Start,1687413166471,63cef382de9c155b386c7a35,63cef382de9c155b386c7a35,5,book,critical,B,75,book65.jpg,book85.jpg,low,NULL
1687413222,10000b1d751c6663ab7440c9a759941d,PennController,9,0,experiment,NULL,PennController,7,_Header_,End,1687413166471,63cef382de9c155b386c7a35,63cef382de9c155b386c7a35,5,book,critical,B,75,book65.jpg,book85.jpg,low,NULL
1687413222,10000b1d751c6663ab7440c9a759941d,PennController,9,0,experiment,NULL,Canvas,canvas6,Print,NA,1687413174155,63cef382de9c155b386c7a35,63cef382de9c155b386c7a35,5,book,critical,B,75,book65.jpg,book85.jpg,low,NULL
1687413222,10000b1d751c6663ab7440c9a759941d,PennController,9,0,experiment,NULL,Video,progression,buffer,0.003583,1687413169986,63cef382de9c155b386c7a35,63cef382de9c155b386c7a35,5,book,critical,B,75,book65.jpg,book85.jpg,low,NULL
1687413222,10000b1d751c6663ab7440c9a759941d,PennController,9,0,experiment,NULL,Selector,choice,Selection,option2,1687413178266,63cef382de9c155b386c7a35,63cef382de9c155b386c7a35,5,book,critical,B,75,book65.jpg,book85.jpg,low,option2;option1
1687413222,10000b1d751c6663ab7440c9a759941d,PennController,9,0,experiment,NULL,PennController,7,_Trial_,End,1687413178266,63cef382de9c155b386c7a35,63cef382de9c155b386c7a35,5,book,critical,B,75,book65.jpg,book85.jpg,low,NULL
1687413222,10000b1d751c6663ab7440c9a759941d,PennController,17,0,experiment,NULL,PennController,15,_Trial_,Start,1687413178267,63cef382de9c155b386c7a35,63cef382de9c155b386c7a35,13,mix,critical,B,50,mix40.jpg,mix60.jpg,low,NULL
1687413222,10000b1d751c6663ab7440c9a759941d,PennController,17,0,experiment,NULL,PennController,15,_Header_,Start,1687413178267,63cef382de9c155b386c7a35,63cef382de9c155b386c7a35,13,mix,critical,B,50,mix40.jpg,mix60.jpg,low,NULL
1687413222,10000b1d751c6663ab7440c9a759941d,PennController,17,0,experiment,NULL,PennController,15,_Header_,End,1687413178267,63cef382de9c155b386c7a35,63cef382de9c155b386c7a35,13,mix,critical,B,50,mix40.jpg,mix60.jpg,low,NULL
1687413222,10000b1d751c6663ab7440c9a759941d,PennController,17,0,experiment,NULL,Canvas,canvas6,Print,NA,1687413184950,63cef382de9c155b386c7a35,63cef382de9c155b386c7a35,13,mix,critical,B,50,mix40.jpg,mix60.jpg,low,NULL
1687413222,10000b1d751c6663ab7440c9a759941d,PennController,17,0,experiment,NULL,Video,progression,buffer,0.001882,1687413181785,63cef382de9c155b386c7a35,63cef382de9c155b386c7a35,13,mix,critical,B,50,mix40.jpg,mix60.jpg,low,NULL
1687413222,10000b1d751c6663ab7440c9a759941d,PennController,17,0,experiment,NULL,Selector,choice,Selection,option2,1687413186515,63cef382de9c155b386c7a35,63cef382de9c155b386c7a35,13,mix,critical,B,50,mix40.jpg,mix60.jpg,low,option2;option1
1687413222,10000b1d751c6663ab7440c9a759941d,PennController,17,0,experiment,NULL,PennController,15,_Trial_,End,1687413186516,63cef382de9c155b386c7a35,63cef382de9c155b386c7a35,13,mix,critical,B,50,mix40.jpg,mix60.jpg,low,NULL
1687413222,10000b1d751c6663ab7440c9a759941d,PennController,33,0,experiment,NULL,PennController,31,_Trial_,Start,1687413186516,63cef382de9c155b386c7a35,63cef382de9c155b386c7a35,29,frog,filler,B,75,frog65.jpg,frog85.jpg,GoalA,NULL
1687413222,10000b1d751c6663ab7440c9a759941d,PennController,33,0,experiment,NULL,PennController,31,_Header_,Start,1687413186516,63cef382de9c155b386c7a35,63cef382de9c155b386c7a35,29,frog,filler,B,75,frog65.jpg,frog85.jpg,GoalA,NULL
1687413222,10000b1d751c6663ab7440c9a759941d,PennController,33,0,experiment,NULL,PennController,31,_Header_,End,1687413186516,63cef382de9c155b386c7a35,63cef382de9c155b386c7a35,29,frog,filler,B,75,frog65.jpg,frog85.jpg,GoalA,NULL
1687413222,10000b1d751c6663ab7440c9a759941d,PennController,33,0,experiment,NULL,Canvas,canvas6,Print,NA,1687413194197,63cef382de9c155b386c7a35,63cef382de9c155b386c7a35,29,frog,filler,B,75,frog65.jpg,frog85.jpg,GoalA,NULL
1687413222,10000b1d751c6663ab7440c9a759941d,PennController,33,0,experiment,NULL,Video,progression,buffer,0.001534,1687413190032,63cef382de9c155b386c7a35,63cef382de9c155b386c7a35,29,frog,filler,B,75,frog65.jpg,frog85.jpg,GoalA,NULL
1687413222,10000b1d751c6663ab7440c9a759941d,PennController,33,0,experiment,NULL,Selector,choice,Selection,option2,1687413196299,63cef382de9c155b386c7a35,63cef382de9c155b386c7a35,29,frog,filler,B,75,frog65.jpg,frog85.jpg,GoalA,option1;option2
1687413222,10000b1d751c6663ab7440c9a759941d,PennController,33,0,experiment,NULL,PennController,31,_Trial_,End,1687413196300,63cef382de9c155b386c7a35,63cef382de9c155b386c7a35,29,frog,filler,B,75,frog65.jpg,frog85.jpg,GoalA,NULL
1687413222,10000b1d751c6663ab7440c9a759941d,PennController,20,0,experiment,NULL,PennController,18,_Trial_,Start,1687413196301,63cef382de9c155b386c7a35,63cef382de9c155b386c7a35,16,blinds,critical,B,50,blinds42.jpg,blinds60.jpg,low,NULL
1687413222,10000b1d751c6663ab7440c9a759941d,PennController,20,0,experiment,NULL,PennController,18,_Header_,Start,1687413196301,63cef382de9c155b386c7a35,63cef382de9c155b386c7a35,16,blinds,critical,B,50,blinds42.jpg,blinds60.jpg,low,NULL
1687413222,10000b1d751c6663ab7440c9a759941d,PennController,20,0,experiment,NULL,PennController,18,_Header_,End,1687413196301,63cef382de9c155b386c7a35,63cef382de9c155b386c7a35,16,blinds,critical,B,50,blinds42.jpg,blinds60.jpg,low,NULL
1687413222,10000b1d751c6663ab7440c9a759941d,PennController,20,0,experiment,NULL,Canvas,canvas6,Print,NA,1687413204376,63cef382de9c155b386c7a35,63cef382de9c155b386c7a35,16,blinds,critical,B,50,blinds42.jpg,blinds60.jpg,low,NULL
1687413222,10000b1d751c6663ab7440c9a759941d,PennController,20,0,experiment,NULL,Video,progression,buffer,0.001576,1687413199817,63cef382de9c155b386c7a35,63cef382de9c155b386c7a35,16,blinds,critical,B,50,blinds42.jpg,blinds60.jpg,low,NULL
1687413222,10000b1d751c6663ab7440c9a759941d,PennController,20,0,experiment,NULL,Selector,choice,Selection,option2,1687413206282,63cef382de9c155b386c7a35,63cef382de9c155b386c7a35,16,blinds,critical,B,50,blinds42.jpg,blinds60.jpg,low,option2;option1
1687413222,10000b1d751c6663ab7440c9a759941d,PennController,20,0,experiment,NULL,PennController,18,_Trial_,End,1687413206283,63cef382de9c155b386c7a35,63cef382de9c155b386c7a35,16,blinds,critical,B,50,blinds42.jpg,blinds60.jpg,low,NULL
1687413222,10000b1d751c6663ab7440c9a759941d,PennController,30,0,experiment,NULL,PennController,28,_Trial_,Start,1687413206283,63cef382de9c155b386c7a35,63cef382de9c155b386c7a35,26,sandwich,filler,B,75,sandwich65.jpg,sandwich85.jpg,GoalB,NULL
1687413222,10000b1d751c6663ab7440c9a759941d,PennController,30,0,experiment,NULL,PennController,28,_Header_,Start,1687413206283,63cef382de9c155b386c7a35,63cef382de9c155b386c7a35,26,sandwich,filler,B,75,sandwich65.jpg,sandwich85.jpg,GoalB,NULL
1687413222,10000b1d751c6663ab7440c9a759941d,PennController,30,0,experiment,NULL,PennController,28,_Header_,End,1687413206283,63cef382de9c155b386c7a35,63cef382de9c155b386c7a35,26,sandwich,filler,B,75,sandwich65.jpg,sandwich85.jpg,GoalB,NULL
1687413222,10000b1d751c6663ab7440c9a759941d,PennController,30,0,experiment,NULL,Canvas,canvas6,Print,NA,1687413213958,63cef382de9c155b386c7a35,63cef382de9c155b386c7a35,26,sandwich,filler,B,75,sandwich65.jpg,sandwich85.jpg,GoalB,NULL
1687413222,10000b1d751c6663ab7440c9a759941d,PennController,30,0,experiment,NULL,Video,progression,buffer,0.001554,1687413209798,63cef382de9c155b386c7a35,63cef382de9c155b386c7a35,26,sandwich,filler,B,75,sandwich65.jpg,sandwich85.jpg,GoalB,NULL
1687413222,10000b1d751c6663ab7440c9a759941d,PennController,30,0,experiment,NULL,Selector,choice,Selection,option1,1687413221622,63cef382de9c155b386c7a35,63cef382de9c155b386c7a35,26,sandwich,filler,B,75,sandwich65.jpg,sandwich85.jpg,GoalB,option1;option2
1687413222,10000b1d751c6663ab7440c9a759941d,PennController,30,0,experiment,NULL,PennController,28,_Trial_,End,1687413221623,63cef382de9c155b386c7a35,63cef382de9c155b386c7a35,26,sandwich,filler,B,75,sandwich65.jpg,sandwich85.jpg,GoalB,NULL
