#
# Results on Tuesday June 20 2023 19:15:36 UTC
# USER AGENT: Mozilla/5.0 (Windows NT 10.0; Win64; x64) AppleWebKit/537.36 (KHTML, like Gecko) Chrome/114.0.0.0 Safari/537.36
# Design number was non-random = 62
#
# Columns below this comment are as follows:
# 1. Results reception time.
# 2. MD5 hash of participant's IP address.
# 3. Controller name.
# 4. Order number of item.
# 5. Inner element number.
# 6. Label.
# 7. Latin Square Group.
# 8. PennElementType.
# 9. PennElementName.
# 10. Parameter.
# 11. Value.
# 12. EventTime.
# 13. PROLIFIC_ID.
# 14. Comments.
1687288536,51bc4e09d02b41c3faf3664518cfd43c,PennController,2,0,consent,NULL,PennController,0,_Trial_,Start,1687288248264,5e5e94861a68691aae7853cb,NULL
1687288536,51bc4e09d02b41c3faf3664518cfd43c,PennController,2,0,consent,NULL,PennController,0,_Header_,Start,1687288248264,5e5e94861a68691aae7853cb,NULL
1687288536,51bc4e09d02b41c3faf3664518cfd43c,PennController,2,0,consent,NULL,PennController,0,_Header_,End,1687288248265,5e5e94861a68691aae7853cb,NULL
1687288536,51bc4e09d02b41c3faf3664518cfd43c,PennController,2,0,consent,NULL,PennController,0,_Trial_,End,1687288269546,5e5e94861a68691aae7853cb,NULL
# Columns below this comment are as follows:
# 14. ID.
# 15. Comments.
1687288536,51bc4e09d02b41c3faf3664518cfd43c,PennController,3,0,intro,NULL,PennController,1,_Trial_,Start,1687288269549,5e5e94861a68691aae7853cb,5e5e94861a68691aae7853cb,NULL
1687288536,51bc4e09d02b41c3faf3664518cfd43c,PennController,3,0,intro,NULL,PennController,1,_Header_,Start,1687288269549,5e5e94861a68691aae7853cb,5e5e94861a68691aae7853cb,NULL
1687288536,51bc4e09d02b41c3faf3664518cfd43c,PennController,3,0,intro,NULL,PennController,1,_Header_,End,1687288269549,5e5e94861a68691aae7853cb,5e5e94861a68691aae7853cb,NULL
1687288536,51bc4e09d02b41c3faf3664518cfd43c,PennController,3,0,intro,NULL,PennController,1,_Trial_,End,1687288285553,5e5e94861a68691aae7853cb,5e5e94861a68691aae7853cb,NULL
# Columns below this comment are as follows:
# 15. item_number.
# 16. item.
# 17. type.
# 18. Group.
# 19. prog.
# 20. prev_image.
# 21. next_image.
# 22. height.
# 23. Comments.
1687288536,51bc4e09d02b41c3faf3664518cfd43c,PennController,24,0,experiment,NULL,PennController,23,_Trial_,Start,1687288285556,5e5e94861a68691aae7853cb,5e5e94861a68691aae7853cb,21,visit,filler,C,50,visit40.jpg,visit60.jpg,GoalA,NULL
1687288536,51bc4e09d02b41c3faf3664518cfd43c,PennController,24,0,experiment,NULL,PennController,23,_Header_,Start,1687288285556,5e5e94861a68691aae7853cb,5e5e94861a68691aae7853cb,21,visit,filler,C,50,visit40.jpg,visit60.jpg,GoalA,NULL
1687288536,51bc4e09d02b41c3faf3664518cfd43c,PennController,24,0,experiment,NULL,PennController,23,_Header_,End,1687288285556,5e5e94861a68691aae7853cb,5e5e94861a68691aae7853cb,21,visit,filler,C,50,visit40.jpg,visit60.jpg,GoalA,NULL
1687288536,51bc4e09d02b41c3faf3664518cfd43c,PennController,24,0,experiment,NULL,Canvas,canvas6,Print,NA,1687288292252,5e5e94861a68691aae7853cb,5e5e94861a68691aae7853cb,21,visit,filler,C,50,visit40.jpg,visit60.jpg,GoalA,NULL
1687288536,51bc4e09d02b41c3faf3664518cfd43c,PennController,24,0,experiment,NULL,Video,progression,buffer,0.003231,1687288289092,5e5e94861a68691aae7853cb,5e5e94861a68691aae7853cb,21,visit,filler,C,50,visit40.jpg,visit60.jpg,GoalA,NULL
1687288536,51bc4e09d02b41c3faf3664518cfd43c,PennController,24,0,experiment,NULL,Selector,choice,Selection,option2,1687288293215,5e5e94861a68691aae7853cb,5e5e94861a68691aae7853cb,21,visit,filler,C,50,visit40.jpg,visit60.jpg,GoalA,option1;option2
1687288536,51bc4e09d02b41c3faf3664518cfd43c,PennController,24,0,experiment,NULL,PennController,23,_Trial_,End,1687288293217,5e5e94861a68691aae7853cb,5e5e94861a68691aae7853cb,21,visit,filler,C,50,visit40.jpg,visit60.jpg,GoalA,NULL
1687288536,51bc4e09d02b41c3faf3664518cfd43c,PennController,30,0,experiment,NULL,PennController,29,_Trial_,Start,1687288293218,5e5e94861a68691aae7853cb,5e5e94861a68691aae7853cb,27,square,filler,C,50,square40.jpg,square60.jpg,GoalA,NULL
1687288536,51bc4e09d02b41c3faf3664518cfd43c,PennController,30,0,experiment,NULL,PennController,29,_Header_,Start,1687288293218,5e5e94861a68691aae7853cb,5e5e94861a68691aae7853cb,27,square,filler,C,50,square40.jpg,square60.jpg,GoalA,NULL
1687288536,51bc4e09d02b41c3faf3664518cfd43c,PennController,30,0,experiment,NULL,PennController,29,_Header_,End,1687288293218,5e5e94861a68691aae7853cb,5e5e94861a68691aae7853cb,27,square,filler,C,50,square40.jpg,square60.jpg,GoalA,NULL
1687288536,51bc4e09d02b41c3faf3664518cfd43c,PennController,30,0,experiment,NULL,Canvas,canvas6,Print,NA,1687288299972,5e5e94861a68691aae7853cb,5e5e94861a68691aae7853cb,27,square,filler,C,50,square40.jpg,square60.jpg,GoalA,NULL
1687288536,51bc4e09d02b41c3faf3664518cfd43c,PennController,30,0,experiment,NULL,Video,progression,buffer,0.002827,1687288296747,5e5e94861a68691aae7853cb,5e5e94861a68691aae7853cb,27,square,filler,C,50,square40.jpg,square60.jpg,GoalA,NULL
1687288536,51bc4e09d02b41c3faf3664518cfd43c,PennController,30,0,experiment,NULL,Selector,choice,Selection,option2,1687288300875,5e5e94861a68691aae7853cb,5e5e94861a68691aae7853cb,27,square,filler,C,50,square40.jpg,square60.jpg,GoalA,option1;option2
1687288536,51bc4e09d02b41c3faf3664518cfd43c,PennController,30,0,experiment,NULL,PennController,29,_Trial_,End,1687288300877,5e5e94861a68691aae7853cb,5e5e94861a68691aae7853cb,27,square,filler,C,50,square40.jpg,square60.jpg,GoalA,NULL
1687288536,51bc4e09d02b41c3faf3664518cfd43c,PennController,4,0,experiment,NULL,PennController,3,_Trial_,Start,1687288300878,5e5e94861a68691aae7853cb,5e5e94861a68691aae7853cb,1,vase,critical,C,75,vase65.jpg,vase85.jpg,low,NULL
1687288536,51bc4e09d02b41c3faf3664518cfd43c,PennController,4,0,experiment,NULL,PennController,3,_Header_,Start,1687288300878,5e5e94861a68691aae7853cb,5e5e94861a68691aae7853cb,1,vase,critical,C,75,vase65.jpg,vase85.jpg,low,NULL
1687288536,51bc4e09d02b41c3faf3664518cfd43c,PennController,4,0,experiment,NULL,PennController,3,_Header_,End,1687288300878,5e5e94861a68691aae7853cb,5e5e94861a68691aae7853cb,1,vase,critical,C,75,vase65.jpg,vase85.jpg,low,NULL
1687288536,51bc4e09d02b41c3faf3664518cfd43c,PennController,4,0,experiment,NULL,Canvas,canvas6,Print,NA,1687288308565,5e5e94861a68691aae7853cb,5e5e94861a68691aae7853cb,1,vase,critical,C,75,vase65.jpg,vase85.jpg,low,NULL
1687288536,51bc4e09d02b41c3faf3664518cfd43c,PennController,4,0,experiment,NULL,Video,progression,buffer,0.002851,1687288304398,5e5e94861a68691aae7853cb,5e5e94861a68691aae7853cb,1,vase,critical,C,75,vase65.jpg,vase85.jpg,low,NULL
1687288536,51bc4e09d02b41c3faf3664518cfd43c,PennController,4,0,experiment,NULL,Selector,choice,Selection,option2,1687288309359,5e5e94861a68691aae7853cb,5e5e94861a68691aae7853cb,1,vase,critical,C,75,vase65.jpg,vase85.jpg,low,option1;option2
1687288536,51bc4e09d02b41c3faf3664518cfd43c,PennController,4,0,experiment,NULL,PennController,3,_Trial_,End,1687288309361,5e5e94861a68691aae7853cb,5e5e94861a68691aae7853cb,1,vase,critical,C,75,vase65.jpg,vase85.jpg,low,NULL
1687288536,51bc4e09d02b41c3faf3664518cfd43c,PennController,26,0,experiment,NULL,PennController,25,_Trial_,Start,1687288309362,5e5e94861a68691aae7853cb,5e5e94861a68691aae7853cb,23,color,filler,C,25,color15.jpg,color35.jpg,GoalA,NULL
1687288536,51bc4e09d02b41c3faf3664518cfd43c,PennController,26,0,experiment,NULL,PennController,25,_Header_,Start,1687288309362,5e5e94861a68691aae7853cb,5e5e94861a68691aae7853cb,23,color,filler,C,25,color15.jpg,color35.jpg,GoalA,NULL
1687288536,51bc4e09d02b41c3faf3664518cfd43c,PennController,26,0,experiment,NULL,PennController,25,_Header_,End,1687288309363,5e5e94861a68691aae7853cb,5e5e94861a68691aae7853cb,23,color,filler,C,25,color15.jpg,color35.jpg,GoalA,NULL
1687288536,51bc4e09d02b41c3faf3664518cfd43c,PennController,26,0,experiment,NULL,Canvas,canvas6,Print,NA,1687288315058,5e5e94861a68691aae7853cb,5e5e94861a68691aae7853cb,23,color,filler,C,25,color15.jpg,color35.jpg,GoalA,NULL
1687288536,51bc4e09d02b41c3faf3664518cfd43c,PennController,26,0,experiment,NULL,Video,progression,buffer,0.00234,1687288312882,5e5e94861a68691aae7853cb,5e5e94861a68691aae7853cb,23,color,filler,C,25,color15.jpg,color35.jpg,GoalA,NULL
1687288536,51bc4e09d02b41c3faf3664518cfd43c,PennController,26,0,experiment,NULL,Selector,choice,Selection,option1,1687288320602,5e5e94861a68691aae7853cb,5e5e94861a68691aae7853cb,23,color,filler,C,25,color15.jpg,color35.jpg,GoalA,option2;option1
1687288536,51bc4e09d02b41c3faf3664518cfd43c,PennController,26,0,experiment,NULL,PennController,25,_Trial_,End,1687288320603,5e5e94861a68691aae7853cb,5e5e94861a68691aae7853cb,23,color,filler,C,25,color15.jpg,color35.jpg,GoalA,NULL
1687288536,51bc4e09d02b41c3faf3664518cfd43c,PennController,9,0,experiment,NULL,PennController,8,_Trial_,Start,1687288320605,5e5e94861a68691aae7853cb,5e5e94861a68691aae7853cb,6,flower,critical,C,50,flower40.jpg,flower60.jpg,low,NULL
1687288536,51bc4e09d02b41c3faf3664518cfd43c,PennController,9,0,experiment,NULL,PennController,8,_Header_,Start,1687288320605,5e5e94861a68691aae7853cb,5e5e94861a68691aae7853cb,6,flower,critical,C,50,flower40.jpg,flower60.jpg,low,NULL
1687288536,51bc4e09d02b41c3faf3664518cfd43c,PennController,9,0,experiment,NULL,PennController,8,_Header_,End,1687288320605,5e5e94861a68691aae7853cb,5e5e94861a68691aae7853cb,6,flower,critical,C,50,flower40.jpg,flower60.jpg,low,NULL
1687288536,51bc4e09d02b41c3faf3664518cfd43c,PennController,9,0,experiment,NULL,Canvas,canvas6,Print,NA,1687288327382,5e5e94861a68691aae7853cb,5e5e94861a68691aae7853cb,6,flower,critical,C,50,flower40.jpg,flower60.jpg,low,NULL
1687288536,51bc4e09d02b41c3faf3664518cfd43c,PennController,9,0,experiment,NULL,Video,progression,buffer,0.00387,1687288324178,5e5e94861a68691aae7853cb,5e5e94861a68691aae7853cb,6,flower,critical,C,50,flower40.jpg,flower60.jpg,low,NULL
1687288536,51bc4e09d02b41c3faf3664518cfd43c,PennController,9,0,experiment,NULL,Selector,choice,Selection,option1,1687288329892,5e5e94861a68691aae7853cb,5e5e94861a68691aae7853cb,6,flower,critical,C,50,flower40.jpg,flower60.jpg,low,option1;option2
1687288536,51bc4e09d02b41c3faf3664518cfd43c,PennController,9,0,experiment,NULL,PennController,8,_Trial_,End,1687288329893,5e5e94861a68691aae7853cb,5e5e94861a68691aae7853cb,6,flower,critical,C,50,flower40.jpg,flower60.jpg,low,NULL
1687288536,51bc4e09d02b41c3faf3664518cfd43c,PennController,22,0,experiment,NULL,PennController,21,_Trial_,Start,1687288329895,5e5e94861a68691aae7853cb,5e5e94861a68691aae7853cb,19,cup,filler,C,75,cup65.jpg,cup85.jpg,GoalA,NULL
1687288536,51bc4e09d02b41c3faf3664518cfd43c,PennController,22,0,experiment,NULL,PennController,21,_Header_,Start,1687288329895,5e5e94861a68691aae7853cb,5e5e94861a68691aae7853cb,19,cup,filler,C,75,cup65.jpg,cup85.jpg,GoalA,NULL
1687288536,51bc4e09d02b41c3faf3664518cfd43c,PennController,22,0,experiment,NULL,PennController,21,_Header_,End,1687288329895,5e5e94861a68691aae7853cb,5e5e94861a68691aae7853cb,19,cup,filler,C,75,cup65.jpg,cup85.jpg,GoalA,NULL
1687288536,51bc4e09d02b41c3faf3664518cfd43c,PennController,22,0,experiment,NULL,Canvas,canvas6,Print,NA,1687288337624,5e5e94861a68691aae7853cb,5e5e94861a68691aae7853cb,19,cup,filler,C,75,cup65.jpg,cup85.jpg,GoalA,NULL
1687288536,51bc4e09d02b41c3faf3664518cfd43c,PennController,22,0,experiment,NULL,Video,progression,buffer,0.002556,1687288333417,5e5e94861a68691aae7853cb,5e5e94861a68691aae7853cb,19,cup,filler,C,75,cup65.jpg,cup85.jpg,GoalA,NULL
1687288536,51bc4e09d02b41c3faf3664518cfd43c,PennController,22,0,experiment,NULL,Selector,choice,Selection,option2,1687288340261,5e5e94861a68691aae7853cb,5e5e94861a68691aae7853cb,19,cup,filler,C,75,cup65.jpg,cup85.jpg,GoalA,option1;option2
1687288536,51bc4e09d02b41c3faf3664518cfd43c,PennController,22,0,experiment,NULL,PennController,21,_Trial_,End,1687288340262,5e5e94861a68691aae7853cb,5e5e94861a68691aae7853cb,19,cup,filler,C,75,cup65.jpg,cup85.jpg,GoalA,NULL
1687288536,51bc4e09d02b41c3faf3664518cfd43c,PennController,23,0,experiment,NULL,PennController,22,_Trial_,Start,1687288340263,5e5e94861a68691aae7853cb,5e5e94861a68691aae7853cb,20,cat,filler,C,25,cat15.jpg,cat35.jpg,GoalB,NULL
1687288536,51bc4e09d02b41c3faf3664518cfd43c,PennController,23,0,experiment,NULL,PennController,22,_Header_,Start,1687288340263,5e5e94861a68691aae7853cb,5e5e94861a68691aae7853cb,20,cat,filler,C,25,cat15.jpg,cat35.jpg,GoalB,NULL
1687288536,51bc4e09d02b41c3faf3664518cfd43c,PennController,23,0,experiment,NULL,PennController,22,_Header_,End,1687288340263,5e5e94861a68691aae7853cb,5e5e94861a68691aae7853cb,20,cat,filler,C,25,cat15.jpg,cat35.jpg,GoalB,NULL
1687288536,51bc4e09d02b41c3faf3664518cfd43c,PennController,23,0,experiment,NULL,Canvas,canvas6,Print,NA,1687288345948,5e5e94861a68691aae7853cb,5e5e94861a68691aae7853cb,20,cat,filler,C,25,cat15.jpg,cat35.jpg,GoalB,NULL
1687288536,51bc4e09d02b41c3faf3664518cfd43c,PennController,23,0,experiment,NULL,Video,progression,buffer,0.004249,1687288343789,5e5e94861a68691aae7853cb,5e5e94861a68691aae7853cb,20,cat,filler,C,25,cat15.jpg,cat35.jpg,GoalB,NULL
1687288536,51bc4e09d02b41c3faf3664518cfd43c,PennController,23,0,experiment,NULL,Selector,choice,Selection,option1,1687288347639,5e5e94861a68691aae7853cb,5e5e94861a68691aae7853cb,20,cat,filler,C,25,cat15.jpg,cat35.jpg,GoalB,option2;option1
1687288536,51bc4e09d02b41c3faf3664518cfd43c,PennController,23,0,experiment,NULL,PennController,22,_Trial_,End,1687288347640,5e5e94861a68691aae7853cb,5e5e94861a68691aae7853cb,20,cat,filler,C,25,cat15.jpg,cat35.jpg,GoalB,NULL
1687288536,51bc4e09d02b41c3faf3664518cfd43c,PennController,27,0,experiment,NULL,PennController,26,_Trial_,Start,1687288347642,5e5e94861a68691aae7853cb,5e5e94861a68691aae7853cb,24,match,filler,C,50,match40.jpg,match60.jpg,GoalB,NULL
1687288536,51bc4e09d02b41c3faf3664518cfd43c,PennController,27,0,experiment,NULL,PennController,26,_Header_,Start,1687288347642,5e5e94861a68691aae7853cb,5e5e94861a68691aae7853cb,24,match,filler,C,50,match40.jpg,match60.jpg,GoalB,NULL
1687288536,51bc4e09d02b41c3faf3664518cfd43c,PennController,27,0,experiment,NULL,PennController,26,_Header_,End,1687288347642,5e5e94861a68691aae7853cb,5e5e94861a68691aae7853cb,24,match,filler,C,50,match40.jpg,match60.jpg,GoalB,NULL
1687288536,51bc4e09d02b41c3faf3664518cfd43c,PennController,27,0,experiment,NULL,Canvas,canvas6,Print,NA,1687288354329,5e5e94861a68691aae7853cb,5e5e94861a68691aae7853cb,24,match,filler,C,50,match40.jpg,match60.jpg,GoalB,NULL
1687288536,51bc4e09d02b41c3faf3664518cfd43c,PennController,27,0,experiment,NULL,Video,progression,buffer,0.004597,1687288351167,5e5e94861a68691aae7853cb,5e5e94861a68691aae7853cb,24,match,filler,C,50,match40.jpg,match60.jpg,GoalB,NULL
1687288536,51bc4e09d02b41c3faf3664518cfd43c,PennController,27,0,experiment,NULL,Selector,choice,Selection,option2,1687288356195,5e5e94861a68691aae7853cb,5e5e94861a68691aae7853cb,24,match,filler,C,50,match40.jpg,match60.jpg,GoalB,option1;option2
1687288536,51bc4e09d02b41c3faf3664518cfd43c,PennController,27,0,experiment,NULL,PennController,26,_Trial_,End,1687288356197,5e5e94861a68691aae7853cb,5e5e94861a68691aae7853cb,24,match,filler,C,50,match40.jpg,match60.jpg,GoalB,NULL
1687288536,51bc4e09d02b41c3faf3664518cfd43c,PennController,31,0,experiment,NULL,PennController,30,_Trial_,Start,1687288356198,5e5e94861a68691aae7853cb,5e5e94861a68691aae7853cb,28,sort,filler,C,75,sort65.jpg,sort85.jpg,GoalB,NULL
1687288536,51bc4e09d02b41c3faf3664518cfd43c,PennController,31,0,experiment,NULL,PennController,30,_Header_,Start,1687288356198,5e5e94861a68691aae7853cb,5e5e94861a68691aae7853cb,28,sort,filler,C,75,sort65.jpg,sort85.jpg,GoalB,NULL
1687288536,51bc4e09d02b41c3faf3664518cfd43c,PennController,31,0,experiment,NULL,PennController,30,_Header_,End,1687288356198,5e5e94861a68691aae7853cb,5e5e94861a68691aae7853cb,28,sort,filler,C,75,sort65.jpg,sort85.jpg,GoalB,NULL
1687288536,51bc4e09d02b41c3faf3664518cfd43c,PennController,31,0,experiment,NULL,Canvas,canvas6,Print,NA,1687288363915,5e5e94861a68691aae7853cb,5e5e94861a68691aae7853cb,28,sort,filler,C,75,sort65.jpg,sort85.jpg,GoalB,NULL
1687288536,51bc4e09d02b41c3faf3664518cfd43c,PennController,31,0,experiment,NULL,Video,progression,buffer,0,1687288359732,5e5e94861a68691aae7853cb,5e5e94861a68691aae7853cb,28,sort,filler,C,75,sort65.jpg,sort85.jpg,GoalB,NULL
1687288536,51bc4e09d02b41c3faf3664518cfd43c,PennController,31,0,experiment,NULL,Selector,choice,Selection,option2,1687288365892,5e5e94861a68691aae7853cb,5e5e94861a68691aae7853cb,28,sort,filler,C,75,sort65.jpg,sort85.jpg,GoalB,option1;option2
1687288536,51bc4e09d02b41c3faf3664518cfd43c,PennController,31,0,experiment,NULL,PennController,30,_Trial_,End,1687288365894,5e5e94861a68691aae7853cb,5e5e94861a68691aae7853cb,28,sort,filler,C,75,sort65.jpg,sort85.jpg,GoalB,NULL
1687288536,51bc4e09d02b41c3faf3664518cfd43c,PennController,10,0,experiment,NULL,PennController,9,_Trial_,Start,1687288365895,5e5e94861a68691aae7853cb,5e5e94861a68691aae7853cb,7,stack,critical,C,75,stack65.jpg,stack85.jpg,low,NULL
1687288536,51bc4e09d02b41c3faf3664518cfd43c,PennController,10,0,experiment,NULL,PennController,9,_Header_,Start,1687288365895,5e5e94861a68691aae7853cb,5e5e94861a68691aae7853cb,7,stack,critical,C,75,stack65.jpg,stack85.jpg,low,NULL
1687288536,51bc4e09d02b41c3faf3664518cfd43c,PennController,10,0,experiment,NULL,PennController,9,_Header_,End,1687288365895,5e5e94861a68691aae7853cb,5e5e94861a68691aae7853cb,7,stack,critical,C,75,stack65.jpg,stack85.jpg,low,NULL
1687288536,51bc4e09d02b41c3faf3664518cfd43c,PennController,10,0,experiment,NULL,Canvas,canvas6,Print,NA,1687288373622,5e5e94861a68691aae7853cb,5e5e94861a68691aae7853cb,7,stack,critical,C,75,stack65.jpg,stack85.jpg,low,NULL
1687288536,51bc4e09d02b41c3faf3664518cfd43c,PennController,10,0,experiment,NULL,Video,progression,buffer,0.003955,1687288369415,5e5e94861a68691aae7853cb,5e5e94861a68691aae7853cb,7,stack,critical,C,75,stack65.jpg,stack85.jpg,low,NULL
1687288536,51bc4e09d02b41c3faf3664518cfd43c,PennController,10,0,experiment,NULL,Selector,choice,Selection,option2,1687288375654,5e5e94861a68691aae7853cb,5e5e94861a68691aae7853cb,7,stack,critical,C,75,stack65.jpg,stack85.jpg,low,option2;option1
1687288536,51bc4e09d02b41c3faf3664518cfd43c,PennController,10,0,experiment,NULL,PennController,9,_Trial_,End,1687288375655,5e5e94861a68691aae7853cb,5e5e94861a68691aae7853cb,7,stack,critical,C,75,stack65.jpg,stack85.jpg,low,NULL
1687288536,51bc4e09d02b41c3faf3664518cfd43c,PennController,29,0,experiment,NULL,PennController,28,_Trial_,Start,1687288375657,5e5e94861a68691aae7853cb,5e5e94861a68691aae7853cb,26,sandwich,filler,C,25,sandwich15.jpg,sandwich35.jpg,GoalB,NULL
1687288536,51bc4e09d02b41c3faf3664518cfd43c,PennController,29,0,experiment,NULL,PennController,28,_Header_,Start,1687288375657,5e5e94861a68691aae7853cb,5e5e94861a68691aae7853cb,26,sandwich,filler,C,25,sandwich15.jpg,sandwich35.jpg,GoalB,NULL
1687288536,51bc4e09d02b41c3faf3664518cfd43c,PennController,29,0,experiment,NULL,PennController,28,_Header_,End,1687288375657,5e5e94861a68691aae7853cb,5e5e94861a68691aae7853cb,26,sandwich,filler,C,25,sandwich15.jpg,sandwich35.jpg,GoalB,NULL
1687288536,51bc4e09d02b41c3faf3664518cfd43c,PennController,29,0,experiment,NULL,Canvas,canvas6,Print,NA,1687288381350,5e5e94861a68691aae7853cb,5e5e94861a68691aae7853cb,26,sandwich,filler,C,25,sandwich15.jpg,sandwich35.jpg,GoalB,NULL
1687288536,51bc4e09d02b41c3faf3664518cfd43c,PennController,29,0,experiment,NULL,Video,progression,buffer,0.002749,1687288379183,5e5e94861a68691aae7853cb,5e5e94861a68691aae7853cb,26,sandwich,filler,C,25,sandwich15.jpg,sandwich35.jpg,GoalB,NULL
1687288536,51bc4e09d02b41c3faf3664518cfd43c,PennController,29,0,experiment,NULL,Selector,choice,Selection,option1,1687288382550,5e5e94861a68691aae7853cb,5e5e94861a68691aae7853cb,26,sandwich,filler,C,25,sandwich15.jpg,sandwich35.jpg,GoalB,option2;option1
1687288536,51bc4e09d02b41c3faf3664518cfd43c,PennController,29,0,experiment,NULL,PennController,28,_Trial_,End,1687288382551,5e5e94861a68691aae7853cb,5e5e94861a68691aae7853cb,26,sandwich,filler,C,25,sandwich15.jpg,sandwich35.jpg,GoalB,NULL
1687288536,51bc4e09d02b41c3faf3664518cfd43c,PennController,18,0,experiment,NULL,PennController,17,_Trial_,Start,1687288382553,5e5e94861a68691aae7853cb,5e5e94861a68691aae7853cb,15,zip,critical,C,50,zip40.jpg,zip60.jpg,low,NULL
1687288536,51bc4e09d02b41c3faf3664518cfd43c,PennController,18,0,experiment,NULL,PennController,17,_Header_,Start,1687288382553,5e5e94861a68691aae7853cb,5e5e94861a68691aae7853cb,15,zip,critical,C,50,zip40.jpg,zip60.jpg,low,NULL
1687288536,51bc4e09d02b41c3faf3664518cfd43c,PennController,18,0,experiment,NULL,PennController,17,_Header_,End,1687288382553,5e5e94861a68691aae7853cb,5e5e94861a68691aae7853cb,15,zip,critical,C,50,zip40.jpg,zip60.jpg,low,NULL
1687288536,51bc4e09d02b41c3faf3664518cfd43c,PennController,18,0,experiment,NULL,Canvas,canvas6,Print,NA,1687288389284,5e5e94861a68691aae7853cb,5e5e94861a68691aae7853cb,15,zip,critical,C,50,zip40.jpg,zip60.jpg,low,NULL
1687288536,51bc4e09d02b41c3faf3664518cfd43c,PennController,18,0,experiment,NULL,Video,progression,buffer,0.003021,1687288386075,5e5e94861a68691aae7853cb,5e5e94861a68691aae7853cb,15,zip,critical,C,50,zip40.jpg,zip60.jpg,low,NULL
1687288536,51bc4e09d02b41c3faf3664518cfd43c,PennController,18,0,experiment,NULL,Selector,choice,Selection,option1,1687288392252,5e5e94861a68691aae7853cb,5e5e94861a68691aae7853cb,15,zip,critical,C,50,zip40.jpg,zip60.jpg,low,option2;option1
1687288536,51bc4e09d02b41c3faf3664518cfd43c,PennController,18,0,experiment,NULL,PennController,17,_Trial_,End,1687288392253,5e5e94861a68691aae7853cb,5e5e94861a68691aae7853cb,15,zip,critical,C,50,zip40.jpg,zip60.jpg,low,NULL
1687288536,51bc4e09d02b41c3faf3664518cfd43c,PennController,12,0,experiment,NULL,PennController,11,_Trial_,Start,1687288392255,5e5e94861a68691aae7853cb,5e5e94861a68691aae7853cb,9,cake,critical,C,50,cake42.jpg,cake60.jpg,low,NULL
1687288536,51bc4e09d02b41c3faf3664518cfd43c,PennController,12,0,experiment,NULL,PennController,11,_Header_,Start,1687288392255,5e5e94861a68691aae7853cb,5e5e94861a68691aae7853cb,9,cake,critical,C,50,cake42.jpg,cake60.jpg,low,NULL
1687288536,51bc4e09d02b41c3faf3664518cfd43c,PennController,12,0,experiment,NULL,PennController,11,_Header_,End,1687288392255,5e5e94861a68691aae7853cb,5e5e94861a68691aae7853cb,9,cake,critical,C,50,cake42.jpg,cake60.jpg,low,NULL
1687288536,51bc4e09d02b41c3faf3664518cfd43c,PennController,12,0,experiment,NULL,Canvas,canvas6,Print,NA,1687288400367,5e5e94861a68691aae7853cb,5e5e94861a68691aae7853cb,9,cake,critical,C,50,cake42.jpg,cake60.jpg,low,NULL
1687288536,51bc4e09d02b41c3faf3664518cfd43c,PennController,12,0,experiment,NULL,Video,progression,buffer,0.006227,1687288395797,5e5e94861a68691aae7853cb,5e5e94861a68691aae7853cb,9,cake,critical,C,50,cake42.jpg,cake60.jpg,low,NULL
1687288536,51bc4e09d02b41c3faf3664518cfd43c,PennController,12,0,experiment,NULL,Selector,choice,Selection,option2,1687288401532,5e5e94861a68691aae7853cb,5e5e94861a68691aae7853cb,9,cake,critical,C,50,cake42.jpg,cake60.jpg,low,option1;option2
1687288536,51bc4e09d02b41c3faf3664518cfd43c,PennController,12,0,experiment,NULL,PennController,11,_Trial_,End,1687288401533,5e5e94861a68691aae7853cb,5e5e94861a68691aae7853cb,9,cake,critical,C,50,cake42.jpg,cake60.jpg,low,NULL
1687288536,51bc4e09d02b41c3faf3664518cfd43c,PennController,17,0,experiment,NULL,PennController,16,_Trial_,Start,1687288401535,5e5e94861a68691aae7853cb,5e5e94861a68691aae7853cb,14,cover,critical,C,25,cover15.jpg,cover33.jpg,low,NULL
1687288536,51bc4e09d02b41c3faf3664518cfd43c,PennController,17,0,experiment,NULL,PennController,16,_Header_,Start,1687288401535,5e5e94861a68691aae7853cb,5e5e94861a68691aae7853cb,14,cover,critical,C,25,cover15.jpg,cover33.jpg,low,NULL
1687288536,51bc4e09d02b41c3faf3664518cfd43c,PennController,17,0,experiment,NULL,PennController,16,_Header_,End,1687288401535,5e5e94861a68691aae7853cb,5e5e94861a68691aae7853cb,14,cover,critical,C,25,cover15.jpg,cover33.jpg,low,NULL
1687288536,51bc4e09d02b41c3faf3664518cfd43c,PennController,17,0,experiment,NULL,Canvas,canvas6,Print,NA,1687288407825,5e5e94861a68691aae7853cb,5e5e94861a68691aae7853cb,14,cover,critical,C,25,cover15.jpg,cover33.jpg,low,NULL
1687288536,51bc4e09d02b41c3faf3664518cfd43c,PennController,17,0,experiment,NULL,Video,progression,buffer,0.00303,1687288405057,5e5e94861a68691aae7853cb,5e5e94861a68691aae7853cb,14,cover,critical,C,25,cover15.jpg,cover33.jpg,low,NULL
1687288536,51bc4e09d02b41c3faf3664518cfd43c,PennController,17,0,experiment,NULL,Selector,choice,Selection,option1,1687288409550,5e5e94861a68691aae7853cb,5e5e94861a68691aae7853cb,14,cover,critical,C,25,cover15.jpg,cover33.jpg,low,option1;option2
1687288536,51bc4e09d02b41c3faf3664518cfd43c,PennController,17,0,experiment,NULL,PennController,16,_Trial_,End,1687288409551,5e5e94861a68691aae7853cb,5e5e94861a68691aae7853cb,14,cover,critical,C,25,cover15.jpg,cover33.jpg,low,NULL
1687288536,51bc4e09d02b41c3faf3664518cfd43c,PennController,5,0,experiment,NULL,PennController,4,_Trial_,Start,1687288409552,5e5e94861a68691aae7853cb,5e5e94861a68691aae7853cb,2,door,critical,C,25,door15.jpg,door35.jpg,low,NULL
1687288536,51bc4e09d02b41c3faf3664518cfd43c,PennController,5,0,experiment,NULL,PennController,4,_Header_,Start,1687288409552,5e5e94861a68691aae7853cb,5e5e94861a68691aae7853cb,2,door,critical,C,25,door15.jpg,door35.jpg,low,NULL
1687288536,51bc4e09d02b41c3faf3664518cfd43c,PennController,5,0,experiment,NULL,PennController,4,_Header_,End,1687288409552,5e5e94861a68691aae7853cb,5e5e94861a68691aae7853cb,2,door,critical,C,25,door15.jpg,door35.jpg,low,NULL
1687288536,51bc4e09d02b41c3faf3664518cfd43c,PennController,5,0,experiment,NULL,Canvas,canvas6,Print,NA,1687288415233,5e5e94861a68691aae7853cb,5e5e94861a68691aae7853cb,2,door,critical,C,25,door15.jpg,door35.jpg,low,NULL
1687288536,51bc4e09d02b41c3faf3664518cfd43c,PennController,5,0,experiment,NULL,Video,progression,buffer,0.003964,1687288413075,5e5e94861a68691aae7853cb,5e5e94861a68691aae7853cb,2,door,critical,C,25,door15.jpg,door35.jpg,low,NULL
1687288536,51bc4e09d02b41c3faf3664518cfd43c,PennController,5,0,experiment,NULL,Selector,choice,Selection,option2,1687288416164,5e5e94861a68691aae7853cb,5e5e94861a68691aae7853cb,2,door,critical,C,25,door15.jpg,door35.jpg,low,option1;option2
1687288536,51bc4e09d02b41c3faf3664518cfd43c,PennController,5,0,experiment,NULL,PennController,4,_Trial_,End,1687288416165,5e5e94861a68691aae7853cb,5e5e94861a68691aae7853cb,2,door,critical,C,25,door15.jpg,door35.jpg,low,NULL
1687288536,51bc4e09d02b41c3faf3664518cfd43c,PennController,28,0,experiment,NULL,PennController,27,_Trial_,Start,1687288416166,5e5e94861a68691aae7853cb,5e5e94861a68691aae7853cb,25,house,filler,C,75,house65.jpg,house85.jpg,GoalA,NULL
1687288536,51bc4e09d02b41c3faf3664518cfd43c,PennController,28,0,experiment,NULL,PennController,27,_Header_,Start,1687288416166,5e5e94861a68691aae7853cb,5e5e94861a68691aae7853cb,25,house,filler,C,75,house65.jpg,house85.jpg,GoalA,NULL
1687288536,51bc4e09d02b41c3faf3664518cfd43c,PennController,28,0,experiment,NULL,PennController,27,_Header_,End,1687288416166,5e5e94861a68691aae7853cb,5e5e94861a68691aae7853cb,25,house,filler,C,75,house65.jpg,house85.jpg,GoalA,NULL
1687288536,51bc4e09d02b41c3faf3664518cfd43c,PennController,28,0,experiment,NULL,Canvas,canvas6,Print,NA,1687288423882,5e5e94861a68691aae7853cb,5e5e94861a68691aae7853cb,25,house,filler,C,75,house65.jpg,house85.jpg,GoalA,NULL
1687288536,51bc4e09d02b41c3faf3664518cfd43c,PennController,28,0,experiment,NULL,Video,progression,buffer,0.003077,1687288419692,5e5e94861a68691aae7853cb,5e5e94861a68691aae7853cb,25,house,filler,C,75,house65.jpg,house85.jpg,GoalA,NULL
1687288536,51bc4e09d02b41c3faf3664518cfd43c,PennController,28,0,experiment,NULL,Selector,choice,Selection,option2,1687288425561,5e5e94861a68691aae7853cb,5e5e94861a68691aae7853cb,25,house,filler,C,75,house65.jpg,house85.jpg,GoalA,option1;option2
1687288536,51bc4e09d02b41c3faf3664518cfd43c,PennController,28,0,experiment,NULL,PennController,27,_Trial_,End,1687288425562,5e5e94861a68691aae7853cb,5e5e94861a68691aae7853cb,25,house,filler,C,75,house65.jpg,house85.jpg,GoalA,NULL
1687288536,51bc4e09d02b41c3faf3664518cfd43c,PennController,19,0,experiment,NULL,PennController,18,_Trial_,Start,1687288425563,5e5e94861a68691aae7853cb,5e5e94861a68691aae7853cb,16,blinds,critical,C,75,blinds66.jpg,blinds84.jpg,low,NULL
1687288536,51bc4e09d02b41c3faf3664518cfd43c,PennController,19,0,experiment,NULL,PennController,18,_Header_,Start,1687288425564,5e5e94861a68691aae7853cb,5e5e94861a68691aae7853cb,16,blinds,critical,C,75,blinds66.jpg,blinds84.jpg,low,NULL
1687288536,51bc4e09d02b41c3faf3664518cfd43c,PennController,19,0,experiment,NULL,PennController,18,_Header_,End,1687288425564,5e5e94861a68691aae7853cb,5e5e94861a68691aae7853cb,16,blinds,critical,C,75,blinds66.jpg,blinds84.jpg,low,NULL
1687288536,51bc4e09d02b41c3faf3664518cfd43c,PennController,19,0,experiment,NULL,Canvas,canvas6,Print,NA,1687288435297,5e5e94861a68691aae7853cb,5e5e94861a68691aae7853cb,16,blinds,critical,C,75,blinds66.jpg,blinds84.jpg,low,NULL
1687288536,51bc4e09d02b41c3faf3664518cfd43c,PennController,19,0,experiment,NULL,Video,progression,buffer,0.002287,1687288429081,5e5e94861a68691aae7853cb,5e5e94861a68691aae7853cb,16,blinds,critical,C,75,blinds66.jpg,blinds84.jpg,low,NULL
1687288536,51bc4e09d02b41c3faf3664518cfd43c,PennController,19,0,experiment,NULL,Selector,choice,Selection,option2,1687288436746,5e5e94861a68691aae7853cb,5e5e94861a68691aae7853cb,16,blinds,critical,C,75,blinds66.jpg,blinds84.jpg,low,option2;option1
1687288536,51bc4e09d02b41c3faf3664518cfd43c,PennController,19,0,experiment,NULL,PennController,18,_Trial_,End,1687288436747,5e5e94861a68691aae7853cb,5e5e94861a68691aae7853cb,16,blinds,critical,C,75,blinds66.jpg,blinds84.jpg,low,NULL
1687288536,51bc4e09d02b41c3faf3664518cfd43c,PennController,8,0,experiment,NULL,PennController,7,_Trial_,Start,1687288436748,5e5e94861a68691aae7853cb,5e5e94861a68691aae7853cb,5,book,critical,C,25,book15.jpg,book35.jpg,low,NULL
1687288536,51bc4e09d02b41c3faf3664518cfd43c,PennController,8,0,experiment,NULL,PennController,7,_Header_,Start,1687288436748,5e5e94861a68691aae7853cb,5e5e94861a68691aae7853cb,5,book,critical,C,25,book15.jpg,book35.jpg,low,NULL
1687288536,51bc4e09d02b41c3faf3664518cfd43c,PennController,8,0,experiment,NULL,PennController,7,_Header_,End,1687288436748,5e5e94861a68691aae7853cb,5e5e94861a68691aae7853cb,5,book,critical,C,25,book15.jpg,book35.jpg,low,NULL
1687288536,51bc4e09d02b41c3faf3664518cfd43c,PennController,8,0,experiment,NULL,Canvas,canvas6,Print,NA,1687288442442,5e5e94861a68691aae7853cb,5e5e94861a68691aae7853cb,5,book,critical,C,25,book15.jpg,book35.jpg,low,NULL
1687288536,51bc4e09d02b41c3faf3664518cfd43c,PennController,8,0,experiment,NULL,Video,progression,buffer,0.003707,1687288440273,5e5e94861a68691aae7853cb,5e5e94861a68691aae7853cb,5,book,critical,C,25,book15.jpg,book35.jpg,low,NULL
1687288536,51bc4e09d02b41c3faf3664518cfd43c,PennController,8,0,experiment,NULL,Selector,choice,Selection,option2,1687288443792,5e5e94861a68691aae7853cb,5e5e94861a68691aae7853cb,5,book,critical,C,25,book15.jpg,book35.jpg,low,option1;option2
1687288536,51bc4e09d02b41c3faf3664518cfd43c,PennController,8,0,experiment,NULL,PennController,7,_Trial_,End,1687288443793,5e5e94861a68691aae7853cb,5e5e94861a68691aae7853cb,5,book,critical,C,25,book15.jpg,book35.jpg,low,NULL
1687288536,51bc4e09d02b41c3faf3664518cfd43c,PennController,13,0,experiment,NULL,PennController,12,_Trial_,Start,1687288443795,5e5e94861a68691aae7853cb,5e5e94861a68691aae7853cb,10,train,critical,C,75,train65.jpg,train85.jpg,low,NULL
1687288536,51bc4e09d02b41c3faf3664518cfd43c,PennController,13,0,experiment,NULL,PennController,12,_Header_,Start,1687288443795,5e5e94861a68691aae7853cb,5e5e94861a68691aae7853cb,10,train,critical,C,75,train65.jpg,train85.jpg,low,NULL
1687288536,51bc4e09d02b41c3faf3664518cfd43c,PennController,13,0,experiment,NULL,PennController,12,_Header_,End,1687288443795,5e5e94861a68691aae7853cb,5e5e94861a68691aae7853cb,10,train,critical,C,75,train65.jpg,train85.jpg,low,NULL
1687288536,51bc4e09d02b41c3faf3664518cfd43c,PennController,13,0,experiment,NULL,Canvas,canvas6,Print,NA,1687288451485,5e5e94861a68691aae7853cb,5e5e94861a68691aae7853cb,10,train,critical,C,75,train65.jpg,train85.jpg,low,NULL
1687288536,51bc4e09d02b41c3faf3664518cfd43c,PennController,13,0,experiment,NULL,Video,progression,buffer,0.006321,1687288447320,5e5e94861a68691aae7853cb,5e5e94861a68691aae7853cb,10,train,critical,C,75,train65.jpg,train85.jpg,low,NULL
1687288536,51bc4e09d02b41c3faf3664518cfd43c,PennController,13,0,experiment,NULL,Selector,choice,Selection,option2,1687288454568,5e5e94861a68691aae7853cb,5e5e94861a68691aae7853cb,10,train,critical,C,75,train65.jpg,train85.jpg,low,option1;option2
1687288536,51bc4e09d02b41c3faf3664518cfd43c,PennController,13,0,experiment,NULL,PennController,12,_Trial_,End,1687288454570,5e5e94861a68691aae7853cb,5e5e94861a68691aae7853cb,10,train,critical,C,75,train65.jpg,train85.jpg,low,NULL
1687288536,51bc4e09d02b41c3faf3664518cfd43c,PennController,25,0,experiment,NULL,PennController,24,_Trial_,Start,1687288454571,5e5e94861a68691aae7853cb,5e5e94861a68691aae7853cb,22,wall,filler,C,75,wall65.jpg,wall85.jpg,GoalB,NULL
1687288536,51bc4e09d02b41c3faf3664518cfd43c,PennController,25,0,experiment,NULL,PennController,24,_Header_,Start,1687288454571,5e5e94861a68691aae7853cb,5e5e94861a68691aae7853cb,22,wall,filler,C,75,wall65.jpg,wall85.jpg,GoalB,NULL
1687288536,51bc4e09d02b41c3faf3664518cfd43c,PennController,25,0,experiment,NULL,PennController,24,_Header_,End,1687288454571,5e5e94861a68691aae7853cb,5e5e94861a68691aae7853cb,22,wall,filler,C,75,wall65.jpg,wall85.jpg,GoalB,NULL
1687288536,51bc4e09d02b41c3faf3664518cfd43c,PennController,25,0,experiment,NULL,Canvas,canvas6,Print,NA,1687288462279,5e5e94861a68691aae7853cb,5e5e94861a68691aae7853cb,22,wall,filler,C,75,wall65.jpg,wall85.jpg,GoalB,NULL
1687288536,51bc4e09d02b41c3faf3664518cfd43c,PennController,25,0,experiment,NULL,Video,progression,buffer,0.004426,1687288458096,5e5e94861a68691aae7853cb,5e5e94861a68691aae7853cb,22,wall,filler,C,75,wall65.jpg,wall85.jpg,GoalB,NULL
1687288536,51bc4e09d02b41c3faf3664518cfd43c,PennController,25,0,experiment,NULL,Selector,choice,Selection,option2,1687288463668,5e5e94861a68691aae7853cb,5e5e94861a68691aae7853cb,22,wall,filler,C,75,wall65.jpg,wall85.jpg,GoalB,option2;option1
1687288536,51bc4e09d02b41c3faf3664518cfd43c,PennController,25,0,experiment,NULL,PennController,24,_Trial_,End,1687288463669,5e5e94861a68691aae7853cb,5e5e94861a68691aae7853cb,22,wall,filler,C,75,wall65.jpg,wall85.jpg,GoalB,NULL
1687288536,51bc4e09d02b41c3faf3664518cfd43c,PennController,11,0,experiment,NULL,PennController,10,_Trial_,Start,1687288463670,5e5e94861a68691aae7853cb,5e5e94861a68691aae7853cb,8,cucumber,critical,C,25,cucumber15.jpg,cucumber33.jpg,low,NULL
1687288536,51bc4e09d02b41c3faf3664518cfd43c,PennController,11,0,experiment,NULL,PennController,10,_Header_,Start,1687288463670,5e5e94861a68691aae7853cb,5e5e94861a68691aae7853cb,8,cucumber,critical,C,25,cucumber15.jpg,cucumber33.jpg,low,NULL
1687288536,51bc4e09d02b41c3faf3664518cfd43c,PennController,11,0,experiment,NULL,PennController,10,_Header_,End,1687288463670,5e5e94861a68691aae7853cb,5e5e94861a68691aae7853cb,8,cucumber,critical,C,25,cucumber15.jpg,cucumber33.jpg,low,NULL
1687288536,51bc4e09d02b41c3faf3664518cfd43c,PennController,11,0,experiment,NULL,Canvas,canvas6,Print,NA,1687288469951,5e5e94861a68691aae7853cb,5e5e94861a68691aae7853cb,8,cucumber,critical,C,25,cucumber15.jpg,cucumber33.jpg,low,NULL
1687288536,51bc4e09d02b41c3faf3664518cfd43c,PennController,11,0,experiment,NULL,Video,progression,buffer,0.002692,1687288467191,5e5e94861a68691aae7853cb,5e5e94861a68691aae7853cb,8,cucumber,critical,C,25,cucumber15.jpg,cucumber33.jpg,low,NULL
1687288536,51bc4e09d02b41c3faf3664518cfd43c,PennController,11,0,experiment,NULL,Selector,choice,Selection,option1,1687288471884,5e5e94861a68691aae7853cb,5e5e94861a68691aae7853cb,8,cucumber,critical,C,25,cucumber15.jpg,cucumber33.jpg,low,option2;option1
1687288536,51bc4e09d02b41c3faf3664518cfd43c,PennController,11,0,experiment,NULL,PennController,10,_Trial_,End,1687288471885,5e5e94861a68691aae7853cb,5e5e94861a68691aae7853cb,8,cucumber,critical,C,25,cucumber15.jpg,cucumber33.jpg,low,NULL
1687288536,51bc4e09d02b41c3faf3664518cfd43c,PennController,6,0,experiment,NULL,PennController,5,_Trial_,Start,1687288471886,5e5e94861a68691aae7853cb,5e5e94861a68691aae7853cb,3,clean,critical,C,50,clean40.jpg,clean60.jpg,low,NULL
1687288536,51bc4e09d02b41c3faf3664518cfd43c,PennController,6,0,experiment,NULL,PennController,5,_Header_,Start,1687288471886,5e5e94861a68691aae7853cb,5e5e94861a68691aae7853cb,3,clean,critical,C,50,clean40.jpg,clean60.jpg,low,NULL
1687288536,51bc4e09d02b41c3faf3664518cfd43c,PennController,6,0,experiment,NULL,PennController,5,_Header_,End,1687288471886,5e5e94861a68691aae7853cb,5e5e94861a68691aae7853cb,3,clean,critical,C,50,clean40.jpg,clean60.jpg,low,NULL
1687288536,51bc4e09d02b41c3faf3664518cfd43c,PennController,6,0,experiment,NULL,Canvas,canvas6,Print,NA,1687288478597,5e5e94861a68691aae7853cb,5e5e94861a68691aae7853cb,3,clean,critical,C,50,clean40.jpg,clean60.jpg,low,NULL
1687288536,51bc4e09d02b41c3faf3664518cfd43c,PennController,6,0,experiment,NULL,Video,progression,buffer,0.002976,1687288475405,5e5e94861a68691aae7853cb,5e5e94861a68691aae7853cb,3,clean,critical,C,50,clean40.jpg,clean60.jpg,low,NULL
1687288536,51bc4e09d02b41c3faf3664518cfd43c,PennController,6,0,experiment,NULL,Selector,choice,Selection,option1,1687288479507,5e5e94861a68691aae7853cb,5e5e94861a68691aae7853cb,3,clean,critical,C,50,clean40.jpg,clean60.jpg,low,option2;option1
1687288536,51bc4e09d02b41c3faf3664518cfd43c,PennController,6,0,experiment,NULL,PennController,5,_Trial_,End,1687288479508,5e5e94861a68691aae7853cb,5e5e94861a68691aae7853cb,3,clean,critical,C,50,clean40.jpg,clean60.jpg,low,NULL
1687288536,51bc4e09d02b41c3faf3664518cfd43c,PennController,7,0,experiment,NULL,PennController,6,_Trial_,Start,1687288479509,5e5e94861a68691aae7853cb,5e5e94861a68691aae7853cb,4,candy,critical,C,75,candy65.jpg,candy85.jpg,low,NULL
1687288536,51bc4e09d02b41c3faf3664518cfd43c,PennController,7,0,experiment,NULL,PennController,6,_Header_,Start,1687288479509,5e5e94861a68691aae7853cb,5e5e94861a68691aae7853cb,4,candy,critical,C,75,candy65.jpg,candy85.jpg,low,NULL
1687288536,51bc4e09d02b41c3faf3664518cfd43c,PennController,7,0,experiment,NULL,PennController,6,_Header_,End,1687288479509,5e5e94861a68691aae7853cb,5e5e94861a68691aae7853cb,4,candy,critical,C,75,candy65.jpg,candy85.jpg,low,NULL
1687288536,51bc4e09d02b41c3faf3664518cfd43c,PennController,7,0,experiment,NULL,Canvas,canvas6,Print,NA,1687288487245,5e5e94861a68691aae7853cb,5e5e94861a68691aae7853cb,4,candy,critical,C,75,candy65.jpg,candy85.jpg,low,NULL
1687288536,51bc4e09d02b41c3faf3664518cfd43c,PennController,7,0,experiment,NULL,Video,progression,buffer,0,1687288483033,5e5e94861a68691aae7853cb,5e5e94861a68691aae7853cb,4,candy,critical,C,75,candy65.jpg,candy85.jpg,low,NULL
1687288536,51bc4e09d02b41c3faf3664518cfd43c,PennController,7,0,experiment,NULL,Selector,choice,Selection,option1,1687288488596,5e5e94861a68691aae7853cb,5e5e94861a68691aae7853cb,4,candy,critical,C,75,candy65.jpg,candy85.jpg,low,option2;option1
1687288536,51bc4e09d02b41c3faf3664518cfd43c,PennController,7,0,experiment,NULL,PennController,6,_Trial_,End,1687288488597,5e5e94861a68691aae7853cb,5e5e94861a68691aae7853cb,4,candy,critical,C,75,candy65.jpg,candy85.jpg,low,NULL
1687288536,51bc4e09d02b41c3faf3664518cfd43c,PennController,21,0,experiment,NULL,PennController,20,_Trial_,Start,1687288488598,5e5e94861a68691aae7853cb,5e5e94861a68691aae7853cb,18,ball,critical,C,50,ball40.jpg,ball60.jpg,low,NULL
1687288536,51bc4e09d02b41c3faf3664518cfd43c,PennController,21,0,experiment,NULL,PennController,20,_Header_,Start,1687288488598,5e5e94861a68691aae7853cb,5e5e94861a68691aae7853cb,18,ball,critical,C,50,ball40.jpg,ball60.jpg,low,NULL
1687288536,51bc4e09d02b41c3faf3664518cfd43c,PennController,21,0,experiment,NULL,PennController,20,_Header_,End,1687288488598,5e5e94861a68691aae7853cb,5e5e94861a68691aae7853cb,18,ball,critical,C,50,ball40.jpg,ball60.jpg,low,NULL
1687288536,51bc4e09d02b41c3faf3664518cfd43c,PennController,21,0,experiment,NULL,Canvas,canvas6,Print,NA,1687288495334,5e5e94861a68691aae7853cb,5e5e94861a68691aae7853cb,18,ball,critical,C,50,ball40.jpg,ball60.jpg,low,NULL
1687288536,51bc4e09d02b41c3faf3664518cfd43c,PennController,21,0,experiment,NULL,Video,progression,buffer,0.00298,1687288492119,5e5e94861a68691aae7853cb,5e5e94861a68691aae7853cb,18,ball,critical,C,50,ball40.jpg,ball60.jpg,low,NULL
1687288536,51bc4e09d02b41c3faf3664518cfd43c,PennController,21,0,experiment,NULL,Selector,choice,Selection,option2,1687288496860,5e5e94861a68691aae7853cb,5e5e94861a68691aae7853cb,18,ball,critical,C,50,ball40.jpg,ball60.jpg,low,option1;option2
1687288536,51bc4e09d02b41c3faf3664518cfd43c,PennController,21,0,experiment,NULL,PennController,20,_Trial_,End,1687288496861,5e5e94861a68691aae7853cb,5e5e94861a68691aae7853cb,18,ball,critical,C,50,ball40.jpg,ball60.jpg,low,NULL
1687288536,51bc4e09d02b41c3faf3664518cfd43c,PennController,32,0,experiment,NULL,PennController,31,_Trial_,Start,1687288496862,5e5e94861a68691aae7853cb,5e5e94861a68691aae7853cb,29,frog,filler,C,25,frog15.jpg,frog35.jpg,GoalA,NULL
1687288536,51bc4e09d02b41c3faf3664518cfd43c,PennController,32,0,experiment,NULL,PennController,31,_Header_,Start,1687288496862,5e5e94861a68691aae7853cb,5e5e94861a68691aae7853cb,29,frog,filler,C,25,frog15.jpg,frog35.jpg,GoalA,NULL
1687288536,51bc4e09d02b41c3faf3664518cfd43c,PennController,32,0,experiment,NULL,PennController,31,_Header_,End,1687288496862,5e5e94861a68691aae7853cb,5e5e94861a68691aae7853cb,29,frog,filler,C,25,frog15.jpg,frog35.jpg,GoalA,NULL
1687288536,51bc4e09d02b41c3faf3664518cfd43c,PennController,32,0,experiment,NULL,Canvas,canvas6,Print,NA,1687288502563,5e5e94861a68691aae7853cb,5e5e94861a68691aae7853cb,29,frog,filler,C,25,frog15.jpg,frog35.jpg,GoalA,NULL
1687288536,51bc4e09d02b41c3faf3664518cfd43c,PennController,32,0,experiment,NULL,Video,progression,buffer,0.002676,1687288500382,5e5e94861a68691aae7853cb,5e5e94861a68691aae7853cb,29,frog,filler,C,25,frog15.jpg,frog35.jpg,GoalA,NULL
1687288536,51bc4e09d02b41c3faf3664518cfd43c,PennController,32,0,experiment,NULL,Selector,choice,Selection,option2,1687288503858,5e5e94861a68691aae7853cb,5e5e94861a68691aae7853cb,29,frog,filler,C,25,frog15.jpg,frog35.jpg,GoalA,option2;option1
1687288536,51bc4e09d02b41c3faf3664518cfd43c,PennController,32,0,experiment,NULL,PennController,31,_Trial_,End,1687288503859,5e5e94861a68691aae7853cb,5e5e94861a68691aae7853cb,29,frog,filler,C,25,frog15.jpg,frog35.jpg,GoalA,NULL
1687288536,51bc4e09d02b41c3faf3664518cfd43c,PennController,14,0,experiment,NULL,PennController,13,_Trial_,Start,1687288503861,5e5e94861a68691aae7853cb,5e5e94861a68691aae7853cb,11,beads,critical,C,25,beads15.jpg,beads35.jpg,low,NULL
1687288536,51bc4e09d02b41c3faf3664518cfd43c,PennController,14,0,experiment,NULL,PennController,13,_Header_,Start,1687288503861,5e5e94861a68691aae7853cb,5e5e94861a68691aae7853cb,11,beads,critical,C,25,beads15.jpg,beads35.jpg,low,NULL
1687288536,51bc4e09d02b41c3faf3664518cfd43c,PennController,14,0,experiment,NULL,PennController,13,_Header_,End,1687288503861,5e5e94861a68691aae7853cb,5e5e94861a68691aae7853cb,11,beads,critical,C,25,beads15.jpg,beads35.jpg,low,NULL
1687288536,51bc4e09d02b41c3faf3664518cfd43c,PennController,14,0,experiment,NULL,Canvas,canvas6,Print,NA,1687288509592,5e5e94861a68691aae7853cb,5e5e94861a68691aae7853cb,11,beads,critical,C,25,beads15.jpg,beads35.jpg,low,NULL
1687288536,51bc4e09d02b41c3faf3664518cfd43c,PennController,14,0,experiment,NULL,Video,progression,buffer,0.002517,1687288507384,5e5e94861a68691aae7853cb,5e5e94861a68691aae7853cb,11,beads,critical,C,25,beads15.jpg,beads35.jpg,low,NULL
1687288536,51bc4e09d02b41c3faf3664518cfd43c,PennController,14,0,experiment,NULL,Selector,choice,Selection,option1,1687288510932,5e5e94861a68691aae7853cb,5e5e94861a68691aae7853cb,11,beads,critical,C,25,beads15.jpg,beads35.jpg,low,option1;option2
1687288536,51bc4e09d02b41c3faf3664518cfd43c,PennController,14,0,experiment,NULL,PennController,13,_Trial_,End,1687288510933,5e5e94861a68691aae7853cb,5e5e94861a68691aae7853cb,11,beads,critical,C,25,beads15.jpg,beads35.jpg,low,NULL
1687288536,51bc4e09d02b41c3faf3664518cfd43c,PennController,20,0,experiment,NULL,PennController,19,_Trial_,Start,1687288510934,5e5e94861a68691aae7853cb,5e5e94861a68691aae7853cb,17,roll,critical,C,25,roll15.jpg,roll35.jpg,low,NULL
1687288536,51bc4e09d02b41c3faf3664518cfd43c,PennController,20,0,experiment,NULL,PennController,19,_Header_,Start,1687288510934,5e5e94861a68691aae7853cb,5e5e94861a68691aae7853cb,17,roll,critical,C,25,roll15.jpg,roll35.jpg,low,NULL
1687288536,51bc4e09d02b41c3faf3664518cfd43c,PennController,20,0,experiment,NULL,PennController,19,_Header_,End,1687288510934,5e5e94861a68691aae7853cb,5e5e94861a68691aae7853cb,17,roll,critical,C,25,roll15.jpg,roll35.jpg,low,NULL
1687288536,51bc4e09d02b41c3faf3664518cfd43c,PennController,20,0,experiment,NULL,Canvas,canvas6,Print,NA,1687288516633,5e5e94861a68691aae7853cb,5e5e94861a68691aae7853cb,17,roll,critical,C,25,roll15.jpg,roll35.jpg,low,NULL
1687288536,51bc4e09d02b41c3faf3664518cfd43c,PennController,20,0,experiment,NULL,Video,progression,buffer,0.010349,1687288514467,5e5e94861a68691aae7853cb,5e5e94861a68691aae7853cb,17,roll,critical,C,25,roll15.jpg,roll35.jpg,low,NULL
1687288536,51bc4e09d02b41c3faf3664518cfd43c,PennController,20,0,experiment,NULL,Selector,choice,Selection,option1,1687288517565,5e5e94861a68691aae7853cb,5e5e94861a68691aae7853cb,17,roll,critical,C,25,roll15.jpg,roll35.jpg,low,option1;option2
1687288536,51bc4e09d02b41c3faf3664518cfd43c,PennController,20,0,experiment,NULL,PennController,19,_Trial_,End,1687288517566,5e5e94861a68691aae7853cb,5e5e94861a68691aae7853cb,17,roll,critical,C,25,roll15.jpg,roll35.jpg,low,NULL
1687288536,51bc4e09d02b41c3faf3664518cfd43c,PennController,15,0,experiment,NULL,PennController,14,_Trial_,Start,1687288517567,5e5e94861a68691aae7853cb,5e5e94861a68691aae7853cb,12,erase,critical,C,50,erase42.jpg,erase60.jpg,low,NULL
1687288536,51bc4e09d02b41c3faf3664518cfd43c,PennController,15,0,experiment,NULL,PennController,14,_Header_,Start,1687288517567,5e5e94861a68691aae7853cb,5e5e94861a68691aae7853cb,12,erase,critical,C,50,erase42.jpg,erase60.jpg,low,NULL
1687288536,51bc4e09d02b41c3faf3664518cfd43c,PennController,15,0,experiment,NULL,PennController,14,_Header_,End,1687288517567,5e5e94861a68691aae7853cb,5e5e94861a68691aae7853cb,12,erase,critical,C,50,erase42.jpg,erase60.jpg,low,NULL
1687288536,51bc4e09d02b41c3faf3664518cfd43c,PennController,15,0,experiment,NULL,Canvas,canvas6,Print,NA,1687288525668,5e5e94861a68691aae7853cb,5e5e94861a68691aae7853cb,12,erase,critical,C,50,erase42.jpg,erase60.jpg,low,NULL
1687288536,51bc4e09d02b41c3faf3664518cfd43c,PennController,15,0,experiment,NULL,Video,progression,buffer,0.00299,1687288521087,5e5e94861a68691aae7853cb,5e5e94861a68691aae7853cb,12,erase,critical,C,50,erase42.jpg,erase60.jpg,low,NULL
1687288536,51bc4e09d02b41c3faf3664518cfd43c,PennController,15,0,experiment,NULL,Selector,choice,Selection,option2,1687288527554,5e5e94861a68691aae7853cb,5e5e94861a68691aae7853cb,12,erase,critical,C,50,erase42.jpg,erase60.jpg,low,option1;option2
1687288536,51bc4e09d02b41c3faf3664518cfd43c,PennController,15,0,experiment,NULL,PennController,14,_Trial_,End,1687288527555,5e5e94861a68691aae7853cb,5e5e94861a68691aae7853cb,12,erase,critical,C,50,erase42.jpg,erase60.jpg,low,NULL
1687288536,51bc4e09d02b41c3faf3664518cfd43c,PennController,16,0,experiment,NULL,PennController,15,_Trial_,Start,1687288527557,5e5e94861a68691aae7853cb,5e5e94861a68691aae7853cb,13,mix,critical,C,75,mix65.jpg,mix85.jpg,low,NULL
1687288536,51bc4e09d02b41c3faf3664518cfd43c,PennController,16,0,experiment,NULL,PennController,15,_Header_,Start,1687288527557,5e5e94861a68691aae7853cb,5e5e94861a68691aae7853cb,13,mix,critical,C,75,mix65.jpg,mix85.jpg,low,NULL
1687288536,51bc4e09d02b41c3faf3664518cfd43c,PennController,16,0,experiment,NULL,PennController,15,_Header_,End,1687288527557,5e5e94861a68691aae7853cb,5e5e94861a68691aae7853cb,13,mix,critical,C,75,mix65.jpg,mix85.jpg,low,NULL
1687288536,51bc4e09d02b41c3faf3664518cfd43c,PennController,16,0,experiment,NULL,Canvas,canvas6,Print,NA,1687288535295,5e5e94861a68691aae7853cb,5e5e94861a68691aae7853cb,13,mix,critical,C,75,mix65.jpg,mix85.jpg,low,NULL
1687288536,51bc4e09d02b41c3faf3664518cfd43c,PennController,16,0,experiment,NULL,Video,progression,buffer,0.004744,1687288531080,5e5e94861a68691aae7853cb,5e5e94861a68691aae7853cb,13,mix,critical,C,75,mix65.jpg,mix85.jpg,low,NULL
1687288536,51bc4e09d02b41c3faf3664518cfd43c,PennController,16,0,experiment,NULL,Selector,choice,Selection,option2,1687288536290,5e5e94861a68691aae7853cb,5e5e94861a68691aae7853cb,13,mix,critical,C,75,mix65.jpg,mix85.jpg,low,option1;option2
1687288536,51bc4e09d02b41c3faf3664518cfd43c,PennController,16,0,experiment,NULL,PennController,15,_Trial_,End,1687288536291,5e5e94861a68691aae7853cb,5e5e94861a68691aae7853cb,13,mix,critical,C,75,mix65.jpg,mix85.jpg,low,NULL
