#
# Results on Tuesday June 20 2023 19:03:10 UTC
# USER AGENT: Mozilla/5.0 (Windows NT 10.0; Win64; x64) AppleWebKit/537.36 (KHTML, like Gecko) Chrome/114.0.0.0 Safari/537.36
# Design number was non-random = 38
#
# Columns below this comment are as follows:
# 1. Results reception time.
# 2. MD5 hash of participant's IP address.
# 3. Controller name.
# 4. Order number of item.
# 5. Inner element number.
# 6. Label.
# 7. Latin Square Group.
# 8. PennElementType.
# 9. PennElementName.
# 10. Parameter.
# 11. Value.
# 12. EventTime.
# 13. PROLIFIC_ID.
# 14. Comments.
1687287790,8bd51774aa36689c952ffe50d7843e13,PennController,2,0,consent,NULL,PennController,0,_Trial_,Start,1687287461426,6452666967e36de56a97ff44,NULL
1687287790,8bd51774aa36689c952ffe50d7843e13,PennController,2,0,consent,NULL,PennController,0,_Header_,Start,1687287461426,6452666967e36de56a97ff44,NULL
1687287790,8bd51774aa36689c952ffe50d7843e13,PennController,2,0,consent,NULL,PennController,0,_Header_,End,1687287461426,6452666967e36de56a97ff44,NULL
1687287790,8bd51774aa36689c952ffe50d7843e13,PennController,2,0,consent,NULL,PennController,0,_Trial_,End,1687287469682,6452666967e36de56a97ff44,NULL
# Columns below this comment are as follows:
# 14. ID.
# 15. Comments.
1687287790,8bd51774aa36689c952ffe50d7843e13,PennController,3,0,intro,NULL,PennController,1,_Trial_,Start,1687287469684,6452666967e36de56a97ff44,6452666967e36de56a97ff44,NULL
1687287790,8bd51774aa36689c952ffe50d7843e13,PennController,3,0,intro,NULL,PennController,1,_Header_,Start,1687287469684,6452666967e36de56a97ff44,6452666967e36de56a97ff44,NULL
1687287790,8bd51774aa36689c952ffe50d7843e13,PennController,3,0,intro,NULL,PennController,1,_Header_,End,1687287469684,6452666967e36de56a97ff44,6452666967e36de56a97ff44,NULL
1687287790,8bd51774aa36689c952ffe50d7843e13,PennController,3,0,intro,NULL,PennController,1,_Trial_,End,1687287487573,6452666967e36de56a97ff44,6452666967e36de56a97ff44,NULL
# Columns below this comment are as follows:
# 15. item_number.
# 16. item.
# 17. type.
# 18. Group.
# 19. prog.
# 20. prev_image.
# 21. next_image.
# 22. height.
# 23. Comments.
1687287790,8bd51774aa36689c952ffe50d7843e13,PennController,27,0,experiment,NULL,PennController,26,_Trial_,Start,1687287487574,6452666967e36de56a97ff44,6452666967e36de56a97ff44,24,match,filler,C,50,match40.jpg,match60.jpg,GoalB,NULL
1687287790,8bd51774aa36689c952ffe50d7843e13,PennController,27,0,experiment,NULL,PennController,26,_Header_,Start,1687287487574,6452666967e36de56a97ff44,6452666967e36de56a97ff44,24,match,filler,C,50,match40.jpg,match60.jpg,GoalB,NULL
1687287790,8bd51774aa36689c952ffe50d7843e13,PennController,27,0,experiment,NULL,PennController,26,_Header_,End,1687287487574,6452666967e36de56a97ff44,6452666967e36de56a97ff44,24,match,filler,C,50,match40.jpg,match60.jpg,GoalB,NULL
1687287790,8bd51774aa36689c952ffe50d7843e13,PennController,27,0,experiment,NULL,Canvas,canvas6,Print,NA,1687287494274,6452666967e36de56a97ff44,6452666967e36de56a97ff44,24,match,filler,C,50,match40.jpg,match60.jpg,GoalB,NULL
1687287790,8bd51774aa36689c952ffe50d7843e13,PennController,27,0,experiment,NULL,Video,progression,buffer,0.00384,1687287491106,6452666967e36de56a97ff44,6452666967e36de56a97ff44,24,match,filler,C,50,match40.jpg,match60.jpg,GoalB,NULL
1687287790,8bd51774aa36689c952ffe50d7843e13,PennController,27,0,experiment,NULL,Selector,choice,Selection,option2,1687287498078,6452666967e36de56a97ff44,6452666967e36de56a97ff44,24,match,filler,C,50,match40.jpg,match60.jpg,GoalB,option1;option2
1687287790,8bd51774aa36689c952ffe50d7843e13,PennController,27,0,experiment,NULL,PennController,26,_Trial_,End,1687287498079,6452666967e36de56a97ff44,6452666967e36de56a97ff44,24,match,filler,C,50,match40.jpg,match60.jpg,GoalB,NULL
1687287790,8bd51774aa36689c952ffe50d7843e13,PennController,12,0,experiment,NULL,PennController,11,_Trial_,Start,1687287498080,6452666967e36de56a97ff44,6452666967e36de56a97ff44,9,cake,critical,C,50,cake42.jpg,cake60.jpg,low,NULL
1687287790,8bd51774aa36689c952ffe50d7843e13,PennController,12,0,experiment,NULL,PennController,11,_Header_,Start,1687287498080,6452666967e36de56a97ff44,6452666967e36de56a97ff44,9,cake,critical,C,50,cake42.jpg,cake60.jpg,low,NULL
1687287790,8bd51774aa36689c952ffe50d7843e13,PennController,12,0,experiment,NULL,PennController,11,_Header_,End,1687287498081,6452666967e36de56a97ff44,6452666967e36de56a97ff44,9,cake,critical,C,50,cake42.jpg,cake60.jpg,low,NULL
1687287790,8bd51774aa36689c952ffe50d7843e13,PennController,12,0,experiment,NULL,Canvas,canvas6,Print,NA,1687287506175,6452666967e36de56a97ff44,6452666967e36de56a97ff44,9,cake,critical,C,50,cake42.jpg,cake60.jpg,low,NULL
1687287790,8bd51774aa36689c952ffe50d7843e13,PennController,12,0,experiment,NULL,Video,progression,buffer,0.004062,1687287501602,6452666967e36de56a97ff44,6452666967e36de56a97ff44,9,cake,critical,C,50,cake42.jpg,cake60.jpg,low,NULL
1687287790,8bd51774aa36689c952ffe50d7843e13,PennController,12,0,experiment,NULL,Selector,choice,Selection,option2,1687287507438,6452666967e36de56a97ff44,6452666967e36de56a97ff44,9,cake,critical,C,50,cake42.jpg,cake60.jpg,low,option2;option1
1687287790,8bd51774aa36689c952ffe50d7843e13,PennController,12,0,experiment,NULL,PennController,11,_Trial_,End,1687287507439,6452666967e36de56a97ff44,6452666967e36de56a97ff44,9,cake,critical,C,50,cake42.jpg,cake60.jpg,low,NULL
1687287790,8bd51774aa36689c952ffe50d7843e13,PennController,31,0,experiment,NULL,PennController,30,_Trial_,Start,1687287507439,6452666967e36de56a97ff44,6452666967e36de56a97ff44,28,sort,filler,C,75,sort65.jpg,sort85.jpg,GoalB,NULL
1687287790,8bd51774aa36689c952ffe50d7843e13,PennController,31,0,experiment,NULL,PennController,30,_Header_,Start,1687287507439,6452666967e36de56a97ff44,6452666967e36de56a97ff44,28,sort,filler,C,75,sort65.jpg,sort85.jpg,GoalB,NULL
1687287790,8bd51774aa36689c952ffe50d7843e13,PennController,31,0,experiment,NULL,PennController,30,_Header_,End,1687287507439,6452666967e36de56a97ff44,6452666967e36de56a97ff44,28,sort,filler,C,75,sort65.jpg,sort85.jpg,GoalB,NULL
1687287790,8bd51774aa36689c952ffe50d7843e13,PennController,31,0,experiment,NULL,Canvas,canvas6,Print,NA,1687287515120,6452666967e36de56a97ff44,6452666967e36de56a97ff44,28,sort,filler,C,75,sort65.jpg,sort85.jpg,GoalB,NULL
1687287790,8bd51774aa36689c952ffe50d7843e13,PennController,31,0,experiment,NULL,Video,progression,buffer,0.002564,1687287510960,6452666967e36de56a97ff44,6452666967e36de56a97ff44,28,sort,filler,C,75,sort65.jpg,sort85.jpg,GoalB,NULL
1687287790,8bd51774aa36689c952ffe50d7843e13,PennController,31,0,experiment,NULL,Selector,choice,Selection,option1,1687287518975,6452666967e36de56a97ff44,6452666967e36de56a97ff44,28,sort,filler,C,75,sort65.jpg,sort85.jpg,GoalB,option1;option2
1687287790,8bd51774aa36689c952ffe50d7843e13,PennController,31,0,experiment,NULL,PennController,30,_Trial_,End,1687287518976,6452666967e36de56a97ff44,6452666967e36de56a97ff44,28,sort,filler,C,75,sort65.jpg,sort85.jpg,GoalB,NULL
1687287790,8bd51774aa36689c952ffe50d7843e13,PennController,9,0,experiment,NULL,PennController,8,_Trial_,Start,1687287518977,6452666967e36de56a97ff44,6452666967e36de56a97ff44,6,flower,critical,C,50,flower40.jpg,flower60.jpg,low,NULL
1687287790,8bd51774aa36689c952ffe50d7843e13,PennController,9,0,experiment,NULL,PennController,8,_Header_,Start,1687287518977,6452666967e36de56a97ff44,6452666967e36de56a97ff44,6,flower,critical,C,50,flower40.jpg,flower60.jpg,low,NULL
1687287790,8bd51774aa36689c952ffe50d7843e13,PennController,9,0,experiment,NULL,PennController,8,_Header_,End,1687287518977,6452666967e36de56a97ff44,6452666967e36de56a97ff44,6,flower,critical,C,50,flower40.jpg,flower60.jpg,low,NULL
1687287790,8bd51774aa36689c952ffe50d7843e13,PennController,9,0,experiment,NULL,Canvas,canvas6,Print,NA,1687287525656,6452666967e36de56a97ff44,6452666967e36de56a97ff44,6,flower,critical,C,50,flower40.jpg,flower60.jpg,low,NULL
1687287790,8bd51774aa36689c952ffe50d7843e13,PennController,9,0,experiment,NULL,Video,progression,buffer,0.001368,1687287522492,6452666967e36de56a97ff44,6452666967e36de56a97ff44,6,flower,critical,C,50,flower40.jpg,flower60.jpg,low,NULL
1687287790,8bd51774aa36689c952ffe50d7843e13,PennController,9,0,experiment,NULL,Selector,choice,Selection,option2,1687287530143,6452666967e36de56a97ff44,6452666967e36de56a97ff44,6,flower,critical,C,50,flower40.jpg,flower60.jpg,low,option2;option1
1687287790,8bd51774aa36689c952ffe50d7843e13,PennController,9,0,experiment,NULL,PennController,8,_Trial_,End,1687287530144,6452666967e36de56a97ff44,6452666967e36de56a97ff44,6,flower,critical,C,50,flower40.jpg,flower60.jpg,low,NULL
1687287790,8bd51774aa36689c952ffe50d7843e13,PennController,23,0,experiment,NULL,PennController,22,_Trial_,Start,1687287530145,6452666967e36de56a97ff44,6452666967e36de56a97ff44,20,cat,filler,C,25,cat15.jpg,cat35.jpg,GoalB,NULL
1687287790,8bd51774aa36689c952ffe50d7843e13,PennController,23,0,experiment,NULL,PennController,22,_Header_,Start,1687287530145,6452666967e36de56a97ff44,6452666967e36de56a97ff44,20,cat,filler,C,25,cat15.jpg,cat35.jpg,GoalB,NULL
1687287790,8bd51774aa36689c952ffe50d7843e13,PennController,23,0,experiment,NULL,PennController,22,_Header_,End,1687287530146,6452666967e36de56a97ff44,6452666967e36de56a97ff44,20,cat,filler,C,25,cat15.jpg,cat35.jpg,GoalB,NULL
1687287790,8bd51774aa36689c952ffe50d7843e13,PennController,23,0,experiment,NULL,Canvas,canvas6,Print,NA,1687287535840,6452666967e36de56a97ff44,6452666967e36de56a97ff44,20,cat,filler,C,25,cat15.jpg,cat35.jpg,GoalB,NULL
1687287790,8bd51774aa36689c952ffe50d7843e13,PennController,23,0,experiment,NULL,Video,progression,buffer,0.002968,1687287533669,6452666967e36de56a97ff44,6452666967e36de56a97ff44,20,cat,filler,C,25,cat15.jpg,cat35.jpg,GoalB,NULL
1687287790,8bd51774aa36689c952ffe50d7843e13,PennController,23,0,experiment,NULL,Selector,choice,Selection,option2,1687287537471,6452666967e36de56a97ff44,6452666967e36de56a97ff44,20,cat,filler,C,25,cat15.jpg,cat35.jpg,GoalB,option2;option1
1687287790,8bd51774aa36689c952ffe50d7843e13,PennController,23,0,experiment,NULL,PennController,22,_Trial_,End,1687287537471,6452666967e36de56a97ff44,6452666967e36de56a97ff44,20,cat,filler,C,25,cat15.jpg,cat35.jpg,GoalB,NULL
1687287790,8bd51774aa36689c952ffe50d7843e13,PennController,32,0,experiment,NULL,PennController,31,_Trial_,Start,1687287537473,6452666967e36de56a97ff44,6452666967e36de56a97ff44,29,frog,filler,C,25,frog15.jpg,frog35.jpg,GoalA,NULL
1687287790,8bd51774aa36689c952ffe50d7843e13,PennController,32,0,experiment,NULL,PennController,31,_Header_,Start,1687287537473,6452666967e36de56a97ff44,6452666967e36de56a97ff44,29,frog,filler,C,25,frog15.jpg,frog35.jpg,GoalA,NULL
1687287790,8bd51774aa36689c952ffe50d7843e13,PennController,32,0,experiment,NULL,PennController,31,_Header_,End,1687287537473,6452666967e36de56a97ff44,6452666967e36de56a97ff44,29,frog,filler,C,25,frog15.jpg,frog35.jpg,GoalA,NULL
1687287790,8bd51774aa36689c952ffe50d7843e13,PennController,32,0,experiment,NULL,Canvas,canvas6,Print,NA,1687287543157,6452666967e36de56a97ff44,6452666967e36de56a97ff44,29,frog,filler,C,25,frog15.jpg,frog35.jpg,GoalA,NULL
1687287790,8bd51774aa36689c952ffe50d7843e13,PennController,32,0,experiment,NULL,Video,progression,buffer,0.001774,1687287540987,6452666967e36de56a97ff44,6452666967e36de56a97ff44,29,frog,filler,C,25,frog15.jpg,frog35.jpg,GoalA,NULL
1687287790,8bd51774aa36689c952ffe50d7843e13,PennController,32,0,experiment,NULL,Selector,choice,Selection,option2,1687287548975,6452666967e36de56a97ff44,6452666967e36de56a97ff44,29,frog,filler,C,25,frog15.jpg,frog35.jpg,GoalA,option2;option1
1687287790,8bd51774aa36689c952ffe50d7843e13,PennController,32,0,experiment,NULL,PennController,31,_Trial_,End,1687287548976,6452666967e36de56a97ff44,6452666967e36de56a97ff44,29,frog,filler,C,25,frog15.jpg,frog35.jpg,GoalA,NULL
1687287790,8bd51774aa36689c952ffe50d7843e13,PennController,13,0,experiment,NULL,PennController,12,_Trial_,Start,1687287548977,6452666967e36de56a97ff44,6452666967e36de56a97ff44,10,train,critical,C,75,train65.jpg,train85.jpg,low,NULL
1687287790,8bd51774aa36689c952ffe50d7843e13,PennController,13,0,experiment,NULL,PennController,12,_Header_,Start,1687287548977,6452666967e36de56a97ff44,6452666967e36de56a97ff44,10,train,critical,C,75,train65.jpg,train85.jpg,low,NULL
1687287790,8bd51774aa36689c952ffe50d7843e13,PennController,13,0,experiment,NULL,PennController,12,_Header_,End,1687287548978,6452666967e36de56a97ff44,6452666967e36de56a97ff44,10,train,critical,C,75,train65.jpg,train85.jpg,low,NULL
1687287790,8bd51774aa36689c952ffe50d7843e13,PennController,13,0,experiment,NULL,Canvas,canvas6,Print,NA,1687287556653,6452666967e36de56a97ff44,6452666967e36de56a97ff44,10,train,critical,C,75,train65.jpg,train85.jpg,low,NULL
1687287790,8bd51774aa36689c952ffe50d7843e13,PennController,13,0,experiment,NULL,Video,progression,buffer,0.003573,1687287552500,6452666967e36de56a97ff44,6452666967e36de56a97ff44,10,train,critical,C,75,train65.jpg,train85.jpg,low,NULL
1687287790,8bd51774aa36689c952ffe50d7843e13,PennController,13,0,experiment,NULL,Selector,choice,Selection,option2,1687287560567,6452666967e36de56a97ff44,6452666967e36de56a97ff44,10,train,critical,C,75,train65.jpg,train85.jpg,low,option2;option1
1687287790,8bd51774aa36689c952ffe50d7843e13,PennController,13,0,experiment,NULL,PennController,12,_Trial_,End,1687287560567,6452666967e36de56a97ff44,6452666967e36de56a97ff44,10,train,critical,C,75,train65.jpg,train85.jpg,low,NULL
1687287790,8bd51774aa36689c952ffe50d7843e13,PennController,21,0,experiment,NULL,PennController,20,_Trial_,Start,1687287560568,6452666967e36de56a97ff44,6452666967e36de56a97ff44,18,ball,critical,C,50,ball40.jpg,ball60.jpg,low,NULL
1687287790,8bd51774aa36689c952ffe50d7843e13,PennController,21,0,experiment,NULL,PennController,20,_Header_,Start,1687287560568,6452666967e36de56a97ff44,6452666967e36de56a97ff44,18,ball,critical,C,50,ball40.jpg,ball60.jpg,low,NULL
1687287790,8bd51774aa36689c952ffe50d7843e13,PennController,21,0,experiment,NULL,PennController,20,_Header_,End,1687287560568,6452666967e36de56a97ff44,6452666967e36de56a97ff44,18,ball,critical,C,50,ball40.jpg,ball60.jpg,low,NULL
1687287790,8bd51774aa36689c952ffe50d7843e13,PennController,21,0,experiment,NULL,Canvas,canvas6,Print,NA,1687287567255,6452666967e36de56a97ff44,6452666967e36de56a97ff44,18,ball,critical,C,50,ball40.jpg,ball60.jpg,low,NULL
1687287790,8bd51774aa36689c952ffe50d7843e13,PennController,21,0,experiment,NULL,Video,progression,buffer,0.003256,1687287564085,6452666967e36de56a97ff44,6452666967e36de56a97ff44,18,ball,critical,C,50,ball40.jpg,ball60.jpg,low,NULL
1687287790,8bd51774aa36689c952ffe50d7843e13,PennController,21,0,experiment,NULL,Selector,choice,Selection,option2,1687287570070,6452666967e36de56a97ff44,6452666967e36de56a97ff44,18,ball,critical,C,50,ball40.jpg,ball60.jpg,low,option2;option1
1687287790,8bd51774aa36689c952ffe50d7843e13,PennController,21,0,experiment,NULL,PennController,20,_Trial_,End,1687287570071,6452666967e36de56a97ff44,6452666967e36de56a97ff44,18,ball,critical,C,50,ball40.jpg,ball60.jpg,low,NULL
1687287790,8bd51774aa36689c952ffe50d7843e13,PennController,5,0,experiment,NULL,PennController,4,_Trial_,Start,1687287570072,6452666967e36de56a97ff44,6452666967e36de56a97ff44,2,door,critical,C,25,door15.jpg,door35.jpg,low,NULL
1687287790,8bd51774aa36689c952ffe50d7843e13,PennController,5,0,experiment,NULL,PennController,4,_Header_,Start,1687287570072,6452666967e36de56a97ff44,6452666967e36de56a97ff44,2,door,critical,C,25,door15.jpg,door35.jpg,low,NULL
1687287790,8bd51774aa36689c952ffe50d7843e13,PennController,5,0,experiment,NULL,PennController,4,_Header_,End,1687287570073,6452666967e36de56a97ff44,6452666967e36de56a97ff44,2,door,critical,C,25,door15.jpg,door35.jpg,low,NULL
1687287790,8bd51774aa36689c952ffe50d7843e13,PennController,5,0,experiment,NULL,Canvas,canvas6,Print,NA,1687287575757,6452666967e36de56a97ff44,6452666967e36de56a97ff44,2,door,critical,C,25,door15.jpg,door35.jpg,low,NULL
1687287790,8bd51774aa36689c952ffe50d7843e13,PennController,5,0,experiment,NULL,Video,progression,buffer,0.002197,1687287573593,6452666967e36de56a97ff44,6452666967e36de56a97ff44,2,door,critical,C,25,door15.jpg,door35.jpg,low,NULL
1687287790,8bd51774aa36689c952ffe50d7843e13,PennController,5,0,experiment,NULL,Selector,choice,Selection,option1,1687287577822,6452666967e36de56a97ff44,6452666967e36de56a97ff44,2,door,critical,C,25,door15.jpg,door35.jpg,low,option2;option1
1687287790,8bd51774aa36689c952ffe50d7843e13,PennController,5,0,experiment,NULL,PennController,4,_Trial_,End,1687287577823,6452666967e36de56a97ff44,6452666967e36de56a97ff44,2,door,critical,C,25,door15.jpg,door35.jpg,low,NULL
1687287790,8bd51774aa36689c952ffe50d7843e13,PennController,6,0,experiment,NULL,PennController,5,_Trial_,Start,1687287577823,6452666967e36de56a97ff44,6452666967e36de56a97ff44,3,clean,critical,C,50,clean40.jpg,clean60.jpg,low,NULL
1687287790,8bd51774aa36689c952ffe50d7843e13,PennController,6,0,experiment,NULL,PennController,5,_Header_,Start,1687287577823,6452666967e36de56a97ff44,6452666967e36de56a97ff44,3,clean,critical,C,50,clean40.jpg,clean60.jpg,low,NULL
1687287790,8bd51774aa36689c952ffe50d7843e13,PennController,6,0,experiment,NULL,PennController,5,_Header_,End,1687287577823,6452666967e36de56a97ff44,6452666967e36de56a97ff44,3,clean,critical,C,50,clean40.jpg,clean60.jpg,low,NULL
1687287790,8bd51774aa36689c952ffe50d7843e13,PennController,6,0,experiment,NULL,Canvas,canvas6,Print,NA,1687287584506,6452666967e36de56a97ff44,6452666967e36de56a97ff44,3,clean,critical,C,50,clean40.jpg,clean60.jpg,low,NULL
1687287790,8bd51774aa36689c952ffe50d7843e13,PennController,6,0,experiment,NULL,Video,progression,buffer,0.003093,1687287581343,6452666967e36de56a97ff44,6452666967e36de56a97ff44,3,clean,critical,C,50,clean40.jpg,clean60.jpg,low,NULL
1687287790,8bd51774aa36689c952ffe50d7843e13,PennController,6,0,experiment,NULL,Selector,choice,Selection,option2,1687287586110,6452666967e36de56a97ff44,6452666967e36de56a97ff44,3,clean,critical,C,50,clean40.jpg,clean60.jpg,low,option2;option1
1687287790,8bd51774aa36689c952ffe50d7843e13,PennController,6,0,experiment,NULL,PennController,5,_Trial_,End,1687287586111,6452666967e36de56a97ff44,6452666967e36de56a97ff44,3,clean,critical,C,50,clean40.jpg,clean60.jpg,low,NULL
1687287790,8bd51774aa36689c952ffe50d7843e13,PennController,10,0,experiment,NULL,PennController,9,_Trial_,Start,1687287586112,6452666967e36de56a97ff44,6452666967e36de56a97ff44,7,stack,critical,C,75,stack65.jpg,stack85.jpg,low,NULL
1687287790,8bd51774aa36689c952ffe50d7843e13,PennController,10,0,experiment,NULL,PennController,9,_Header_,Start,1687287586112,6452666967e36de56a97ff44,6452666967e36de56a97ff44,7,stack,critical,C,75,stack65.jpg,stack85.jpg,low,NULL
1687287790,8bd51774aa36689c952ffe50d7843e13,PennController,10,0,experiment,NULL,PennController,9,_Header_,End,1687287586112,6452666967e36de56a97ff44,6452666967e36de56a97ff44,7,stack,critical,C,75,stack65.jpg,stack85.jpg,low,NULL
1687287790,8bd51774aa36689c952ffe50d7843e13,PennController,10,0,experiment,NULL,Canvas,canvas6,Print,NA,1687287593789,6452666967e36de56a97ff44,6452666967e36de56a97ff44,7,stack,critical,C,75,stack65.jpg,stack85.jpg,low,NULL
1687287790,8bd51774aa36689c952ffe50d7843e13,PennController,10,0,experiment,NULL,Video,progression,buffer,0.002221,1687287589630,6452666967e36de56a97ff44,6452666967e36de56a97ff44,7,stack,critical,C,75,stack65.jpg,stack85.jpg,low,NULL
1687287790,8bd51774aa36689c952ffe50d7843e13,PennController,10,0,experiment,NULL,Selector,choice,Selection,option1,1687287595326,6452666967e36de56a97ff44,6452666967e36de56a97ff44,7,stack,critical,C,75,stack65.jpg,stack85.jpg,low,option2;option1
1687287790,8bd51774aa36689c952ffe50d7843e13,PennController,10,0,experiment,NULL,PennController,9,_Trial_,End,1687287595326,6452666967e36de56a97ff44,6452666967e36de56a97ff44,7,stack,critical,C,75,stack65.jpg,stack85.jpg,low,NULL
1687287790,8bd51774aa36689c952ffe50d7843e13,PennController,16,0,experiment,NULL,PennController,15,_Trial_,Start,1687287595327,6452666967e36de56a97ff44,6452666967e36de56a97ff44,13,mix,critical,C,75,mix65.jpg,mix85.jpg,low,NULL
1687287790,8bd51774aa36689c952ffe50d7843e13,PennController,16,0,experiment,NULL,PennController,15,_Header_,Start,1687287595327,6452666967e36de56a97ff44,6452666967e36de56a97ff44,13,mix,critical,C,75,mix65.jpg,mix85.jpg,low,NULL
1687287790,8bd51774aa36689c952ffe50d7843e13,PennController,16,0,experiment,NULL,PennController,15,_Header_,End,1687287595327,6452666967e36de56a97ff44,6452666967e36de56a97ff44,13,mix,critical,C,75,mix65.jpg,mix85.jpg,low,NULL
1687287790,8bd51774aa36689c952ffe50d7843e13,PennController,16,0,experiment,NULL,Canvas,canvas6,Print,NA,1687287603003,6452666967e36de56a97ff44,6452666967e36de56a97ff44,13,mix,critical,C,75,mix65.jpg,mix85.jpg,low,NULL
1687287790,8bd51774aa36689c952ffe50d7843e13,PennController,16,0,experiment,NULL,Video,progression,buffer,0.001634,1687287598842,6452666967e36de56a97ff44,6452666967e36de56a97ff44,13,mix,critical,C,75,mix65.jpg,mix85.jpg,low,NULL
1687287790,8bd51774aa36689c952ffe50d7843e13,PennController,16,0,experiment,NULL,Selector,choice,Selection,option1,1687287604814,6452666967e36de56a97ff44,6452666967e36de56a97ff44,13,mix,critical,C,75,mix65.jpg,mix85.jpg,low,option1;option2
1687287790,8bd51774aa36689c952ffe50d7843e13,PennController,16,0,experiment,NULL,PennController,15,_Trial_,End,1687287604814,6452666967e36de56a97ff44,6452666967e36de56a97ff44,13,mix,critical,C,75,mix65.jpg,mix85.jpg,low,NULL
1687287790,8bd51774aa36689c952ffe50d7843e13,PennController,22,0,experiment,NULL,PennController,21,_Trial_,Start,1687287604815,6452666967e36de56a97ff44,6452666967e36de56a97ff44,19,cup,filler,C,75,cup65.jpg,cup85.jpg,GoalA,NULL
1687287790,8bd51774aa36689c952ffe50d7843e13,PennController,22,0,experiment,NULL,PennController,21,_Header_,Start,1687287604815,6452666967e36de56a97ff44,6452666967e36de56a97ff44,19,cup,filler,C,75,cup65.jpg,cup85.jpg,GoalA,NULL
1687287790,8bd51774aa36689c952ffe50d7843e13,PennController,22,0,experiment,NULL,PennController,21,_Header_,End,1687287604815,6452666967e36de56a97ff44,6452666967e36de56a97ff44,19,cup,filler,C,75,cup65.jpg,cup85.jpg,GoalA,NULL
1687287790,8bd51774aa36689c952ffe50d7843e13,PennController,22,0,experiment,NULL,Canvas,canvas6,Print,NA,1687287612490,6452666967e36de56a97ff44,6452666967e36de56a97ff44,19,cup,filler,C,75,cup65.jpg,cup85.jpg,GoalA,NULL
1687287790,8bd51774aa36689c952ffe50d7843e13,PennController,22,0,experiment,NULL,Video,progression,buffer,0.002799,1687287608330,6452666967e36de56a97ff44,6452666967e36de56a97ff44,19,cup,filler,C,75,cup65.jpg,cup85.jpg,GoalA,NULL
1687287790,8bd51774aa36689c952ffe50d7843e13,PennController,22,0,experiment,NULL,Selector,choice,Selection,option2,1687287617982,6452666967e36de56a97ff44,6452666967e36de56a97ff44,19,cup,filler,C,75,cup65.jpg,cup85.jpg,GoalA,option2;option1
1687287790,8bd51774aa36689c952ffe50d7843e13,PennController,22,0,experiment,NULL,PennController,21,_Trial_,End,1687287617983,6452666967e36de56a97ff44,6452666967e36de56a97ff44,19,cup,filler,C,75,cup65.jpg,cup85.jpg,GoalA,NULL
1687287790,8bd51774aa36689c952ffe50d7843e13,PennController,15,0,experiment,NULL,PennController,14,_Trial_,Start,1687287617984,6452666967e36de56a97ff44,6452666967e36de56a97ff44,12,erase,critical,C,50,erase42.jpg,erase60.jpg,low,NULL
1687287790,8bd51774aa36689c952ffe50d7843e13,PennController,15,0,experiment,NULL,PennController,14,_Header_,Start,1687287617984,6452666967e36de56a97ff44,6452666967e36de56a97ff44,12,erase,critical,C,50,erase42.jpg,erase60.jpg,low,NULL
1687287790,8bd51774aa36689c952ffe50d7843e13,PennController,15,0,experiment,NULL,PennController,14,_Header_,End,1687287617984,6452666967e36de56a97ff44,6452666967e36de56a97ff44,12,erase,critical,C,50,erase42.jpg,erase60.jpg,low,NULL
1687287790,8bd51774aa36689c952ffe50d7843e13,PennController,15,0,experiment,NULL,Canvas,canvas6,Print,NA,1687287626070,6452666967e36de56a97ff44,6452666967e36de56a97ff44,12,erase,critical,C,50,erase42.jpg,erase60.jpg,low,NULL
1687287790,8bd51774aa36689c952ffe50d7843e13,PennController,15,0,experiment,NULL,Video,progression,buffer,0.001546,1687287621502,6452666967e36de56a97ff44,6452666967e36de56a97ff44,12,erase,critical,C,50,erase42.jpg,erase60.jpg,low,NULL
1687287790,8bd51774aa36689c952ffe50d7843e13,PennController,15,0,experiment,NULL,Selector,choice,Selection,option1,1687287630750,6452666967e36de56a97ff44,6452666967e36de56a97ff44,12,erase,critical,C,50,erase42.jpg,erase60.jpg,low,option2;option1
1687287790,8bd51774aa36689c952ffe50d7843e13,PennController,15,0,experiment,NULL,PennController,14,_Trial_,End,1687287630751,6452666967e36de56a97ff44,6452666967e36de56a97ff44,12,erase,critical,C,50,erase42.jpg,erase60.jpg,low,NULL
1687287790,8bd51774aa36689c952ffe50d7843e13,PennController,28,0,experiment,NULL,PennController,27,_Trial_,Start,1687287630752,6452666967e36de56a97ff44,6452666967e36de56a97ff44,25,house,filler,C,75,house65.jpg,house85.jpg,GoalA,NULL
1687287790,8bd51774aa36689c952ffe50d7843e13,PennController,28,0,experiment,NULL,PennController,27,_Header_,Start,1687287630752,6452666967e36de56a97ff44,6452666967e36de56a97ff44,25,house,filler,C,75,house65.jpg,house85.jpg,GoalA,NULL
1687287790,8bd51774aa36689c952ffe50d7843e13,PennController,28,0,experiment,NULL,PennController,27,_Header_,End,1687287630752,6452666967e36de56a97ff44,6452666967e36de56a97ff44,25,house,filler,C,75,house65.jpg,house85.jpg,GoalA,NULL
1687287790,8bd51774aa36689c952ffe50d7843e13,PennController,28,0,experiment,NULL,Canvas,canvas6,Print,NA,1687287638436,6452666967e36de56a97ff44,6452666967e36de56a97ff44,25,house,filler,C,75,house65.jpg,house85.jpg,GoalA,NULL
1687287790,8bd51774aa36689c952ffe50d7843e13,PennController,28,0,experiment,NULL,Video,progression,buffer,0.001674,1687287634271,6452666967e36de56a97ff44,6452666967e36de56a97ff44,25,house,filler,C,75,house65.jpg,house85.jpg,GoalA,NULL
1687287790,8bd51774aa36689c952ffe50d7843e13,PennController,28,0,experiment,NULL,Selector,choice,Selection,option2,1687287640246,6452666967e36de56a97ff44,6452666967e36de56a97ff44,25,house,filler,C,75,house65.jpg,house85.jpg,GoalA,option1;option2
1687287790,8bd51774aa36689c952ffe50d7843e13,PennController,28,0,experiment,NULL,PennController,27,_Trial_,End,1687287640247,6452666967e36de56a97ff44,6452666967e36de56a97ff44,25,house,filler,C,75,house65.jpg,house85.jpg,GoalA,NULL
1687287790,8bd51774aa36689c952ffe50d7843e13,PennController,18,0,experiment,NULL,PennController,17,_Trial_,Start,1687287640247,6452666967e36de56a97ff44,6452666967e36de56a97ff44,15,zip,critical,C,50,zip40.jpg,zip60.jpg,low,NULL
1687287790,8bd51774aa36689c952ffe50d7843e13,PennController,18,0,experiment,NULL,PennController,17,_Header_,Start,1687287640247,6452666967e36de56a97ff44,6452666967e36de56a97ff44,15,zip,critical,C,50,zip40.jpg,zip60.jpg,low,NULL
1687287790,8bd51774aa36689c952ffe50d7843e13,PennController,18,0,experiment,NULL,PennController,17,_Header_,End,1687287640247,6452666967e36de56a97ff44,6452666967e36de56a97ff44,15,zip,critical,C,50,zip40.jpg,zip60.jpg,low,NULL
1687287790,8bd51774aa36689c952ffe50d7843e13,PennController,18,0,experiment,NULL,Canvas,canvas6,Print,NA,1687287646923,6452666967e36de56a97ff44,6452666967e36de56a97ff44,15,zip,critical,C,50,zip40.jpg,zip60.jpg,low,NULL
1687287790,8bd51774aa36689c952ffe50d7843e13,PennController,18,0,experiment,NULL,Video,progression,buffer,0.001912,1687287643764,6452666967e36de56a97ff44,6452666967e36de56a97ff44,15,zip,critical,C,50,zip40.jpg,zip60.jpg,low,NULL
1687287790,8bd51774aa36689c952ffe50d7843e13,PennController,18,0,experiment,NULL,Selector,choice,Selection,option2,1687287650030,6452666967e36de56a97ff44,6452666967e36de56a97ff44,15,zip,critical,C,50,zip40.jpg,zip60.jpg,low,option2;option1
1687287790,8bd51774aa36689c952ffe50d7843e13,PennController,18,0,experiment,NULL,PennController,17,_Trial_,End,1687287650031,6452666967e36de56a97ff44,6452666967e36de56a97ff44,15,zip,critical,C,50,zip40.jpg,zip60.jpg,low,NULL
1687287790,8bd51774aa36689c952ffe50d7843e13,PennController,24,0,experiment,NULL,PennController,23,_Trial_,Start,1687287650032,6452666967e36de56a97ff44,6452666967e36de56a97ff44,21,visit,filler,C,50,visit40.jpg,visit60.jpg,GoalA,NULL
1687287790,8bd51774aa36689c952ffe50d7843e13,PennController,24,0,experiment,NULL,PennController,23,_Header_,Start,1687287650032,6452666967e36de56a97ff44,6452666967e36de56a97ff44,21,visit,filler,C,50,visit40.jpg,visit60.jpg,GoalA,NULL
1687287790,8bd51774aa36689c952ffe50d7843e13,PennController,24,0,experiment,NULL,PennController,23,_Header_,End,1687287650033,6452666967e36de56a97ff44,6452666967e36de56a97ff44,21,visit,filler,C,50,visit40.jpg,visit60.jpg,GoalA,NULL
1687287790,8bd51774aa36689c952ffe50d7843e13,PennController,24,0,experiment,NULL,Canvas,canvas6,Print,NA,1687287656719,6452666967e36de56a97ff44,6452666967e36de56a97ff44,21,visit,filler,C,50,visit40.jpg,visit60.jpg,GoalA,NULL
1687287790,8bd51774aa36689c952ffe50d7843e13,PennController,24,0,experiment,NULL,Video,progression,buffer,0.003109,1687287653556,6452666967e36de56a97ff44,6452666967e36de56a97ff44,21,visit,filler,C,50,visit40.jpg,visit60.jpg,GoalA,NULL
1687287790,8bd51774aa36689c952ffe50d7843e13,PennController,24,0,experiment,NULL,Selector,choice,Selection,option1,1687287662395,6452666967e36de56a97ff44,6452666967e36de56a97ff44,21,visit,filler,C,50,visit40.jpg,visit60.jpg,GoalA,option1;option2
1687287790,8bd51774aa36689c952ffe50d7843e13,PennController,24,0,experiment,NULL,PennController,23,_Trial_,End,1687287662396,6452666967e36de56a97ff44,6452666967e36de56a97ff44,21,visit,filler,C,50,visit40.jpg,visit60.jpg,GoalA,NULL
1687287790,8bd51774aa36689c952ffe50d7843e13,PennController,26,0,experiment,NULL,PennController,25,_Trial_,Start,1687287662396,6452666967e36de56a97ff44,6452666967e36de56a97ff44,23,color,filler,C,25,color15.jpg,color35.jpg,GoalA,NULL
1687287790,8bd51774aa36689c952ffe50d7843e13,PennController,26,0,experiment,NULL,PennController,25,_Header_,Start,1687287662396,6452666967e36de56a97ff44,6452666967e36de56a97ff44,23,color,filler,C,25,color15.jpg,color35.jpg,GoalA,NULL
1687287790,8bd51774aa36689c952ffe50d7843e13,PennController,26,0,experiment,NULL,PennController,25,_Header_,End,1687287662396,6452666967e36de56a97ff44,6452666967e36de56a97ff44,23,color,filler,C,25,color15.jpg,color35.jpg,GoalA,NULL
1687287790,8bd51774aa36689c952ffe50d7843e13,PennController,26,0,experiment,NULL,Canvas,canvas6,Print,NA,1687287668087,6452666967e36de56a97ff44,6452666967e36de56a97ff44,23,color,filler,C,25,color15.jpg,color35.jpg,GoalA,NULL
1687287790,8bd51774aa36689c952ffe50d7843e13,PennController,26,0,experiment,NULL,Video,progression,buffer,0.003921,1687287665919,6452666967e36de56a97ff44,6452666967e36de56a97ff44,23,color,filler,C,25,color15.jpg,color35.jpg,GoalA,NULL
1687287790,8bd51774aa36689c952ffe50d7843e13,PennController,26,0,experiment,NULL,Selector,choice,Selection,option2,1687287678862,6452666967e36de56a97ff44,6452666967e36de56a97ff44,23,color,filler,C,25,color15.jpg,color35.jpg,GoalA,option1;option2
1687287790,8bd51774aa36689c952ffe50d7843e13,PennController,26,0,experiment,NULL,PennController,25,_Trial_,End,1687287678863,6452666967e36de56a97ff44,6452666967e36de56a97ff44,23,color,filler,C,25,color15.jpg,color35.jpg,GoalA,NULL
1687287790,8bd51774aa36689c952ffe50d7843e13,PennController,17,0,experiment,NULL,PennController,16,_Trial_,Start,1687287678863,6452666967e36de56a97ff44,6452666967e36de56a97ff44,14,cover,critical,C,25,cover15.jpg,cover33.jpg,low,NULL
1687287790,8bd51774aa36689c952ffe50d7843e13,PennController,17,0,experiment,NULL,PennController,16,_Header_,Start,1687287678863,6452666967e36de56a97ff44,6452666967e36de56a97ff44,14,cover,critical,C,25,cover15.jpg,cover33.jpg,low,NULL
1687287790,8bd51774aa36689c952ffe50d7843e13,PennController,17,0,experiment,NULL,PennController,16,_Header_,End,1687287678864,6452666967e36de56a97ff44,6452666967e36de56a97ff44,14,cover,critical,C,25,cover15.jpg,cover33.jpg,low,NULL
1687287790,8bd51774aa36689c952ffe50d7843e13,PennController,17,0,experiment,NULL,Canvas,canvas6,Print,NA,1687287685154,6452666967e36de56a97ff44,6452666967e36de56a97ff44,14,cover,critical,C,25,cover15.jpg,cover33.jpg,low,NULL
1687287790,8bd51774aa36689c952ffe50d7843e13,PennController,17,0,experiment,NULL,Video,progression,buffer,0.002941,1687287682385,6452666967e36de56a97ff44,6452666967e36de56a97ff44,14,cover,critical,C,25,cover15.jpg,cover33.jpg,low,NULL
1687287790,8bd51774aa36689c952ffe50d7843e13,PennController,17,0,experiment,NULL,Selector,choice,Selection,option2,1687287686494,6452666967e36de56a97ff44,6452666967e36de56a97ff44,14,cover,critical,C,25,cover15.jpg,cover33.jpg,low,option1;option2
1687287790,8bd51774aa36689c952ffe50d7843e13,PennController,17,0,experiment,NULL,PennController,16,_Trial_,End,1687287686495,6452666967e36de56a97ff44,6452666967e36de56a97ff44,14,cover,critical,C,25,cover15.jpg,cover33.jpg,low,NULL
1687287790,8bd51774aa36689c952ffe50d7843e13,PennController,29,0,experiment,NULL,PennController,28,_Trial_,Start,1687287686496,6452666967e36de56a97ff44,6452666967e36de56a97ff44,26,sandwich,filler,C,25,sandwich15.jpg,sandwich35.jpg,GoalB,NULL
1687287790,8bd51774aa36689c952ffe50d7843e13,PennController,29,0,experiment,NULL,PennController,28,_Header_,Start,1687287686496,6452666967e36de56a97ff44,6452666967e36de56a97ff44,26,sandwich,filler,C,25,sandwich15.jpg,sandwich35.jpg,GoalB,NULL
1687287790,8bd51774aa36689c952ffe50d7843e13,PennController,29,0,experiment,NULL,PennController,28,_Header_,End,1687287686496,6452666967e36de56a97ff44,6452666967e36de56a97ff44,26,sandwich,filler,C,25,sandwich15.jpg,sandwich35.jpg,GoalB,NULL
1687287790,8bd51774aa36689c952ffe50d7843e13,PennController,29,0,experiment,NULL,Canvas,canvas6,Print,NA,1687287692186,6452666967e36de56a97ff44,6452666967e36de56a97ff44,26,sandwich,filler,C,25,sandwich15.jpg,sandwich35.jpg,GoalB,NULL
1687287790,8bd51774aa36689c952ffe50d7843e13,PennController,29,0,experiment,NULL,Video,progression,buffer,0.003861,1687287690020,6452666967e36de56a97ff44,6452666967e36de56a97ff44,26,sandwich,filler,C,25,sandwich15.jpg,sandwich35.jpg,GoalB,NULL
1687287790,8bd51774aa36689c952ffe50d7843e13,PennController,29,0,experiment,NULL,Selector,choice,Selection,option1,1687287693790,6452666967e36de56a97ff44,6452666967e36de56a97ff44,26,sandwich,filler,C,25,sandwich15.jpg,sandwich35.jpg,GoalB,option1;option2
1687287790,8bd51774aa36689c952ffe50d7843e13,PennController,29,0,experiment,NULL,PennController,28,_Trial_,End,1687287693790,6452666967e36de56a97ff44,6452666967e36de56a97ff44,26,sandwich,filler,C,25,sandwich15.jpg,sandwich35.jpg,GoalB,NULL
1687287790,8bd51774aa36689c952ffe50d7843e13,PennController,4,0,experiment,NULL,PennController,3,_Trial_,Start,1687287693791,6452666967e36de56a97ff44,6452666967e36de56a97ff44,1,vase,critical,C,75,vase65.jpg,vase85.jpg,low,NULL
1687287790,8bd51774aa36689c952ffe50d7843e13,PennController,4,0,experiment,NULL,PennController,3,_Header_,Start,1687287693791,6452666967e36de56a97ff44,6452666967e36de56a97ff44,1,vase,critical,C,75,vase65.jpg,vase85.jpg,low,NULL
1687287790,8bd51774aa36689c952ffe50d7843e13,PennController,4,0,experiment,NULL,PennController,3,_Header_,End,1687287693791,6452666967e36de56a97ff44,6452666967e36de56a97ff44,1,vase,critical,C,75,vase65.jpg,vase85.jpg,low,NULL
1687287790,8bd51774aa36689c952ffe50d7843e13,PennController,4,0,experiment,NULL,Canvas,canvas6,Print,NA,1687287701474,6452666967e36de56a97ff44,6452666967e36de56a97ff44,1,vase,critical,C,75,vase65.jpg,vase85.jpg,low,NULL
1687287790,8bd51774aa36689c952ffe50d7843e13,PennController,4,0,experiment,NULL,Video,progression,buffer,0.003049,1687287697313,6452666967e36de56a97ff44,6452666967e36de56a97ff44,1,vase,critical,C,75,vase65.jpg,vase85.jpg,low,NULL
1687287790,8bd51774aa36689c952ffe50d7843e13,PennController,4,0,experiment,NULL,Selector,choice,Selection,option2,1687287703710,6452666967e36de56a97ff44,6452666967e36de56a97ff44,1,vase,critical,C,75,vase65.jpg,vase85.jpg,low,option1;option2
1687287790,8bd51774aa36689c952ffe50d7843e13,PennController,4,0,experiment,NULL,PennController,3,_Trial_,End,1687287703711,6452666967e36de56a97ff44,6452666967e36de56a97ff44,1,vase,critical,C,75,vase65.jpg,vase85.jpg,low,NULL
1687287790,8bd51774aa36689c952ffe50d7843e13,PennController,30,0,experiment,NULL,PennController,29,_Trial_,Start,1687287703712,6452666967e36de56a97ff44,6452666967e36de56a97ff44,27,square,filler,C,50,square40.jpg,square60.jpg,GoalA,NULL
1687287790,8bd51774aa36689c952ffe50d7843e13,PennController,30,0,experiment,NULL,PennController,29,_Header_,Start,1687287703712,6452666967e36de56a97ff44,6452666967e36de56a97ff44,27,square,filler,C,50,square40.jpg,square60.jpg,GoalA,NULL
1687287790,8bd51774aa36689c952ffe50d7843e13,PennController,30,0,experiment,NULL,PennController,29,_Header_,End,1687287703712,6452666967e36de56a97ff44,6452666967e36de56a97ff44,27,square,filler,C,50,square40.jpg,square60.jpg,GoalA,NULL
1687287790,8bd51774aa36689c952ffe50d7843e13,PennController,30,0,experiment,NULL,Canvas,canvas6,Print,NA,1687287710389,6452666967e36de56a97ff44,6452666967e36de56a97ff44,27,square,filler,C,50,square40.jpg,square60.jpg,GoalA,NULL
1687287790,8bd51774aa36689c952ffe50d7843e13,PennController,30,0,experiment,NULL,Video,progression,buffer,0.002172,1687287707229,6452666967e36de56a97ff44,6452666967e36de56a97ff44,27,square,filler,C,50,square40.jpg,square60.jpg,GoalA,NULL
1687287790,8bd51774aa36689c952ffe50d7843e13,PennController,30,0,experiment,NULL,Selector,choice,Selection,option1,1687287712278,6452666967e36de56a97ff44,6452666967e36de56a97ff44,27,square,filler,C,50,square40.jpg,square60.jpg,GoalA,option2;option1
1687287790,8bd51774aa36689c952ffe50d7843e13,PennController,30,0,experiment,NULL,PennController,29,_Trial_,End,1687287712279,6452666967e36de56a97ff44,6452666967e36de56a97ff44,27,square,filler,C,50,square40.jpg,square60.jpg,GoalA,NULL
1687287790,8bd51774aa36689c952ffe50d7843e13,PennController,14,0,experiment,NULL,PennController,13,_Trial_,Start,1687287712280,6452666967e36de56a97ff44,6452666967e36de56a97ff44,11,beads,critical,C,25,beads15.jpg,beads35.jpg,low,NULL
1687287790,8bd51774aa36689c952ffe50d7843e13,PennController,14,0,experiment,NULL,PennController,13,_Header_,Start,1687287712280,6452666967e36de56a97ff44,6452666967e36de56a97ff44,11,beads,critical,C,25,beads15.jpg,beads35.jpg,low,NULL
1687287790,8bd51774aa36689c952ffe50d7843e13,PennController,14,0,experiment,NULL,PennController,13,_Header_,End,1687287712280,6452666967e36de56a97ff44,6452666967e36de56a97ff44,11,beads,critical,C,25,beads15.jpg,beads35.jpg,low,NULL
1687287790,8bd51774aa36689c952ffe50d7843e13,PennController,14,0,experiment,NULL,Canvas,canvas6,Print,NA,1687287717970,6452666967e36de56a97ff44,6452666967e36de56a97ff44,11,beads,critical,C,25,beads15.jpg,beads35.jpg,low,NULL
1687287790,8bd51774aa36689c952ffe50d7843e13,PennController,14,0,experiment,NULL,Video,progression,buffer,0.003676,1687287715802,6452666967e36de56a97ff44,6452666967e36de56a97ff44,11,beads,critical,C,25,beads15.jpg,beads35.jpg,low,NULL
1687287790,8bd51774aa36689c952ffe50d7843e13,PennController,14,0,experiment,NULL,Selector,choice,Selection,option2,1687287722349,6452666967e36de56a97ff44,6452666967e36de56a97ff44,11,beads,critical,C,25,beads15.jpg,beads35.jpg,low,option1;option2
1687287790,8bd51774aa36689c952ffe50d7843e13,PennController,14,0,experiment,NULL,PennController,13,_Trial_,End,1687287722349,6452666967e36de56a97ff44,6452666967e36de56a97ff44,11,beads,critical,C,25,beads15.jpg,beads35.jpg,low,NULL
1687287790,8bd51774aa36689c952ffe50d7843e13,PennController,11,0,experiment,NULL,PennController,10,_Trial_,Start,1687287722350,6452666967e36de56a97ff44,6452666967e36de56a97ff44,8,cucumber,critical,C,25,cucumber15.jpg,cucumber33.jpg,low,NULL
1687287790,8bd51774aa36689c952ffe50d7843e13,PennController,11,0,experiment,NULL,PennController,10,_Header_,Start,1687287722350,6452666967e36de56a97ff44,6452666967e36de56a97ff44,8,cucumber,critical,C,25,cucumber15.jpg,cucumber33.jpg,low,NULL
1687287790,8bd51774aa36689c952ffe50d7843e13,PennController,11,0,experiment,NULL,PennController,10,_Header_,End,1687287722350,6452666967e36de56a97ff44,6452666967e36de56a97ff44,8,cucumber,critical,C,25,cucumber15.jpg,cucumber33.jpg,low,NULL
1687287790,8bd51774aa36689c952ffe50d7843e13,PennController,11,0,experiment,NULL,Canvas,canvas6,Print,NA,1687287728636,6452666967e36de56a97ff44,6452666967e36de56a97ff44,8,cucumber,critical,C,25,cucumber15.jpg,cucumber33.jpg,low,NULL
1687287790,8bd51774aa36689c952ffe50d7843e13,PennController,11,0,experiment,NULL,Video,progression,buffer,0.003249,1687287725869,6452666967e36de56a97ff44,6452666967e36de56a97ff44,8,cucumber,critical,C,25,cucumber15.jpg,cucumber33.jpg,low,NULL
1687287790,8bd51774aa36689c952ffe50d7843e13,PennController,11,0,experiment,NULL,Selector,choice,Selection,option1,1687287732374,6452666967e36de56a97ff44,6452666967e36de56a97ff44,8,cucumber,critical,C,25,cucumber15.jpg,cucumber33.jpg,low,option1;option2
1687287790,8bd51774aa36689c952ffe50d7843e13,PennController,11,0,experiment,NULL,PennController,10,_Trial_,End,1687287732375,6452666967e36de56a97ff44,6452666967e36de56a97ff44,8,cucumber,critical,C,25,cucumber15.jpg,cucumber33.jpg,low,NULL
1687287790,8bd51774aa36689c952ffe50d7843e13,PennController,19,0,experiment,NULL,PennController,18,_Trial_,Start,1687287732376,6452666967e36de56a97ff44,6452666967e36de56a97ff44,16,blinds,critical,C,75,blinds66.jpg,blinds84.jpg,low,NULL
1687287790,8bd51774aa36689c952ffe50d7843e13,PennController,19,0,experiment,NULL,PennController,18,_Header_,Start,1687287732376,6452666967e36de56a97ff44,6452666967e36de56a97ff44,16,blinds,critical,C,75,blinds66.jpg,blinds84.jpg,low,NULL
1687287790,8bd51774aa36689c952ffe50d7843e13,PennController,19,0,experiment,NULL,PennController,18,_Header_,End,1687287732376,6452666967e36de56a97ff44,6452666967e36de56a97ff44,16,blinds,critical,C,75,blinds66.jpg,blinds84.jpg,low,NULL
1687287790,8bd51774aa36689c952ffe50d7843e13,PennController,19,0,experiment,NULL,Canvas,canvas6,Print,NA,1687287742053,6452666967e36de56a97ff44,6452666967e36de56a97ff44,16,blinds,critical,C,75,blinds66.jpg,blinds84.jpg,low,NULL
1687287790,8bd51774aa36689c952ffe50d7843e13,PennController,19,0,experiment,NULL,Video,progression,buffer,0.002452,1687287735897,6452666967e36de56a97ff44,6452666967e36de56a97ff44,16,blinds,critical,C,75,blinds66.jpg,blinds84.jpg,low,NULL
1687287790,8bd51774aa36689c952ffe50d7843e13,PennController,19,0,experiment,NULL,Selector,choice,Selection,option2,1687287744774,6452666967e36de56a97ff44,6452666967e36de56a97ff44,16,blinds,critical,C,75,blinds66.jpg,blinds84.jpg,low,option2;option1
1687287790,8bd51774aa36689c952ffe50d7843e13,PennController,19,0,experiment,NULL,PennController,18,_Trial_,End,1687287744775,6452666967e36de56a97ff44,6452666967e36de56a97ff44,16,blinds,critical,C,75,blinds66.jpg,blinds84.jpg,low,NULL
1687287790,8bd51774aa36689c952ffe50d7843e13,PennController,7,0,experiment,NULL,PennController,6,_Trial_,Start,1687287744775,6452666967e36de56a97ff44,6452666967e36de56a97ff44,4,candy,critical,C,75,candy65.jpg,candy85.jpg,low,NULL
1687287790,8bd51774aa36689c952ffe50d7843e13,PennController,7,0,experiment,NULL,PennController,6,_Header_,Start,1687287744775,6452666967e36de56a97ff44,6452666967e36de56a97ff44,4,candy,critical,C,75,candy65.jpg,candy85.jpg,low,NULL
1687287790,8bd51774aa36689c952ffe50d7843e13,PennController,7,0,experiment,NULL,PennController,6,_Header_,End,1687287744775,6452666967e36de56a97ff44,6452666967e36de56a97ff44,4,candy,critical,C,75,candy65.jpg,candy85.jpg,low,NULL
1687287790,8bd51774aa36689c952ffe50d7843e13,PennController,7,0,experiment,NULL,Canvas,canvas6,Print,NA,1687287752456,6452666967e36de56a97ff44,6452666967e36de56a97ff44,4,candy,critical,C,75,candy65.jpg,candy85.jpg,low,NULL
1687287790,8bd51774aa36689c952ffe50d7843e13,PennController,7,0,experiment,NULL,Video,progression,buffer,0.002409,1687287748293,6452666967e36de56a97ff44,6452666967e36de56a97ff44,4,candy,critical,C,75,candy65.jpg,candy85.jpg,low,NULL
1687287790,8bd51774aa36689c952ffe50d7843e13,PennController,7,0,experiment,NULL,Selector,choice,Selection,option1,1687287757470,6452666967e36de56a97ff44,6452666967e36de56a97ff44,4,candy,critical,C,75,candy65.jpg,candy85.jpg,low,option2;option1
1687287790,8bd51774aa36689c952ffe50d7843e13,PennController,7,0,experiment,NULL,PennController,6,_Trial_,End,1687287757471,6452666967e36de56a97ff44,6452666967e36de56a97ff44,4,candy,critical,C,75,candy65.jpg,candy85.jpg,low,NULL
1687287790,8bd51774aa36689c952ffe50d7843e13,PennController,25,0,experiment,NULL,PennController,24,_Trial_,Start,1687287757471,6452666967e36de56a97ff44,6452666967e36de56a97ff44,22,wall,filler,C,75,wall65.jpg,wall85.jpg,GoalB,NULL
1687287790,8bd51774aa36689c952ffe50d7843e13,PennController,25,0,experiment,NULL,PennController,24,_Header_,Start,1687287757471,6452666967e36de56a97ff44,6452666967e36de56a97ff44,22,wall,filler,C,75,wall65.jpg,wall85.jpg,GoalB,NULL
1687287790,8bd51774aa36689c952ffe50d7843e13,PennController,25,0,experiment,NULL,PennController,24,_Header_,End,1687287757471,6452666967e36de56a97ff44,6452666967e36de56a97ff44,22,wall,filler,C,75,wall65.jpg,wall85.jpg,GoalB,NULL
1687287790,8bd51774aa36689c952ffe50d7843e13,PennController,25,0,experiment,NULL,Canvas,canvas6,Print,NA,1687287765153,6452666967e36de56a97ff44,6452666967e36de56a97ff44,22,wall,filler,C,75,wall65.jpg,wall85.jpg,GoalB,NULL
1687287790,8bd51774aa36689c952ffe50d7843e13,PennController,25,0,experiment,NULL,Video,progression,buffer,0.003128,1687287760988,6452666967e36de56a97ff44,6452666967e36de56a97ff44,22,wall,filler,C,75,wall65.jpg,wall85.jpg,GoalB,NULL
1687287790,8bd51774aa36689c952ffe50d7843e13,PennController,25,0,experiment,NULL,Selector,choice,Selection,option1,1687287770238,6452666967e36de56a97ff44,6452666967e36de56a97ff44,22,wall,filler,C,75,wall65.jpg,wall85.jpg,GoalB,option2;option1
1687287790,8bd51774aa36689c952ffe50d7843e13,PennController,25,0,experiment,NULL,PennController,24,_Trial_,End,1687287770239,6452666967e36de56a97ff44,6452666967e36de56a97ff44,22,wall,filler,C,75,wall65.jpg,wall85.jpg,GoalB,NULL
1687287790,8bd51774aa36689c952ffe50d7843e13,PennController,20,0,experiment,NULL,PennController,19,_Trial_,Start,1687287770240,6452666967e36de56a97ff44,6452666967e36de56a97ff44,17,roll,critical,C,25,roll15.jpg,roll35.jpg,low,NULL
1687287790,8bd51774aa36689c952ffe50d7843e13,PennController,20,0,experiment,NULL,PennController,19,_Header_,Start,1687287770240,6452666967e36de56a97ff44,6452666967e36de56a97ff44,17,roll,critical,C,25,roll15.jpg,roll35.jpg,low,NULL
1687287790,8bd51774aa36689c952ffe50d7843e13,PennController,20,0,experiment,NULL,PennController,19,_Header_,End,1687287770240,6452666967e36de56a97ff44,6452666967e36de56a97ff44,17,roll,critical,C,25,roll15.jpg,roll35.jpg,low,NULL
1687287790,8bd51774aa36689c952ffe50d7843e13,PennController,20,0,experiment,NULL,Canvas,canvas6,Print,NA,1687287775918,6452666967e36de56a97ff44,6452666967e36de56a97ff44,17,roll,critical,C,25,roll15.jpg,roll35.jpg,low,NULL
1687287790,8bd51774aa36689c952ffe50d7843e13,PennController,20,0,experiment,NULL,Video,progression,buffer,0.003658,1687287773757,6452666967e36de56a97ff44,6452666967e36de56a97ff44,17,roll,critical,C,25,roll15.jpg,roll35.jpg,low,NULL
1687287790,8bd51774aa36689c952ffe50d7843e13,PennController,20,0,experiment,NULL,Selector,choice,Selection,option1,1687287777782,6452666967e36de56a97ff44,6452666967e36de56a97ff44,17,roll,critical,C,25,roll15.jpg,roll35.jpg,low,option1;option2
1687287790,8bd51774aa36689c952ffe50d7843e13,PennController,20,0,experiment,NULL,PennController,19,_Trial_,End,1687287777783,6452666967e36de56a97ff44,6452666967e36de56a97ff44,17,roll,critical,C,25,roll15.jpg,roll35.jpg,low,NULL
1687287790,8bd51774aa36689c952ffe50d7843e13,PennController,8,0,experiment,NULL,PennController,7,_Trial_,Start,1687287777783,6452666967e36de56a97ff44,6452666967e36de56a97ff44,5,book,critical,C,25,book15.jpg,book35.jpg,low,NULL
1687287790,8bd51774aa36689c952ffe50d7843e13,PennController,8,0,experiment,NULL,PennController,7,_Header_,Start,1687287777783,6452666967e36de56a97ff44,6452666967e36de56a97ff44,5,book,critical,C,25,book15.jpg,book35.jpg,low,NULL
1687287790,8bd51774aa36689c952ffe50d7843e13,PennController,8,0,experiment,NULL,PennController,7,_Header_,End,1687287777783,6452666967e36de56a97ff44,6452666967e36de56a97ff44,5,book,critical,C,25,book15.jpg,book35.jpg,low,NULL
1687287790,8bd51774aa36689c952ffe50d7843e13,PennController,8,0,experiment,NULL,Canvas,canvas6,Print,NA,1687287783469,6452666967e36de56a97ff44,6452666967e36de56a97ff44,5,book,critical,C,25,book15.jpg,book35.jpg,low,NULL
1687287790,8bd51774aa36689c952ffe50d7843e13,PennController,8,0,experiment,NULL,Video,progression,buffer,0.001962,1687287781301,6452666967e36de56a97ff44,6452666967e36de56a97ff44,5,book,critical,C,25,book15.jpg,book35.jpg,low,NULL
1687287790,8bd51774aa36689c952ffe50d7843e13,PennController,8,0,experiment,NULL,Selector,choice,Selection,option1,1687287790038,6452666967e36de56a97ff44,6452666967e36de56a97ff44,5,book,critical,C,25,book15.jpg,book35.jpg,low,option2;option1
1687287790,8bd51774aa36689c952ffe50d7843e13,PennController,8,0,experiment,NULL,PennController,7,_Trial_,End,1687287790039,6452666967e36de56a97ff44,6452666967e36de56a97ff44,5,book,critical,C,25,book15.jpg,book35.jpg,low,NULL
