#
# Results on Tuesday June 20 2023 18:56:20 UTC
# USER AGENT: Mozilla/5.0 (Windows NT 10.0; Win64; x64) AppleWebKit/537.36 (KHTML, like Gecko) Chrome/113.0.0.0 Safari/537.36 OPR/99.0.0.0 (Edition std-1)
# Design number was non-random = 3
#
# Columns below this comment are as follows:
# 1. Results reception time.
# 2. MD5 hash of participant's IP address.
# 3. Controller name.
# 4. Order number of item.
# 5. Inner element number.
# 6. Label.
# 7. Latin Square Group.
# 8. PennElementType.
# 9. PennElementName.
# 10. Parameter.
# 11. Value.
# 12. EventTime.
# 13. PROLIFIC_ID.
# 14. Comments.
1687287380,d69da27998e8835311331663419462eb,PennController,2,0,consent,NULL,PennController,0,_Trial_,Start,1687287039653,615c7bc74171fb26befa6e03,NULL
1687287380,d69da27998e8835311331663419462eb,PennController,2,0,consent,NULL,PennController,0,_Header_,Start,1687287039653,615c7bc74171fb26befa6e03,NULL
1687287380,d69da27998e8835311331663419462eb,PennController,2,0,consent,NULL,PennController,0,_Header_,End,1687287039653,615c7bc74171fb26befa6e03,NULL
1687287380,d69da27998e8835311331663419462eb,PennController,2,0,consent,NULL,PennController,0,_Trial_,End,1687287053395,615c7bc74171fb26befa6e03,NULL
# Columns below this comment are as follows:
# 14. ID.
# 15. Comments.
1687287380,d69da27998e8835311331663419462eb,PennController,3,0,intro,NULL,PennController,1,_Trial_,Start,1687287053397,615c7bc74171fb26befa6e03,615c7bc74171fb26befa6e03,NULL
1687287380,d69da27998e8835311331663419462eb,PennController,3,0,intro,NULL,PennController,1,_Header_,Start,1687287053397,615c7bc74171fb26befa6e03,615c7bc74171fb26befa6e03,NULL
1687287380,d69da27998e8835311331663419462eb,PennController,3,0,intro,NULL,PennController,1,_Header_,End,1687287053397,615c7bc74171fb26befa6e03,615c7bc74171fb26befa6e03,NULL
1687287380,d69da27998e8835311331663419462eb,PennController,3,0,intro,NULL,PennController,1,_Trial_,End,1687287072740,615c7bc74171fb26befa6e03,615c7bc74171fb26befa6e03,NULL
# Columns below this comment are as follows:
# 15. item_number.
# 16. item.
# 17. type.
# 18. Group.
# 19. prog.
# 20. prev_image.
# 21. next_image.
# 22. height.
# 23. Comments.
1687287380,d69da27998e8835311331663419462eb,PennController,11,0,experiment,NULL,PennController,10,_Trial_,Start,1687287072741,615c7bc74171fb26befa6e03,615c7bc74171fb26befa6e03,8,cucumber,critical,D,50,cucumber42.jpg,cucumber60.jpg,high,NULL
1687287380,d69da27998e8835311331663419462eb,PennController,11,0,experiment,NULL,PennController,10,_Header_,Start,1687287072741,615c7bc74171fb26befa6e03,615c7bc74171fb26befa6e03,8,cucumber,critical,D,50,cucumber42.jpg,cucumber60.jpg,high,NULL
1687287380,d69da27998e8835311331663419462eb,PennController,11,0,experiment,NULL,PennController,10,_Header_,End,1687287072741,615c7bc74171fb26befa6e03,615c7bc74171fb26befa6e03,8,cucumber,critical,D,50,cucumber42.jpg,cucumber60.jpg,high,NULL
1687287380,d69da27998e8835311331663419462eb,PennController,11,0,experiment,NULL,Canvas,canvas6,Print,NA,1687287080809,615c7bc74171fb26befa6e03,615c7bc74171fb26befa6e03,8,cucumber,critical,D,50,cucumber42.jpg,cucumber60.jpg,high,NULL
1687287380,d69da27998e8835311331663419462eb,PennController,11,0,experiment,NULL,Video,progression,buffer,0.003873,1687287076263,615c7bc74171fb26befa6e03,615c7bc74171fb26befa6e03,8,cucumber,critical,D,50,cucumber42.jpg,cucumber60.jpg,high,NULL
1687287380,d69da27998e8835311331663419462eb,PennController,11,0,experiment,NULL,Selector,choice,Selection,option1,1687287087567,615c7bc74171fb26befa6e03,615c7bc74171fb26befa6e03,8,cucumber,critical,D,50,cucumber42.jpg,cucumber60.jpg,high,option2;option1
1687287380,d69da27998e8835311331663419462eb,PennController,11,0,experiment,NULL,PennController,10,_Trial_,End,1687287087568,615c7bc74171fb26befa6e03,615c7bc74171fb26befa6e03,8,cucumber,critical,D,50,cucumber42.jpg,cucumber60.jpg,high,NULL
1687287380,d69da27998e8835311331663419462eb,PennController,12,0,experiment,NULL,PennController,11,_Trial_,Start,1687287087569,615c7bc74171fb26befa6e03,615c7bc74171fb26befa6e03,9,cake,critical,D,75,cake66.jpg,cake84.jpg,high,NULL
1687287380,d69da27998e8835311331663419462eb,PennController,12,0,experiment,NULL,PennController,11,_Header_,Start,1687287087569,615c7bc74171fb26befa6e03,615c7bc74171fb26befa6e03,9,cake,critical,D,75,cake66.jpg,cake84.jpg,high,NULL
1687287380,d69da27998e8835311331663419462eb,PennController,12,0,experiment,NULL,PennController,11,_Header_,End,1687287087569,615c7bc74171fb26befa6e03,615c7bc74171fb26befa6e03,9,cake,critical,D,75,cake66.jpg,cake84.jpg,high,NULL
1687287380,d69da27998e8835311331663419462eb,PennController,12,0,experiment,NULL,Canvas,canvas6,Print,NA,1687287097232,615c7bc74171fb26befa6e03,615c7bc74171fb26befa6e03,9,cake,critical,D,75,cake66.jpg,cake84.jpg,high,NULL
1687287380,d69da27998e8835311331663419462eb,PennController,12,0,experiment,NULL,Video,progression,buffer,0.001669,1687287091086,615c7bc74171fb26befa6e03,615c7bc74171fb26befa6e03,9,cake,critical,D,75,cake66.jpg,cake84.jpg,high,NULL
1687287380,d69da27998e8835311331663419462eb,PennController,12,0,experiment,NULL,Selector,choice,Selection,option2,1687287099892,615c7bc74171fb26befa6e03,615c7bc74171fb26befa6e03,9,cake,critical,D,75,cake66.jpg,cake84.jpg,high,option2;option1
1687287380,d69da27998e8835311331663419462eb,PennController,12,0,experiment,NULL,PennController,11,_Trial_,End,1687287099893,615c7bc74171fb26befa6e03,615c7bc74171fb26befa6e03,9,cake,critical,D,75,cake66.jpg,cake84.jpg,high,NULL
1687287380,d69da27998e8835311331663419462eb,PennController,21,0,experiment,NULL,PennController,20,_Trial_,Start,1687287099894,615c7bc74171fb26befa6e03,615c7bc74171fb26befa6e03,18,ball,critical,D,75,ball65.jpg,ball85.jpg,high,NULL
1687287380,d69da27998e8835311331663419462eb,PennController,21,0,experiment,NULL,PennController,20,_Header_,Start,1687287099894,615c7bc74171fb26befa6e03,615c7bc74171fb26befa6e03,18,ball,critical,D,75,ball65.jpg,ball85.jpg,high,NULL
1687287380,d69da27998e8835311331663419462eb,PennController,21,0,experiment,NULL,PennController,20,_Header_,End,1687287099894,615c7bc74171fb26befa6e03,615c7bc74171fb26befa6e03,18,ball,critical,D,75,ball65.jpg,ball85.jpg,high,NULL
1687287380,d69da27998e8835311331663419462eb,PennController,21,0,experiment,NULL,Canvas,canvas6,Print,NA,1687287107553,615c7bc74171fb26befa6e03,615c7bc74171fb26befa6e03,18,ball,critical,D,75,ball65.jpg,ball85.jpg,high,NULL
1687287380,d69da27998e8835311331663419462eb,PennController,21,0,experiment,NULL,Video,progression,buffer,0.00151,1687287103410,615c7bc74171fb26befa6e03,615c7bc74171fb26befa6e03,18,ball,critical,D,75,ball65.jpg,ball85.jpg,high,NULL
1687287380,d69da27998e8835311331663419462eb,PennController,21,0,experiment,NULL,Selector,choice,Selection,option2,1687287110270,615c7bc74171fb26befa6e03,615c7bc74171fb26befa6e03,18,ball,critical,D,75,ball65.jpg,ball85.jpg,high,option2;option1
1687287380,d69da27998e8835311331663419462eb,PennController,21,0,experiment,NULL,PennController,20,_Trial_,End,1687287110271,615c7bc74171fb26befa6e03,615c7bc74171fb26befa6e03,18,ball,critical,D,75,ball65.jpg,ball85.jpg,high,NULL
1687287380,d69da27998e8835311331663419462eb,PennController,7,0,experiment,NULL,PennController,6,_Trial_,Start,1687287110272,615c7bc74171fb26befa6e03,615c7bc74171fb26befa6e03,4,candy,critical,D,25,candy15.jpg,candy35.jpg,high,NULL
1687287380,d69da27998e8835311331663419462eb,PennController,7,0,experiment,NULL,PennController,6,_Header_,Start,1687287110272,615c7bc74171fb26befa6e03,615c7bc74171fb26befa6e03,4,candy,critical,D,25,candy15.jpg,candy35.jpg,high,NULL
1687287380,d69da27998e8835311331663419462eb,PennController,7,0,experiment,NULL,PennController,6,_Header_,End,1687287110272,615c7bc74171fb26befa6e03,615c7bc74171fb26befa6e03,4,candy,critical,D,25,candy15.jpg,candy35.jpg,high,NULL
1687287380,d69da27998e8835311331663419462eb,PennController,7,0,experiment,NULL,Canvas,canvas6,Print,NA,1687287115959,615c7bc74171fb26befa6e03,615c7bc74171fb26befa6e03,4,candy,critical,D,25,candy15.jpg,candy35.jpg,high,NULL
1687287380,d69da27998e8835311331663419462eb,PennController,7,0,experiment,NULL,Video,progression,buffer,0.001524,1687287113790,615c7bc74171fb26befa6e03,615c7bc74171fb26befa6e03,4,candy,critical,D,25,candy15.jpg,candy35.jpg,high,NULL
1687287380,d69da27998e8835311331663419462eb,PennController,7,0,experiment,NULL,Selector,choice,Selection,option2,1687287118087,615c7bc74171fb26befa6e03,615c7bc74171fb26befa6e03,4,candy,critical,D,25,candy15.jpg,candy35.jpg,high,option1;option2
1687287380,d69da27998e8835311331663419462eb,PennController,7,0,experiment,NULL,PennController,6,_Trial_,End,1687287118088,615c7bc74171fb26befa6e03,615c7bc74171fb26befa6e03,4,candy,critical,D,25,candy15.jpg,candy35.jpg,high,NULL
1687287380,d69da27998e8835311331663419462eb,PennController,19,0,experiment,NULL,PennController,18,_Trial_,Start,1687287118089,615c7bc74171fb26befa6e03,615c7bc74171fb26befa6e03,16,blinds,critical,D,25,blinds15.jpg,blinds33.jpg,high,NULL
1687287380,d69da27998e8835311331663419462eb,PennController,19,0,experiment,NULL,PennController,18,_Header_,Start,1687287118089,615c7bc74171fb26befa6e03,615c7bc74171fb26befa6e03,16,blinds,critical,D,25,blinds15.jpg,blinds33.jpg,high,NULL
1687287380,d69da27998e8835311331663419462eb,PennController,19,0,experiment,NULL,PennController,18,_Header_,End,1687287118089,615c7bc74171fb26befa6e03,615c7bc74171fb26befa6e03,16,blinds,critical,D,25,blinds15.jpg,blinds33.jpg,high,NULL
1687287380,d69da27998e8835311331663419462eb,PennController,19,0,experiment,NULL,Canvas,canvas6,Print,NA,1687287124361,615c7bc74171fb26befa6e03,615c7bc74171fb26befa6e03,16,blinds,critical,D,25,blinds15.jpg,blinds33.jpg,high,NULL
1687287380,d69da27998e8835311331663419462eb,PennController,19,0,experiment,NULL,Video,progression,buffer,0.001625,1687287121605,615c7bc74171fb26befa6e03,615c7bc74171fb26befa6e03,16,blinds,critical,D,25,blinds15.jpg,blinds33.jpg,high,NULL
1687287380,d69da27998e8835311331663419462eb,PennController,19,0,experiment,NULL,Selector,choice,Selection,option1,1687287132803,615c7bc74171fb26befa6e03,615c7bc74171fb26befa6e03,16,blinds,critical,D,25,blinds15.jpg,blinds33.jpg,high,option1;option2
1687287380,d69da27998e8835311331663419462eb,PennController,19,0,experiment,NULL,PennController,18,_Trial_,End,1687287132804,615c7bc74171fb26befa6e03,615c7bc74171fb26befa6e03,16,blinds,critical,D,25,blinds15.jpg,blinds33.jpg,high,NULL
1687287380,d69da27998e8835311331663419462eb,PennController,30,0,experiment,NULL,PennController,29,_Trial_,Start,1687287132804,615c7bc74171fb26befa6e03,615c7bc74171fb26befa6e03,27,square,filler,D,75,square65.jpg,square85.jpg,GoalB,NULL
1687287380,d69da27998e8835311331663419462eb,PennController,30,0,experiment,NULL,PennController,29,_Header_,Start,1687287132804,615c7bc74171fb26befa6e03,615c7bc74171fb26befa6e03,27,square,filler,D,75,square65.jpg,square85.jpg,GoalB,NULL
1687287380,d69da27998e8835311331663419462eb,PennController,30,0,experiment,NULL,PennController,29,_Header_,End,1687287132804,615c7bc74171fb26befa6e03,615c7bc74171fb26befa6e03,27,square,filler,D,75,square65.jpg,square85.jpg,GoalB,NULL
1687287380,d69da27998e8835311331663419462eb,PennController,30,0,experiment,NULL,Canvas,canvas6,Print,NA,1687287140482,615c7bc74171fb26befa6e03,615c7bc74171fb26befa6e03,27,square,filler,D,75,square65.jpg,square85.jpg,GoalB,NULL
1687287380,d69da27998e8835311331663419462eb,PennController,30,0,experiment,NULL,Video,progression,buffer,0.001493,1687287136319,615c7bc74171fb26befa6e03,615c7bc74171fb26befa6e03,27,square,filler,D,75,square65.jpg,square85.jpg,GoalB,NULL
1687287380,d69da27998e8835311331663419462eb,PennController,30,0,experiment,NULL,Selector,choice,Selection,option2,1687287144356,615c7bc74171fb26befa6e03,615c7bc74171fb26befa6e03,27,square,filler,D,75,square65.jpg,square85.jpg,GoalB,option2;option1
1687287380,d69da27998e8835311331663419462eb,PennController,30,0,experiment,NULL,PennController,29,_Trial_,End,1687287144356,615c7bc74171fb26befa6e03,615c7bc74171fb26befa6e03,27,square,filler,D,75,square65.jpg,square85.jpg,GoalB,NULL
1687287380,d69da27998e8835311331663419462eb,PennController,18,0,experiment,NULL,PennController,17,_Trial_,Start,1687287144357,615c7bc74171fb26befa6e03,615c7bc74171fb26befa6e03,15,zip,critical,D,75,zip65.jpg,zip85.jpg,high,NULL
1687287380,d69da27998e8835311331663419462eb,PennController,18,0,experiment,NULL,PennController,17,_Header_,Start,1687287144357,615c7bc74171fb26befa6e03,615c7bc74171fb26befa6e03,15,zip,critical,D,75,zip65.jpg,zip85.jpg,high,NULL
1687287380,d69da27998e8835311331663419462eb,PennController,18,0,experiment,NULL,PennController,17,_Header_,End,1687287144357,615c7bc74171fb26befa6e03,615c7bc74171fb26befa6e03,15,zip,critical,D,75,zip65.jpg,zip85.jpg,high,NULL
1687287380,d69da27998e8835311331663419462eb,PennController,18,0,experiment,NULL,Canvas,canvas6,Print,NA,1687287151238,615c7bc74171fb26befa6e03,615c7bc74171fb26befa6e03,15,zip,critical,D,75,zip65.jpg,zip85.jpg,high,NULL
1687287380,d69da27998e8835311331663419462eb,PennController,18,0,experiment,NULL,Video,progression,buffer,0.002028,1687287147872,615c7bc74171fb26befa6e03,615c7bc74171fb26befa6e03,15,zip,critical,D,75,zip65.jpg,zip85.jpg,high,NULL
1687287380,d69da27998e8835311331663419462eb,PennController,18,0,experiment,NULL,Selector,choice,Selection,option1,1687287173669,615c7bc74171fb26befa6e03,615c7bc74171fb26befa6e03,15,zip,critical,D,75,zip65.jpg,zip85.jpg,high,option1;option2
1687287380,d69da27998e8835311331663419462eb,PennController,18,0,experiment,NULL,PennController,17,_Trial_,End,1687287173670,615c7bc74171fb26befa6e03,615c7bc74171fb26befa6e03,15,zip,critical,D,75,zip65.jpg,zip85.jpg,high,NULL
1687287380,d69da27998e8835311331663419462eb,PennController,14,0,experiment,NULL,PennController,13,_Trial_,Start,1687287173671,615c7bc74171fb26befa6e03,615c7bc74171fb26befa6e03,11,beads,critical,D,50,beads40.jpg,beads60.jpg,high,NULL
1687287380,d69da27998e8835311331663419462eb,PennController,14,0,experiment,NULL,PennController,13,_Header_,Start,1687287173671,615c7bc74171fb26befa6e03,615c7bc74171fb26befa6e03,11,beads,critical,D,50,beads40.jpg,beads60.jpg,high,NULL
1687287380,d69da27998e8835311331663419462eb,PennController,14,0,experiment,NULL,PennController,13,_Header_,End,1687287173671,615c7bc74171fb26befa6e03,615c7bc74171fb26befa6e03,11,beads,critical,D,50,beads40.jpg,beads60.jpg,high,NULL
1687287380,d69da27998e8835311331663419462eb,PennController,14,0,experiment,NULL,Canvas,canvas6,Print,NA,1687287180348,615c7bc74171fb26befa6e03,615c7bc74171fb26befa6e03,11,beads,critical,D,50,beads40.jpg,beads60.jpg,high,NULL
1687287380,d69da27998e8835311331663419462eb,PennController,14,0,experiment,NULL,Video,progression,buffer,0.001453,1687287177185,615c7bc74171fb26befa6e03,615c7bc74171fb26befa6e03,11,beads,critical,D,50,beads40.jpg,beads60.jpg,high,NULL
1687287380,d69da27998e8835311331663419462eb,PennController,14,0,experiment,NULL,Selector,choice,Selection,option2,1687287182318,615c7bc74171fb26befa6e03,615c7bc74171fb26befa6e03,11,beads,critical,D,50,beads40.jpg,beads60.jpg,high,option1;option2
1687287380,d69da27998e8835311331663419462eb,PennController,14,0,experiment,NULL,PennController,13,_Trial_,End,1687287182319,615c7bc74171fb26befa6e03,615c7bc74171fb26befa6e03,11,beads,critical,D,50,beads40.jpg,beads60.jpg,high,NULL
1687287380,d69da27998e8835311331663419462eb,PennController,32,0,experiment,NULL,PennController,31,_Trial_,Start,1687287182320,615c7bc74171fb26befa6e03,615c7bc74171fb26befa6e03,29,frog,filler,D,50,frog40.jpg,frog60.jpg,GoalB,NULL
1687287380,d69da27998e8835311331663419462eb,PennController,32,0,experiment,NULL,PennController,31,_Header_,Start,1687287182320,615c7bc74171fb26befa6e03,615c7bc74171fb26befa6e03,29,frog,filler,D,50,frog40.jpg,frog60.jpg,GoalB,NULL
1687287380,d69da27998e8835311331663419462eb,PennController,32,0,experiment,NULL,PennController,31,_Header_,End,1687287182320,615c7bc74171fb26befa6e03,615c7bc74171fb26befa6e03,29,frog,filler,D,50,frog40.jpg,frog60.jpg,GoalB,NULL
1687287380,d69da27998e8835311331663419462eb,PennController,32,0,experiment,NULL,Canvas,canvas6,Print,NA,1687287188998,615c7bc74171fb26befa6e03,615c7bc74171fb26befa6e03,29,frog,filler,D,50,frog40.jpg,frog60.jpg,GoalB,NULL
1687287380,d69da27998e8835311331663419462eb,PennController,32,0,experiment,NULL,Video,progression,buffer,0.001504,1687287185837,615c7bc74171fb26befa6e03,615c7bc74171fb26befa6e03,29,frog,filler,D,50,frog40.jpg,frog60.jpg,GoalB,NULL
1687287380,d69da27998e8835311331663419462eb,PennController,32,0,experiment,NULL,Selector,choice,Selection,option1,1687287191569,615c7bc74171fb26befa6e03,615c7bc74171fb26befa6e03,29,frog,filler,D,50,frog40.jpg,frog60.jpg,GoalB,option1;option2
1687287380,d69da27998e8835311331663419462eb,PennController,32,0,experiment,NULL,PennController,31,_Trial_,End,1687287191570,615c7bc74171fb26befa6e03,615c7bc74171fb26befa6e03,29,frog,filler,D,50,frog40.jpg,frog60.jpg,GoalB,NULL
1687287380,d69da27998e8835311331663419462eb,PennController,22,0,experiment,NULL,PennController,21,_Trial_,Start,1687287191570,615c7bc74171fb26befa6e03,615c7bc74171fb26befa6e03,19,cup,filler,D,25,cup15.jpg,cup35.jpg,GoalB,NULL
1687287380,d69da27998e8835311331663419462eb,PennController,22,0,experiment,NULL,PennController,21,_Header_,Start,1687287191570,615c7bc74171fb26befa6e03,615c7bc74171fb26befa6e03,19,cup,filler,D,25,cup15.jpg,cup35.jpg,GoalB,NULL
1687287380,d69da27998e8835311331663419462eb,PennController,22,0,experiment,NULL,PennController,21,_Header_,End,1687287191570,615c7bc74171fb26befa6e03,615c7bc74171fb26befa6e03,19,cup,filler,D,25,cup15.jpg,cup35.jpg,GoalB,NULL
1687287380,d69da27998e8835311331663419462eb,PennController,22,0,experiment,NULL,Canvas,canvas6,Print,NA,1687287197235,615c7bc74171fb26befa6e03,615c7bc74171fb26befa6e03,19,cup,filler,D,25,cup15.jpg,cup35.jpg,GoalB,NULL
1687287380,d69da27998e8835311331663419462eb,PennController,22,0,experiment,NULL,Video,progression,buffer,0.001555,1687287195080,615c7bc74171fb26befa6e03,615c7bc74171fb26befa6e03,19,cup,filler,D,25,cup15.jpg,cup35.jpg,GoalB,NULL
1687287380,d69da27998e8835311331663419462eb,PennController,22,0,experiment,NULL,Selector,choice,Selection,option2,1687287199372,615c7bc74171fb26befa6e03,615c7bc74171fb26befa6e03,19,cup,filler,D,25,cup15.jpg,cup35.jpg,GoalB,option1;option2
1687287380,d69da27998e8835311331663419462eb,PennController,22,0,experiment,NULL,PennController,21,_Trial_,End,1687287199373,615c7bc74171fb26befa6e03,615c7bc74171fb26befa6e03,19,cup,filler,D,25,cup15.jpg,cup35.jpg,GoalB,NULL
1687287380,d69da27998e8835311331663419462eb,PennController,9,0,experiment,NULL,PennController,8,_Trial_,Start,1687287199374,615c7bc74171fb26befa6e03,615c7bc74171fb26befa6e03,6,flower,critical,D,75,flower65.jpg,flower85.jpg,high,NULL
1687287380,d69da27998e8835311331663419462eb,PennController,9,0,experiment,NULL,PennController,8,_Header_,Start,1687287199374,615c7bc74171fb26befa6e03,615c7bc74171fb26befa6e03,6,flower,critical,D,75,flower65.jpg,flower85.jpg,high,NULL
1687287380,d69da27998e8835311331663419462eb,PennController,9,0,experiment,NULL,PennController,8,_Header_,End,1687287199374,615c7bc74171fb26befa6e03,615c7bc74171fb26befa6e03,6,flower,critical,D,75,flower65.jpg,flower85.jpg,high,NULL
1687287380,d69da27998e8835311331663419462eb,PennController,9,0,experiment,NULL,Canvas,canvas6,Print,NA,1687287207038,615c7bc74171fb26befa6e03,615c7bc74171fb26befa6e03,6,flower,critical,D,75,flower65.jpg,flower85.jpg,high,NULL
1687287380,d69da27998e8835311331663419462eb,PennController,9,0,experiment,NULL,Video,progression,buffer,0.001443,1687287202884,615c7bc74171fb26befa6e03,615c7bc74171fb26befa6e03,6,flower,critical,D,75,flower65.jpg,flower85.jpg,high,NULL
1687287380,d69da27998e8835311331663419462eb,PennController,9,0,experiment,NULL,Selector,choice,Selection,option1,1687287209206,615c7bc74171fb26befa6e03,615c7bc74171fb26befa6e03,6,flower,critical,D,75,flower65.jpg,flower85.jpg,high,option1;option2
1687287380,d69da27998e8835311331663419462eb,PennController,9,0,experiment,NULL,PennController,8,_Trial_,End,1687287209206,615c7bc74171fb26befa6e03,615c7bc74171fb26befa6e03,6,flower,critical,D,75,flower65.jpg,flower85.jpg,high,NULL
1687287380,d69da27998e8835311331663419462eb,PennController,16,0,experiment,NULL,PennController,15,_Trial_,Start,1687287209207,615c7bc74171fb26befa6e03,615c7bc74171fb26befa6e03,13,mix,critical,D,25,mix15.jpg,mix35.jpg,high,NULL
1687287380,d69da27998e8835311331663419462eb,PennController,16,0,experiment,NULL,PennController,15,_Header_,Start,1687287209207,615c7bc74171fb26befa6e03,615c7bc74171fb26befa6e03,13,mix,critical,D,25,mix15.jpg,mix35.jpg,high,NULL
1687287380,d69da27998e8835311331663419462eb,PennController,16,0,experiment,NULL,PennController,15,_Header_,End,1687287209207,615c7bc74171fb26befa6e03,615c7bc74171fb26befa6e03,13,mix,critical,D,25,mix15.jpg,mix35.jpg,high,NULL
1687287380,d69da27998e8835311331663419462eb,PennController,16,0,experiment,NULL,Canvas,canvas6,Print,NA,1687287214892,615c7bc74171fb26befa6e03,615c7bc74171fb26befa6e03,13,mix,critical,D,25,mix15.jpg,mix35.jpg,high,NULL
1687287380,d69da27998e8835311331663419462eb,PennController,16,0,experiment,NULL,Video,progression,buffer,0.001437,1687287212722,615c7bc74171fb26befa6e03,615c7bc74171fb26befa6e03,13,mix,critical,D,25,mix15.jpg,mix35.jpg,high,NULL
1687287380,d69da27998e8835311331663419462eb,PennController,16,0,experiment,NULL,Selector,choice,Selection,option1,1687287216884,615c7bc74171fb26befa6e03,615c7bc74171fb26befa6e03,13,mix,critical,D,25,mix15.jpg,mix35.jpg,high,option2;option1
1687287380,d69da27998e8835311331663419462eb,PennController,16,0,experiment,NULL,PennController,15,_Trial_,End,1687287216884,615c7bc74171fb26befa6e03,615c7bc74171fb26befa6e03,13,mix,critical,D,25,mix15.jpg,mix35.jpg,high,NULL
1687287380,d69da27998e8835311331663419462eb,PennController,5,0,experiment,NULL,PennController,4,_Trial_,Start,1687287216886,615c7bc74171fb26befa6e03,615c7bc74171fb26befa6e03,2,door,critical,D,50,door40.jpg,door60.jpg,high,NULL
1687287380,d69da27998e8835311331663419462eb,PennController,5,0,experiment,NULL,PennController,4,_Header_,Start,1687287216886,615c7bc74171fb26befa6e03,615c7bc74171fb26befa6e03,2,door,critical,D,50,door40.jpg,door60.jpg,high,NULL
1687287380,d69da27998e8835311331663419462eb,PennController,5,0,experiment,NULL,PennController,4,_Header_,End,1687287216886,615c7bc74171fb26befa6e03,615c7bc74171fb26befa6e03,2,door,critical,D,50,door40.jpg,door60.jpg,high,NULL
1687287380,d69da27998e8835311331663419462eb,PennController,5,0,experiment,NULL,Canvas,canvas6,Print,NA,1687287223563,615c7bc74171fb26befa6e03,615c7bc74171fb26befa6e03,2,door,critical,D,50,door40.jpg,door60.jpg,high,NULL
1687287380,d69da27998e8835311331663419462eb,PennController,5,0,experiment,NULL,Video,progression,buffer,0.001453,1687287220398,615c7bc74171fb26befa6e03,615c7bc74171fb26befa6e03,2,door,critical,D,50,door40.jpg,door60.jpg,high,NULL
1687287380,d69da27998e8835311331663419462eb,PennController,5,0,experiment,NULL,Selector,choice,Selection,option2,1687287225157,615c7bc74171fb26befa6e03,615c7bc74171fb26befa6e03,2,door,critical,D,50,door40.jpg,door60.jpg,high,option2;option1
1687287380,d69da27998e8835311331663419462eb,PennController,5,0,experiment,NULL,PennController,4,_Trial_,End,1687287225158,615c7bc74171fb26befa6e03,615c7bc74171fb26befa6e03,2,door,critical,D,50,door40.jpg,door60.jpg,high,NULL
1687287380,d69da27998e8835311331663419462eb,PennController,6,0,experiment,NULL,PennController,5,_Trial_,Start,1687287225158,615c7bc74171fb26befa6e03,615c7bc74171fb26befa6e03,3,clean,critical,D,75,clean65.jpg,clean85.jpg,high,NULL
1687287380,d69da27998e8835311331663419462eb,PennController,6,0,experiment,NULL,PennController,5,_Header_,Start,1687287225158,615c7bc74171fb26befa6e03,615c7bc74171fb26befa6e03,3,clean,critical,D,75,clean65.jpg,clean85.jpg,high,NULL
1687287380,d69da27998e8835311331663419462eb,PennController,6,0,experiment,NULL,PennController,5,_Header_,End,1687287225158,615c7bc74171fb26befa6e03,615c7bc74171fb26befa6e03,3,clean,critical,D,75,clean65.jpg,clean85.jpg,high,NULL
1687287380,d69da27998e8835311331663419462eb,PennController,6,0,experiment,NULL,Canvas,canvas6,Print,NA,1687287232830,615c7bc74171fb26befa6e03,615c7bc74171fb26befa6e03,3,clean,critical,D,75,clean65.jpg,clean85.jpg,high,NULL
1687287380,d69da27998e8835311331663419462eb,PennController,6,0,experiment,NULL,Video,progression,buffer,0.002241,1687287228676,615c7bc74171fb26befa6e03,615c7bc74171fb26befa6e03,3,clean,critical,D,75,clean65.jpg,clean85.jpg,high,NULL
1687287380,d69da27998e8835311331663419462eb,PennController,6,0,experiment,NULL,Selector,choice,Selection,option2,1687287234149,615c7bc74171fb26befa6e03,615c7bc74171fb26befa6e03,3,clean,critical,D,75,clean65.jpg,clean85.jpg,high,option2;option1
1687287380,d69da27998e8835311331663419462eb,PennController,6,0,experiment,NULL,PennController,5,_Trial_,End,1687287234150,615c7bc74171fb26befa6e03,615c7bc74171fb26befa6e03,3,clean,critical,D,75,clean65.jpg,clean85.jpg,high,NULL
1687287380,d69da27998e8835311331663419462eb,PennController,10,0,experiment,NULL,PennController,9,_Trial_,Start,1687287234150,615c7bc74171fb26befa6e03,615c7bc74171fb26befa6e03,7,stack,critical,D,25,stack15.jpg,stack35.jpg,high,NULL
1687287380,d69da27998e8835311331663419462eb,PennController,10,0,experiment,NULL,PennController,9,_Header_,Start,1687287234150,615c7bc74171fb26befa6e03,615c7bc74171fb26befa6e03,7,stack,critical,D,25,stack15.jpg,stack35.jpg,high,NULL
1687287380,d69da27998e8835311331663419462eb,PennController,10,0,experiment,NULL,PennController,9,_Header_,End,1687287234150,615c7bc74171fb26befa6e03,615c7bc74171fb26befa6e03,7,stack,critical,D,25,stack15.jpg,stack35.jpg,high,NULL
1687287380,d69da27998e8835311331663419462eb,PennController,10,0,experiment,NULL,Canvas,canvas6,Print,NA,1687287239799,615c7bc74171fb26befa6e03,615c7bc74171fb26befa6e03,7,stack,critical,D,25,stack15.jpg,stack35.jpg,high,NULL
1687287380,d69da27998e8835311331663419462eb,PennController,10,0,experiment,NULL,Video,progression,buffer,0.0014,1687287237660,615c7bc74171fb26befa6e03,615c7bc74171fb26befa6e03,7,stack,critical,D,25,stack15.jpg,stack35.jpg,high,NULL
1687287380,d69da27998e8835311331663419462eb,PennController,10,0,experiment,NULL,Selector,choice,Selection,option1,1687287242843,615c7bc74171fb26befa6e03,615c7bc74171fb26befa6e03,7,stack,critical,D,25,stack15.jpg,stack35.jpg,high,option1;option2
1687287380,d69da27998e8835311331663419462eb,PennController,10,0,experiment,NULL,PennController,9,_Trial_,End,1687287242843,615c7bc74171fb26befa6e03,615c7bc74171fb26befa6e03,7,stack,critical,D,25,stack15.jpg,stack35.jpg,high,NULL
1687287380,d69da27998e8835311331663419462eb,PennController,24,0,experiment,NULL,PennController,23,_Trial_,Start,1687287242844,615c7bc74171fb26befa6e03,615c7bc74171fb26befa6e03,21,visit,filler,D,75,visit65.jpg,visit85.jpg,GoalB,NULL
1687287380,d69da27998e8835311331663419462eb,PennController,24,0,experiment,NULL,PennController,23,_Header_,Start,1687287242844,615c7bc74171fb26befa6e03,615c7bc74171fb26befa6e03,21,visit,filler,D,75,visit65.jpg,visit85.jpg,GoalB,NULL
1687287380,d69da27998e8835311331663419462eb,PennController,24,0,experiment,NULL,PennController,23,_Header_,End,1687287242844,615c7bc74171fb26befa6e03,615c7bc74171fb26befa6e03,21,visit,filler,D,75,visit65.jpg,visit85.jpg,GoalB,NULL
1687287380,d69da27998e8835311331663419462eb,PennController,24,0,experiment,NULL,Canvas,canvas6,Print,NA,1687287250508,615c7bc74171fb26befa6e03,615c7bc74171fb26befa6e03,21,visit,filler,D,75,visit65.jpg,visit85.jpg,GoalB,NULL
1687287380,d69da27998e8835311331663419462eb,PennController,24,0,experiment,NULL,Video,progression,buffer,0.002052,1687287246353,615c7bc74171fb26befa6e03,615c7bc74171fb26befa6e03,21,visit,filler,D,75,visit65.jpg,visit85.jpg,GoalB,NULL
1687287380,d69da27998e8835311331663419462eb,PennController,24,0,experiment,NULL,Selector,choice,Selection,option2,1687287253267,615c7bc74171fb26befa6e03,615c7bc74171fb26befa6e03,21,visit,filler,D,75,visit65.jpg,visit85.jpg,GoalB,option1;option2
1687287380,d69da27998e8835311331663419462eb,PennController,24,0,experiment,NULL,PennController,23,_Trial_,End,1687287253268,615c7bc74171fb26befa6e03,615c7bc74171fb26befa6e03,21,visit,filler,D,75,visit65.jpg,visit85.jpg,GoalB,NULL
1687287380,d69da27998e8835311331663419462eb,PennController,4,0,experiment,NULL,PennController,3,_Trial_,Start,1687287253269,615c7bc74171fb26befa6e03,615c7bc74171fb26befa6e03,1,vase,critical,D,25,vase15.jpg,vase35.jpg,high,NULL
1687287380,d69da27998e8835311331663419462eb,PennController,4,0,experiment,NULL,PennController,3,_Header_,Start,1687287253269,615c7bc74171fb26befa6e03,615c7bc74171fb26befa6e03,1,vase,critical,D,25,vase15.jpg,vase35.jpg,high,NULL
1687287380,d69da27998e8835311331663419462eb,PennController,4,0,experiment,NULL,PennController,3,_Header_,End,1687287253269,615c7bc74171fb26befa6e03,615c7bc74171fb26befa6e03,1,vase,critical,D,25,vase15.jpg,vase35.jpg,high,NULL
1687287380,d69da27998e8835311331663419462eb,PennController,4,0,experiment,NULL,Canvas,canvas6,Print,NA,1687287258941,615c7bc74171fb26befa6e03,615c7bc74171fb26befa6e03,1,vase,critical,D,25,vase15.jpg,vase35.jpg,high,NULL
1687287380,d69da27998e8835311331663419462eb,PennController,4,0,experiment,NULL,Video,progression,buffer,0.001477,1687287256781,615c7bc74171fb26befa6e03,615c7bc74171fb26befa6e03,1,vase,critical,D,25,vase15.jpg,vase35.jpg,high,NULL
1687287380,d69da27998e8835311331663419462eb,PennController,4,0,experiment,NULL,Selector,choice,Selection,option1,1687287261983,615c7bc74171fb26befa6e03,615c7bc74171fb26befa6e03,1,vase,critical,D,25,vase15.jpg,vase35.jpg,high,option2;option1
1687287380,d69da27998e8835311331663419462eb,PennController,4,0,experiment,NULL,PennController,3,_Trial_,End,1687287261984,615c7bc74171fb26befa6e03,615c7bc74171fb26befa6e03,1,vase,critical,D,25,vase15.jpg,vase35.jpg,high,NULL
1687287380,d69da27998e8835311331663419462eb,PennController,28,0,experiment,NULL,PennController,27,_Trial_,Start,1687287261985,615c7bc74171fb26befa6e03,615c7bc74171fb26befa6e03,25,house,filler,D,25,house15.jpg,house35.jpg,GoalB,NULL
1687287380,d69da27998e8835311331663419462eb,PennController,28,0,experiment,NULL,PennController,27,_Header_,Start,1687287261985,615c7bc74171fb26befa6e03,615c7bc74171fb26befa6e03,25,house,filler,D,25,house15.jpg,house35.jpg,GoalB,NULL
1687287380,d69da27998e8835311331663419462eb,PennController,28,0,experiment,NULL,PennController,27,_Header_,End,1687287261985,615c7bc74171fb26befa6e03,615c7bc74171fb26befa6e03,25,house,filler,D,25,house15.jpg,house35.jpg,GoalB,NULL
1687287380,d69da27998e8835311331663419462eb,PennController,28,0,experiment,NULL,Canvas,canvas6,Print,NA,1687287267660,615c7bc74171fb26befa6e03,615c7bc74171fb26befa6e03,25,house,filler,D,25,house15.jpg,house35.jpg,GoalB,NULL
1687287380,d69da27998e8835311331663419462eb,PennController,28,0,experiment,NULL,Video,progression,buffer,0.001504,1687287265496,615c7bc74171fb26befa6e03,615c7bc74171fb26befa6e03,25,house,filler,D,25,house15.jpg,house35.jpg,GoalB,NULL
1687287380,d69da27998e8835311331663419462eb,PennController,28,0,experiment,NULL,Selector,choice,Selection,option1,1687287270500,615c7bc74171fb26befa6e03,615c7bc74171fb26befa6e03,25,house,filler,D,25,house15.jpg,house35.jpg,GoalB,option1;option2
1687287380,d69da27998e8835311331663419462eb,PennController,28,0,experiment,NULL,PennController,27,_Trial_,End,1687287270501,615c7bc74171fb26befa6e03,615c7bc74171fb26befa6e03,25,house,filler,D,25,house15.jpg,house35.jpg,GoalB,NULL
1687287380,d69da27998e8835311331663419462eb,PennController,26,0,experiment,NULL,PennController,25,_Trial_,Start,1687287270502,615c7bc74171fb26befa6e03,615c7bc74171fb26befa6e03,23,color,filler,D,50,color40.jpg,color60.jpg,GoalB,NULL
1687287380,d69da27998e8835311331663419462eb,PennController,26,0,experiment,NULL,PennController,25,_Header_,Start,1687287270502,615c7bc74171fb26befa6e03,615c7bc74171fb26befa6e03,23,color,filler,D,50,color40.jpg,color60.jpg,GoalB,NULL
1687287380,d69da27998e8835311331663419462eb,PennController,26,0,experiment,NULL,PennController,25,_Header_,End,1687287270502,615c7bc74171fb26befa6e03,615c7bc74171fb26befa6e03,23,color,filler,D,50,color40.jpg,color60.jpg,GoalB,NULL
1687287380,d69da27998e8835311331663419462eb,PennController,26,0,experiment,NULL,Canvas,canvas6,Print,NA,1687287277180,615c7bc74171fb26befa6e03,615c7bc74171fb26befa6e03,23,color,filler,D,50,color40.jpg,color60.jpg,GoalB,NULL
1687287380,d69da27998e8835311331663419462eb,PennController,26,0,experiment,NULL,Video,progression,buffer,0.00143,1687287274015,615c7bc74171fb26befa6e03,615c7bc74171fb26befa6e03,23,color,filler,D,50,color40.jpg,color60.jpg,GoalB,NULL
1687287380,d69da27998e8835311331663419462eb,PennController,26,0,experiment,NULL,Selector,choice,Selection,option1,1687287280235,615c7bc74171fb26befa6e03,615c7bc74171fb26befa6e03,23,color,filler,D,50,color40.jpg,color60.jpg,GoalB,option1;option2
1687287380,d69da27998e8835311331663419462eb,PennController,26,0,experiment,NULL,PennController,25,_Trial_,End,1687287280236,615c7bc74171fb26befa6e03,615c7bc74171fb26befa6e03,23,color,filler,D,50,color40.jpg,color60.jpg,GoalB,NULL
1687287380,d69da27998e8835311331663419462eb,PennController,29,0,experiment,NULL,PennController,28,_Trial_,Start,1687287280236,615c7bc74171fb26befa6e03,615c7bc74171fb26befa6e03,26,sandwich,filler,D,50,sandwich40.jpg,sandwich60.jpg,GoalA,NULL
1687287380,d69da27998e8835311331663419462eb,PennController,29,0,experiment,NULL,PennController,28,_Header_,Start,1687287280236,615c7bc74171fb26befa6e03,615c7bc74171fb26befa6e03,26,sandwich,filler,D,50,sandwich40.jpg,sandwich60.jpg,GoalA,NULL
1687287380,d69da27998e8835311331663419462eb,PennController,29,0,experiment,NULL,PennController,28,_Header_,End,1687287280236,615c7bc74171fb26befa6e03,615c7bc74171fb26befa6e03,26,sandwich,filler,D,50,sandwich40.jpg,sandwich60.jpg,GoalA,NULL
1687287380,d69da27998e8835311331663419462eb,PennController,29,0,experiment,NULL,Canvas,canvas6,Print,NA,1687287286917,615c7bc74171fb26befa6e03,615c7bc74171fb26befa6e03,26,sandwich,filler,D,50,sandwich40.jpg,sandwich60.jpg,GoalA,NULL
1687287380,d69da27998e8835311331663419462eb,PennController,29,0,experiment,NULL,Video,progression,buffer,0.002154,1687287283747,615c7bc74171fb26befa6e03,615c7bc74171fb26befa6e03,26,sandwich,filler,D,50,sandwich40.jpg,sandwich60.jpg,GoalA,NULL
1687287380,d69da27998e8835311331663419462eb,PennController,29,0,experiment,NULL,Selector,choice,Selection,option1,1687287290026,615c7bc74171fb26befa6e03,615c7bc74171fb26befa6e03,26,sandwich,filler,D,50,sandwich40.jpg,sandwich60.jpg,GoalA,option1;option2
1687287380,d69da27998e8835311331663419462eb,PennController,29,0,experiment,NULL,PennController,28,_Trial_,End,1687287290027,615c7bc74171fb26befa6e03,615c7bc74171fb26befa6e03,26,sandwich,filler,D,50,sandwich40.jpg,sandwich60.jpg,GoalA,NULL
1687287380,d69da27998e8835311331663419462eb,PennController,31,0,experiment,NULL,PennController,30,_Trial_,Start,1687287290027,615c7bc74171fb26befa6e03,615c7bc74171fb26befa6e03,28,sort,filler,D,25,sort15.jpg,sort35.jpg,GoalA,NULL
1687287380,d69da27998e8835311331663419462eb,PennController,31,0,experiment,NULL,PennController,30,_Header_,Start,1687287290027,615c7bc74171fb26befa6e03,615c7bc74171fb26befa6e03,28,sort,filler,D,25,sort15.jpg,sort35.jpg,GoalA,NULL
1687287380,d69da27998e8835311331663419462eb,PennController,31,0,experiment,NULL,PennController,30,_Header_,End,1687287290027,615c7bc74171fb26befa6e03,615c7bc74171fb26befa6e03,28,sort,filler,D,25,sort15.jpg,sort35.jpg,GoalA,NULL
1687287380,d69da27998e8835311331663419462eb,PennController,31,0,experiment,NULL,Canvas,canvas6,Print,NA,1687287295704,615c7bc74171fb26befa6e03,615c7bc74171fb26befa6e03,28,sort,filler,D,25,sort15.jpg,sort35.jpg,GoalA,NULL
1687287380,d69da27998e8835311331663419462eb,PennController,31,0,experiment,NULL,Video,progression,buffer,0.002127,1687287293541,615c7bc74171fb26befa6e03,615c7bc74171fb26befa6e03,28,sort,filler,D,25,sort15.jpg,sort35.jpg,GoalA,NULL
1687287380,d69da27998e8835311331663419462eb,PennController,31,0,experiment,NULL,Selector,choice,Selection,option1,1687287298087,615c7bc74171fb26befa6e03,615c7bc74171fb26befa6e03,28,sort,filler,D,25,sort15.jpg,sort35.jpg,GoalA,option1;option2
1687287380,d69da27998e8835311331663419462eb,PennController,31,0,experiment,NULL,PennController,30,_Trial_,End,1687287298087,615c7bc74171fb26befa6e03,615c7bc74171fb26befa6e03,28,sort,filler,D,25,sort15.jpg,sort35.jpg,GoalA,NULL
1687287380,d69da27998e8835311331663419462eb,PennController,27,0,experiment,NULL,PennController,26,_Trial_,Start,1687287298088,615c7bc74171fb26befa6e03,615c7bc74171fb26befa6e03,24,match,filler,D,75,match65.jpg,match85.jpg,GoalA,NULL
1687287380,d69da27998e8835311331663419462eb,PennController,27,0,experiment,NULL,PennController,26,_Header_,Start,1687287298088,615c7bc74171fb26befa6e03,615c7bc74171fb26befa6e03,24,match,filler,D,75,match65.jpg,match85.jpg,GoalA,NULL
1687287380,d69da27998e8835311331663419462eb,PennController,27,0,experiment,NULL,PennController,26,_Header_,End,1687287298088,615c7bc74171fb26befa6e03,615c7bc74171fb26befa6e03,24,match,filler,D,75,match65.jpg,match85.jpg,GoalA,NULL
1687287380,d69da27998e8835311331663419462eb,PennController,27,0,experiment,NULL,Canvas,canvas6,Print,NA,1687287305771,615c7bc74171fb26befa6e03,615c7bc74171fb26befa6e03,24,match,filler,D,75,match65.jpg,match85.jpg,GoalA,NULL
1687287380,d69da27998e8835311331663419462eb,PennController,27,0,experiment,NULL,Video,progression,buffer,0.002243,1687287301604,615c7bc74171fb26befa6e03,615c7bc74171fb26befa6e03,24,match,filler,D,75,match65.jpg,match85.jpg,GoalA,NULL
1687287380,d69da27998e8835311331663419462eb,PennController,27,0,experiment,NULL,Selector,choice,Selection,option2,1687287308281,615c7bc74171fb26befa6e03,615c7bc74171fb26befa6e03,24,match,filler,D,75,match65.jpg,match85.jpg,GoalA,option1;option2
1687287380,d69da27998e8835311331663419462eb,PennController,27,0,experiment,NULL,PennController,26,_Trial_,End,1687287308282,615c7bc74171fb26befa6e03,615c7bc74171fb26befa6e03,24,match,filler,D,75,match65.jpg,match85.jpg,GoalA,NULL
1687287380,d69da27998e8835311331663419462eb,PennController,8,0,experiment,NULL,PennController,7,_Trial_,Start,1687287308283,615c7bc74171fb26befa6e03,615c7bc74171fb26befa6e03,5,book,critical,D,50,book40.jpg,book60.jpg,high,NULL
1687287380,d69da27998e8835311331663419462eb,PennController,8,0,experiment,NULL,PennController,7,_Header_,Start,1687287308283,615c7bc74171fb26befa6e03,615c7bc74171fb26befa6e03,5,book,critical,D,50,book40.jpg,book60.jpg,high,NULL
1687287380,d69da27998e8835311331663419462eb,PennController,8,0,experiment,NULL,PennController,7,_Header_,End,1687287308283,615c7bc74171fb26befa6e03,615c7bc74171fb26befa6e03,5,book,critical,D,50,book40.jpg,book60.jpg,high,NULL
1687287380,d69da27998e8835311331663419462eb,PennController,8,0,experiment,NULL,Canvas,canvas6,Print,NA,1687287314960,615c7bc74171fb26befa6e03,615c7bc74171fb26befa6e03,5,book,critical,D,50,book40.jpg,book60.jpg,high,NULL
1687287380,d69da27998e8835311331663419462eb,PennController,8,0,experiment,NULL,Video,progression,buffer,0.001427,1687287311795,615c7bc74171fb26befa6e03,615c7bc74171fb26befa6e03,5,book,critical,D,50,book40.jpg,book60.jpg,high,NULL
1687287380,d69da27998e8835311331663419462eb,PennController,8,0,experiment,NULL,Selector,choice,Selection,option1,1687287319378,615c7bc74171fb26befa6e03,615c7bc74171fb26befa6e03,5,book,critical,D,50,book40.jpg,book60.jpg,high,option2;option1
1687287380,d69da27998e8835311331663419462eb,PennController,8,0,experiment,NULL,PennController,7,_Trial_,End,1687287319379,615c7bc74171fb26befa6e03,615c7bc74171fb26befa6e03,5,book,critical,D,50,book40.jpg,book60.jpg,high,NULL
1687287380,d69da27998e8835311331663419462eb,PennController,23,0,experiment,NULL,PennController,22,_Trial_,Start,1687287319380,615c7bc74171fb26befa6e03,615c7bc74171fb26befa6e03,20,cat,filler,D,50,cat40.jpg,cat60.jpg,GoalA,NULL
1687287380,d69da27998e8835311331663419462eb,PennController,23,0,experiment,NULL,PennController,22,_Header_,Start,1687287319380,615c7bc74171fb26befa6e03,615c7bc74171fb26befa6e03,20,cat,filler,D,50,cat40.jpg,cat60.jpg,GoalA,NULL
1687287380,d69da27998e8835311331663419462eb,PennController,23,0,experiment,NULL,PennController,22,_Header_,End,1687287319380,615c7bc74171fb26befa6e03,615c7bc74171fb26befa6e03,20,cat,filler,D,50,cat40.jpg,cat60.jpg,GoalA,NULL
1687287380,d69da27998e8835311331663419462eb,PennController,23,0,experiment,NULL,Canvas,canvas6,Print,NA,1687287326047,615c7bc74171fb26befa6e03,615c7bc74171fb26befa6e03,20,cat,filler,D,50,cat40.jpg,cat60.jpg,GoalA,NULL
1687287380,d69da27998e8835311331663419462eb,PennController,23,0,experiment,NULL,Video,progression,buffer,0.001428,1687287322890,615c7bc74171fb26befa6e03,615c7bc74171fb26befa6e03,20,cat,filler,D,50,cat40.jpg,cat60.jpg,GoalA,NULL
1687287380,d69da27998e8835311331663419462eb,PennController,23,0,experiment,NULL,Selector,choice,Selection,option2,1687287327592,615c7bc74171fb26befa6e03,615c7bc74171fb26befa6e03,20,cat,filler,D,50,cat40.jpg,cat60.jpg,GoalA,option2;option1
1687287380,d69da27998e8835311331663419462eb,PennController,23,0,experiment,NULL,PennController,22,_Trial_,End,1687287327593,615c7bc74171fb26befa6e03,615c7bc74171fb26befa6e03,20,cat,filler,D,50,cat40.jpg,cat60.jpg,GoalA,NULL
1687287380,d69da27998e8835311331663419462eb,PennController,15,0,experiment,NULL,PennController,14,_Trial_,Start,1687287327594,615c7bc74171fb26befa6e03,615c7bc74171fb26befa6e03,12,erase,critical,D,75,erase66.jpg,erase84.jpg,high,NULL
1687287380,d69da27998e8835311331663419462eb,PennController,15,0,experiment,NULL,PennController,14,_Header_,Start,1687287327594,615c7bc74171fb26befa6e03,615c7bc74171fb26befa6e03,12,erase,critical,D,75,erase66.jpg,erase84.jpg,high,NULL
1687287380,d69da27998e8835311331663419462eb,PennController,15,0,experiment,NULL,PennController,14,_Header_,End,1687287327594,615c7bc74171fb26befa6e03,615c7bc74171fb26befa6e03,12,erase,critical,D,75,erase66.jpg,erase84.jpg,high,NULL
1687287380,d69da27998e8835311331663419462eb,PennController,15,0,experiment,NULL,Canvas,canvas6,Print,NA,1687287337267,615c7bc74171fb26befa6e03,615c7bc74171fb26befa6e03,12,erase,critical,D,75,erase66.jpg,erase84.jpg,high,NULL
1687287380,d69da27998e8835311331663419462eb,PennController,15,0,experiment,NULL,Video,progression,buffer,0.001445,1687287331108,615c7bc74171fb26befa6e03,615c7bc74171fb26befa6e03,12,erase,critical,D,75,erase66.jpg,erase84.jpg,high,NULL
1687287380,d69da27998e8835311331663419462eb,PennController,15,0,experiment,NULL,Selector,choice,Selection,option2,1687287339098,615c7bc74171fb26befa6e03,615c7bc74171fb26befa6e03,12,erase,critical,D,75,erase66.jpg,erase84.jpg,high,option1;option2
1687287380,d69da27998e8835311331663419462eb,PennController,15,0,experiment,NULL,PennController,14,_Trial_,End,1687287339099,615c7bc74171fb26befa6e03,615c7bc74171fb26befa6e03,12,erase,critical,D,75,erase66.jpg,erase84.jpg,high,NULL
1687287380,d69da27998e8835311331663419462eb,PennController,25,0,experiment,NULL,PennController,24,_Trial_,Start,1687287339099,615c7bc74171fb26befa6e03,615c7bc74171fb26befa6e03,22,wall,filler,D,25,wall15.jpg,wall35.jpg,GoalA,NULL
1687287380,d69da27998e8835311331663419462eb,PennController,25,0,experiment,NULL,PennController,24,_Header_,Start,1687287339099,615c7bc74171fb26befa6e03,615c7bc74171fb26befa6e03,22,wall,filler,D,25,wall15.jpg,wall35.jpg,GoalA,NULL
1687287380,d69da27998e8835311331663419462eb,PennController,25,0,experiment,NULL,PennController,24,_Header_,End,1687287339099,615c7bc74171fb26befa6e03,615c7bc74171fb26befa6e03,22,wall,filler,D,25,wall15.jpg,wall35.jpg,GoalA,NULL
1687287380,d69da27998e8835311331663419462eb,PennController,25,0,experiment,NULL,Canvas,canvas6,Print,NA,1687287344770,615c7bc74171fb26befa6e03,615c7bc74171fb26befa6e03,22,wall,filler,D,25,wall15.jpg,wall35.jpg,GoalA,NULL
1687287380,d69da27998e8835311331663419462eb,PennController,25,0,experiment,NULL,Video,progression,buffer,0.001456,1687287342612,615c7bc74171fb26befa6e03,615c7bc74171fb26befa6e03,22,wall,filler,D,25,wall15.jpg,wall35.jpg,GoalA,NULL
1687287380,d69da27998e8835311331663419462eb,PennController,25,0,experiment,NULL,Selector,choice,Selection,option1,1687287346022,615c7bc74171fb26befa6e03,615c7bc74171fb26befa6e03,22,wall,filler,D,25,wall15.jpg,wall35.jpg,GoalA,option1;option2
1687287380,d69da27998e8835311331663419462eb,PennController,25,0,experiment,NULL,PennController,24,_Trial_,End,1687287346022,615c7bc74171fb26befa6e03,615c7bc74171fb26befa6e03,22,wall,filler,D,25,wall15.jpg,wall35.jpg,GoalA,NULL
1687287380,d69da27998e8835311331663419462eb,PennController,20,0,experiment,NULL,PennController,19,_Trial_,Start,1687287346023,615c7bc74171fb26befa6e03,615c7bc74171fb26befa6e03,17,roll,critical,D,50,roll40.jpg,roll60.jpg,high,NULL
1687287380,d69da27998e8835311331663419462eb,PennController,20,0,experiment,NULL,PennController,19,_Header_,Start,1687287346023,615c7bc74171fb26befa6e03,615c7bc74171fb26befa6e03,17,roll,critical,D,50,roll40.jpg,roll60.jpg,high,NULL
1687287380,d69da27998e8835311331663419462eb,PennController,20,0,experiment,NULL,PennController,19,_Header_,End,1687287346023,615c7bc74171fb26befa6e03,615c7bc74171fb26befa6e03,17,roll,critical,D,50,roll40.jpg,roll60.jpg,high,NULL
1687287380,d69da27998e8835311331663419462eb,PennController,20,0,experiment,NULL,Canvas,canvas6,Print,NA,1687287352673,615c7bc74171fb26befa6e03,615c7bc74171fb26befa6e03,17,roll,critical,D,50,roll40.jpg,roll60.jpg,high,NULL
1687287380,d69da27998e8835311331663419462eb,PennController,20,0,experiment,NULL,Video,progression,buffer,0.001411,1687287349535,615c7bc74171fb26befa6e03,615c7bc74171fb26befa6e03,17,roll,critical,D,50,roll40.jpg,roll60.jpg,high,NULL
1687287380,d69da27998e8835311331663419462eb,PennController,20,0,experiment,NULL,Selector,choice,Selection,option1,1687287360668,615c7bc74171fb26befa6e03,615c7bc74171fb26befa6e03,17,roll,critical,D,50,roll40.jpg,roll60.jpg,high,option2;option1
1687287380,d69da27998e8835311331663419462eb,PennController,20,0,experiment,NULL,PennController,19,_Trial_,End,1687287360668,615c7bc74171fb26befa6e03,615c7bc74171fb26befa6e03,17,roll,critical,D,50,roll40.jpg,roll60.jpg,high,NULL
1687287380,d69da27998e8835311331663419462eb,PennController,13,0,experiment,NULL,PennController,12,_Trial_,Start,1687287360669,615c7bc74171fb26befa6e03,615c7bc74171fb26befa6e03,10,train,critical,D,25,train15.jpg,train35.jpg,high,NULL
1687287380,d69da27998e8835311331663419462eb,PennController,13,0,experiment,NULL,PennController,12,_Header_,Start,1687287360669,615c7bc74171fb26befa6e03,615c7bc74171fb26befa6e03,10,train,critical,D,25,train15.jpg,train35.jpg,high,NULL
1687287380,d69da27998e8835311331663419462eb,PennController,13,0,experiment,NULL,PennController,12,_Header_,End,1687287360669,615c7bc74171fb26befa6e03,615c7bc74171fb26befa6e03,10,train,critical,D,25,train15.jpg,train35.jpg,high,NULL
1687287380,d69da27998e8835311331663419462eb,PennController,13,0,experiment,NULL,Canvas,canvas6,Print,NA,1687287366345,615c7bc74171fb26befa6e03,615c7bc74171fb26befa6e03,10,train,critical,D,25,train15.jpg,train35.jpg,high,NULL
1687287380,d69da27998e8835311331663419462eb,PennController,13,0,experiment,NULL,Video,progression,buffer,0.001441,1687287364185,615c7bc74171fb26befa6e03,615c7bc74171fb26befa6e03,10,train,critical,D,25,train15.jpg,train35.jpg,high,NULL
1687287380,d69da27998e8835311331663419462eb,PennController,13,0,experiment,NULL,Selector,choice,Selection,option1,1687287367790,615c7bc74171fb26befa6e03,615c7bc74171fb26befa6e03,10,train,critical,D,25,train15.jpg,train35.jpg,high,option2;option1
1687287380,d69da27998e8835311331663419462eb,PennController,13,0,experiment,NULL,PennController,12,_Trial_,End,1687287367790,615c7bc74171fb26befa6e03,615c7bc74171fb26befa6e03,10,train,critical,D,25,train15.jpg,train35.jpg,high,NULL
1687287380,d69da27998e8835311331663419462eb,PennController,17,0,experiment,NULL,PennController,16,_Trial_,Start,1687287367791,615c7bc74171fb26befa6e03,615c7bc74171fb26befa6e03,14,cover,critical,D,50,cover42.jpg,cover60.jpg,high,NULL
1687287380,d69da27998e8835311331663419462eb,PennController,17,0,experiment,NULL,PennController,16,_Header_,Start,1687287367791,615c7bc74171fb26befa6e03,615c7bc74171fb26befa6e03,14,cover,critical,D,50,cover42.jpg,cover60.jpg,high,NULL
1687287380,d69da27998e8835311331663419462eb,PennController,17,0,experiment,NULL,PennController,16,_Header_,End,1687287367791,615c7bc74171fb26befa6e03,615c7bc74171fb26befa6e03,14,cover,critical,D,50,cover42.jpg,cover60.jpg,high,NULL
1687287380,d69da27998e8835311331663419462eb,PennController,17,0,experiment,NULL,Canvas,canvas6,Print,NA,1687287375866,615c7bc74171fb26befa6e03,615c7bc74171fb26befa6e03,14,cover,critical,D,50,cover42.jpg,cover60.jpg,high,NULL
1687287380,d69da27998e8835311331663419462eb,PennController,17,0,experiment,NULL,Video,progression,buffer,0.001423,1687287371304,615c7bc74171fb26befa6e03,615c7bc74171fb26befa6e03,14,cover,critical,D,50,cover42.jpg,cover60.jpg,high,NULL
1687287380,d69da27998e8835311331663419462eb,PennController,17,0,experiment,NULL,Selector,choice,Selection,option1,1687287377789,615c7bc74171fb26befa6e03,615c7bc74171fb26befa6e03,14,cover,critical,D,50,cover42.jpg,cover60.jpg,high,option2;option1
1687287380,d69da27998e8835311331663419462eb,PennController,17,0,experiment,NULL,PennController,16,_Trial_,End,1687287377790,615c7bc74171fb26befa6e03,615c7bc74171fb26befa6e03,14,cover,critical,D,50,cover42.jpg,cover60.jpg,high,NULL
