#
# Results on Tuesday June 20 2023 18:56:17 UTC
# USER AGENT: Mozilla/5.0 (Windows NT 10.0; Win64; x64) AppleWebKit/537.36 (KHTML, like Gecko) Chrome/114.0.0.0 Safari/537.36
# Design number was non-random = 3
#
# Columns below this comment are as follows:
# 1. Results reception time.
# 2. MD5 hash of participant's IP address.
# 3. Controller name.
# 4. Order number of item.
# 5. Inner element number.
# 6. Label.
# 7. Latin Square Group.
# 8. PennElementType.
# 9. PennElementName.
# 10. Parameter.
# 11. Value.
# 12. EventTime.
# 13. PROLIFIC_ID.
# 14. Comments.
1687287377,4e2274410e0dad9348e5fe356df1a7d1,PennController,2,0,consent,NULL,PennController,0,_Trial_,Start,1687287081516,5fcc576f70ce74033ee4675b,NULL
1687287377,4e2274410e0dad9348e5fe356df1a7d1,PennController,2,0,consent,NULL,PennController,0,_Header_,Start,1687287081516,5fcc576f70ce74033ee4675b,NULL
1687287377,4e2274410e0dad9348e5fe356df1a7d1,PennController,2,0,consent,NULL,PennController,0,_Header_,End,1687287081516,5fcc576f70ce74033ee4675b,NULL
1687287377,4e2274410e0dad9348e5fe356df1a7d1,PennController,2,0,consent,NULL,PennController,0,_Trial_,End,1687287086237,5fcc576f70ce74033ee4675b,NULL
# Columns below this comment are as follows:
# 14. ID.
# 15. Comments.
1687287377,4e2274410e0dad9348e5fe356df1a7d1,PennController,3,0,intro,NULL,PennController,1,_Trial_,Start,1687287086238,5fcc576f70ce74033ee4675b,5fcc576f70ce74033ee4675b,NULL
1687287377,4e2274410e0dad9348e5fe356df1a7d1,PennController,3,0,intro,NULL,PennController,1,_Header_,Start,1687287086238,5fcc576f70ce74033ee4675b,5fcc576f70ce74033ee4675b,NULL
1687287377,4e2274410e0dad9348e5fe356df1a7d1,PennController,3,0,intro,NULL,PennController,1,_Header_,End,1687287086238,5fcc576f70ce74033ee4675b,5fcc576f70ce74033ee4675b,NULL
1687287377,4e2274410e0dad9348e5fe356df1a7d1,PennController,3,0,intro,NULL,PennController,1,_Trial_,End,1687287090816,5fcc576f70ce74033ee4675b,5fcc576f70ce74033ee4675b,NULL
# Columns below this comment are as follows:
# 15. item_number.
# 16. item.
# 17. type.
# 18. Group.
# 19. prog.
# 20. prev_image.
# 21. next_image.
# 22. height.
# 23. Comments.
1687287377,4e2274410e0dad9348e5fe356df1a7d1,PennController,11,0,experiment,NULL,PennController,10,_Trial_,Start,1687287090817,5fcc576f70ce74033ee4675b,5fcc576f70ce74033ee4675b,8,cucumber,critical,D,50,cucumber42.jpg,cucumber60.jpg,high,NULL
1687287377,4e2274410e0dad9348e5fe356df1a7d1,PennController,11,0,experiment,NULL,PennController,10,_Header_,Start,1687287090817,5fcc576f70ce74033ee4675b,5fcc576f70ce74033ee4675b,8,cucumber,critical,D,50,cucumber42.jpg,cucumber60.jpg,high,NULL
1687287377,4e2274410e0dad9348e5fe356df1a7d1,PennController,11,0,experiment,NULL,PennController,10,_Header_,End,1687287090817,5fcc576f70ce74033ee4675b,5fcc576f70ce74033ee4675b,8,cucumber,critical,D,50,cucumber42.jpg,cucumber60.jpg,high,NULL
1687287377,4e2274410e0dad9348e5fe356df1a7d1,PennController,11,0,experiment,NULL,Canvas,canvas6,Print,NA,1687287098901,5fcc576f70ce74033ee4675b,5fcc576f70ce74033ee4675b,8,cucumber,critical,D,50,cucumber42.jpg,cucumber60.jpg,high,NULL
1687287377,4e2274410e0dad9348e5fe356df1a7d1,PennController,11,0,experiment,NULL,Video,progression,buffer,0.001349,1687287094340,5fcc576f70ce74033ee4675b,5fcc576f70ce74033ee4675b,8,cucumber,critical,D,50,cucumber42.jpg,cucumber60.jpg,high,NULL
1687287377,4e2274410e0dad9348e5fe356df1a7d1,PennController,11,0,experiment,NULL,Selector,choice,Selection,option1,1687287102923,5fcc576f70ce74033ee4675b,5fcc576f70ce74033ee4675b,8,cucumber,critical,D,50,cucumber42.jpg,cucumber60.jpg,high,option1;option2
1687287377,4e2274410e0dad9348e5fe356df1a7d1,PennController,11,0,experiment,NULL,PennController,10,_Trial_,End,1687287102923,5fcc576f70ce74033ee4675b,5fcc576f70ce74033ee4675b,8,cucumber,critical,D,50,cucumber42.jpg,cucumber60.jpg,high,NULL
1687287377,4e2274410e0dad9348e5fe356df1a7d1,PennController,16,0,experiment,NULL,PennController,15,_Trial_,Start,1687287102924,5fcc576f70ce74033ee4675b,5fcc576f70ce74033ee4675b,13,mix,critical,D,25,mix15.jpg,mix35.jpg,high,NULL
1687287377,4e2274410e0dad9348e5fe356df1a7d1,PennController,16,0,experiment,NULL,PennController,15,_Header_,Start,1687287102924,5fcc576f70ce74033ee4675b,5fcc576f70ce74033ee4675b,13,mix,critical,D,25,mix15.jpg,mix35.jpg,high,NULL
1687287377,4e2274410e0dad9348e5fe356df1a7d1,PennController,16,0,experiment,NULL,PennController,15,_Header_,End,1687287102924,5fcc576f70ce74033ee4675b,5fcc576f70ce74033ee4675b,13,mix,critical,D,25,mix15.jpg,mix35.jpg,high,NULL
1687287377,4e2274410e0dad9348e5fe356df1a7d1,PennController,16,0,experiment,NULL,Canvas,canvas6,Print,NA,1687287108605,5fcc576f70ce74033ee4675b,5fcc576f70ce74033ee4675b,13,mix,critical,D,25,mix15.jpg,mix35.jpg,high,NULL
1687287377,4e2274410e0dad9348e5fe356df1a7d1,PennController,16,0,experiment,NULL,Video,progression,buffer,0.001052,1687287106436,5fcc576f70ce74033ee4675b,5fcc576f70ce74033ee4675b,13,mix,critical,D,25,mix15.jpg,mix35.jpg,high,NULL
1687287377,4e2274410e0dad9348e5fe356df1a7d1,PennController,16,0,experiment,NULL,Selector,choice,Selection,option2,1687287115315,5fcc576f70ce74033ee4675b,5fcc576f70ce74033ee4675b,13,mix,critical,D,25,mix15.jpg,mix35.jpg,high,option1;option2
1687287377,4e2274410e0dad9348e5fe356df1a7d1,PennController,16,0,experiment,NULL,PennController,15,_Trial_,End,1687287115316,5fcc576f70ce74033ee4675b,5fcc576f70ce74033ee4675b,13,mix,critical,D,25,mix15.jpg,mix35.jpg,high,NULL
1687287377,4e2274410e0dad9348e5fe356df1a7d1,PennController,31,0,experiment,NULL,PennController,30,_Trial_,Start,1687287115316,5fcc576f70ce74033ee4675b,5fcc576f70ce74033ee4675b,28,sort,filler,D,25,sort15.jpg,sort35.jpg,GoalA,NULL
1687287377,4e2274410e0dad9348e5fe356df1a7d1,PennController,31,0,experiment,NULL,PennController,30,_Header_,Start,1687287115316,5fcc576f70ce74033ee4675b,5fcc576f70ce74033ee4675b,28,sort,filler,D,25,sort15.jpg,sort35.jpg,GoalA,NULL
1687287377,4e2274410e0dad9348e5fe356df1a7d1,PennController,31,0,experiment,NULL,PennController,30,_Header_,End,1687287115316,5fcc576f70ce74033ee4675b,5fcc576f70ce74033ee4675b,28,sort,filler,D,25,sort15.jpg,sort35.jpg,GoalA,NULL
1687287377,4e2274410e0dad9348e5fe356df1a7d1,PennController,31,0,experiment,NULL,Canvas,canvas6,Print,NA,1687287121002,5fcc576f70ce74033ee4675b,5fcc576f70ce74033ee4675b,28,sort,filler,D,25,sort15.jpg,sort35.jpg,GoalA,NULL
1687287377,4e2274410e0dad9348e5fe356df1a7d1,PennController,31,0,experiment,NULL,Video,progression,buffer,0.00098,1687287118831,5fcc576f70ce74033ee4675b,5fcc576f70ce74033ee4675b,28,sort,filler,D,25,sort15.jpg,sort35.jpg,GoalA,NULL
1687287377,4e2274410e0dad9348e5fe356df1a7d1,PennController,31,0,experiment,NULL,Selector,choice,Selection,option2,1687287123011,5fcc576f70ce74033ee4675b,5fcc576f70ce74033ee4675b,28,sort,filler,D,25,sort15.jpg,sort35.jpg,GoalA,option1;option2
1687287377,4e2274410e0dad9348e5fe356df1a7d1,PennController,31,0,experiment,NULL,PennController,30,_Trial_,End,1687287123012,5fcc576f70ce74033ee4675b,5fcc576f70ce74033ee4675b,28,sort,filler,D,25,sort15.jpg,sort35.jpg,GoalA,NULL
1687287377,4e2274410e0dad9348e5fe356df1a7d1,PennController,17,0,experiment,NULL,PennController,16,_Trial_,Start,1687287123012,5fcc576f70ce74033ee4675b,5fcc576f70ce74033ee4675b,14,cover,critical,D,50,cover42.jpg,cover60.jpg,high,NULL
1687287377,4e2274410e0dad9348e5fe356df1a7d1,PennController,17,0,experiment,NULL,PennController,16,_Header_,Start,1687287123013,5fcc576f70ce74033ee4675b,5fcc576f70ce74033ee4675b,14,cover,critical,D,50,cover42.jpg,cover60.jpg,high,NULL
1687287377,4e2274410e0dad9348e5fe356df1a7d1,PennController,17,0,experiment,NULL,PennController,16,_Header_,End,1687287123013,5fcc576f70ce74033ee4675b,5fcc576f70ce74033ee4675b,14,cover,critical,D,50,cover42.jpg,cover60.jpg,high,NULL
1687287377,4e2274410e0dad9348e5fe356df1a7d1,PennController,17,0,experiment,NULL,Canvas,canvas6,Print,NA,1687287131091,5fcc576f70ce74033ee4675b,5fcc576f70ce74033ee4675b,14,cover,critical,D,50,cover42.jpg,cover60.jpg,high,NULL
1687287377,4e2274410e0dad9348e5fe356df1a7d1,PennController,17,0,experiment,NULL,Video,progression,buffer,0.001557,1687287126526,5fcc576f70ce74033ee4675b,5fcc576f70ce74033ee4675b,14,cover,critical,D,50,cover42.jpg,cover60.jpg,high,NULL
1687287377,4e2274410e0dad9348e5fe356df1a7d1,PennController,17,0,experiment,NULL,Selector,choice,Selection,option1,1687287133771,5fcc576f70ce74033ee4675b,5fcc576f70ce74033ee4675b,14,cover,critical,D,50,cover42.jpg,cover60.jpg,high,option2;option1
1687287377,4e2274410e0dad9348e5fe356df1a7d1,PennController,17,0,experiment,NULL,PennController,16,_Trial_,End,1687287133772,5fcc576f70ce74033ee4675b,5fcc576f70ce74033ee4675b,14,cover,critical,D,50,cover42.jpg,cover60.jpg,high,NULL
1687287377,4e2274410e0dad9348e5fe356df1a7d1,PennController,19,0,experiment,NULL,PennController,18,_Trial_,Start,1687287133773,5fcc576f70ce74033ee4675b,5fcc576f70ce74033ee4675b,16,blinds,critical,D,25,blinds15.jpg,blinds33.jpg,high,NULL
1687287377,4e2274410e0dad9348e5fe356df1a7d1,PennController,19,0,experiment,NULL,PennController,18,_Header_,Start,1687287133773,5fcc576f70ce74033ee4675b,5fcc576f70ce74033ee4675b,16,blinds,critical,D,25,blinds15.jpg,blinds33.jpg,high,NULL
1687287377,4e2274410e0dad9348e5fe356df1a7d1,PennController,19,0,experiment,NULL,PennController,18,_Header_,End,1687287133773,5fcc576f70ce74033ee4675b,5fcc576f70ce74033ee4675b,16,blinds,critical,D,25,blinds15.jpg,blinds33.jpg,high,NULL
1687287377,4e2274410e0dad9348e5fe356df1a7d1,PennController,19,0,experiment,NULL,Canvas,canvas6,Print,NA,1687287140051,5fcc576f70ce74033ee4675b,5fcc576f70ce74033ee4675b,16,blinds,critical,D,25,blinds15.jpg,blinds33.jpg,high,NULL
1687287377,4e2274410e0dad9348e5fe356df1a7d1,PennController,19,0,experiment,NULL,Video,progression,buffer,0.001159,1687287137287,5fcc576f70ce74033ee4675b,5fcc576f70ce74033ee4675b,16,blinds,critical,D,25,blinds15.jpg,blinds33.jpg,high,NULL
1687287377,4e2274410e0dad9348e5fe356df1a7d1,PennController,19,0,experiment,NULL,Selector,choice,Selection,option2,1687287143100,5fcc576f70ce74033ee4675b,5fcc576f70ce74033ee4675b,16,blinds,critical,D,25,blinds15.jpg,blinds33.jpg,high,option1;option2
1687287377,4e2274410e0dad9348e5fe356df1a7d1,PennController,19,0,experiment,NULL,PennController,18,_Trial_,End,1687287143100,5fcc576f70ce74033ee4675b,5fcc576f70ce74033ee4675b,16,blinds,critical,D,25,blinds15.jpg,blinds33.jpg,high,NULL
1687287377,4e2274410e0dad9348e5fe356df1a7d1,PennController,28,0,experiment,NULL,PennController,27,_Trial_,Start,1687287143101,5fcc576f70ce74033ee4675b,5fcc576f70ce74033ee4675b,25,house,filler,D,25,house15.jpg,house35.jpg,GoalB,NULL
1687287377,4e2274410e0dad9348e5fe356df1a7d1,PennController,28,0,experiment,NULL,PennController,27,_Header_,Start,1687287143101,5fcc576f70ce74033ee4675b,5fcc576f70ce74033ee4675b,25,house,filler,D,25,house15.jpg,house35.jpg,GoalB,NULL
1687287377,4e2274410e0dad9348e5fe356df1a7d1,PennController,28,0,experiment,NULL,PennController,27,_Header_,End,1687287143101,5fcc576f70ce74033ee4675b,5fcc576f70ce74033ee4675b,25,house,filler,D,25,house15.jpg,house35.jpg,GoalB,NULL
1687287377,4e2274410e0dad9348e5fe356df1a7d1,PennController,28,0,experiment,NULL,Canvas,canvas6,Print,NA,1687287148791,5fcc576f70ce74033ee4675b,5fcc576f70ce74033ee4675b,25,house,filler,D,25,house15.jpg,house35.jpg,GoalB,NULL
1687287377,4e2274410e0dad9348e5fe356df1a7d1,PennController,28,0,experiment,NULL,Video,progression,buffer,0.002217,1687287146619,5fcc576f70ce74033ee4675b,5fcc576f70ce74033ee4675b,25,house,filler,D,25,house15.jpg,house35.jpg,GoalB,NULL
1687287377,4e2274410e0dad9348e5fe356df1a7d1,PennController,28,0,experiment,NULL,Selector,choice,Selection,option2,1687287151284,5fcc576f70ce74033ee4675b,5fcc576f70ce74033ee4675b,25,house,filler,D,25,house15.jpg,house35.jpg,GoalB,option1;option2
1687287377,4e2274410e0dad9348e5fe356df1a7d1,PennController,28,0,experiment,NULL,PennController,27,_Trial_,End,1687287151285,5fcc576f70ce74033ee4675b,5fcc576f70ce74033ee4675b,25,house,filler,D,25,house15.jpg,house35.jpg,GoalB,NULL
1687287377,4e2274410e0dad9348e5fe356df1a7d1,PennController,13,0,experiment,NULL,PennController,12,_Trial_,Start,1687287151286,5fcc576f70ce74033ee4675b,5fcc576f70ce74033ee4675b,10,train,critical,D,25,train15.jpg,train35.jpg,high,NULL
1687287377,4e2274410e0dad9348e5fe356df1a7d1,PennController,13,0,experiment,NULL,PennController,12,_Header_,Start,1687287151286,5fcc576f70ce74033ee4675b,5fcc576f70ce74033ee4675b,10,train,critical,D,25,train15.jpg,train35.jpg,high,NULL
1687287377,4e2274410e0dad9348e5fe356df1a7d1,PennController,13,0,experiment,NULL,PennController,12,_Header_,End,1687287151286,5fcc576f70ce74033ee4675b,5fcc576f70ce74033ee4675b,10,train,critical,D,25,train15.jpg,train35.jpg,high,NULL
1687287377,4e2274410e0dad9348e5fe356df1a7d1,PennController,13,0,experiment,NULL,Canvas,canvas6,Print,NA,1687287156962,5fcc576f70ce74033ee4675b,5fcc576f70ce74033ee4675b,10,train,critical,D,25,train15.jpg,train35.jpg,high,NULL
1687287377,4e2274410e0dad9348e5fe356df1a7d1,PennController,13,0,experiment,NULL,Video,progression,buffer,0.001496,1687287154800,5fcc576f70ce74033ee4675b,5fcc576f70ce74033ee4675b,10,train,critical,D,25,train15.jpg,train35.jpg,high,NULL
1687287377,4e2274410e0dad9348e5fe356df1a7d1,PennController,13,0,experiment,NULL,Selector,choice,Selection,option1,1687287160683,5fcc576f70ce74033ee4675b,5fcc576f70ce74033ee4675b,10,train,critical,D,25,train15.jpg,train35.jpg,high,option1;option2
1687287377,4e2274410e0dad9348e5fe356df1a7d1,PennController,13,0,experiment,NULL,PennController,12,_Trial_,End,1687287160684,5fcc576f70ce74033ee4675b,5fcc576f70ce74033ee4675b,10,train,critical,D,25,train15.jpg,train35.jpg,high,NULL
1687287377,4e2274410e0dad9348e5fe356df1a7d1,PennController,14,0,experiment,NULL,PennController,13,_Trial_,Start,1687287160684,5fcc576f70ce74033ee4675b,5fcc576f70ce74033ee4675b,11,beads,critical,D,50,beads40.jpg,beads60.jpg,high,NULL
1687287377,4e2274410e0dad9348e5fe356df1a7d1,PennController,14,0,experiment,NULL,PennController,13,_Header_,Start,1687287160684,5fcc576f70ce74033ee4675b,5fcc576f70ce74033ee4675b,11,beads,critical,D,50,beads40.jpg,beads60.jpg,high,NULL
1687287377,4e2274410e0dad9348e5fe356df1a7d1,PennController,14,0,experiment,NULL,PennController,13,_Header_,End,1687287160684,5fcc576f70ce74033ee4675b,5fcc576f70ce74033ee4675b,11,beads,critical,D,50,beads40.jpg,beads60.jpg,high,NULL
1687287377,4e2274410e0dad9348e5fe356df1a7d1,PennController,14,0,experiment,NULL,Canvas,canvas6,Print,NA,1687287167374,5fcc576f70ce74033ee4675b,5fcc576f70ce74033ee4675b,11,beads,critical,D,50,beads40.jpg,beads60.jpg,high,NULL
1687287377,4e2274410e0dad9348e5fe356df1a7d1,PennController,14,0,experiment,NULL,Video,progression,buffer,0.002278,1687287164202,5fcc576f70ce74033ee4675b,5fcc576f70ce74033ee4675b,11,beads,critical,D,50,beads40.jpg,beads60.jpg,high,NULL
1687287377,4e2274410e0dad9348e5fe356df1a7d1,PennController,14,0,experiment,NULL,Selector,choice,Selection,option2,1687287170387,5fcc576f70ce74033ee4675b,5fcc576f70ce74033ee4675b,11,beads,critical,D,50,beads40.jpg,beads60.jpg,high,option2;option1
1687287377,4e2274410e0dad9348e5fe356df1a7d1,PennController,14,0,experiment,NULL,PennController,13,_Trial_,End,1687287170388,5fcc576f70ce74033ee4675b,5fcc576f70ce74033ee4675b,11,beads,critical,D,50,beads40.jpg,beads60.jpg,high,NULL
1687287377,4e2274410e0dad9348e5fe356df1a7d1,PennController,4,0,experiment,NULL,PennController,3,_Trial_,Start,1687287170388,5fcc576f70ce74033ee4675b,5fcc576f70ce74033ee4675b,1,vase,critical,D,25,vase15.jpg,vase35.jpg,high,NULL
1687287377,4e2274410e0dad9348e5fe356df1a7d1,PennController,4,0,experiment,NULL,PennController,3,_Header_,Start,1687287170388,5fcc576f70ce74033ee4675b,5fcc576f70ce74033ee4675b,1,vase,critical,D,25,vase15.jpg,vase35.jpg,high,NULL
1687287377,4e2274410e0dad9348e5fe356df1a7d1,PennController,4,0,experiment,NULL,PennController,3,_Header_,End,1687287170388,5fcc576f70ce74033ee4675b,5fcc576f70ce74033ee4675b,1,vase,critical,D,25,vase15.jpg,vase35.jpg,high,NULL
1687287377,4e2274410e0dad9348e5fe356df1a7d1,PennController,4,0,experiment,NULL,Canvas,canvas6,Print,NA,1687287176064,5fcc576f70ce74033ee4675b,5fcc576f70ce74033ee4675b,1,vase,critical,D,25,vase15.jpg,vase35.jpg,high,NULL
1687287377,4e2274410e0dad9348e5fe356df1a7d1,PennController,4,0,experiment,NULL,Video,progression,buffer,0.001013,1687287173897,5fcc576f70ce74033ee4675b,5fcc576f70ce74033ee4675b,1,vase,critical,D,25,vase15.jpg,vase35.jpg,high,NULL
1687287377,4e2274410e0dad9348e5fe356df1a7d1,PennController,4,0,experiment,NULL,Selector,choice,Selection,option1,1687287179668,5fcc576f70ce74033ee4675b,5fcc576f70ce74033ee4675b,1,vase,critical,D,25,vase15.jpg,vase35.jpg,high,option2;option1
1687287377,4e2274410e0dad9348e5fe356df1a7d1,PennController,4,0,experiment,NULL,PennController,3,_Trial_,End,1687287179669,5fcc576f70ce74033ee4675b,5fcc576f70ce74033ee4675b,1,vase,critical,D,25,vase15.jpg,vase35.jpg,high,NULL
1687287377,4e2274410e0dad9348e5fe356df1a7d1,PennController,20,0,experiment,NULL,PennController,19,_Trial_,Start,1687287179669,5fcc576f70ce74033ee4675b,5fcc576f70ce74033ee4675b,17,roll,critical,D,50,roll40.jpg,roll60.jpg,high,NULL
1687287377,4e2274410e0dad9348e5fe356df1a7d1,PennController,20,0,experiment,NULL,PennController,19,_Header_,Start,1687287179670,5fcc576f70ce74033ee4675b,5fcc576f70ce74033ee4675b,17,roll,critical,D,50,roll40.jpg,roll60.jpg,high,NULL
1687287377,4e2274410e0dad9348e5fe356df1a7d1,PennController,20,0,experiment,NULL,PennController,19,_Header_,End,1687287179670,5fcc576f70ce74033ee4675b,5fcc576f70ce74033ee4675b,17,roll,critical,D,50,roll40.jpg,roll60.jpg,high,NULL
1687287377,4e2274410e0dad9348e5fe356df1a7d1,PennController,20,0,experiment,NULL,Canvas,canvas6,Print,NA,1687287186338,5fcc576f70ce74033ee4675b,5fcc576f70ce74033ee4675b,17,roll,critical,D,50,roll40.jpg,roll60.jpg,high,NULL
1687287377,4e2274410e0dad9348e5fe356df1a7d1,PennController,20,0,experiment,NULL,Video,progression,buffer,0.001556,1687287183181,5fcc576f70ce74033ee4675b,5fcc576f70ce74033ee4675b,17,roll,critical,D,50,roll40.jpg,roll60.jpg,high,NULL
1687287377,4e2274410e0dad9348e5fe356df1a7d1,PennController,20,0,experiment,NULL,Selector,choice,Selection,option1,1687287188676,5fcc576f70ce74033ee4675b,5fcc576f70ce74033ee4675b,17,roll,critical,D,50,roll40.jpg,roll60.jpg,high,option1;option2
1687287377,4e2274410e0dad9348e5fe356df1a7d1,PennController,20,0,experiment,NULL,PennController,19,_Trial_,End,1687287188676,5fcc576f70ce74033ee4675b,5fcc576f70ce74033ee4675b,17,roll,critical,D,50,roll40.jpg,roll60.jpg,high,NULL
1687287377,4e2274410e0dad9348e5fe356df1a7d1,PennController,24,0,experiment,NULL,PennController,23,_Trial_,Start,1687287188677,5fcc576f70ce74033ee4675b,5fcc576f70ce74033ee4675b,21,visit,filler,D,75,visit65.jpg,visit85.jpg,GoalB,NULL
1687287377,4e2274410e0dad9348e5fe356df1a7d1,PennController,24,0,experiment,NULL,PennController,23,_Header_,Start,1687287188677,5fcc576f70ce74033ee4675b,5fcc576f70ce74033ee4675b,21,visit,filler,D,75,visit65.jpg,visit85.jpg,GoalB,NULL
1687287377,4e2274410e0dad9348e5fe356df1a7d1,PennController,24,0,experiment,NULL,PennController,23,_Header_,End,1687287188677,5fcc576f70ce74033ee4675b,5fcc576f70ce74033ee4675b,21,visit,filler,D,75,visit65.jpg,visit85.jpg,GoalB,NULL
1687287377,4e2274410e0dad9348e5fe356df1a7d1,PennController,24,0,experiment,NULL,Canvas,canvas6,Print,NA,1687287196363,5fcc576f70ce74033ee4675b,5fcc576f70ce74033ee4675b,21,visit,filler,D,75,visit65.jpg,visit85.jpg,GoalB,NULL
1687287377,4e2274410e0dad9348e5fe356df1a7d1,PennController,24,0,experiment,NULL,Video,progression,buffer,0.002485,1687287192198,5fcc576f70ce74033ee4675b,5fcc576f70ce74033ee4675b,21,visit,filler,D,75,visit65.jpg,visit85.jpg,GoalB,NULL
1687287377,4e2274410e0dad9348e5fe356df1a7d1,PennController,24,0,experiment,NULL,Selector,choice,Selection,option2,1687287198612,5fcc576f70ce74033ee4675b,5fcc576f70ce74033ee4675b,21,visit,filler,D,75,visit65.jpg,visit85.jpg,GoalB,option2;option1
1687287377,4e2274410e0dad9348e5fe356df1a7d1,PennController,24,0,experiment,NULL,PennController,23,_Trial_,End,1687287198612,5fcc576f70ce74033ee4675b,5fcc576f70ce74033ee4675b,21,visit,filler,D,75,visit65.jpg,visit85.jpg,GoalB,NULL
1687287377,4e2274410e0dad9348e5fe356df1a7d1,PennController,8,0,experiment,NULL,PennController,7,_Trial_,Start,1687287198613,5fcc576f70ce74033ee4675b,5fcc576f70ce74033ee4675b,5,book,critical,D,50,book40.jpg,book60.jpg,high,NULL
1687287377,4e2274410e0dad9348e5fe356df1a7d1,PennController,8,0,experiment,NULL,PennController,7,_Header_,Start,1687287198613,5fcc576f70ce74033ee4675b,5fcc576f70ce74033ee4675b,5,book,critical,D,50,book40.jpg,book60.jpg,high,NULL
1687287377,4e2274410e0dad9348e5fe356df1a7d1,PennController,8,0,experiment,NULL,PennController,7,_Header_,End,1687287198613,5fcc576f70ce74033ee4675b,5fcc576f70ce74033ee4675b,5,book,critical,D,50,book40.jpg,book60.jpg,high,NULL
1687287377,4e2274410e0dad9348e5fe356df1a7d1,PennController,8,0,experiment,NULL,Canvas,canvas6,Print,NA,1687287205290,5fcc576f70ce74033ee4675b,5fcc576f70ce74033ee4675b,5,book,critical,D,50,book40.jpg,book60.jpg,high,NULL
1687287377,4e2274410e0dad9348e5fe356df1a7d1,PennController,8,0,experiment,NULL,Video,progression,buffer,0.001421,1687287202130,5fcc576f70ce74033ee4675b,5fcc576f70ce74033ee4675b,5,book,critical,D,50,book40.jpg,book60.jpg,high,NULL
1687287377,4e2274410e0dad9348e5fe356df1a7d1,PennController,8,0,experiment,NULL,Selector,choice,Selection,option2,1687287208548,5fcc576f70ce74033ee4675b,5fcc576f70ce74033ee4675b,5,book,critical,D,50,book40.jpg,book60.jpg,high,option1;option2
1687287377,4e2274410e0dad9348e5fe356df1a7d1,PennController,8,0,experiment,NULL,PennController,7,_Trial_,End,1687287208549,5fcc576f70ce74033ee4675b,5fcc576f70ce74033ee4675b,5,book,critical,D,50,book40.jpg,book60.jpg,high,NULL
1687287377,4e2274410e0dad9348e5fe356df1a7d1,PennController,22,0,experiment,NULL,PennController,21,_Trial_,Start,1687287208549,5fcc576f70ce74033ee4675b,5fcc576f70ce74033ee4675b,19,cup,filler,D,25,cup15.jpg,cup35.jpg,GoalB,NULL
1687287377,4e2274410e0dad9348e5fe356df1a7d1,PennController,22,0,experiment,NULL,PennController,21,_Header_,Start,1687287208549,5fcc576f70ce74033ee4675b,5fcc576f70ce74033ee4675b,19,cup,filler,D,25,cup15.jpg,cup35.jpg,GoalB,NULL
1687287377,4e2274410e0dad9348e5fe356df1a7d1,PennController,22,0,experiment,NULL,PennController,21,_Header_,End,1687287208549,5fcc576f70ce74033ee4675b,5fcc576f70ce74033ee4675b,19,cup,filler,D,25,cup15.jpg,cup35.jpg,GoalB,NULL
1687287377,4e2274410e0dad9348e5fe356df1a7d1,PennController,22,0,experiment,NULL,Canvas,canvas6,Print,NA,1687287214229,5fcc576f70ce74033ee4675b,5fcc576f70ce74033ee4675b,19,cup,filler,D,25,cup15.jpg,cup35.jpg,GoalB,NULL
1687287377,4e2274410e0dad9348e5fe356df1a7d1,PennController,22,0,experiment,NULL,Video,progression,buffer,0.001267,1687287212063,5fcc576f70ce74033ee4675b,5fcc576f70ce74033ee4675b,19,cup,filler,D,25,cup15.jpg,cup35.jpg,GoalB,NULL
1687287377,4e2274410e0dad9348e5fe356df1a7d1,PennController,22,0,experiment,NULL,Selector,choice,Selection,option2,1687287216300,5fcc576f70ce74033ee4675b,5fcc576f70ce74033ee4675b,19,cup,filler,D,25,cup15.jpg,cup35.jpg,GoalB,option2;option1
1687287377,4e2274410e0dad9348e5fe356df1a7d1,PennController,22,0,experiment,NULL,PennController,21,_Trial_,End,1687287216301,5fcc576f70ce74033ee4675b,5fcc576f70ce74033ee4675b,19,cup,filler,D,25,cup15.jpg,cup35.jpg,GoalB,NULL
1687287377,4e2274410e0dad9348e5fe356df1a7d1,PennController,27,0,experiment,NULL,PennController,26,_Trial_,Start,1687287216302,5fcc576f70ce74033ee4675b,5fcc576f70ce74033ee4675b,24,match,filler,D,75,match65.jpg,match85.jpg,GoalA,NULL
1687287377,4e2274410e0dad9348e5fe356df1a7d1,PennController,27,0,experiment,NULL,PennController,26,_Header_,Start,1687287216302,5fcc576f70ce74033ee4675b,5fcc576f70ce74033ee4675b,24,match,filler,D,75,match65.jpg,match85.jpg,GoalA,NULL
1687287377,4e2274410e0dad9348e5fe356df1a7d1,PennController,27,0,experiment,NULL,PennController,26,_Header_,End,1687287216302,5fcc576f70ce74033ee4675b,5fcc576f70ce74033ee4675b,24,match,filler,D,75,match65.jpg,match85.jpg,GoalA,NULL
1687287377,4e2274410e0dad9348e5fe356df1a7d1,PennController,27,0,experiment,NULL,Canvas,canvas6,Print,NA,1687287223989,5fcc576f70ce74033ee4675b,5fcc576f70ce74033ee4675b,24,match,filler,D,75,match65.jpg,match85.jpg,GoalA,NULL
1687287377,4e2274410e0dad9348e5fe356df1a7d1,PennController,27,0,experiment,NULL,Video,progression,buffer,0.001432,1687287219813,5fcc576f70ce74033ee4675b,5fcc576f70ce74033ee4675b,24,match,filler,D,75,match65.jpg,match85.jpg,GoalA,NULL
1687287377,4e2274410e0dad9348e5fe356df1a7d1,PennController,27,0,experiment,NULL,Selector,choice,Selection,option2,1687287226484,5fcc576f70ce74033ee4675b,5fcc576f70ce74033ee4675b,24,match,filler,D,75,match65.jpg,match85.jpg,GoalA,option2;option1
1687287377,4e2274410e0dad9348e5fe356df1a7d1,PennController,27,0,experiment,NULL,PennController,26,_Trial_,End,1687287226485,5fcc576f70ce74033ee4675b,5fcc576f70ce74033ee4675b,24,match,filler,D,75,match65.jpg,match85.jpg,GoalA,NULL
1687287377,4e2274410e0dad9348e5fe356df1a7d1,PennController,15,0,experiment,NULL,PennController,14,_Trial_,Start,1687287226485,5fcc576f70ce74033ee4675b,5fcc576f70ce74033ee4675b,12,erase,critical,D,75,erase66.jpg,erase84.jpg,high,NULL
1687287377,4e2274410e0dad9348e5fe356df1a7d1,PennController,15,0,experiment,NULL,PennController,14,_Header_,Start,1687287226485,5fcc576f70ce74033ee4675b,5fcc576f70ce74033ee4675b,12,erase,critical,D,75,erase66.jpg,erase84.jpg,high,NULL
1687287377,4e2274410e0dad9348e5fe356df1a7d1,PennController,15,0,experiment,NULL,PennController,14,_Header_,End,1687287226485,5fcc576f70ce74033ee4675b,5fcc576f70ce74033ee4675b,12,erase,critical,D,75,erase66.jpg,erase84.jpg,high,NULL
1687287377,4e2274410e0dad9348e5fe356df1a7d1,PennController,15,0,experiment,NULL,Canvas,canvas6,Print,NA,1687287236163,5fcc576f70ce74033ee4675b,5fcc576f70ce74033ee4675b,12,erase,critical,D,75,erase66.jpg,erase84.jpg,high,NULL
1687287377,4e2274410e0dad9348e5fe356df1a7d1,PennController,15,0,experiment,NULL,Video,progression,buffer,0.00146,1687287229998,5fcc576f70ce74033ee4675b,5fcc576f70ce74033ee4675b,12,erase,critical,D,75,erase66.jpg,erase84.jpg,high,NULL
1687287377,4e2274410e0dad9348e5fe356df1a7d1,PennController,15,0,experiment,NULL,Selector,choice,Selection,option1,1687287241972,5fcc576f70ce74033ee4675b,5fcc576f70ce74033ee4675b,12,erase,critical,D,75,erase66.jpg,erase84.jpg,high,option1;option2
1687287377,4e2274410e0dad9348e5fe356df1a7d1,PennController,15,0,experiment,NULL,PennController,14,_Trial_,End,1687287241973,5fcc576f70ce74033ee4675b,5fcc576f70ce74033ee4675b,12,erase,critical,D,75,erase66.jpg,erase84.jpg,high,NULL
1687287377,4e2274410e0dad9348e5fe356df1a7d1,PennController,7,0,experiment,NULL,PennController,6,_Trial_,Start,1687287241973,5fcc576f70ce74033ee4675b,5fcc576f70ce74033ee4675b,4,candy,critical,D,25,candy15.jpg,candy35.jpg,high,NULL
1687287377,4e2274410e0dad9348e5fe356df1a7d1,PennController,7,0,experiment,NULL,PennController,6,_Header_,Start,1687287241973,5fcc576f70ce74033ee4675b,5fcc576f70ce74033ee4675b,4,candy,critical,D,25,candy15.jpg,candy35.jpg,high,NULL
1687287377,4e2274410e0dad9348e5fe356df1a7d1,PennController,7,0,experiment,NULL,PennController,6,_Header_,End,1687287241973,5fcc576f70ce74033ee4675b,5fcc576f70ce74033ee4675b,4,candy,critical,D,25,candy15.jpg,candy35.jpg,high,NULL
1687287377,4e2274410e0dad9348e5fe356df1a7d1,PennController,7,0,experiment,NULL,Canvas,canvas6,Print,NA,1687287247659,5fcc576f70ce74033ee4675b,5fcc576f70ce74033ee4675b,4,candy,critical,D,25,candy15.jpg,candy35.jpg,high,NULL
1687287377,4e2274410e0dad9348e5fe356df1a7d1,PennController,7,0,experiment,NULL,Video,progression,buffer,0.001814,1687287245485,5fcc576f70ce74033ee4675b,5fcc576f70ce74033ee4675b,4,candy,critical,D,25,candy15.jpg,candy35.jpg,high,NULL
1687287377,4e2274410e0dad9348e5fe356df1a7d1,PennController,7,0,experiment,NULL,Selector,choice,Selection,option1,1687287250613,5fcc576f70ce74033ee4675b,5fcc576f70ce74033ee4675b,4,candy,critical,D,25,candy15.jpg,candy35.jpg,high,option2;option1
1687287377,4e2274410e0dad9348e5fe356df1a7d1,PennController,7,0,experiment,NULL,PennController,6,_Trial_,End,1687287250613,5fcc576f70ce74033ee4675b,5fcc576f70ce74033ee4675b,4,candy,critical,D,25,candy15.jpg,candy35.jpg,high,NULL
1687287377,4e2274410e0dad9348e5fe356df1a7d1,PennController,26,0,experiment,NULL,PennController,25,_Trial_,Start,1687287250614,5fcc576f70ce74033ee4675b,5fcc576f70ce74033ee4675b,23,color,filler,D,50,color40.jpg,color60.jpg,GoalB,NULL
1687287377,4e2274410e0dad9348e5fe356df1a7d1,PennController,26,0,experiment,NULL,PennController,25,_Header_,Start,1687287250614,5fcc576f70ce74033ee4675b,5fcc576f70ce74033ee4675b,23,color,filler,D,50,color40.jpg,color60.jpg,GoalB,NULL
1687287377,4e2274410e0dad9348e5fe356df1a7d1,PennController,26,0,experiment,NULL,PennController,25,_Header_,End,1687287250614,5fcc576f70ce74033ee4675b,5fcc576f70ce74033ee4675b,23,color,filler,D,50,color40.jpg,color60.jpg,GoalB,NULL
1687287377,4e2274410e0dad9348e5fe356df1a7d1,PennController,26,0,experiment,NULL,Canvas,canvas6,Print,NA,1687287257299,5fcc576f70ce74033ee4675b,5fcc576f70ce74033ee4675b,23,color,filler,D,50,color40.jpg,color60.jpg,GoalB,NULL
1687287377,4e2274410e0dad9348e5fe356df1a7d1,PennController,26,0,experiment,NULL,Video,progression,buffer,0.001091,1687287254127,5fcc576f70ce74033ee4675b,5fcc576f70ce74033ee4675b,23,color,filler,D,50,color40.jpg,color60.jpg,GoalB,NULL
1687287377,4e2274410e0dad9348e5fe356df1a7d1,PennController,26,0,experiment,NULL,Selector,choice,Selection,option2,1687287259773,5fcc576f70ce74033ee4675b,5fcc576f70ce74033ee4675b,23,color,filler,D,50,color40.jpg,color60.jpg,GoalB,option1;option2
1687287377,4e2274410e0dad9348e5fe356df1a7d1,PennController,26,0,experiment,NULL,PennController,25,_Trial_,End,1687287259774,5fcc576f70ce74033ee4675b,5fcc576f70ce74033ee4675b,23,color,filler,D,50,color40.jpg,color60.jpg,GoalB,NULL
1687287377,4e2274410e0dad9348e5fe356df1a7d1,PennController,29,0,experiment,NULL,PennController,28,_Trial_,Start,1687287259775,5fcc576f70ce74033ee4675b,5fcc576f70ce74033ee4675b,26,sandwich,filler,D,50,sandwich40.jpg,sandwich60.jpg,GoalA,NULL
1687287377,4e2274410e0dad9348e5fe356df1a7d1,PennController,29,0,experiment,NULL,PennController,28,_Header_,Start,1687287259775,5fcc576f70ce74033ee4675b,5fcc576f70ce74033ee4675b,26,sandwich,filler,D,50,sandwich40.jpg,sandwich60.jpg,GoalA,NULL
1687287377,4e2274410e0dad9348e5fe356df1a7d1,PennController,29,0,experiment,NULL,PennController,28,_Header_,End,1687287259775,5fcc576f70ce74033ee4675b,5fcc576f70ce74033ee4675b,26,sandwich,filler,D,50,sandwich40.jpg,sandwich60.jpg,GoalA,NULL
1687287377,4e2274410e0dad9348e5fe356df1a7d1,PennController,29,0,experiment,NULL,Canvas,canvas6,Print,NA,1687287266457,5fcc576f70ce74033ee4675b,5fcc576f70ce74033ee4675b,26,sandwich,filler,D,50,sandwich40.jpg,sandwich60.jpg,GoalA,NULL
1687287377,4e2274410e0dad9348e5fe356df1a7d1,PennController,29,0,experiment,NULL,Video,progression,buffer,0.002292,1687287263291,5fcc576f70ce74033ee4675b,5fcc576f70ce74033ee4675b,26,sandwich,filler,D,50,sandwich40.jpg,sandwich60.jpg,GoalA,NULL
1687287377,4e2274410e0dad9348e5fe356df1a7d1,PennController,29,0,experiment,NULL,Selector,choice,Selection,option2,1687287269685,5fcc576f70ce74033ee4675b,5fcc576f70ce74033ee4675b,26,sandwich,filler,D,50,sandwich40.jpg,sandwich60.jpg,GoalA,option2;option1
1687287377,4e2274410e0dad9348e5fe356df1a7d1,PennController,29,0,experiment,NULL,PennController,28,_Trial_,End,1687287269686,5fcc576f70ce74033ee4675b,5fcc576f70ce74033ee4675b,26,sandwich,filler,D,50,sandwich40.jpg,sandwich60.jpg,GoalA,NULL
1687287377,4e2274410e0dad9348e5fe356df1a7d1,PennController,23,0,experiment,NULL,PennController,22,_Trial_,Start,1687287269687,5fcc576f70ce74033ee4675b,5fcc576f70ce74033ee4675b,20,cat,filler,D,50,cat40.jpg,cat60.jpg,GoalA,NULL
1687287377,4e2274410e0dad9348e5fe356df1a7d1,PennController,23,0,experiment,NULL,PennController,22,_Header_,Start,1687287269687,5fcc576f70ce74033ee4675b,5fcc576f70ce74033ee4675b,20,cat,filler,D,50,cat40.jpg,cat60.jpg,GoalA,NULL
1687287377,4e2274410e0dad9348e5fe356df1a7d1,PennController,23,0,experiment,NULL,PennController,22,_Header_,End,1687287269687,5fcc576f70ce74033ee4675b,5fcc576f70ce74033ee4675b,20,cat,filler,D,50,cat40.jpg,cat60.jpg,GoalA,NULL
1687287377,4e2274410e0dad9348e5fe356df1a7d1,PennController,23,0,experiment,NULL,Canvas,canvas6,Print,NA,1687287276364,5fcc576f70ce74033ee4675b,5fcc576f70ce74033ee4675b,20,cat,filler,D,50,cat40.jpg,cat60.jpg,GoalA,NULL
1687287377,4e2274410e0dad9348e5fe356df1a7d1,PennController,23,0,experiment,NULL,Video,progression,buffer,0.001494,1687287273198,5fcc576f70ce74033ee4675b,5fcc576f70ce74033ee4675b,20,cat,filler,D,50,cat40.jpg,cat60.jpg,GoalA,NULL
1687287377,4e2274410e0dad9348e5fe356df1a7d1,PennController,23,0,experiment,NULL,Selector,choice,Selection,option2,1687287278549,5fcc576f70ce74033ee4675b,5fcc576f70ce74033ee4675b,20,cat,filler,D,50,cat40.jpg,cat60.jpg,GoalA,option2;option1
1687287377,4e2274410e0dad9348e5fe356df1a7d1,PennController,23,0,experiment,NULL,PennController,22,_Trial_,End,1687287278550,5fcc576f70ce74033ee4675b,5fcc576f70ce74033ee4675b,20,cat,filler,D,50,cat40.jpg,cat60.jpg,GoalA,NULL
1687287377,4e2274410e0dad9348e5fe356df1a7d1,PennController,21,0,experiment,NULL,PennController,20,_Trial_,Start,1687287278551,5fcc576f70ce74033ee4675b,5fcc576f70ce74033ee4675b,18,ball,critical,D,75,ball65.jpg,ball85.jpg,high,NULL
1687287377,4e2274410e0dad9348e5fe356df1a7d1,PennController,21,0,experiment,NULL,PennController,20,_Header_,Start,1687287278551,5fcc576f70ce74033ee4675b,5fcc576f70ce74033ee4675b,18,ball,critical,D,75,ball65.jpg,ball85.jpg,high,NULL
1687287377,4e2274410e0dad9348e5fe356df1a7d1,PennController,21,0,experiment,NULL,PennController,20,_Header_,End,1687287278551,5fcc576f70ce74033ee4675b,5fcc576f70ce74033ee4675b,18,ball,critical,D,75,ball65.jpg,ball85.jpg,high,NULL
1687287377,4e2274410e0dad9348e5fe356df1a7d1,PennController,21,0,experiment,NULL,Canvas,canvas6,Print,NA,1687287286221,5fcc576f70ce74033ee4675b,5fcc576f70ce74033ee4675b,18,ball,critical,D,75,ball65.jpg,ball85.jpg,high,NULL
1687287377,4e2274410e0dad9348e5fe356df1a7d1,PennController,21,0,experiment,NULL,Video,progression,buffer,0.001435,1687287282063,5fcc576f70ce74033ee4675b,5fcc576f70ce74033ee4675b,18,ball,critical,D,75,ball65.jpg,ball85.jpg,high,NULL
1687287377,4e2274410e0dad9348e5fe356df1a7d1,PennController,21,0,experiment,NULL,Selector,choice,Selection,option1,1687287293405,5fcc576f70ce74033ee4675b,5fcc576f70ce74033ee4675b,18,ball,critical,D,75,ball65.jpg,ball85.jpg,high,option2;option1
1687287377,4e2274410e0dad9348e5fe356df1a7d1,PennController,21,0,experiment,NULL,PennController,20,_Trial_,End,1687287293406,5fcc576f70ce74033ee4675b,5fcc576f70ce74033ee4675b,18,ball,critical,D,75,ball65.jpg,ball85.jpg,high,NULL
1687287377,4e2274410e0dad9348e5fe356df1a7d1,PennController,25,0,experiment,NULL,PennController,24,_Trial_,Start,1687287293407,5fcc576f70ce74033ee4675b,5fcc576f70ce74033ee4675b,22,wall,filler,D,25,wall15.jpg,wall35.jpg,GoalA,NULL
1687287377,4e2274410e0dad9348e5fe356df1a7d1,PennController,25,0,experiment,NULL,PennController,24,_Header_,Start,1687287293407,5fcc576f70ce74033ee4675b,5fcc576f70ce74033ee4675b,22,wall,filler,D,25,wall15.jpg,wall35.jpg,GoalA,NULL
1687287377,4e2274410e0dad9348e5fe356df1a7d1,PennController,25,0,experiment,NULL,PennController,24,_Header_,End,1687287293407,5fcc576f70ce74033ee4675b,5fcc576f70ce74033ee4675b,22,wall,filler,D,25,wall15.jpg,wall35.jpg,GoalA,NULL
1687287377,4e2274410e0dad9348e5fe356df1a7d1,PennController,25,0,experiment,NULL,Canvas,canvas6,Print,NA,1687287299087,5fcc576f70ce74033ee4675b,5fcc576f70ce74033ee4675b,22,wall,filler,D,25,wall15.jpg,wall35.jpg,GoalA,NULL
1687287377,4e2274410e0dad9348e5fe356df1a7d1,PennController,25,0,experiment,NULL,Video,progression,buffer,0.001427,1687287296918,5fcc576f70ce74033ee4675b,5fcc576f70ce74033ee4675b,22,wall,filler,D,25,wall15.jpg,wall35.jpg,GoalA,NULL
1687287377,4e2274410e0dad9348e5fe356df1a7d1,PennController,25,0,experiment,NULL,Selector,choice,Selection,option1,1687287302733,5fcc576f70ce74033ee4675b,5fcc576f70ce74033ee4675b,22,wall,filler,D,25,wall15.jpg,wall35.jpg,GoalA,option1;option2
1687287377,4e2274410e0dad9348e5fe356df1a7d1,PennController,25,0,experiment,NULL,PennController,24,_Trial_,End,1687287302734,5fcc576f70ce74033ee4675b,5fcc576f70ce74033ee4675b,22,wall,filler,D,25,wall15.jpg,wall35.jpg,GoalA,NULL
1687287377,4e2274410e0dad9348e5fe356df1a7d1,PennController,32,0,experiment,NULL,PennController,31,_Trial_,Start,1687287302735,5fcc576f70ce74033ee4675b,5fcc576f70ce74033ee4675b,29,frog,filler,D,50,frog40.jpg,frog60.jpg,GoalB,NULL
1687287377,4e2274410e0dad9348e5fe356df1a7d1,PennController,32,0,experiment,NULL,PennController,31,_Header_,Start,1687287302735,5fcc576f70ce74033ee4675b,5fcc576f70ce74033ee4675b,29,frog,filler,D,50,frog40.jpg,frog60.jpg,GoalB,NULL
1687287377,4e2274410e0dad9348e5fe356df1a7d1,PennController,32,0,experiment,NULL,PennController,31,_Header_,End,1687287302735,5fcc576f70ce74033ee4675b,5fcc576f70ce74033ee4675b,29,frog,filler,D,50,frog40.jpg,frog60.jpg,GoalB,NULL
1687287377,4e2274410e0dad9348e5fe356df1a7d1,PennController,32,0,experiment,NULL,Canvas,canvas6,Print,NA,1687287309410,5fcc576f70ce74033ee4675b,5fcc576f70ce74033ee4675b,29,frog,filler,D,50,frog40.jpg,frog60.jpg,GoalB,NULL
1687287377,4e2274410e0dad9348e5fe356df1a7d1,PennController,32,0,experiment,NULL,Video,progression,buffer,0.001453,1687287306249,5fcc576f70ce74033ee4675b,5fcc576f70ce74033ee4675b,29,frog,filler,D,50,frog40.jpg,frog60.jpg,GoalB,NULL
1687287377,4e2274410e0dad9348e5fe356df1a7d1,PennController,32,0,experiment,NULL,Selector,choice,Selection,option1,1687287311565,5fcc576f70ce74033ee4675b,5fcc576f70ce74033ee4675b,29,frog,filler,D,50,frog40.jpg,frog60.jpg,GoalB,option1;option2
1687287377,4e2274410e0dad9348e5fe356df1a7d1,PennController,32,0,experiment,NULL,PennController,31,_Trial_,End,1687287311566,5fcc576f70ce74033ee4675b,5fcc576f70ce74033ee4675b,29,frog,filler,D,50,frog40.jpg,frog60.jpg,GoalB,NULL
1687287377,4e2274410e0dad9348e5fe356df1a7d1,PennController,18,0,experiment,NULL,PennController,17,_Trial_,Start,1687287311567,5fcc576f70ce74033ee4675b,5fcc576f70ce74033ee4675b,15,zip,critical,D,75,zip65.jpg,zip85.jpg,high,NULL
1687287377,4e2274410e0dad9348e5fe356df1a7d1,PennController,18,0,experiment,NULL,PennController,17,_Header_,Start,1687287311567,5fcc576f70ce74033ee4675b,5fcc576f70ce74033ee4675b,15,zip,critical,D,75,zip65.jpg,zip85.jpg,high,NULL
1687287377,4e2274410e0dad9348e5fe356df1a7d1,PennController,18,0,experiment,NULL,PennController,17,_Header_,End,1687287311567,5fcc576f70ce74033ee4675b,5fcc576f70ce74033ee4675b,15,zip,critical,D,75,zip65.jpg,zip85.jpg,high,NULL
1687287377,4e2274410e0dad9348e5fe356df1a7d1,PennController,18,0,experiment,NULL,Canvas,canvas6,Print,NA,1687287318452,5fcc576f70ce74033ee4675b,5fcc576f70ce74033ee4675b,15,zip,critical,D,75,zip65.jpg,zip85.jpg,high,NULL
1687287377,4e2274410e0dad9348e5fe356df1a7d1,PennController,18,0,experiment,NULL,Video,progression,buffer,0.002332,1687287315083,5fcc576f70ce74033ee4675b,5fcc576f70ce74033ee4675b,15,zip,critical,D,75,zip65.jpg,zip85.jpg,high,NULL
1687287377,4e2274410e0dad9348e5fe356df1a7d1,PennController,18,0,experiment,NULL,Selector,choice,Selection,option2,1687287321295,5fcc576f70ce74033ee4675b,5fcc576f70ce74033ee4675b,15,zip,critical,D,75,zip65.jpg,zip85.jpg,high,option2;option1
1687287377,4e2274410e0dad9348e5fe356df1a7d1,PennController,18,0,experiment,NULL,PennController,17,_Trial_,End,1687287321296,5fcc576f70ce74033ee4675b,5fcc576f70ce74033ee4675b,15,zip,critical,D,75,zip65.jpg,zip85.jpg,high,NULL
1687287377,4e2274410e0dad9348e5fe356df1a7d1,PennController,12,0,experiment,NULL,PennController,11,_Trial_,Start,1687287321297,5fcc576f70ce74033ee4675b,5fcc576f70ce74033ee4675b,9,cake,critical,D,75,cake66.jpg,cake84.jpg,high,NULL
1687287377,4e2274410e0dad9348e5fe356df1a7d1,PennController,12,0,experiment,NULL,PennController,11,_Header_,Start,1687287321297,5fcc576f70ce74033ee4675b,5fcc576f70ce74033ee4675b,9,cake,critical,D,75,cake66.jpg,cake84.jpg,high,NULL
1687287377,4e2274410e0dad9348e5fe356df1a7d1,PennController,12,0,experiment,NULL,PennController,11,_Header_,End,1687287321297,5fcc576f70ce74033ee4675b,5fcc576f70ce74033ee4675b,9,cake,critical,D,75,cake66.jpg,cake84.jpg,high,NULL
1687287377,4e2274410e0dad9348e5fe356df1a7d1,PennController,12,0,experiment,NULL,Canvas,canvas6,Print,NA,1687287330980,5fcc576f70ce74033ee4675b,5fcc576f70ce74033ee4675b,9,cake,critical,D,75,cake66.jpg,cake84.jpg,high,NULL
1687287377,4e2274410e0dad9348e5fe356df1a7d1,PennController,12,0,experiment,NULL,Video,progression,buffer,0.001173,1687287324806,5fcc576f70ce74033ee4675b,5fcc576f70ce74033ee4675b,9,cake,critical,D,75,cake66.jpg,cake84.jpg,high,NULL
1687287377,4e2274410e0dad9348e5fe356df1a7d1,PennController,12,0,experiment,NULL,Selector,choice,Selection,option1,1687287332599,5fcc576f70ce74033ee4675b,5fcc576f70ce74033ee4675b,9,cake,critical,D,75,cake66.jpg,cake84.jpg,high,option2;option1
1687287377,4e2274410e0dad9348e5fe356df1a7d1,PennController,12,0,experiment,NULL,PennController,11,_Trial_,End,1687287332600,5fcc576f70ce74033ee4675b,5fcc576f70ce74033ee4675b,9,cake,critical,D,75,cake66.jpg,cake84.jpg,high,NULL
1687287377,4e2274410e0dad9348e5fe356df1a7d1,PennController,10,0,experiment,NULL,PennController,9,_Trial_,Start,1687287332600,5fcc576f70ce74033ee4675b,5fcc576f70ce74033ee4675b,7,stack,critical,D,25,stack15.jpg,stack35.jpg,high,NULL
1687287377,4e2274410e0dad9348e5fe356df1a7d1,PennController,10,0,experiment,NULL,PennController,9,_Header_,Start,1687287332600,5fcc576f70ce74033ee4675b,5fcc576f70ce74033ee4675b,7,stack,critical,D,25,stack15.jpg,stack35.jpg,high,NULL
1687287377,4e2274410e0dad9348e5fe356df1a7d1,PennController,10,0,experiment,NULL,PennController,9,_Header_,End,1687287332600,5fcc576f70ce74033ee4675b,5fcc576f70ce74033ee4675b,7,stack,critical,D,25,stack15.jpg,stack35.jpg,high,NULL
1687287377,4e2274410e0dad9348e5fe356df1a7d1,PennController,10,0,experiment,NULL,Canvas,canvas6,Print,NA,1687287338287,5fcc576f70ce74033ee4675b,5fcc576f70ce74033ee4675b,7,stack,critical,D,25,stack15.jpg,stack35.jpg,high,NULL
1687287377,4e2274410e0dad9348e5fe356df1a7d1,PennController,10,0,experiment,NULL,Video,progression,buffer,0.001482,1687287336113,5fcc576f70ce74033ee4675b,5fcc576f70ce74033ee4675b,7,stack,critical,D,25,stack15.jpg,stack35.jpg,high,NULL
1687287377,4e2274410e0dad9348e5fe356df1a7d1,PennController,10,0,experiment,NULL,Selector,choice,Selection,option1,1687287339967,5fcc576f70ce74033ee4675b,5fcc576f70ce74033ee4675b,7,stack,critical,D,25,stack15.jpg,stack35.jpg,high,option2;option1
1687287377,4e2274410e0dad9348e5fe356df1a7d1,PennController,10,0,experiment,NULL,PennController,9,_Trial_,End,1687287339968,5fcc576f70ce74033ee4675b,5fcc576f70ce74033ee4675b,7,stack,critical,D,25,stack15.jpg,stack35.jpg,high,NULL
1687287377,4e2274410e0dad9348e5fe356df1a7d1,PennController,9,0,experiment,NULL,PennController,8,_Trial_,Start,1687287339968,5fcc576f70ce74033ee4675b,5fcc576f70ce74033ee4675b,6,flower,critical,D,75,flower65.jpg,flower85.jpg,high,NULL
1687287377,4e2274410e0dad9348e5fe356df1a7d1,PennController,9,0,experiment,NULL,PennController,8,_Header_,Start,1687287339968,5fcc576f70ce74033ee4675b,5fcc576f70ce74033ee4675b,6,flower,critical,D,75,flower65.jpg,flower85.jpg,high,NULL
1687287377,4e2274410e0dad9348e5fe356df1a7d1,PennController,9,0,experiment,NULL,PennController,8,_Header_,End,1687287339968,5fcc576f70ce74033ee4675b,5fcc576f70ce74033ee4675b,6,flower,critical,D,75,flower65.jpg,flower85.jpg,high,NULL
1687287377,4e2274410e0dad9348e5fe356df1a7d1,PennController,9,0,experiment,NULL,Canvas,canvas6,Print,NA,1687287347641,5fcc576f70ce74033ee4675b,5fcc576f70ce74033ee4675b,6,flower,critical,D,75,flower65.jpg,flower85.jpg,high,NULL
1687287377,4e2274410e0dad9348e5fe356df1a7d1,PennController,9,0,experiment,NULL,Video,progression,buffer,0.001464,1687287343481,5fcc576f70ce74033ee4675b,5fcc576f70ce74033ee4675b,6,flower,critical,D,75,flower65.jpg,flower85.jpg,high,NULL
1687287377,4e2274410e0dad9348e5fe356df1a7d1,PennController,9,0,experiment,NULL,Selector,choice,Selection,option1,1687287349567,5fcc576f70ce74033ee4675b,5fcc576f70ce74033ee4675b,6,flower,critical,D,75,flower65.jpg,flower85.jpg,high,option1;option2
1687287377,4e2274410e0dad9348e5fe356df1a7d1,PennController,9,0,experiment,NULL,PennController,8,_Trial_,End,1687287349568,5fcc576f70ce74033ee4675b,5fcc576f70ce74033ee4675b,6,flower,critical,D,75,flower65.jpg,flower85.jpg,high,NULL
1687287377,4e2274410e0dad9348e5fe356df1a7d1,PennController,30,0,experiment,NULL,PennController,29,_Trial_,Start,1687287349569,5fcc576f70ce74033ee4675b,5fcc576f70ce74033ee4675b,27,square,filler,D,75,square65.jpg,square85.jpg,GoalB,NULL
1687287377,4e2274410e0dad9348e5fe356df1a7d1,PennController,30,0,experiment,NULL,PennController,29,_Header_,Start,1687287349569,5fcc576f70ce74033ee4675b,5fcc576f70ce74033ee4675b,27,square,filler,D,75,square65.jpg,square85.jpg,GoalB,NULL
1687287377,4e2274410e0dad9348e5fe356df1a7d1,PennController,30,0,experiment,NULL,PennController,29,_Header_,End,1687287349569,5fcc576f70ce74033ee4675b,5fcc576f70ce74033ee4675b,27,square,filler,D,75,square65.jpg,square85.jpg,GoalB,NULL
1687287377,4e2274410e0dad9348e5fe356df1a7d1,PennController,30,0,experiment,NULL,Canvas,canvas6,Print,NA,1687287357253,5fcc576f70ce74033ee4675b,5fcc576f70ce74033ee4675b,27,square,filler,D,75,square65.jpg,square85.jpg,GoalB,NULL
1687287377,4e2274410e0dad9348e5fe356df1a7d1,PennController,30,0,experiment,NULL,Video,progression,buffer,0.002234,1687287353085,5fcc576f70ce74033ee4675b,5fcc576f70ce74033ee4675b,27,square,filler,D,75,square65.jpg,square85.jpg,GoalB,NULL
1687287377,4e2274410e0dad9348e5fe356df1a7d1,PennController,30,0,experiment,NULL,Selector,choice,Selection,option1,1687287358951,5fcc576f70ce74033ee4675b,5fcc576f70ce74033ee4675b,27,square,filler,D,75,square65.jpg,square85.jpg,GoalB,option1;option2
1687287377,4e2274410e0dad9348e5fe356df1a7d1,PennController,30,0,experiment,NULL,PennController,29,_Trial_,End,1687287358952,5fcc576f70ce74033ee4675b,5fcc576f70ce74033ee4675b,27,square,filler,D,75,square65.jpg,square85.jpg,GoalB,NULL
1687287377,4e2274410e0dad9348e5fe356df1a7d1,PennController,5,0,experiment,NULL,PennController,4,_Trial_,Start,1687287358953,5fcc576f70ce74033ee4675b,5fcc576f70ce74033ee4675b,2,door,critical,D,50,door40.jpg,door60.jpg,high,NULL
1687287377,4e2274410e0dad9348e5fe356df1a7d1,PennController,5,0,experiment,NULL,PennController,4,_Header_,Start,1687287358953,5fcc576f70ce74033ee4675b,5fcc576f70ce74033ee4675b,2,door,critical,D,50,door40.jpg,door60.jpg,high,NULL
1687287377,4e2274410e0dad9348e5fe356df1a7d1,PennController,5,0,experiment,NULL,PennController,4,_Header_,End,1687287358953,5fcc576f70ce74033ee4675b,5fcc576f70ce74033ee4675b,2,door,critical,D,50,door40.jpg,door60.jpg,high,NULL
1687287377,4e2274410e0dad9348e5fe356df1a7d1,PennController,5,0,experiment,NULL,Canvas,canvas6,Print,NA,1687287365627,5fcc576f70ce74033ee4675b,5fcc576f70ce74033ee4675b,2,door,critical,D,50,door40.jpg,door60.jpg,high,NULL
1687287377,4e2274410e0dad9348e5fe356df1a7d1,PennController,5,0,experiment,NULL,Video,progression,buffer,0.000981,1687287362466,5fcc576f70ce74033ee4675b,5fcc576f70ce74033ee4675b,2,door,critical,D,50,door40.jpg,door60.jpg,high,NULL
1687287377,4e2274410e0dad9348e5fe356df1a7d1,PennController,5,0,experiment,NULL,Selector,choice,Selection,option1,1687287368215,5fcc576f70ce74033ee4675b,5fcc576f70ce74033ee4675b,2,door,critical,D,50,door40.jpg,door60.jpg,high,option2;option1
1687287377,4e2274410e0dad9348e5fe356df1a7d1,PennController,5,0,experiment,NULL,PennController,4,_Trial_,End,1687287368216,5fcc576f70ce74033ee4675b,5fcc576f70ce74033ee4675b,2,door,critical,D,50,door40.jpg,door60.jpg,high,NULL
1687287377,4e2274410e0dad9348e5fe356df1a7d1,PennController,6,0,experiment,NULL,PennController,5,_Trial_,Start,1687287368217,5fcc576f70ce74033ee4675b,5fcc576f70ce74033ee4675b,3,clean,critical,D,75,clean65.jpg,clean85.jpg,high,NULL
1687287377,4e2274410e0dad9348e5fe356df1a7d1,PennController,6,0,experiment,NULL,PennController,5,_Header_,Start,1687287368217,5fcc576f70ce74033ee4675b,5fcc576f70ce74033ee4675b,3,clean,critical,D,75,clean65.jpg,clean85.jpg,high,NULL
1687287377,4e2274410e0dad9348e5fe356df1a7d1,PennController,6,0,experiment,NULL,PennController,5,_Header_,End,1687287368217,5fcc576f70ce74033ee4675b,5fcc576f70ce74033ee4675b,3,clean,critical,D,75,clean65.jpg,clean85.jpg,high,NULL
1687287377,4e2274410e0dad9348e5fe356df1a7d1,PennController,6,0,experiment,NULL,Canvas,canvas6,Print,NA,1687287375902,5fcc576f70ce74033ee4675b,5fcc576f70ce74033ee4675b,3,clean,critical,D,75,clean65.jpg,clean85.jpg,high,NULL
1687287377,4e2274410e0dad9348e5fe356df1a7d1,PennController,6,0,experiment,NULL,Video,progression,buffer,0.001447,1687287371732,5fcc576f70ce74033ee4675b,5fcc576f70ce74033ee4675b,3,clean,critical,D,75,clean65.jpg,clean85.jpg,high,NULL
1687287377,4e2274410e0dad9348e5fe356df1a7d1,PennController,6,0,experiment,NULL,Selector,choice,Selection,option1,1687287377648,5fcc576f70ce74033ee4675b,5fcc576f70ce74033ee4675b,3,clean,critical,D,75,clean65.jpg,clean85.jpg,high,option2;option1
1687287377,4e2274410e0dad9348e5fe356df1a7d1,PennController,6,0,experiment,NULL,PennController,5,_Trial_,End,1687287377649,5fcc576f70ce74033ee4675b,5fcc576f70ce74033ee4675b,3,clean,critical,D,75,clean65.jpg,clean85.jpg,high,NULL
