#
# Results on Thursday June 22 2023 05:52:31 UTC
# USER AGENT: Mozilla/5.0 (Windows NT 10.0; Win64; x64) AppleWebKit/537.36 (KHTML, like Gecko) Chrome/114.0.0.0 Safari/537.36
# Design number was non-random = 87
#
# Columns below this comment are as follows:
# 1. Results reception time.
# 2. MD5 hash of participant's IP address.
# 3. Controller name.
# 4. Order number of item.
# 5. Inner element number.
# 6. Label.
# 7. Latin Square Group.
# 8. PennElementType.
# 9. PennElementName.
# 10. Parameter.
# 11. Value.
# 12. EventTime.
# 13. PROLIFIC_ID.
# 14. Comments.
1687413151,8f0d99f63283e772acb90b5aa72635f1,PennController,3,0,consent,NULL,PennController,0,_Trial_,Start,1687412751802,61114afca21c9e68842444cf,NULL
1687413151,8f0d99f63283e772acb90b5aa72635f1,PennController,3,0,consent,NULL,PennController,0,_Header_,Start,1687412751802,61114afca21c9e68842444cf,NULL
1687413151,8f0d99f63283e772acb90b5aa72635f1,PennController,3,0,consent,NULL,PennController,0,_Header_,End,1687412751802,61114afca21c9e68842444cf,NULL
1687413151,8f0d99f63283e772acb90b5aa72635f1,PennController,3,0,consent,NULL,PennController,0,_Trial_,End,1687412762206,61114afca21c9e68842444cf,NULL
# Columns below this comment are as follows:
# 14. ID.
# 15. Comments.
1687413151,8f0d99f63283e772acb90b5aa72635f1,PennController,4,0,intro,NULL,PennController,1,_Trial_,Start,1687412762211,61114afca21c9e68842444cf,61114afca21c9e68842444cf,NULL
1687413151,8f0d99f63283e772acb90b5aa72635f1,PennController,4,0,intro,NULL,PennController,1,_Header_,Start,1687412762211,61114afca21c9e68842444cf,61114afca21c9e68842444cf,NULL
1687413151,8f0d99f63283e772acb90b5aa72635f1,PennController,4,0,intro,NULL,PennController,1,_Header_,End,1687412762211,61114afca21c9e68842444cf,61114afca21c9e68842444cf,NULL
1687413151,8f0d99f63283e772acb90b5aa72635f1,PennController,4,0,intro,NULL,PennController,1,_Trial_,End,1687412838391,61114afca21c9e68842444cf,61114afca21c9e68842444cf,NULL
# Columns below this comment are as follows:
# 15. item_number.
# 16. item.
# 17. type.
# 18. Group.
# 19. prog.
# 20. prev_image.
# 21. next_image.
# 22. height.
# 23. Comments.
1687413151,8f0d99f63283e772acb90b5aa72635f1,PennController,27,0,experiment,NULL,PennController,25,_Trial_,Start,1687412838692,61114afca21c9e68842444cf,61114afca21c9e68842444cf,23,color,filler,B,75,color65.jpg,color85.jpg,GoalA,NULL
1687413151,8f0d99f63283e772acb90b5aa72635f1,PennController,27,0,experiment,NULL,PennController,25,_Header_,Start,1687412838692,61114afca21c9e68842444cf,61114afca21c9e68842444cf,23,color,filler,B,75,color65.jpg,color85.jpg,GoalA,NULL
1687413151,8f0d99f63283e772acb90b5aa72635f1,PennController,27,0,experiment,NULL,PennController,25,_Header_,End,1687412838692,61114afca21c9e68842444cf,61114afca21c9e68842444cf,23,color,filler,B,75,color65.jpg,color85.jpg,GoalA,NULL
1687413151,8f0d99f63283e772acb90b5aa72635f1,PennController,27,0,experiment,NULL,Canvas,canvas6,Print,NA,1687412848266,61114afca21c9e68842444cf,61114afca21c9e68842444cf,23,color,filler,B,75,color65.jpg,color85.jpg,GoalA,NULL
1687413151,8f0d99f63283e772acb90b5aa72635f1,PennController,27,0,experiment,NULL,Video,progression,buffer,0.339,1687412844176,61114afca21c9e68842444cf,61114afca21c9e68842444cf,23,color,filler,B,75,color65.jpg,color85.jpg,GoalA,NULL
1687413151,8f0d99f63283e772acb90b5aa72635f1,PennController,27,0,experiment,NULL,Selector,choice,Selection,option2,1687412888959,61114afca21c9e68842444cf,61114afca21c9e68842444cf,23,color,filler,B,75,color65.jpg,color85.jpg,GoalA,option2;option1
1687413151,8f0d99f63283e772acb90b5aa72635f1,PennController,27,0,experiment,NULL,PennController,25,_Trial_,End,1687412888966,61114afca21c9e68842444cf,61114afca21c9e68842444cf,23,color,filler,B,75,color65.jpg,color85.jpg,GoalA,NULL
1687413151,8f0d99f63283e772acb90b5aa72635f1,PennController,11,0,experiment,NULL,PennController,9,_Trial_,Start,1687412888969,61114afca21c9e68842444cf,61114afca21c9e68842444cf,7,stack,critical,B,50,stack40.jpg,stack60.jpg,low,NULL
1687413151,8f0d99f63283e772acb90b5aa72635f1,PennController,11,0,experiment,NULL,PennController,9,_Header_,Start,1687412888969,61114afca21c9e68842444cf,61114afca21c9e68842444cf,7,stack,critical,B,50,stack40.jpg,stack60.jpg,low,NULL
1687413151,8f0d99f63283e772acb90b5aa72635f1,PennController,11,0,experiment,NULL,PennController,9,_Header_,End,1687412888969,61114afca21c9e68842444cf,61114afca21c9e68842444cf,7,stack,critical,B,50,stack40.jpg,stack60.jpg,low,NULL
1687413151,8f0d99f63283e772acb90b5aa72635f1,PennController,11,0,experiment,NULL,Canvas,canvas6,Print,NA,1687412896014,61114afca21c9e68842444cf,61114afca21c9e68842444cf,7,stack,critical,B,50,stack40.jpg,stack60.jpg,low,NULL
1687413151,8f0d99f63283e772acb90b5aa72635f1,PennController,11,0,experiment,NULL,Video,progression,buffer,0.236,1687412893033,61114afca21c9e68842444cf,61114afca21c9e68842444cf,7,stack,critical,B,50,stack40.jpg,stack60.jpg,low,NULL
1687413151,8f0d99f63283e772acb90b5aa72635f1,PennController,11,0,experiment,NULL,Selector,choice,Selection,option2,1687412903642,61114afca21c9e68842444cf,61114afca21c9e68842444cf,7,stack,critical,B,50,stack40.jpg,stack60.jpg,low,option1;option2
1687413151,8f0d99f63283e772acb90b5aa72635f1,PennController,11,0,experiment,NULL,PennController,9,_Trial_,End,1687412903644,61114afca21c9e68842444cf,61114afca21c9e68842444cf,7,stack,critical,B,50,stack40.jpg,stack60.jpg,low,NULL
1687413151,8f0d99f63283e772acb90b5aa72635f1,PennController,15,0,experiment,NULL,PennController,13,_Trial_,Start,1687412903646,61114afca21c9e68842444cf,61114afca21c9e68842444cf,11,beads,critical,B,75,beads65.jpg,beads85.jpg,low,NULL
1687413151,8f0d99f63283e772acb90b5aa72635f1,PennController,15,0,experiment,NULL,PennController,13,_Header_,Start,1687412903646,61114afca21c9e68842444cf,61114afca21c9e68842444cf,11,beads,critical,B,75,beads65.jpg,beads85.jpg,low,NULL
1687413151,8f0d99f63283e772acb90b5aa72635f1,PennController,15,0,experiment,NULL,PennController,13,_Header_,End,1687412903646,61114afca21c9e68842444cf,61114afca21c9e68842444cf,11,beads,critical,B,75,beads65.jpg,beads85.jpg,low,NULL
1687413151,8f0d99f63283e772acb90b5aa72635f1,PennController,15,0,experiment,NULL,Canvas,canvas6,Print,NA,1687412911342,61114afca21c9e68842444cf,61114afca21c9e68842444cf,11,beads,critical,B,75,beads65.jpg,beads85.jpg,low,NULL
1687413151,8f0d99f63283e772acb90b5aa72635f1,PennController,15,0,experiment,NULL,Video,progression,buffer,0.034,1687412907211,61114afca21c9e68842444cf,61114afca21c9e68842444cf,11,beads,critical,B,75,beads65.jpg,beads85.jpg,low,NULL
1687413151,8f0d99f63283e772acb90b5aa72635f1,PennController,15,0,experiment,NULL,Selector,choice,Selection,option1,1687412915434,61114afca21c9e68842444cf,61114afca21c9e68842444cf,11,beads,critical,B,75,beads65.jpg,beads85.jpg,low,option1;option2
1687413151,8f0d99f63283e772acb90b5aa72635f1,PennController,15,0,experiment,NULL,PennController,13,_Trial_,End,1687412915436,61114afca21c9e68842444cf,61114afca21c9e68842444cf,11,beads,critical,B,75,beads65.jpg,beads85.jpg,low,NULL
1687413151,8f0d99f63283e772acb90b5aa72635f1,PennController,16,0,experiment,NULL,PennController,14,_Trial_,Start,1687412915439,61114afca21c9e68842444cf,61114afca21c9e68842444cf,12,erase,critical,B,25,erase15.jpg,erase33.jpg,low,NULL
1687413151,8f0d99f63283e772acb90b5aa72635f1,PennController,16,0,experiment,NULL,PennController,14,_Header_,Start,1687412915439,61114afca21c9e68842444cf,61114afca21c9e68842444cf,12,erase,critical,B,25,erase15.jpg,erase33.jpg,low,NULL
1687413151,8f0d99f63283e772acb90b5aa72635f1,PennController,16,0,experiment,NULL,PennController,14,_Header_,End,1687412915439,61114afca21c9e68842444cf,61114afca21c9e68842444cf,12,erase,critical,B,25,erase15.jpg,erase33.jpg,low,NULL
1687413151,8f0d99f63283e772acb90b5aa72635f1,PennController,16,0,experiment,NULL,Canvas,canvas6,Print,NA,1687412921761,61114afca21c9e68842444cf,61114afca21c9e68842444cf,12,erase,critical,B,25,erase15.jpg,erase33.jpg,low,NULL
1687413151,8f0d99f63283e772acb90b5aa72635f1,PennController,16,0,experiment,NULL,Video,progression,buffer,0.008,1687412918998,61114afca21c9e68842444cf,61114afca21c9e68842444cf,12,erase,critical,B,25,erase15.jpg,erase33.jpg,low,NULL
1687413151,8f0d99f63283e772acb90b5aa72635f1,PennController,16,0,experiment,NULL,Selector,choice,Selection,option1,1687412926099,61114afca21c9e68842444cf,61114afca21c9e68842444cf,12,erase,critical,B,25,erase15.jpg,erase33.jpg,low,option2;option1
1687413151,8f0d99f63283e772acb90b5aa72635f1,PennController,16,0,experiment,NULL,PennController,14,_Trial_,End,1687412926101,61114afca21c9e68842444cf,61114afca21c9e68842444cf,12,erase,critical,B,25,erase15.jpg,erase33.jpg,low,NULL
1687413151,8f0d99f63283e772acb90b5aa72635f1,PennController,30,0,experiment,NULL,PennController,28,_Trial_,Start,1687412926102,61114afca21c9e68842444cf,61114afca21c9e68842444cf,26,sandwich,filler,B,75,sandwich65.jpg,sandwich85.jpg,GoalB,NULL
1687413151,8f0d99f63283e772acb90b5aa72635f1,PennController,30,0,experiment,NULL,PennController,28,_Header_,Start,1687412926102,61114afca21c9e68842444cf,61114afca21c9e68842444cf,26,sandwich,filler,B,75,sandwich65.jpg,sandwich85.jpg,GoalB,NULL
1687413151,8f0d99f63283e772acb90b5aa72635f1,PennController,30,0,experiment,NULL,PennController,28,_Header_,End,1687412926102,61114afca21c9e68842444cf,61114afca21c9e68842444cf,26,sandwich,filler,B,75,sandwich65.jpg,sandwich85.jpg,GoalB,NULL
1687413151,8f0d99f63283e772acb90b5aa72635f1,PennController,30,0,experiment,NULL,Canvas,canvas6,Print,NA,1687412933806,61114afca21c9e68842444cf,61114afca21c9e68842444cf,26,sandwich,filler,B,75,sandwich65.jpg,sandwich85.jpg,GoalB,NULL
1687413151,8f0d99f63283e772acb90b5aa72635f1,PennController,30,0,experiment,NULL,Video,progression,buffer,0.02,1687412929662,61114afca21c9e68842444cf,61114afca21c9e68842444cf,26,sandwich,filler,B,75,sandwich65.jpg,sandwich85.jpg,GoalB,NULL
1687413151,8f0d99f63283e772acb90b5aa72635f1,PennController,30,0,experiment,NULL,Selector,choice,Selection,option1,1687412938042,61114afca21c9e68842444cf,61114afca21c9e68842444cf,26,sandwich,filler,B,75,sandwich65.jpg,sandwich85.jpg,GoalB,option2;option1
1687413151,8f0d99f63283e772acb90b5aa72635f1,PennController,30,0,experiment,NULL,PennController,28,_Trial_,End,1687412938045,61114afca21c9e68842444cf,61114afca21c9e68842444cf,26,sandwich,filler,B,75,sandwich65.jpg,sandwich85.jpg,GoalB,NULL
1687413151,8f0d99f63283e772acb90b5aa72635f1,PennController,6,0,experiment,NULL,PennController,4,_Trial_,Start,1687412938047,61114afca21c9e68842444cf,61114afca21c9e68842444cf,2,door,critical,B,75,door65.jpg,door85.jpg,low,NULL
1687413151,8f0d99f63283e772acb90b5aa72635f1,PennController,6,0,experiment,NULL,PennController,4,_Header_,Start,1687412938047,61114afca21c9e68842444cf,61114afca21c9e68842444cf,2,door,critical,B,75,door65.jpg,door85.jpg,low,NULL
1687413151,8f0d99f63283e772acb90b5aa72635f1,PennController,6,0,experiment,NULL,PennController,4,_Header_,End,1687412938047,61114afca21c9e68842444cf,61114afca21c9e68842444cf,2,door,critical,B,75,door65.jpg,door85.jpg,low,NULL
1687413151,8f0d99f63283e772acb90b5aa72635f1,PennController,6,0,experiment,NULL,Canvas,canvas6,Print,NA,1687412945757,61114afca21c9e68842444cf,61114afca21c9e68842444cf,2,door,critical,B,75,door65.jpg,door85.jpg,low,NULL
1687413151,8f0d99f63283e772acb90b5aa72635f1,PennController,6,0,experiment,NULL,Video,progression,buffer,0.011,1687412941601,61114afca21c9e68842444cf,61114afca21c9e68842444cf,2,door,critical,B,75,door65.jpg,door85.jpg,low,NULL
1687413151,8f0d99f63283e772acb90b5aa72635f1,PennController,6,0,experiment,NULL,Selector,choice,Selection,option2,1687412948698,61114afca21c9e68842444cf,61114afca21c9e68842444cf,2,door,critical,B,75,door65.jpg,door85.jpg,low,option2;option1
1687413151,8f0d99f63283e772acb90b5aa72635f1,PennController,6,0,experiment,NULL,PennController,4,_Trial_,End,1687412948700,61114afca21c9e68842444cf,61114afca21c9e68842444cf,2,door,critical,B,75,door65.jpg,door85.jpg,low,NULL
1687413151,8f0d99f63283e772acb90b5aa72635f1,PennController,28,0,experiment,NULL,PennController,26,_Trial_,Start,1687412948701,61114afca21c9e68842444cf,61114afca21c9e68842444cf,24,match,filler,B,25,match15.jpg,match35.jpg,GoalB,NULL
1687413151,8f0d99f63283e772acb90b5aa72635f1,PennController,28,0,experiment,NULL,PennController,26,_Header_,Start,1687412948701,61114afca21c9e68842444cf,61114afca21c9e68842444cf,24,match,filler,B,25,match15.jpg,match35.jpg,GoalB,NULL
1687413151,8f0d99f63283e772acb90b5aa72635f1,PennController,28,0,experiment,NULL,PennController,26,_Header_,End,1687412948701,61114afca21c9e68842444cf,61114afca21c9e68842444cf,24,match,filler,B,25,match15.jpg,match35.jpg,GoalB,NULL
1687413151,8f0d99f63283e772acb90b5aa72635f1,PennController,28,0,experiment,NULL,Canvas,canvas6,Print,NA,1687412954410,61114afca21c9e68842444cf,61114afca21c9e68842444cf,24,match,filler,B,25,match15.jpg,match35.jpg,GoalB,NULL
1687413151,8f0d99f63283e772acb90b5aa72635f1,PennController,28,0,experiment,NULL,Video,progression,buffer,0.008,1687412952236,61114afca21c9e68842444cf,61114afca21c9e68842444cf,24,match,filler,B,25,match15.jpg,match35.jpg,GoalB,NULL
1687413151,8f0d99f63283e772acb90b5aa72635f1,PennController,28,0,experiment,NULL,Selector,choice,Selection,option1,1687412956306,61114afca21c9e68842444cf,61114afca21c9e68842444cf,24,match,filler,B,25,match15.jpg,match35.jpg,GoalB,option1;option2
1687413151,8f0d99f63283e772acb90b5aa72635f1,PennController,28,0,experiment,NULL,PennController,26,_Trial_,End,1687412956309,61114afca21c9e68842444cf,61114afca21c9e68842444cf,24,match,filler,B,25,match15.jpg,match35.jpg,GoalB,NULL
1687413151,8f0d99f63283e772acb90b5aa72635f1,PennController,26,0,experiment,NULL,PennController,24,_Trial_,Start,1687412956311,61114afca21c9e68842444cf,61114afca21c9e68842444cf,22,wall,filler,B,50,wall40.jpg,wall60.jpg,GoalB,NULL
1687413151,8f0d99f63283e772acb90b5aa72635f1,PennController,26,0,experiment,NULL,PennController,24,_Header_,Start,1687412956311,61114afca21c9e68842444cf,61114afca21c9e68842444cf,22,wall,filler,B,50,wall40.jpg,wall60.jpg,GoalB,NULL
1687413151,8f0d99f63283e772acb90b5aa72635f1,PennController,26,0,experiment,NULL,PennController,24,_Header_,End,1687412956312,61114afca21c9e68842444cf,61114afca21c9e68842444cf,22,wall,filler,B,50,wall40.jpg,wall60.jpg,GoalB,NULL
1687413151,8f0d99f63283e772acb90b5aa72635f1,PennController,26,0,experiment,NULL,Canvas,canvas6,Print,NA,1687412963012,61114afca21c9e68842444cf,61114afca21c9e68842444cf,22,wall,filler,B,50,wall40.jpg,wall60.jpg,GoalB,NULL
1687413151,8f0d99f63283e772acb90b5aa72635f1,PennController,26,0,experiment,NULL,Video,progression,buffer,0.007,1687412959845,61114afca21c9e68842444cf,61114afca21c9e68842444cf,22,wall,filler,B,50,wall40.jpg,wall60.jpg,GoalB,NULL
1687413151,8f0d99f63283e772acb90b5aa72635f1,PennController,26,0,experiment,NULL,Selector,choice,Selection,option2,1687412964811,61114afca21c9e68842444cf,61114afca21c9e68842444cf,22,wall,filler,B,50,wall40.jpg,wall60.jpg,GoalB,option1;option2
1687413151,8f0d99f63283e772acb90b5aa72635f1,PennController,26,0,experiment,NULL,PennController,24,_Trial_,End,1687412964812,61114afca21c9e68842444cf,61114afca21c9e68842444cf,22,wall,filler,B,50,wall40.jpg,wall60.jpg,GoalB,NULL
1687413151,8f0d99f63283e772acb90b5aa72635f1,PennController,25,0,experiment,NULL,PennController,23,_Trial_,Start,1687412964814,61114afca21c9e68842444cf,61114afca21c9e68842444cf,21,visit,filler,B,25,visit15.jpg,visit35.jpg,GoalA,NULL
1687413151,8f0d99f63283e772acb90b5aa72635f1,PennController,25,0,experiment,NULL,PennController,23,_Header_,Start,1687412964814,61114afca21c9e68842444cf,61114afca21c9e68842444cf,21,visit,filler,B,25,visit15.jpg,visit35.jpg,GoalA,NULL
1687413151,8f0d99f63283e772acb90b5aa72635f1,PennController,25,0,experiment,NULL,PennController,23,_Header_,End,1687412964814,61114afca21c9e68842444cf,61114afca21c9e68842444cf,21,visit,filler,B,25,visit15.jpg,visit35.jpg,GoalA,NULL
1687413151,8f0d99f63283e772acb90b5aa72635f1,PennController,25,0,experiment,NULL,Canvas,canvas6,Print,NA,1687412970663,61114afca21c9e68842444cf,61114afca21c9e68842444cf,21,visit,filler,B,25,visit15.jpg,visit35.jpg,GoalA,NULL
1687413151,8f0d99f63283e772acb90b5aa72635f1,PennController,25,0,experiment,NULL,Video,progression,buffer,0,1687412968430,61114afca21c9e68842444cf,61114afca21c9e68842444cf,21,visit,filler,B,25,visit15.jpg,visit35.jpg,GoalA,NULL
1687413151,8f0d99f63283e772acb90b5aa72635f1,PennController,25,0,experiment,NULL,Selector,choice,Selection,option1,1687412972506,61114afca21c9e68842444cf,61114afca21c9e68842444cf,21,visit,filler,B,25,visit15.jpg,visit35.jpg,GoalA,option1;option2
1687413151,8f0d99f63283e772acb90b5aa72635f1,PennController,25,0,experiment,NULL,PennController,23,_Trial_,End,1687412972508,61114afca21c9e68842444cf,61114afca21c9e68842444cf,21,visit,filler,B,25,visit15.jpg,visit35.jpg,GoalA,NULL
1687413151,8f0d99f63283e772acb90b5aa72635f1,PennController,10,0,experiment,NULL,PennController,8,_Trial_,Start,1687412972510,61114afca21c9e68842444cf,61114afca21c9e68842444cf,6,flower,critical,B,25,flower15.jpg,flower35.jpg,low,NULL
1687413151,8f0d99f63283e772acb90b5aa72635f1,PennController,10,0,experiment,NULL,PennController,8,_Header_,Start,1687412972510,61114afca21c9e68842444cf,61114afca21c9e68842444cf,6,flower,critical,B,25,flower15.jpg,flower35.jpg,low,NULL
1687413151,8f0d99f63283e772acb90b5aa72635f1,PennController,10,0,experiment,NULL,PennController,8,_Header_,End,1687412972510,61114afca21c9e68842444cf,61114afca21c9e68842444cf,6,flower,critical,B,25,flower15.jpg,flower35.jpg,low,NULL
1687413151,8f0d99f63283e772acb90b5aa72635f1,PennController,10,0,experiment,NULL,Canvas,canvas6,Print,NA,1687412978269,61114afca21c9e68842444cf,61114afca21c9e68842444cf,6,flower,critical,B,25,flower15.jpg,flower35.jpg,low,NULL
1687413151,8f0d99f63283e772acb90b5aa72635f1,PennController,10,0,experiment,NULL,Video,progression,buffer,0.009,1687412976116,61114afca21c9e68842444cf,61114afca21c9e68842444cf,6,flower,critical,B,25,flower15.jpg,flower35.jpg,low,NULL
1687413151,8f0d99f63283e772acb90b5aa72635f1,PennController,10,0,experiment,NULL,Selector,choice,Selection,option2,1687412979795,61114afca21c9e68842444cf,61114afca21c9e68842444cf,6,flower,critical,B,25,flower15.jpg,flower35.jpg,low,option2;option1
1687413151,8f0d99f63283e772acb90b5aa72635f1,PennController,10,0,experiment,NULL,PennController,8,_Trial_,End,1687412979795,61114afca21c9e68842444cf,61114afca21c9e68842444cf,6,flower,critical,B,25,flower15.jpg,flower35.jpg,low,NULL
1687413151,8f0d99f63283e772acb90b5aa72635f1,PennController,12,0,experiment,NULL,PennController,10,_Trial_,Start,1687412979797,61114afca21c9e68842444cf,61114afca21c9e68842444cf,8,cucumber,critical,B,75,cucumber66.jpg,cucumber84.jpg,low,NULL
1687413151,8f0d99f63283e772acb90b5aa72635f1,PennController,12,0,experiment,NULL,PennController,10,_Header_,Start,1687412979797,61114afca21c9e68842444cf,61114afca21c9e68842444cf,8,cucumber,critical,B,75,cucumber66.jpg,cucumber84.jpg,low,NULL
1687413151,8f0d99f63283e772acb90b5aa72635f1,PennController,12,0,experiment,NULL,PennController,10,_Header_,End,1687412979797,61114afca21c9e68842444cf,61114afca21c9e68842444cf,8,cucumber,critical,B,75,cucumber66.jpg,cucumber84.jpg,low,NULL
1687413151,8f0d99f63283e772acb90b5aa72635f1,PennController,12,0,experiment,NULL,Canvas,canvas6,Print,NA,1687412990238,61114afca21c9e68842444cf,61114afca21c9e68842444cf,8,cucumber,critical,B,75,cucumber66.jpg,cucumber84.jpg,low,NULL
1687413151,8f0d99f63283e772acb90b5aa72635f1,PennController,12,0,experiment,NULL,Video,progression,buffer,0.02,1687412984102,61114afca21c9e68842444cf,61114afca21c9e68842444cf,8,cucumber,critical,B,75,cucumber66.jpg,cucumber84.jpg,low,NULL
1687413151,8f0d99f63283e772acb90b5aa72635f1,PennController,12,0,experiment,NULL,Video,progression,buffer,2.382,1687412986468,61114afca21c9e68842444cf,61114afca21c9e68842444cf,8,cucumber,critical,B,75,cucumber66.jpg,cucumber84.jpg,low,NULL
1687413151,8f0d99f63283e772acb90b5aa72635f1,PennController,12,0,experiment,NULL,Selector,choice,Selection,option2,1687412991906,61114afca21c9e68842444cf,61114afca21c9e68842444cf,8,cucumber,critical,B,75,cucumber66.jpg,cucumber84.jpg,low,option2;option1
1687413151,8f0d99f63283e772acb90b5aa72635f1,PennController,12,0,experiment,NULL,PennController,10,_Trial_,End,1687412991908,61114afca21c9e68842444cf,61114afca21c9e68842444cf,8,cucumber,critical,B,75,cucumber66.jpg,cucumber84.jpg,low,NULL
1687413151,8f0d99f63283e772acb90b5aa72635f1,PennController,9,0,experiment,NULL,PennController,7,_Trial_,Start,1687412991934,61114afca21c9e68842444cf,61114afca21c9e68842444cf,5,book,critical,B,75,book65.jpg,book85.jpg,low,NULL
1687413151,8f0d99f63283e772acb90b5aa72635f1,PennController,9,0,experiment,NULL,PennController,7,_Header_,Start,1687412991934,61114afca21c9e68842444cf,61114afca21c9e68842444cf,5,book,critical,B,75,book65.jpg,book85.jpg,low,NULL
1687413151,8f0d99f63283e772acb90b5aa72635f1,PennController,9,0,experiment,NULL,PennController,7,_Header_,End,1687412991934,61114afca21c9e68842444cf,61114afca21c9e68842444cf,5,book,critical,B,75,book65.jpg,book85.jpg,low,NULL
1687413151,8f0d99f63283e772acb90b5aa72635f1,PennController,9,0,experiment,NULL,Canvas,canvas6,Print,NA,1687412999654,61114afca21c9e68842444cf,61114afca21c9e68842444cf,5,book,critical,B,75,book65.jpg,book85.jpg,low,NULL
1687413151,8f0d99f63283e772acb90b5aa72635f1,PennController,9,0,experiment,NULL,Video,progression,buffer,0.024,1687412995503,61114afca21c9e68842444cf,61114afca21c9e68842444cf,5,book,critical,B,75,book65.jpg,book85.jpg,low,NULL
1687413151,8f0d99f63283e772acb90b5aa72635f1,PennController,9,0,experiment,NULL,Selector,choice,Selection,option1,1687413000993,61114afca21c9e68842444cf,61114afca21c9e68842444cf,5,book,critical,B,75,book65.jpg,book85.jpg,low,option1;option2
1687413151,8f0d99f63283e772acb90b5aa72635f1,PennController,9,0,experiment,NULL,PennController,7,_Trial_,End,1687413000994,61114afca21c9e68842444cf,61114afca21c9e68842444cf,5,book,critical,B,75,book65.jpg,book85.jpg,low,NULL
1687413151,8f0d99f63283e772acb90b5aa72635f1,PennController,8,0,experiment,NULL,PennController,6,_Trial_,Start,1687413000996,61114afca21c9e68842444cf,61114afca21c9e68842444cf,4,candy,critical,B,50,candy40.jpg,candy60.jpg,low,NULL
1687413151,8f0d99f63283e772acb90b5aa72635f1,PennController,8,0,experiment,NULL,PennController,6,_Header_,Start,1687413000996,61114afca21c9e68842444cf,61114afca21c9e68842444cf,4,candy,critical,B,50,candy40.jpg,candy60.jpg,low,NULL
1687413151,8f0d99f63283e772acb90b5aa72635f1,PennController,8,0,experiment,NULL,PennController,6,_Header_,End,1687413000996,61114afca21c9e68842444cf,61114afca21c9e68842444cf,4,candy,critical,B,50,candy40.jpg,candy60.jpg,low,NULL
1687413151,8f0d99f63283e772acb90b5aa72635f1,PennController,8,0,experiment,NULL,Canvas,canvas6,Print,NA,1687413007703,61114afca21c9e68842444cf,61114afca21c9e68842444cf,4,candy,critical,B,50,candy40.jpg,candy60.jpg,low,NULL
1687413151,8f0d99f63283e772acb90b5aa72635f1,PennController,8,0,experiment,NULL,Video,progression,buffer,0.007,1687413004531,61114afca21c9e68842444cf,61114afca21c9e68842444cf,4,candy,critical,B,50,candy40.jpg,candy60.jpg,low,NULL
1687413151,8f0d99f63283e772acb90b5aa72635f1,PennController,8,0,experiment,NULL,Selector,choice,Selection,option2,1687413009345,61114afca21c9e68842444cf,61114afca21c9e68842444cf,4,candy,critical,B,50,candy40.jpg,candy60.jpg,low,option1;option2
1687413151,8f0d99f63283e772acb90b5aa72635f1,PennController,8,0,experiment,NULL,PennController,6,_Trial_,End,1687413009347,61114afca21c9e68842444cf,61114afca21c9e68842444cf,4,candy,critical,B,50,candy40.jpg,candy60.jpg,low,NULL
1687413151,8f0d99f63283e772acb90b5aa72635f1,PennController,17,0,experiment,NULL,PennController,15,_Trial_,Start,1687413009349,61114afca21c9e68842444cf,61114afca21c9e68842444cf,13,mix,critical,B,50,mix40.jpg,mix60.jpg,low,NULL
1687413151,8f0d99f63283e772acb90b5aa72635f1,PennController,17,0,experiment,NULL,PennController,15,_Header_,Start,1687413009349,61114afca21c9e68842444cf,61114afca21c9e68842444cf,13,mix,critical,B,50,mix40.jpg,mix60.jpg,low,NULL
1687413151,8f0d99f63283e772acb90b5aa72635f1,PennController,17,0,experiment,NULL,PennController,15,_Header_,End,1687413009349,61114afca21c9e68842444cf,61114afca21c9e68842444cf,13,mix,critical,B,50,mix40.jpg,mix60.jpg,low,NULL
1687413151,8f0d99f63283e772acb90b5aa72635f1,PennController,17,0,experiment,NULL,Canvas,canvas6,Print,NA,1687413016071,61114afca21c9e68842444cf,61114afca21c9e68842444cf,13,mix,critical,B,50,mix40.jpg,mix60.jpg,low,NULL
1687413151,8f0d99f63283e772acb90b5aa72635f1,PennController,17,0,experiment,NULL,Video,progression,buffer,0,1687413012892,61114afca21c9e68842444cf,61114afca21c9e68842444cf,13,mix,critical,B,50,mix40.jpg,mix60.jpg,low,NULL
1687413151,8f0d99f63283e772acb90b5aa72635f1,PennController,17,0,experiment,NULL,Selector,choice,Selection,option1,1687413017873,61114afca21c9e68842444cf,61114afca21c9e68842444cf,13,mix,critical,B,50,mix40.jpg,mix60.jpg,low,option1;option2
1687413151,8f0d99f63283e772acb90b5aa72635f1,PennController,17,0,experiment,NULL,PennController,15,_Trial_,End,1687413017875,61114afca21c9e68842444cf,61114afca21c9e68842444cf,13,mix,critical,B,50,mix40.jpg,mix60.jpg,low,NULL
1687413151,8f0d99f63283e772acb90b5aa72635f1,PennController,33,0,experiment,NULL,PennController,31,_Trial_,Start,1687413017876,61114afca21c9e68842444cf,61114afca21c9e68842444cf,29,frog,filler,B,75,frog65.jpg,frog85.jpg,GoalA,NULL
1687413151,8f0d99f63283e772acb90b5aa72635f1,PennController,33,0,experiment,NULL,PennController,31,_Header_,Start,1687413017876,61114afca21c9e68842444cf,61114afca21c9e68842444cf,29,frog,filler,B,75,frog65.jpg,frog85.jpg,GoalA,NULL
1687413151,8f0d99f63283e772acb90b5aa72635f1,PennController,33,0,experiment,NULL,PennController,31,_Header_,End,1687413017877,61114afca21c9e68842444cf,61114afca21c9e68842444cf,29,frog,filler,B,75,frog65.jpg,frog85.jpg,GoalA,NULL
1687413151,8f0d99f63283e772acb90b5aa72635f1,PennController,33,0,experiment,NULL,Canvas,canvas6,Print,NA,1687413025604,61114afca21c9e68842444cf,61114afca21c9e68842444cf,29,frog,filler,B,75,frog65.jpg,frog85.jpg,GoalA,NULL
1687413151,8f0d99f63283e772acb90b5aa72635f1,PennController,33,0,experiment,NULL,Video,progression,buffer,0.01,1687413021441,61114afca21c9e68842444cf,61114afca21c9e68842444cf,29,frog,filler,B,75,frog65.jpg,frog85.jpg,GoalA,NULL
1687413151,8f0d99f63283e772acb90b5aa72635f1,PennController,33,0,experiment,NULL,Selector,choice,Selection,option2,1687413026993,61114afca21c9e68842444cf,61114afca21c9e68842444cf,29,frog,filler,B,75,frog65.jpg,frog85.jpg,GoalA,option2;option1
1687413151,8f0d99f63283e772acb90b5aa72635f1,PennController,33,0,experiment,NULL,PennController,31,_Trial_,End,1687413026996,61114afca21c9e68842444cf,61114afca21c9e68842444cf,29,frog,filler,B,75,frog65.jpg,frog85.jpg,GoalA,NULL
1687413151,8f0d99f63283e772acb90b5aa72635f1,PennController,24,0,experiment,NULL,PennController,22,_Trial_,Start,1687413026999,61114afca21c9e68842444cf,61114afca21c9e68842444cf,20,cat,filler,B,75,cat65.jpg,cat85.jpg,GoalB,NULL
1687413151,8f0d99f63283e772acb90b5aa72635f1,PennController,24,0,experiment,NULL,PennController,22,_Header_,Start,1687413026999,61114afca21c9e68842444cf,61114afca21c9e68842444cf,20,cat,filler,B,75,cat65.jpg,cat85.jpg,GoalB,NULL
1687413151,8f0d99f63283e772acb90b5aa72635f1,PennController,24,0,experiment,NULL,PennController,22,_Header_,End,1687413026999,61114afca21c9e68842444cf,61114afca21c9e68842444cf,20,cat,filler,B,75,cat65.jpg,cat85.jpg,GoalB,NULL
1687413151,8f0d99f63283e772acb90b5aa72635f1,PennController,24,0,experiment,NULL,Canvas,canvas6,Print,NA,1687413034706,61114afca21c9e68842444cf,61114afca21c9e68842444cf,20,cat,filler,B,75,cat65.jpg,cat85.jpg,GoalB,NULL
1687413151,8f0d99f63283e772acb90b5aa72635f1,PennController,24,0,experiment,NULL,Video,progression,buffer,0.007,1687413030537,61114afca21c9e68842444cf,61114afca21c9e68842444cf,20,cat,filler,B,75,cat65.jpg,cat85.jpg,GoalB,NULL
1687413151,8f0d99f63283e772acb90b5aa72635f1,PennController,24,0,experiment,NULL,Selector,choice,Selection,option2,1687413036489,61114afca21c9e68842444cf,61114afca21c9e68842444cf,20,cat,filler,B,75,cat65.jpg,cat85.jpg,GoalB,option2;option1
1687413151,8f0d99f63283e772acb90b5aa72635f1,PennController,24,0,experiment,NULL,PennController,22,_Trial_,End,1687413036491,61114afca21c9e68842444cf,61114afca21c9e68842444cf,20,cat,filler,B,75,cat65.jpg,cat85.jpg,GoalB,NULL
1687413151,8f0d99f63283e772acb90b5aa72635f1,PennController,32,0,experiment,NULL,PennController,30,_Trial_,Start,1687413036493,61114afca21c9e68842444cf,61114afca21c9e68842444cf,28,sort,filler,B,50,sort40.jpg,sort60.jpg,GoalB,NULL
1687413151,8f0d99f63283e772acb90b5aa72635f1,PennController,32,0,experiment,NULL,PennController,30,_Header_,Start,1687413036493,61114afca21c9e68842444cf,61114afca21c9e68842444cf,28,sort,filler,B,50,sort40.jpg,sort60.jpg,GoalB,NULL
1687413151,8f0d99f63283e772acb90b5aa72635f1,PennController,32,0,experiment,NULL,PennController,30,_Header_,End,1687413036493,61114afca21c9e68842444cf,61114afca21c9e68842444cf,28,sort,filler,B,50,sort40.jpg,sort60.jpg,GoalB,NULL
1687413151,8f0d99f63283e772acb90b5aa72635f1,PennController,32,0,experiment,NULL,Canvas,canvas6,Print,NA,1687413043201,61114afca21c9e68842444cf,61114afca21c9e68842444cf,28,sort,filler,B,50,sort40.jpg,sort60.jpg,GoalB,NULL
1687413151,8f0d99f63283e772acb90b5aa72635f1,PennController,32,0,experiment,NULL,Video,progression,buffer,0.01,1687413040032,61114afca21c9e68842444cf,61114afca21c9e68842444cf,28,sort,filler,B,50,sort40.jpg,sort60.jpg,GoalB,NULL
1687413151,8f0d99f63283e772acb90b5aa72635f1,PennController,32,0,experiment,NULL,Selector,choice,Selection,option1,1687413044137,61114afca21c9e68842444cf,61114afca21c9e68842444cf,28,sort,filler,B,50,sort40.jpg,sort60.jpg,GoalB,option1;option2
1687413151,8f0d99f63283e772acb90b5aa72635f1,PennController,32,0,experiment,NULL,PennController,30,_Trial_,End,1687413044139,61114afca21c9e68842444cf,61114afca21c9e68842444cf,28,sort,filler,B,50,sort40.jpg,sort60.jpg,GoalB,NULL
1687413151,8f0d99f63283e772acb90b5aa72635f1,PennController,31,0,experiment,NULL,PennController,29,_Trial_,Start,1687413044140,61114afca21c9e68842444cf,61114afca21c9e68842444cf,27,square,filler,B,25,square15.jpg,square35.jpg,GoalA,NULL
1687413151,8f0d99f63283e772acb90b5aa72635f1,PennController,31,0,experiment,NULL,PennController,29,_Header_,Start,1687413044140,61114afca21c9e68842444cf,61114afca21c9e68842444cf,27,square,filler,B,25,square15.jpg,square35.jpg,GoalA,NULL
1687413151,8f0d99f63283e772acb90b5aa72635f1,PennController,31,0,experiment,NULL,PennController,29,_Header_,End,1687413044140,61114afca21c9e68842444cf,61114afca21c9e68842444cf,27,square,filler,B,25,square15.jpg,square35.jpg,GoalA,NULL
1687413151,8f0d99f63283e772acb90b5aa72635f1,PennController,31,0,experiment,NULL,Canvas,canvas6,Print,NA,1687413049852,61114afca21c9e68842444cf,61114afca21c9e68842444cf,27,square,filler,B,25,square15.jpg,square35.jpg,GoalA,NULL
1687413151,8f0d99f63283e772acb90b5aa72635f1,PennController,31,0,experiment,NULL,Video,progression,buffer,0.014,1687413047690,61114afca21c9e68842444cf,61114afca21c9e68842444cf,27,square,filler,B,25,square15.jpg,square35.jpg,GoalA,NULL
1687413151,8f0d99f63283e772acb90b5aa72635f1,PennController,31,0,experiment,NULL,Selector,choice,Selection,option1,1687413051065,61114afca21c9e68842444cf,61114afca21c9e68842444cf,27,square,filler,B,25,square15.jpg,square35.jpg,GoalA,option1;option2
1687413151,8f0d99f63283e772acb90b5aa72635f1,PennController,31,0,experiment,NULL,PennController,29,_Trial_,End,1687413051067,61114afca21c9e68842444cf,61114afca21c9e68842444cf,27,square,filler,B,25,square15.jpg,square35.jpg,GoalA,NULL
1687413151,8f0d99f63283e772acb90b5aa72635f1,PennController,21,0,experiment,NULL,PennController,19,_Trial_,Start,1687413051070,61114afca21c9e68842444cf,61114afca21c9e68842444cf,17,roll,critical,B,75,roll65.jpg,roll85.jpg,low,NULL
1687413151,8f0d99f63283e772acb90b5aa72635f1,PennController,21,0,experiment,NULL,PennController,19,_Header_,Start,1687413051070,61114afca21c9e68842444cf,61114afca21c9e68842444cf,17,roll,critical,B,75,roll65.jpg,roll85.jpg,low,NULL
1687413151,8f0d99f63283e772acb90b5aa72635f1,PennController,21,0,experiment,NULL,PennController,19,_Header_,End,1687413051070,61114afca21c9e68842444cf,61114afca21c9e68842444cf,17,roll,critical,B,75,roll65.jpg,roll85.jpg,low,NULL
1687413151,8f0d99f63283e772acb90b5aa72635f1,PennController,21,0,experiment,NULL,Canvas,canvas6,Print,NA,1687413058771,61114afca21c9e68842444cf,61114afca21c9e68842444cf,17,roll,critical,B,75,roll65.jpg,roll85.jpg,low,NULL
1687413151,8f0d99f63283e772acb90b5aa72635f1,PennController,21,0,experiment,NULL,Video,progression,buffer,0.013,1687413054615,61114afca21c9e68842444cf,61114afca21c9e68842444cf,17,roll,critical,B,75,roll65.jpg,roll85.jpg,low,NULL
1687413151,8f0d99f63283e772acb90b5aa72635f1,PennController,21,0,experiment,NULL,Selector,choice,Selection,option1,1687413059945,61114afca21c9e68842444cf,61114afca21c9e68842444cf,17,roll,critical,B,75,roll65.jpg,roll85.jpg,low,option1;option2
1687413151,8f0d99f63283e772acb90b5aa72635f1,PennController,21,0,experiment,NULL,PennController,19,_Trial_,End,1687413059947,61114afca21c9e68842444cf,61114afca21c9e68842444cf,17,roll,critical,B,75,roll65.jpg,roll85.jpg,low,NULL
1687413151,8f0d99f63283e772acb90b5aa72635f1,PennController,29,0,experiment,NULL,PennController,27,_Trial_,Start,1687413059956,61114afca21c9e68842444cf,61114afca21c9e68842444cf,25,house,filler,B,50,house40.jpg,house60.jpg,GoalA,NULL
1687413151,8f0d99f63283e772acb90b5aa72635f1,PennController,29,0,experiment,NULL,PennController,27,_Header_,Start,1687413059956,61114afca21c9e68842444cf,61114afca21c9e68842444cf,25,house,filler,B,50,house40.jpg,house60.jpg,GoalA,NULL
1687413151,8f0d99f63283e772acb90b5aa72635f1,PennController,29,0,experiment,NULL,PennController,27,_Header_,End,1687413059956,61114afca21c9e68842444cf,61114afca21c9e68842444cf,25,house,filler,B,50,house40.jpg,house60.jpg,GoalA,NULL
1687413151,8f0d99f63283e772acb90b5aa72635f1,PennController,29,0,experiment,NULL,Canvas,canvas6,Print,NA,1687413066652,61114afca21c9e68842444cf,61114afca21c9e68842444cf,25,house,filler,B,50,house40.jpg,house60.jpg,GoalA,NULL
1687413151,8f0d99f63283e772acb90b5aa72635f1,PennController,29,0,experiment,NULL,Video,progression,buffer,0.01,1687413063495,61114afca21c9e68842444cf,61114afca21c9e68842444cf,25,house,filler,B,50,house40.jpg,house60.jpg,GoalA,NULL
1687413151,8f0d99f63283e772acb90b5aa72635f1,PennController,29,0,experiment,NULL,Selector,choice,Selection,option1,1687413067969,61114afca21c9e68842444cf,61114afca21c9e68842444cf,25,house,filler,B,50,house40.jpg,house60.jpg,GoalA,option1;option2
1687413151,8f0d99f63283e772acb90b5aa72635f1,PennController,29,0,experiment,NULL,PennController,27,_Trial_,End,1687413067971,61114afca21c9e68842444cf,61114afca21c9e68842444cf,25,house,filler,B,50,house40.jpg,house60.jpg,GoalA,NULL
1687413151,8f0d99f63283e772acb90b5aa72635f1,PennController,7,0,experiment,NULL,PennController,5,_Trial_,Start,1687413067974,61114afca21c9e68842444cf,61114afca21c9e68842444cf,3,clean,critical,B,25,clean15.jpg,clean35.jpg,low,NULL
1687413151,8f0d99f63283e772acb90b5aa72635f1,PennController,7,0,experiment,NULL,PennController,5,_Header_,Start,1687413067974,61114afca21c9e68842444cf,61114afca21c9e68842444cf,3,clean,critical,B,25,clean15.jpg,clean35.jpg,low,NULL
1687413151,8f0d99f63283e772acb90b5aa72635f1,PennController,7,0,experiment,NULL,PennController,5,_Header_,End,1687413067974,61114afca21c9e68842444cf,61114afca21c9e68842444cf,3,clean,critical,B,25,clean15.jpg,clean35.jpg,low,NULL
1687413151,8f0d99f63283e772acb90b5aa72635f1,PennController,7,0,experiment,NULL,Canvas,canvas6,Print,NA,1687413073683,61114afca21c9e68842444cf,61114afca21c9e68842444cf,3,clean,critical,B,25,clean15.jpg,clean35.jpg,low,NULL
1687413151,8f0d99f63283e772acb90b5aa72635f1,PennController,7,0,experiment,NULL,Video,progression,buffer,0.007,1687413071516,61114afca21c9e68842444cf,61114afca21c9e68842444cf,3,clean,critical,B,25,clean15.jpg,clean35.jpg,low,NULL
1687413151,8f0d99f63283e772acb90b5aa72635f1,PennController,7,0,experiment,NULL,Selector,choice,Selection,option1,1687413076033,61114afca21c9e68842444cf,61114afca21c9e68842444cf,3,clean,critical,B,25,clean15.jpg,clean35.jpg,low,option2;option1
1687413151,8f0d99f63283e772acb90b5aa72635f1,PennController,7,0,experiment,NULL,PennController,5,_Trial_,End,1687413076035,61114afca21c9e68842444cf,61114afca21c9e68842444cf,3,clean,critical,B,25,clean15.jpg,clean35.jpg,low,NULL
1687413151,8f0d99f63283e772acb90b5aa72635f1,PennController,20,0,experiment,NULL,PennController,18,_Trial_,Start,1687413076051,61114afca21c9e68842444cf,61114afca21c9e68842444cf,16,blinds,critical,B,50,blinds42.jpg,blinds60.jpg,low,NULL
1687413151,8f0d99f63283e772acb90b5aa72635f1,PennController,20,0,experiment,NULL,PennController,18,_Header_,Start,1687413076051,61114afca21c9e68842444cf,61114afca21c9e68842444cf,16,blinds,critical,B,50,blinds42.jpg,blinds60.jpg,low,NULL
1687413151,8f0d99f63283e772acb90b5aa72635f1,PennController,20,0,experiment,NULL,PennController,18,_Header_,End,1687413076051,61114afca21c9e68842444cf,61114afca21c9e68842444cf,16,blinds,critical,B,50,blinds42.jpg,blinds60.jpg,low,NULL
1687413151,8f0d99f63283e772acb90b5aa72635f1,PennController,20,0,experiment,NULL,Canvas,canvas6,Print,NA,1687413084154,61114afca21c9e68842444cf,61114afca21c9e68842444cf,16,blinds,critical,B,50,blinds42.jpg,blinds60.jpg,low,NULL
1687413151,8f0d99f63283e772acb90b5aa72635f1,PennController,20,0,experiment,NULL,Video,progression,buffer,0.01,1687413079585,61114afca21c9e68842444cf,61114afca21c9e68842444cf,16,blinds,critical,B,50,blinds42.jpg,blinds60.jpg,low,NULL
1687413151,8f0d99f63283e772acb90b5aa72635f1,PennController,20,0,experiment,NULL,Selector,choice,Selection,option2,1687413085697,61114afca21c9e68842444cf,61114afca21c9e68842444cf,16,blinds,critical,B,50,blinds42.jpg,blinds60.jpg,low,option2;option1
1687413151,8f0d99f63283e772acb90b5aa72635f1,PennController,20,0,experiment,NULL,PennController,18,_Trial_,End,1687413085699,61114afca21c9e68842444cf,61114afca21c9e68842444cf,16,blinds,critical,B,50,blinds42.jpg,blinds60.jpg,low,NULL
1687413151,8f0d99f63283e772acb90b5aa72635f1,PennController,14,0,experiment,NULL,PennController,12,_Trial_,Start,1687413085701,61114afca21c9e68842444cf,61114afca21c9e68842444cf,10,train,critical,B,50,train40.jpg,train60.jpg,low,NULL
1687413151,8f0d99f63283e772acb90b5aa72635f1,PennController,14,0,experiment,NULL,PennController,12,_Header_,Start,1687413085701,61114afca21c9e68842444cf,61114afca21c9e68842444cf,10,train,critical,B,50,train40.jpg,train60.jpg,low,NULL
1687413151,8f0d99f63283e772acb90b5aa72635f1,PennController,14,0,experiment,NULL,PennController,12,_Header_,End,1687413085701,61114afca21c9e68842444cf,61114afca21c9e68842444cf,10,train,critical,B,50,train40.jpg,train60.jpg,low,NULL
1687413151,8f0d99f63283e772acb90b5aa72635f1,PennController,14,0,experiment,NULL,Canvas,canvas6,Print,NA,1687413092400,61114afca21c9e68842444cf,61114afca21c9e68842444cf,10,train,critical,B,50,train40.jpg,train60.jpg,low,NULL
1687413151,8f0d99f63283e772acb90b5aa72635f1,PennController,14,0,experiment,NULL,Video,progression,buffer,0.007,1687413089241,61114afca21c9e68842444cf,61114afca21c9e68842444cf,10,train,critical,B,50,train40.jpg,train60.jpg,low,NULL
1687413151,8f0d99f63283e772acb90b5aa72635f1,PennController,14,0,experiment,NULL,Selector,choice,Selection,option2,1687413094033,61114afca21c9e68842444cf,61114afca21c9e68842444cf,10,train,critical,B,50,train40.jpg,train60.jpg,low,option1;option2
1687413151,8f0d99f63283e772acb90b5aa72635f1,PennController,14,0,experiment,NULL,PennController,12,_Trial_,End,1687413094035,61114afca21c9e68842444cf,61114afca21c9e68842444cf,10,train,critical,B,50,train40.jpg,train60.jpg,low,NULL
1687413151,8f0d99f63283e772acb90b5aa72635f1,PennController,23,0,experiment,NULL,PennController,21,_Trial_,Start,1687413094037,61114afca21c9e68842444cf,61114afca21c9e68842444cf,19,cup,filler,B,50,cup40.jpg,cup60.jpg,GoalA,NULL
1687413151,8f0d99f63283e772acb90b5aa72635f1,PennController,23,0,experiment,NULL,PennController,21,_Header_,Start,1687413094037,61114afca21c9e68842444cf,61114afca21c9e68842444cf,19,cup,filler,B,50,cup40.jpg,cup60.jpg,GoalA,NULL
1687413151,8f0d99f63283e772acb90b5aa72635f1,PennController,23,0,experiment,NULL,PennController,21,_Header_,End,1687413094037,61114afca21c9e68842444cf,61114afca21c9e68842444cf,19,cup,filler,B,50,cup40.jpg,cup60.jpg,GoalA,NULL
1687413151,8f0d99f63283e772acb90b5aa72635f1,PennController,23,0,experiment,NULL,Canvas,canvas6,Print,NA,1687413100734,61114afca21c9e68842444cf,61114afca21c9e68842444cf,19,cup,filler,B,50,cup40.jpg,cup60.jpg,GoalA,NULL
1687413151,8f0d99f63283e772acb90b5aa72635f1,PennController,23,0,experiment,NULL,Video,progression,buffer,0.007,1687413097573,61114afca21c9e68842444cf,61114afca21c9e68842444cf,19,cup,filler,B,50,cup40.jpg,cup60.jpg,GoalA,NULL
1687413151,8f0d99f63283e772acb90b5aa72635f1,PennController,23,0,experiment,NULL,Selector,choice,Selection,option2,1687413103241,61114afca21c9e68842444cf,61114afca21c9e68842444cf,19,cup,filler,B,50,cup40.jpg,cup60.jpg,GoalA,option2;option1
1687413151,8f0d99f63283e772acb90b5aa72635f1,PennController,23,0,experiment,NULL,PennController,21,_Trial_,End,1687413103243,61114afca21c9e68842444cf,61114afca21c9e68842444cf,19,cup,filler,B,50,cup40.jpg,cup60.jpg,GoalA,NULL
1687413151,8f0d99f63283e772acb90b5aa72635f1,PennController,19,0,experiment,NULL,PennController,17,_Trial_,Start,1687413103245,61114afca21c9e68842444cf,61114afca21c9e68842444cf,15,zip,critical,B,25,zip15.jpg,zip35.jpg,low,NULL
1687413151,8f0d99f63283e772acb90b5aa72635f1,PennController,19,0,experiment,NULL,PennController,17,_Header_,Start,1687413103245,61114afca21c9e68842444cf,61114afca21c9e68842444cf,15,zip,critical,B,25,zip15.jpg,zip35.jpg,low,NULL
1687413151,8f0d99f63283e772acb90b5aa72635f1,PennController,19,0,experiment,NULL,PennController,17,_Header_,End,1687413103245,61114afca21c9e68842444cf,61114afca21c9e68842444cf,15,zip,critical,B,25,zip15.jpg,zip35.jpg,low,NULL
1687413151,8f0d99f63283e772acb90b5aa72635f1,PennController,19,0,experiment,NULL,Canvas,canvas6,Print,NA,1687413108968,61114afca21c9e68842444cf,61114afca21c9e68842444cf,15,zip,critical,B,25,zip15.jpg,zip35.jpg,low,NULL
1687413151,8f0d99f63283e772acb90b5aa72635f1,PennController,19,0,experiment,NULL,Video,progression,buffer,0.019,1687413106808,61114afca21c9e68842444cf,61114afca21c9e68842444cf,15,zip,critical,B,25,zip15.jpg,zip35.jpg,low,NULL
1687413151,8f0d99f63283e772acb90b5aa72635f1,PennController,19,0,experiment,NULL,Selector,choice,Selection,option2,1687413112041,61114afca21c9e68842444cf,61114afca21c9e68842444cf,15,zip,critical,B,25,zip15.jpg,zip35.jpg,low,option1;option2
1687413151,8f0d99f63283e772acb90b5aa72635f1,PennController,19,0,experiment,NULL,PennController,17,_Trial_,End,1687413112043,61114afca21c9e68842444cf,61114afca21c9e68842444cf,15,zip,critical,B,25,zip15.jpg,zip35.jpg,low,NULL
1687413151,8f0d99f63283e772acb90b5aa72635f1,PennController,22,0,experiment,NULL,PennController,20,_Trial_,Start,1687413112045,61114afca21c9e68842444cf,61114afca21c9e68842444cf,18,ball,critical,B,25,ball15.jpg,ball35.jpg,low,NULL
1687413151,8f0d99f63283e772acb90b5aa72635f1,PennController,22,0,experiment,NULL,PennController,20,_Header_,Start,1687413112045,61114afca21c9e68842444cf,61114afca21c9e68842444cf,18,ball,critical,B,25,ball15.jpg,ball35.jpg,low,NULL
1687413151,8f0d99f63283e772acb90b5aa72635f1,PennController,22,0,experiment,NULL,PennController,20,_Header_,End,1687413112045,61114afca21c9e68842444cf,61114afca21c9e68842444cf,18,ball,critical,B,25,ball15.jpg,ball35.jpg,low,NULL
1687413151,8f0d99f63283e772acb90b5aa72635f1,PennController,22,0,experiment,NULL,Canvas,canvas6,Print,NA,1687413117747,61114afca21c9e68842444cf,61114afca21c9e68842444cf,18,ball,critical,B,25,ball15.jpg,ball35.jpg,low,NULL
1687413151,8f0d99f63283e772acb90b5aa72635f1,PennController,22,0,experiment,NULL,Video,progression,buffer,0.01,1687413115586,61114afca21c9e68842444cf,61114afca21c9e68842444cf,18,ball,critical,B,25,ball15.jpg,ball35.jpg,low,NULL
1687413151,8f0d99f63283e772acb90b5aa72635f1,PennController,22,0,experiment,NULL,Selector,choice,Selection,option2,1687413120705,61114afca21c9e68842444cf,61114afca21c9e68842444cf,18,ball,critical,B,25,ball15.jpg,ball35.jpg,low,option1;option2
1687413151,8f0d99f63283e772acb90b5aa72635f1,PennController,22,0,experiment,NULL,PennController,20,_Trial_,End,1687413120707,61114afca21c9e68842444cf,61114afca21c9e68842444cf,18,ball,critical,B,25,ball15.jpg,ball35.jpg,low,NULL
1687413151,8f0d99f63283e772acb90b5aa72635f1,PennController,5,0,experiment,NULL,PennController,3,_Trial_,Start,1687413120710,61114afca21c9e68842444cf,61114afca21c9e68842444cf,1,vase,critical,B,50,vase40.jpg,vase60.jpg,low,NULL
1687413151,8f0d99f63283e772acb90b5aa72635f1,PennController,5,0,experiment,NULL,PennController,3,_Header_,Start,1687413120710,61114afca21c9e68842444cf,61114afca21c9e68842444cf,1,vase,critical,B,50,vase40.jpg,vase60.jpg,low,NULL
1687413151,8f0d99f63283e772acb90b5aa72635f1,PennController,5,0,experiment,NULL,PennController,3,_Header_,End,1687413120710,61114afca21c9e68842444cf,61114afca21c9e68842444cf,1,vase,critical,B,50,vase40.jpg,vase60.jpg,low,NULL
1687413151,8f0d99f63283e772acb90b5aa72635f1,PennController,5,0,experiment,NULL,Canvas,canvas6,Print,NA,1687413127415,61114afca21c9e68842444cf,61114afca21c9e68842444cf,1,vase,critical,B,50,vase40.jpg,vase60.jpg,low,NULL
1687413151,8f0d99f63283e772acb90b5aa72635f1,PennController,5,0,experiment,NULL,Video,progression,buffer,0.012,1687413124253,61114afca21c9e68842444cf,61114afca21c9e68842444cf,1,vase,critical,B,50,vase40.jpg,vase60.jpg,low,NULL
1687413151,8f0d99f63283e772acb90b5aa72635f1,PennController,5,0,experiment,NULL,Selector,choice,Selection,option2,1687413128745,61114afca21c9e68842444cf,61114afca21c9e68842444cf,1,vase,critical,B,50,vase40.jpg,vase60.jpg,low,option1;option2
1687413151,8f0d99f63283e772acb90b5aa72635f1,PennController,5,0,experiment,NULL,PennController,3,_Trial_,End,1687413128747,61114afca21c9e68842444cf,61114afca21c9e68842444cf,1,vase,critical,B,50,vase40.jpg,vase60.jpg,low,NULL
1687413151,8f0d99f63283e772acb90b5aa72635f1,PennController,13,0,experiment,NULL,PennController,11,_Trial_,Start,1687413128750,61114afca21c9e68842444cf,61114afca21c9e68842444cf,9,cake,critical,B,25,cake15.jpg,cake33.jpg,low,NULL
1687413151,8f0d99f63283e772acb90b5aa72635f1,PennController,13,0,experiment,NULL,PennController,11,_Header_,Start,1687413128750,61114afca21c9e68842444cf,61114afca21c9e68842444cf,9,cake,critical,B,25,cake15.jpg,cake33.jpg,low,NULL
1687413151,8f0d99f63283e772acb90b5aa72635f1,PennController,13,0,experiment,NULL,PennController,11,_Header_,End,1687413128750,61114afca21c9e68842444cf,61114afca21c9e68842444cf,9,cake,critical,B,25,cake15.jpg,cake33.jpg,low,NULL
1687413151,8f0d99f63283e772acb90b5aa72635f1,PennController,13,0,experiment,NULL,Canvas,canvas6,Print,NA,1687413135055,61114afca21c9e68842444cf,61114afca21c9e68842444cf,9,cake,critical,B,25,cake15.jpg,cake33.jpg,low,NULL
1687413151,8f0d99f63283e772acb90b5aa72635f1,PennController,13,0,experiment,NULL,Video,progression,buffer,0.006,1687413132287,61114afca21c9e68842444cf,61114afca21c9e68842444cf,9,cake,critical,B,25,cake15.jpg,cake33.jpg,low,NULL
1687413151,8f0d99f63283e772acb90b5aa72635f1,PennController,13,0,experiment,NULL,Selector,choice,Selection,option1,1687413137361,61114afca21c9e68842444cf,61114afca21c9e68842444cf,9,cake,critical,B,25,cake15.jpg,cake33.jpg,low,option2;option1
1687413151,8f0d99f63283e772acb90b5aa72635f1,PennController,13,0,experiment,NULL,PennController,11,_Trial_,End,1687413137363,61114afca21c9e68842444cf,61114afca21c9e68842444cf,9,cake,critical,B,25,cake15.jpg,cake33.jpg,low,NULL
1687413151,8f0d99f63283e772acb90b5aa72635f1,PennController,18,0,experiment,NULL,PennController,16,_Trial_,Start,1687413137364,61114afca21c9e68842444cf,61114afca21c9e68842444cf,14,cover,critical,B,75,cover66.jpg,cover84.jpg,low,NULL
1687413151,8f0d99f63283e772acb90b5aa72635f1,PennController,18,0,experiment,NULL,PennController,16,_Header_,Start,1687413137364,61114afca21c9e68842444cf,61114afca21c9e68842444cf,14,cover,critical,B,75,cover66.jpg,cover84.jpg,low,NULL
1687413151,8f0d99f63283e772acb90b5aa72635f1,PennController,18,0,experiment,NULL,PennController,16,_Header_,End,1687413137364,61114afca21c9e68842444cf,61114afca21c9e68842444cf,14,cover,critical,B,75,cover66.jpg,cover84.jpg,low,NULL
1687413151,8f0d99f63283e772acb90b5aa72635f1,PennController,18,0,experiment,NULL,Canvas,canvas6,Print,NA,1687413147065,61114afca21c9e68842444cf,61114afca21c9e68842444cf,14,cover,critical,B,75,cover66.jpg,cover84.jpg,low,NULL
1687413151,8f0d99f63283e772acb90b5aa72635f1,PennController,18,0,experiment,NULL,Video,progression,buffer,0.009,1687413140905,61114afca21c9e68842444cf,61114afca21c9e68842444cf,14,cover,critical,B,75,cover66.jpg,cover84.jpg,low,NULL
1687413151,8f0d99f63283e772acb90b5aa72635f1,PennController,18,0,experiment,NULL,Selector,choice,Selection,option2,1687413149025,61114afca21c9e68842444cf,61114afca21c9e68842444cf,14,cover,critical,B,75,cover66.jpg,cover84.jpg,low,option1;option2
1687413151,8f0d99f63283e772acb90b5aa72635f1,PennController,18,0,experiment,NULL,PennController,16,_Trial_,End,1687413149027,61114afca21c9e68842444cf,61114afca21c9e68842444cf,14,cover,critical,B,75,cover66.jpg,cover84.jpg,low,NULL
