#
# Results on Tuesday June 20 2023 18:52:03 UTC
# USER AGENT: Mozilla/5.0 (Windows NT 10.0; Win64; x64) AppleWebKit/537.36 (KHTML, like Gecko) Chrome/114.0.0.0 Safari/537.36
# Design number was non-random = 3
#
# Columns below this comment are as follows:
# 1. Results reception time.
# 2. MD5 hash of participant's IP address.
# 3. Controller name.
# 4. Order number of item.
# 5. Inner element number.
# 6. Label.
# 7. Latin Square Group.
# 8. PennElementType.
# 9. PennElementName.
# 10. Parameter.
# 11. Value.
# 12. EventTime.
# 13. PROLIFIC_ID.
# 14. Comments.
1687287123,623889668fb34ccf1f9e10cba970a7c6,PennController,2,0,consent,NULL,PennController,0,_Trial_,Start,1687286828378,5f1705733abc1c02b11c85f9,NULL
1687287123,623889668fb34ccf1f9e10cba970a7c6,PennController,2,0,consent,NULL,PennController,0,_Header_,Start,1687286828378,5f1705733abc1c02b11c85f9,NULL
1687287123,623889668fb34ccf1f9e10cba970a7c6,PennController,2,0,consent,NULL,PennController,0,_Header_,End,1687286828378,5f1705733abc1c02b11c85f9,NULL
1687287123,623889668fb34ccf1f9e10cba970a7c6,PennController,2,0,consent,NULL,PennController,0,_Trial_,End,1687286833383,5f1705733abc1c02b11c85f9,NULL
# Columns below this comment are as follows:
# 14. ID.
# 15. Comments.
1687287123,623889668fb34ccf1f9e10cba970a7c6,PennController,3,0,intro,NULL,PennController,1,_Trial_,Start,1687286833385,5f1705733abc1c02b11c85f9,5f1705733abc1c02b11c85f9,NULL
1687287123,623889668fb34ccf1f9e10cba970a7c6,PennController,3,0,intro,NULL,PennController,1,_Header_,Start,1687286833385,5f1705733abc1c02b11c85f9,5f1705733abc1c02b11c85f9,NULL
1687287123,623889668fb34ccf1f9e10cba970a7c6,PennController,3,0,intro,NULL,PennController,1,_Header_,End,1687286833385,5f1705733abc1c02b11c85f9,5f1705733abc1c02b11c85f9,NULL
1687287123,623889668fb34ccf1f9e10cba970a7c6,PennController,3,0,intro,NULL,PennController,1,_Trial_,End,1687286868653,5f1705733abc1c02b11c85f9,5f1705733abc1c02b11c85f9,NULL
# Columns below this comment are as follows:
# 15. item_number.
# 16. item.
# 17. type.
# 18. Group.
# 19. prog.
# 20. prev_image.
# 21. next_image.
# 22. height.
# 23. Comments.
1687287123,623889668fb34ccf1f9e10cba970a7c6,PennController,16,0,experiment,NULL,PennController,15,_Trial_,Start,1687286868655,5f1705733abc1c02b11c85f9,5f1705733abc1c02b11c85f9,13,mix,critical,D,25,mix15.jpg,mix35.jpg,high,NULL
1687287123,623889668fb34ccf1f9e10cba970a7c6,PennController,16,0,experiment,NULL,PennController,15,_Header_,Start,1687286868655,5f1705733abc1c02b11c85f9,5f1705733abc1c02b11c85f9,13,mix,critical,D,25,mix15.jpg,mix35.jpg,high,NULL
1687287123,623889668fb34ccf1f9e10cba970a7c6,PennController,16,0,experiment,NULL,PennController,15,_Header_,End,1687286868655,5f1705733abc1c02b11c85f9,5f1705733abc1c02b11c85f9,13,mix,critical,D,25,mix15.jpg,mix35.jpg,high,NULL
1687287123,623889668fb34ccf1f9e10cba970a7c6,PennController,16,0,experiment,NULL,Canvas,canvas6,Print,NA,1687286874400,5f1705733abc1c02b11c85f9,5f1705733abc1c02b11c85f9,13,mix,critical,D,25,mix15.jpg,mix35.jpg,high,NULL
1687287123,623889668fb34ccf1f9e10cba970a7c6,PennController,16,0,experiment,NULL,Video,progression,buffer,0.006838,1687286872204,5f1705733abc1c02b11c85f9,5f1705733abc1c02b11c85f9,13,mix,critical,D,25,mix15.jpg,mix35.jpg,high,NULL
1687287123,623889668fb34ccf1f9e10cba970a7c6,PennController,16,0,experiment,NULL,Selector,choice,Selection,option2,1687286880028,5f1705733abc1c02b11c85f9,5f1705733abc1c02b11c85f9,13,mix,critical,D,25,mix15.jpg,mix35.jpg,high,option2;option1
1687287123,623889668fb34ccf1f9e10cba970a7c6,PennController,16,0,experiment,NULL,PennController,15,_Trial_,End,1687286880029,5f1705733abc1c02b11c85f9,5f1705733abc1c02b11c85f9,13,mix,critical,D,25,mix15.jpg,mix35.jpg,high,NULL
1687287123,623889668fb34ccf1f9e10cba970a7c6,PennController,9,0,experiment,NULL,PennController,8,_Trial_,Start,1687286880031,5f1705733abc1c02b11c85f9,5f1705733abc1c02b11c85f9,6,flower,critical,D,75,flower65.jpg,flower85.jpg,high,NULL
1687287123,623889668fb34ccf1f9e10cba970a7c6,PennController,9,0,experiment,NULL,PennController,8,_Header_,Start,1687286880031,5f1705733abc1c02b11c85f9,5f1705733abc1c02b11c85f9,6,flower,critical,D,75,flower65.jpg,flower85.jpg,high,NULL
1687287123,623889668fb34ccf1f9e10cba970a7c6,PennController,9,0,experiment,NULL,PennController,8,_Header_,End,1687286880031,5f1705733abc1c02b11c85f9,5f1705733abc1c02b11c85f9,6,flower,critical,D,75,flower65.jpg,flower85.jpg,high,NULL
1687287123,623889668fb34ccf1f9e10cba970a7c6,PennController,9,0,experiment,NULL,Canvas,canvas6,Print,NA,1687286887739,5f1705733abc1c02b11c85f9,5f1705733abc1c02b11c85f9,6,flower,critical,D,75,flower65.jpg,flower85.jpg,high,NULL
1687287123,623889668fb34ccf1f9e10cba970a7c6,PennController,9,0,experiment,NULL,Video,progression,buffer,0.010107,1687286883575,5f1705733abc1c02b11c85f9,5f1705733abc1c02b11c85f9,6,flower,critical,D,75,flower65.jpg,flower85.jpg,high,NULL
1687287123,623889668fb34ccf1f9e10cba970a7c6,PennController,9,0,experiment,NULL,Selector,choice,Selection,option1,1687286890745,5f1705733abc1c02b11c85f9,5f1705733abc1c02b11c85f9,6,flower,critical,D,75,flower65.jpg,flower85.jpg,high,option2;option1
1687287123,623889668fb34ccf1f9e10cba970a7c6,PennController,9,0,experiment,NULL,PennController,8,_Trial_,End,1687286890746,5f1705733abc1c02b11c85f9,5f1705733abc1c02b11c85f9,6,flower,critical,D,75,flower65.jpg,flower85.jpg,high,NULL
1687287123,623889668fb34ccf1f9e10cba970a7c6,PennController,21,0,experiment,NULL,PennController,20,_Trial_,Start,1687286890747,5f1705733abc1c02b11c85f9,5f1705733abc1c02b11c85f9,18,ball,critical,D,75,ball65.jpg,ball85.jpg,high,NULL
1687287123,623889668fb34ccf1f9e10cba970a7c6,PennController,21,0,experiment,NULL,PennController,20,_Header_,Start,1687286890747,5f1705733abc1c02b11c85f9,5f1705733abc1c02b11c85f9,18,ball,critical,D,75,ball65.jpg,ball85.jpg,high,NULL
1687287123,623889668fb34ccf1f9e10cba970a7c6,PennController,21,0,experiment,NULL,PennController,20,_Header_,End,1687286890747,5f1705733abc1c02b11c85f9,5f1705733abc1c02b11c85f9,18,ball,critical,D,75,ball65.jpg,ball85.jpg,high,NULL
1687287123,623889668fb34ccf1f9e10cba970a7c6,PennController,21,0,experiment,NULL,Canvas,canvas6,Print,NA,1687286898453,5f1705733abc1c02b11c85f9,5f1705733abc1c02b11c85f9,18,ball,critical,D,75,ball65.jpg,ball85.jpg,high,NULL
1687287123,623889668fb34ccf1f9e10cba970a7c6,PennController,21,0,experiment,NULL,Video,progression,buffer,0.01288,1687286894296,5f1705733abc1c02b11c85f9,5f1705733abc1c02b11c85f9,18,ball,critical,D,75,ball65.jpg,ball85.jpg,high,NULL
1687287123,623889668fb34ccf1f9e10cba970a7c6,PennController,21,0,experiment,NULL,Selector,choice,Selection,option2,1687286900181,5f1705733abc1c02b11c85f9,5f1705733abc1c02b11c85f9,18,ball,critical,D,75,ball65.jpg,ball85.jpg,high,option2;option1
1687287123,623889668fb34ccf1f9e10cba970a7c6,PennController,21,0,experiment,NULL,PennController,20,_Trial_,End,1687286900182,5f1705733abc1c02b11c85f9,5f1705733abc1c02b11c85f9,18,ball,critical,D,75,ball65.jpg,ball85.jpg,high,NULL
1687287123,623889668fb34ccf1f9e10cba970a7c6,PennController,13,0,experiment,NULL,PennController,12,_Trial_,Start,1687286900183,5f1705733abc1c02b11c85f9,5f1705733abc1c02b11c85f9,10,train,critical,D,25,train15.jpg,train35.jpg,high,NULL
1687287123,623889668fb34ccf1f9e10cba970a7c6,PennController,13,0,experiment,NULL,PennController,12,_Header_,Start,1687286900183,5f1705733abc1c02b11c85f9,5f1705733abc1c02b11c85f9,10,train,critical,D,25,train15.jpg,train35.jpg,high,NULL
1687287123,623889668fb34ccf1f9e10cba970a7c6,PennController,13,0,experiment,NULL,PennController,12,_Header_,End,1687286900183,5f1705733abc1c02b11c85f9,5f1705733abc1c02b11c85f9,10,train,critical,D,25,train15.jpg,train35.jpg,high,NULL
1687287123,623889668fb34ccf1f9e10cba970a7c6,PennController,13,0,experiment,NULL,Canvas,canvas6,Print,NA,1687286905893,5f1705733abc1c02b11c85f9,5f1705733abc1c02b11c85f9,10,train,critical,D,25,train15.jpg,train35.jpg,high,NULL
1687287123,623889668fb34ccf1f9e10cba970a7c6,PennController,13,0,experiment,NULL,Video,progression,buffer,0.005326,1687286903717,5f1705733abc1c02b11c85f9,5f1705733abc1c02b11c85f9,10,train,critical,D,25,train15.jpg,train35.jpg,high,NULL
1687287123,623889668fb34ccf1f9e10cba970a7c6,PennController,13,0,experiment,NULL,Selector,choice,Selection,option1,1687286908305,5f1705733abc1c02b11c85f9,5f1705733abc1c02b11c85f9,10,train,critical,D,25,train15.jpg,train35.jpg,high,option2;option1
1687287123,623889668fb34ccf1f9e10cba970a7c6,PennController,13,0,experiment,NULL,PennController,12,_Trial_,End,1687286908305,5f1705733abc1c02b11c85f9,5f1705733abc1c02b11c85f9,10,train,critical,D,25,train15.jpg,train35.jpg,high,NULL
1687287123,623889668fb34ccf1f9e10cba970a7c6,PennController,18,0,experiment,NULL,PennController,17,_Trial_,Start,1687286908306,5f1705733abc1c02b11c85f9,5f1705733abc1c02b11c85f9,15,zip,critical,D,75,zip65.jpg,zip85.jpg,high,NULL
1687287123,623889668fb34ccf1f9e10cba970a7c6,PennController,18,0,experiment,NULL,PennController,17,_Header_,Start,1687286908306,5f1705733abc1c02b11c85f9,5f1705733abc1c02b11c85f9,15,zip,critical,D,75,zip65.jpg,zip85.jpg,high,NULL
1687287123,623889668fb34ccf1f9e10cba970a7c6,PennController,18,0,experiment,NULL,PennController,17,_Header_,End,1687286908307,5f1705733abc1c02b11c85f9,5f1705733abc1c02b11c85f9,15,zip,critical,D,75,zip65.jpg,zip85.jpg,high,NULL
1687287123,623889668fb34ccf1f9e10cba970a7c6,PennController,18,0,experiment,NULL,Canvas,canvas6,Print,NA,1687286915210,5f1705733abc1c02b11c85f9,5f1705733abc1c02b11c85f9,15,zip,critical,D,75,zip65.jpg,zip85.jpg,high,NULL
1687287123,623889668fb34ccf1f9e10cba970a7c6,PennController,18,0,experiment,NULL,Video,progression,buffer,0.00723,1687286911840,5f1705733abc1c02b11c85f9,5f1705733abc1c02b11c85f9,15,zip,critical,D,75,zip65.jpg,zip85.jpg,high,NULL
1687287123,623889668fb34ccf1f9e10cba970a7c6,PennController,18,0,experiment,NULL,Selector,choice,Selection,option1,1687286917567,5f1705733abc1c02b11c85f9,5f1705733abc1c02b11c85f9,15,zip,critical,D,75,zip65.jpg,zip85.jpg,high,option2;option1
1687287123,623889668fb34ccf1f9e10cba970a7c6,PennController,18,0,experiment,NULL,PennController,17,_Trial_,End,1687286917568,5f1705733abc1c02b11c85f9,5f1705733abc1c02b11c85f9,15,zip,critical,D,75,zip65.jpg,zip85.jpg,high,NULL
1687287123,623889668fb34ccf1f9e10cba970a7c6,PennController,14,0,experiment,NULL,PennController,13,_Trial_,Start,1687286917569,5f1705733abc1c02b11c85f9,5f1705733abc1c02b11c85f9,11,beads,critical,D,50,beads40.jpg,beads60.jpg,high,NULL
1687287123,623889668fb34ccf1f9e10cba970a7c6,PennController,14,0,experiment,NULL,PennController,13,_Header_,Start,1687286917569,5f1705733abc1c02b11c85f9,5f1705733abc1c02b11c85f9,11,beads,critical,D,50,beads40.jpg,beads60.jpg,high,NULL
1687287123,623889668fb34ccf1f9e10cba970a7c6,PennController,14,0,experiment,NULL,PennController,13,_Header_,End,1687286917569,5f1705733abc1c02b11c85f9,5f1705733abc1c02b11c85f9,11,beads,critical,D,50,beads40.jpg,beads60.jpg,high,NULL
1687287123,623889668fb34ccf1f9e10cba970a7c6,PennController,14,0,experiment,NULL,Canvas,canvas6,Print,NA,1687286924277,5f1705733abc1c02b11c85f9,5f1705733abc1c02b11c85f9,11,beads,critical,D,50,beads40.jpg,beads60.jpg,high,NULL
1687287123,623889668fb34ccf1f9e10cba970a7c6,PennController,14,0,experiment,NULL,Video,progression,buffer,0.009466,1687286921101,5f1705733abc1c02b11c85f9,5f1705733abc1c02b11c85f9,11,beads,critical,D,50,beads40.jpg,beads60.jpg,high,NULL
1687287123,623889668fb34ccf1f9e10cba970a7c6,PennController,14,0,experiment,NULL,Selector,choice,Selection,option2,1687286926349,5f1705733abc1c02b11c85f9,5f1705733abc1c02b11c85f9,11,beads,critical,D,50,beads40.jpg,beads60.jpg,high,option1;option2
1687287123,623889668fb34ccf1f9e10cba970a7c6,PennController,14,0,experiment,NULL,PennController,13,_Trial_,End,1687286926350,5f1705733abc1c02b11c85f9,5f1705733abc1c02b11c85f9,11,beads,critical,D,50,beads40.jpg,beads60.jpg,high,NULL
1687287123,623889668fb34ccf1f9e10cba970a7c6,PennController,11,0,experiment,NULL,PennController,10,_Trial_,Start,1687286926351,5f1705733abc1c02b11c85f9,5f1705733abc1c02b11c85f9,8,cucumber,critical,D,50,cucumber42.jpg,cucumber60.jpg,high,NULL
1687287123,623889668fb34ccf1f9e10cba970a7c6,PennController,11,0,experiment,NULL,PennController,10,_Header_,Start,1687286926351,5f1705733abc1c02b11c85f9,5f1705733abc1c02b11c85f9,8,cucumber,critical,D,50,cucumber42.jpg,cucumber60.jpg,high,NULL
1687287123,623889668fb34ccf1f9e10cba970a7c6,PennController,11,0,experiment,NULL,PennController,10,_Header_,End,1687286926351,5f1705733abc1c02b11c85f9,5f1705733abc1c02b11c85f9,8,cucumber,critical,D,50,cucumber42.jpg,cucumber60.jpg,high,NULL
1687287123,623889668fb34ccf1f9e10cba970a7c6,PennController,11,0,experiment,NULL,Canvas,canvas6,Print,NA,1687286934456,5f1705733abc1c02b11c85f9,5f1705733abc1c02b11c85f9,8,cucumber,critical,D,50,cucumber42.jpg,cucumber60.jpg,high,NULL
1687287123,623889668fb34ccf1f9e10cba970a7c6,PennController,11,0,experiment,NULL,Video,progression,buffer,0.003336,1687286929882,5f1705733abc1c02b11c85f9,5f1705733abc1c02b11c85f9,8,cucumber,critical,D,50,cucumber42.jpg,cucumber60.jpg,high,NULL
1687287123,623889668fb34ccf1f9e10cba970a7c6,PennController,11,0,experiment,NULL,Selector,choice,Selection,option1,1687286935613,5f1705733abc1c02b11c85f9,5f1705733abc1c02b11c85f9,8,cucumber,critical,D,50,cucumber42.jpg,cucumber60.jpg,high,option2;option1
1687287123,623889668fb34ccf1f9e10cba970a7c6,PennController,11,0,experiment,NULL,PennController,10,_Trial_,End,1687286935613,5f1705733abc1c02b11c85f9,5f1705733abc1c02b11c85f9,8,cucumber,critical,D,50,cucumber42.jpg,cucumber60.jpg,high,NULL
1687287123,623889668fb34ccf1f9e10cba970a7c6,PennController,5,0,experiment,NULL,PennController,4,_Trial_,Start,1687286935614,5f1705733abc1c02b11c85f9,5f1705733abc1c02b11c85f9,2,door,critical,D,50,door40.jpg,door60.jpg,high,NULL
1687287123,623889668fb34ccf1f9e10cba970a7c6,PennController,5,0,experiment,NULL,PennController,4,_Header_,Start,1687286935614,5f1705733abc1c02b11c85f9,5f1705733abc1c02b11c85f9,2,door,critical,D,50,door40.jpg,door60.jpg,high,NULL
1687287123,623889668fb34ccf1f9e10cba970a7c6,PennController,5,0,experiment,NULL,PennController,4,_Header_,End,1687286935614,5f1705733abc1c02b11c85f9,5f1705733abc1c02b11c85f9,2,door,critical,D,50,door40.jpg,door60.jpg,high,NULL
1687287123,623889668fb34ccf1f9e10cba970a7c6,PennController,5,0,experiment,NULL,Canvas,canvas6,Print,NA,1687286942333,5f1705733abc1c02b11c85f9,5f1705733abc1c02b11c85f9,2,door,critical,D,50,door40.jpg,door60.jpg,high,NULL
1687287123,623889668fb34ccf1f9e10cba970a7c6,PennController,5,0,experiment,NULL,Video,progression,buffer,0.009833,1687286939155,5f1705733abc1c02b11c85f9,5f1705733abc1c02b11c85f9,2,door,critical,D,50,door40.jpg,door60.jpg,high,NULL
1687287123,623889668fb34ccf1f9e10cba970a7c6,PennController,5,0,experiment,NULL,Selector,choice,Selection,option2,1687286943419,5f1705733abc1c02b11c85f9,5f1705733abc1c02b11c85f9,2,door,critical,D,50,door40.jpg,door60.jpg,high,option1;option2
1687287123,623889668fb34ccf1f9e10cba970a7c6,PennController,5,0,experiment,NULL,PennController,4,_Trial_,End,1687286943420,5f1705733abc1c02b11c85f9,5f1705733abc1c02b11c85f9,2,door,critical,D,50,door40.jpg,door60.jpg,high,NULL
1687287123,623889668fb34ccf1f9e10cba970a7c6,PennController,27,0,experiment,NULL,PennController,26,_Trial_,Start,1687286943421,5f1705733abc1c02b11c85f9,5f1705733abc1c02b11c85f9,24,match,filler,D,75,match65.jpg,match85.jpg,GoalA,NULL
1687287123,623889668fb34ccf1f9e10cba970a7c6,PennController,27,0,experiment,NULL,PennController,26,_Header_,Start,1687286943421,5f1705733abc1c02b11c85f9,5f1705733abc1c02b11c85f9,24,match,filler,D,75,match65.jpg,match85.jpg,GoalA,NULL
1687287123,623889668fb34ccf1f9e10cba970a7c6,PennController,27,0,experiment,NULL,PennController,26,_Header_,End,1687286943421,5f1705733abc1c02b11c85f9,5f1705733abc1c02b11c85f9,24,match,filler,D,75,match65.jpg,match85.jpg,GoalA,NULL
1687287123,623889668fb34ccf1f9e10cba970a7c6,PennController,27,0,experiment,NULL,Canvas,canvas6,Print,NA,1687286951144,5f1705733abc1c02b11c85f9,5f1705733abc1c02b11c85f9,24,match,filler,D,75,match65.jpg,match85.jpg,GoalA,NULL
1687287123,623889668fb34ccf1f9e10cba970a7c6,PennController,27,0,experiment,NULL,Video,progression,buffer,0.009289,1687286946967,5f1705733abc1c02b11c85f9,5f1705733abc1c02b11c85f9,24,match,filler,D,75,match65.jpg,match85.jpg,GoalA,NULL
1687287123,623889668fb34ccf1f9e10cba970a7c6,PennController,27,0,experiment,NULL,Selector,choice,Selection,option2,1687286952675,5f1705733abc1c02b11c85f9,5f1705733abc1c02b11c85f9,24,match,filler,D,75,match65.jpg,match85.jpg,GoalA,option2;option1
1687287123,623889668fb34ccf1f9e10cba970a7c6,PennController,27,0,experiment,NULL,PennController,26,_Trial_,End,1687286952675,5f1705733abc1c02b11c85f9,5f1705733abc1c02b11c85f9,24,match,filler,D,75,match65.jpg,match85.jpg,GoalA,NULL
1687287123,623889668fb34ccf1f9e10cba970a7c6,PennController,10,0,experiment,NULL,PennController,9,_Trial_,Start,1687286952676,5f1705733abc1c02b11c85f9,5f1705733abc1c02b11c85f9,7,stack,critical,D,25,stack15.jpg,stack35.jpg,high,NULL
1687287123,623889668fb34ccf1f9e10cba970a7c6,PennController,10,0,experiment,NULL,PennController,9,_Header_,Start,1687286952676,5f1705733abc1c02b11c85f9,5f1705733abc1c02b11c85f9,7,stack,critical,D,25,stack15.jpg,stack35.jpg,high,NULL
1687287123,623889668fb34ccf1f9e10cba970a7c6,PennController,10,0,experiment,NULL,PennController,9,_Header_,End,1687286952676,5f1705733abc1c02b11c85f9,5f1705733abc1c02b11c85f9,7,stack,critical,D,25,stack15.jpg,stack35.jpg,high,NULL
1687287123,623889668fb34ccf1f9e10cba970a7c6,PennController,10,0,experiment,NULL,Canvas,canvas6,Print,NA,1687286958381,5f1705733abc1c02b11c85f9,5f1705733abc1c02b11c85f9,7,stack,critical,D,25,stack15.jpg,stack35.jpg,high,NULL
1687287123,623889668fb34ccf1f9e10cba970a7c6,PennController,10,0,experiment,NULL,Video,progression,buffer,0.008654,1687286956215,5f1705733abc1c02b11c85f9,5f1705733abc1c02b11c85f9,7,stack,critical,D,25,stack15.jpg,stack35.jpg,high,NULL
1687287123,623889668fb34ccf1f9e10cba970a7c6,PennController,10,0,experiment,NULL,Selector,choice,Selection,option2,1687286960049,5f1705733abc1c02b11c85f9,5f1705733abc1c02b11c85f9,7,stack,critical,D,25,stack15.jpg,stack35.jpg,high,option2;option1
1687287123,623889668fb34ccf1f9e10cba970a7c6,PennController,10,0,experiment,NULL,PennController,9,_Trial_,End,1687286960049,5f1705733abc1c02b11c85f9,5f1705733abc1c02b11c85f9,7,stack,critical,D,25,stack15.jpg,stack35.jpg,high,NULL
1687287123,623889668fb34ccf1f9e10cba970a7c6,PennController,8,0,experiment,NULL,PennController,7,_Trial_,Start,1687286960050,5f1705733abc1c02b11c85f9,5f1705733abc1c02b11c85f9,5,book,critical,D,50,book40.jpg,book60.jpg,high,NULL
1687287123,623889668fb34ccf1f9e10cba970a7c6,PennController,8,0,experiment,NULL,PennController,7,_Header_,Start,1687286960050,5f1705733abc1c02b11c85f9,5f1705733abc1c02b11c85f9,5,book,critical,D,50,book40.jpg,book60.jpg,high,NULL
1687287123,623889668fb34ccf1f9e10cba970a7c6,PennController,8,0,experiment,NULL,PennController,7,_Header_,End,1687286960050,5f1705733abc1c02b11c85f9,5f1705733abc1c02b11c85f9,5,book,critical,D,50,book40.jpg,book60.jpg,high,NULL
1687287123,623889668fb34ccf1f9e10cba970a7c6,PennController,8,0,experiment,NULL,Canvas,canvas6,Print,NA,1687286966753,5f1705733abc1c02b11c85f9,5f1705733abc1c02b11c85f9,5,book,critical,D,50,book40.jpg,book60.jpg,high,NULL
1687287123,623889668fb34ccf1f9e10cba970a7c6,PennController,8,0,experiment,NULL,Video,progression,buffer,0.011533,1687286963586,5f1705733abc1c02b11c85f9,5f1705733abc1c02b11c85f9,5,book,critical,D,50,book40.jpg,book60.jpg,high,NULL
1687287123,623889668fb34ccf1f9e10cba970a7c6,PennController,8,0,experiment,NULL,Selector,choice,Selection,option2,1687286968619,5f1705733abc1c02b11c85f9,5f1705733abc1c02b11c85f9,5,book,critical,D,50,book40.jpg,book60.jpg,high,option1;option2
1687287123,623889668fb34ccf1f9e10cba970a7c6,PennController,8,0,experiment,NULL,PennController,7,_Trial_,End,1687286968620,5f1705733abc1c02b11c85f9,5f1705733abc1c02b11c85f9,5,book,critical,D,50,book40.jpg,book60.jpg,high,NULL
1687287123,623889668fb34ccf1f9e10cba970a7c6,PennController,26,0,experiment,NULL,PennController,25,_Trial_,Start,1687286968620,5f1705733abc1c02b11c85f9,5f1705733abc1c02b11c85f9,23,color,filler,D,50,color40.jpg,color60.jpg,GoalB,NULL
1687287123,623889668fb34ccf1f9e10cba970a7c6,PennController,26,0,experiment,NULL,PennController,25,_Header_,Start,1687286968620,5f1705733abc1c02b11c85f9,5f1705733abc1c02b11c85f9,23,color,filler,D,50,color40.jpg,color60.jpg,GoalB,NULL
1687287123,623889668fb34ccf1f9e10cba970a7c6,PennController,26,0,experiment,NULL,PennController,25,_Header_,End,1687286968621,5f1705733abc1c02b11c85f9,5f1705733abc1c02b11c85f9,23,color,filler,D,50,color40.jpg,color60.jpg,GoalB,NULL
1687287123,623889668fb34ccf1f9e10cba970a7c6,PennController,26,0,experiment,NULL,Canvas,canvas6,Print,NA,1687286975330,5f1705733abc1c02b11c85f9,5f1705733abc1c02b11c85f9,23,color,filler,D,50,color40.jpg,color60.jpg,GoalB,NULL
1687287123,623889668fb34ccf1f9e10cba970a7c6,PennController,26,0,experiment,NULL,Video,progression,buffer,0.008187,1687286972161,5f1705733abc1c02b11c85f9,5f1705733abc1c02b11c85f9,23,color,filler,D,50,color40.jpg,color60.jpg,GoalB,NULL
1687287123,623889668fb34ccf1f9e10cba970a7c6,PennController,26,0,experiment,NULL,Selector,choice,Selection,option2,1687286978203,5f1705733abc1c02b11c85f9,5f1705733abc1c02b11c85f9,23,color,filler,D,50,color40.jpg,color60.jpg,GoalB,option1;option2
1687287123,623889668fb34ccf1f9e10cba970a7c6,PennController,26,0,experiment,NULL,PennController,25,_Trial_,End,1687286978203,5f1705733abc1c02b11c85f9,5f1705733abc1c02b11c85f9,23,color,filler,D,50,color40.jpg,color60.jpg,GoalB,NULL
1687287123,623889668fb34ccf1f9e10cba970a7c6,PennController,15,0,experiment,NULL,PennController,14,_Trial_,Start,1687286978204,5f1705733abc1c02b11c85f9,5f1705733abc1c02b11c85f9,12,erase,critical,D,75,erase66.jpg,erase84.jpg,high,NULL
1687287123,623889668fb34ccf1f9e10cba970a7c6,PennController,15,0,experiment,NULL,PennController,14,_Header_,Start,1687286978204,5f1705733abc1c02b11c85f9,5f1705733abc1c02b11c85f9,12,erase,critical,D,75,erase66.jpg,erase84.jpg,high,NULL
1687287123,623889668fb34ccf1f9e10cba970a7c6,PennController,15,0,experiment,NULL,PennController,14,_Header_,End,1687286978204,5f1705733abc1c02b11c85f9,5f1705733abc1c02b11c85f9,12,erase,critical,D,75,erase66.jpg,erase84.jpg,high,NULL
1687287123,623889668fb34ccf1f9e10cba970a7c6,PennController,15,0,experiment,NULL,Canvas,canvas6,Print,NA,1687286987913,5f1705733abc1c02b11c85f9,5f1705733abc1c02b11c85f9,12,erase,critical,D,75,erase66.jpg,erase84.jpg,high,NULL
1687287123,623889668fb34ccf1f9e10cba970a7c6,PennController,15,0,experiment,NULL,Video,progression,buffer,0.008189,1687286981744,5f1705733abc1c02b11c85f9,5f1705733abc1c02b11c85f9,12,erase,critical,D,75,erase66.jpg,erase84.jpg,high,NULL
1687287123,623889668fb34ccf1f9e10cba970a7c6,PennController,15,0,experiment,NULL,Selector,choice,Selection,option2,1687286989387,5f1705733abc1c02b11c85f9,5f1705733abc1c02b11c85f9,12,erase,critical,D,75,erase66.jpg,erase84.jpg,high,option2;option1
1687287123,623889668fb34ccf1f9e10cba970a7c6,PennController,15,0,experiment,NULL,PennController,14,_Trial_,End,1687286989387,5f1705733abc1c02b11c85f9,5f1705733abc1c02b11c85f9,12,erase,critical,D,75,erase66.jpg,erase84.jpg,high,NULL
1687287123,623889668fb34ccf1f9e10cba970a7c6,PennController,30,0,experiment,NULL,PennController,29,_Trial_,Start,1687286989388,5f1705733abc1c02b11c85f9,5f1705733abc1c02b11c85f9,27,square,filler,D,75,square65.jpg,square85.jpg,GoalB,NULL
1687287123,623889668fb34ccf1f9e10cba970a7c6,PennController,30,0,experiment,NULL,PennController,29,_Header_,Start,1687286989388,5f1705733abc1c02b11c85f9,5f1705733abc1c02b11c85f9,27,square,filler,D,75,square65.jpg,square85.jpg,GoalB,NULL
1687287123,623889668fb34ccf1f9e10cba970a7c6,PennController,30,0,experiment,NULL,PennController,29,_Header_,End,1687286989388,5f1705733abc1c02b11c85f9,5f1705733abc1c02b11c85f9,27,square,filler,D,75,square65.jpg,square85.jpg,GoalB,NULL
1687287123,623889668fb34ccf1f9e10cba970a7c6,PennController,30,0,experiment,NULL,Canvas,canvas6,Print,NA,1687286997089,5f1705733abc1c02b11c85f9,5f1705733abc1c02b11c85f9,27,square,filler,D,75,square65.jpg,square85.jpg,GoalB,NULL
1687287123,623889668fb34ccf1f9e10cba970a7c6,PennController,30,0,experiment,NULL,Video,progression,buffer,0.007638,1687286992927,5f1705733abc1c02b11c85f9,5f1705733abc1c02b11c85f9,27,square,filler,D,75,square65.jpg,square85.jpg,GoalB,NULL
1687287123,623889668fb34ccf1f9e10cba970a7c6,PennController,30,0,experiment,NULL,Selector,choice,Selection,option1,1687286999379,5f1705733abc1c02b11c85f9,5f1705733abc1c02b11c85f9,27,square,filler,D,75,square65.jpg,square85.jpg,GoalB,option2;option1
1687287123,623889668fb34ccf1f9e10cba970a7c6,PennController,30,0,experiment,NULL,PennController,29,_Trial_,End,1687286999380,5f1705733abc1c02b11c85f9,5f1705733abc1c02b11c85f9,27,square,filler,D,75,square65.jpg,square85.jpg,GoalB,NULL
1687287123,623889668fb34ccf1f9e10cba970a7c6,PennController,4,0,experiment,NULL,PennController,3,_Trial_,Start,1687286999381,5f1705733abc1c02b11c85f9,5f1705733abc1c02b11c85f9,1,vase,critical,D,25,vase15.jpg,vase35.jpg,high,NULL
1687287123,623889668fb34ccf1f9e10cba970a7c6,PennController,4,0,experiment,NULL,PennController,3,_Header_,Start,1687286999381,5f1705733abc1c02b11c85f9,5f1705733abc1c02b11c85f9,1,vase,critical,D,25,vase15.jpg,vase35.jpg,high,NULL
1687287123,623889668fb34ccf1f9e10cba970a7c6,PennController,4,0,experiment,NULL,PennController,3,_Header_,End,1687286999381,5f1705733abc1c02b11c85f9,5f1705733abc1c02b11c85f9,1,vase,critical,D,25,vase15.jpg,vase35.jpg,high,NULL
1687287123,623889668fb34ccf1f9e10cba970a7c6,PennController,4,0,experiment,NULL,Canvas,canvas6,Print,NA,1687287005088,5f1705733abc1c02b11c85f9,5f1705733abc1c02b11c85f9,1,vase,critical,D,25,vase15.jpg,vase35.jpg,high,NULL
1687287123,623889668fb34ccf1f9e10cba970a7c6,PennController,4,0,experiment,NULL,Video,progression,buffer,0.013866,1687287002927,5f1705733abc1c02b11c85f9,5f1705733abc1c02b11c85f9,1,vase,critical,D,25,vase15.jpg,vase35.jpg,high,NULL
1687287123,623889668fb34ccf1f9e10cba970a7c6,PennController,4,0,experiment,NULL,Selector,choice,Selection,option2,1687287006639,5f1705733abc1c02b11c85f9,5f1705733abc1c02b11c85f9,1,vase,critical,D,25,vase15.jpg,vase35.jpg,high,option2;option1
1687287123,623889668fb34ccf1f9e10cba970a7c6,PennController,4,0,experiment,NULL,PennController,3,_Trial_,End,1687287006640,5f1705733abc1c02b11c85f9,5f1705733abc1c02b11c85f9,1,vase,critical,D,25,vase15.jpg,vase35.jpg,high,NULL
1687287123,623889668fb34ccf1f9e10cba970a7c6,PennController,20,0,experiment,NULL,PennController,19,_Trial_,Start,1687287006641,5f1705733abc1c02b11c85f9,5f1705733abc1c02b11c85f9,17,roll,critical,D,50,roll40.jpg,roll60.jpg,high,NULL
1687287123,623889668fb34ccf1f9e10cba970a7c6,PennController,20,0,experiment,NULL,PennController,19,_Header_,Start,1687287006641,5f1705733abc1c02b11c85f9,5f1705733abc1c02b11c85f9,17,roll,critical,D,50,roll40.jpg,roll60.jpg,high,NULL
1687287123,623889668fb34ccf1f9e10cba970a7c6,PennController,20,0,experiment,NULL,PennController,19,_Header_,End,1687287006642,5f1705733abc1c02b11c85f9,5f1705733abc1c02b11c85f9,17,roll,critical,D,50,roll40.jpg,roll60.jpg,high,NULL
1687287123,623889668fb34ccf1f9e10cba970a7c6,PennController,20,0,experiment,NULL,Canvas,canvas6,Print,NA,1687287013507,5f1705733abc1c02b11c85f9,5f1705733abc1c02b11c85f9,17,roll,critical,D,50,roll40.jpg,roll60.jpg,high,NULL
1687287123,623889668fb34ccf1f9e10cba970a7c6,PennController,20,0,experiment,NULL,Video,progression,buffer,0,1687287010187,5f1705733abc1c02b11c85f9,5f1705733abc1c02b11c85f9,17,roll,critical,D,50,roll40.jpg,roll60.jpg,high,NULL
1687287123,623889668fb34ccf1f9e10cba970a7c6,PennController,20,0,experiment,NULL,Selector,choice,Selection,option1,1687287014643,5f1705733abc1c02b11c85f9,5f1705733abc1c02b11c85f9,17,roll,critical,D,50,roll40.jpg,roll60.jpg,high,option2;option1
1687287123,623889668fb34ccf1f9e10cba970a7c6,PennController,20,0,experiment,NULL,PennController,19,_Trial_,End,1687287014644,5f1705733abc1c02b11c85f9,5f1705733abc1c02b11c85f9,17,roll,critical,D,50,roll40.jpg,roll60.jpg,high,NULL
1687287123,623889668fb34ccf1f9e10cba970a7c6,PennController,7,0,experiment,NULL,PennController,6,_Trial_,Start,1687287014645,5f1705733abc1c02b11c85f9,5f1705733abc1c02b11c85f9,4,candy,critical,D,25,candy15.jpg,candy35.jpg,high,NULL
1687287123,623889668fb34ccf1f9e10cba970a7c6,PennController,7,0,experiment,NULL,PennController,6,_Header_,Start,1687287014645,5f1705733abc1c02b11c85f9,5f1705733abc1c02b11c85f9,4,candy,critical,D,25,candy15.jpg,candy35.jpg,high,NULL
1687287123,623889668fb34ccf1f9e10cba970a7c6,PennController,7,0,experiment,NULL,PennController,6,_Header_,End,1687287014645,5f1705733abc1c02b11c85f9,5f1705733abc1c02b11c85f9,4,candy,critical,D,25,candy15.jpg,candy35.jpg,high,NULL
1687287123,623889668fb34ccf1f9e10cba970a7c6,PennController,7,0,experiment,NULL,Canvas,canvas6,Print,NA,1687287020361,5f1705733abc1c02b11c85f9,5f1705733abc1c02b11c85f9,4,candy,critical,D,25,candy15.jpg,candy35.jpg,high,NULL
1687287123,623889668fb34ccf1f9e10cba970a7c6,PennController,7,0,experiment,NULL,Video,progression,buffer,0.009563,1687287018186,5f1705733abc1c02b11c85f9,5f1705733abc1c02b11c85f9,4,candy,critical,D,25,candy15.jpg,candy35.jpg,high,NULL
1687287123,623889668fb34ccf1f9e10cba970a7c6,PennController,7,0,experiment,NULL,Selector,choice,Selection,option2,1687287021928,5f1705733abc1c02b11c85f9,5f1705733abc1c02b11c85f9,4,candy,critical,D,25,candy15.jpg,candy35.jpg,high,option1;option2
1687287123,623889668fb34ccf1f9e10cba970a7c6,PennController,7,0,experiment,NULL,PennController,6,_Trial_,End,1687287021929,5f1705733abc1c02b11c85f9,5f1705733abc1c02b11c85f9,4,candy,critical,D,25,candy15.jpg,candy35.jpg,high,NULL
1687287123,623889668fb34ccf1f9e10cba970a7c6,PennController,28,0,experiment,NULL,PennController,27,_Trial_,Start,1687287021930,5f1705733abc1c02b11c85f9,5f1705733abc1c02b11c85f9,25,house,filler,D,25,house15.jpg,house35.jpg,GoalB,NULL
1687287123,623889668fb34ccf1f9e10cba970a7c6,PennController,28,0,experiment,NULL,PennController,27,_Header_,Start,1687287021930,5f1705733abc1c02b11c85f9,5f1705733abc1c02b11c85f9,25,house,filler,D,25,house15.jpg,house35.jpg,GoalB,NULL
1687287123,623889668fb34ccf1f9e10cba970a7c6,PennController,28,0,experiment,NULL,PennController,27,_Header_,End,1687287021930,5f1705733abc1c02b11c85f9,5f1705733abc1c02b11c85f9,25,house,filler,D,25,house15.jpg,house35.jpg,GoalB,NULL
1687287123,623889668fb34ccf1f9e10cba970a7c6,PennController,28,0,experiment,NULL,Canvas,canvas6,Print,NA,1687287027629,5f1705733abc1c02b11c85f9,5f1705733abc1c02b11c85f9,25,house,filler,D,25,house15.jpg,house35.jpg,GoalB,NULL
1687287123,623889668fb34ccf1f9e10cba970a7c6,PennController,28,0,experiment,NULL,Video,progression,buffer,0.007327,1687287025459,5f1705733abc1c02b11c85f9,5f1705733abc1c02b11c85f9,25,house,filler,D,25,house15.jpg,house35.jpg,GoalB,NULL
1687287123,623889668fb34ccf1f9e10cba970a7c6,PennController,28,0,experiment,NULL,Selector,choice,Selection,option2,1687287028834,5f1705733abc1c02b11c85f9,5f1705733abc1c02b11c85f9,25,house,filler,D,25,house15.jpg,house35.jpg,GoalB,option2;option1
1687287123,623889668fb34ccf1f9e10cba970a7c6,PennController,28,0,experiment,NULL,PennController,27,_Trial_,End,1687287028835,5f1705733abc1c02b11c85f9,5f1705733abc1c02b11c85f9,25,house,filler,D,25,house15.jpg,house35.jpg,GoalB,NULL
1687287123,623889668fb34ccf1f9e10cba970a7c6,PennController,23,0,experiment,NULL,PennController,22,_Trial_,Start,1687287028836,5f1705733abc1c02b11c85f9,5f1705733abc1c02b11c85f9,20,cat,filler,D,50,cat40.jpg,cat60.jpg,GoalA,NULL
1687287123,623889668fb34ccf1f9e10cba970a7c6,PennController,23,0,experiment,NULL,PennController,22,_Header_,Start,1687287028836,5f1705733abc1c02b11c85f9,5f1705733abc1c02b11c85f9,20,cat,filler,D,50,cat40.jpg,cat60.jpg,GoalA,NULL
1687287123,623889668fb34ccf1f9e10cba970a7c6,PennController,23,0,experiment,NULL,PennController,22,_Header_,End,1687287028836,5f1705733abc1c02b11c85f9,5f1705733abc1c02b11c85f9,20,cat,filler,D,50,cat40.jpg,cat60.jpg,GoalA,NULL
1687287123,623889668fb34ccf1f9e10cba970a7c6,PennController,23,0,experiment,NULL,Canvas,canvas6,Print,NA,1687287035540,5f1705733abc1c02b11c85f9,5f1705733abc1c02b11c85f9,20,cat,filler,D,50,cat40.jpg,cat60.jpg,GoalA,NULL
1687287123,623889668fb34ccf1f9e10cba970a7c6,PennController,23,0,experiment,NULL,Video,progression,buffer,0.011623,1687287032381,5f1705733abc1c02b11c85f9,5f1705733abc1c02b11c85f9,20,cat,filler,D,50,cat40.jpg,cat60.jpg,GoalA,NULL
1687287123,623889668fb34ccf1f9e10cba970a7c6,PennController,23,0,experiment,NULL,Selector,choice,Selection,option2,1687287036902,5f1705733abc1c02b11c85f9,5f1705733abc1c02b11c85f9,20,cat,filler,D,50,cat40.jpg,cat60.jpg,GoalA,option1;option2
1687287123,623889668fb34ccf1f9e10cba970a7c6,PennController,23,0,experiment,NULL,PennController,22,_Trial_,End,1687287036903,5f1705733abc1c02b11c85f9,5f1705733abc1c02b11c85f9,20,cat,filler,D,50,cat40.jpg,cat60.jpg,GoalA,NULL
1687287123,623889668fb34ccf1f9e10cba970a7c6,PennController,29,0,experiment,NULL,PennController,28,_Trial_,Start,1687287036904,5f1705733abc1c02b11c85f9,5f1705733abc1c02b11c85f9,26,sandwich,filler,D,50,sandwich40.jpg,sandwich60.jpg,GoalA,NULL
1687287123,623889668fb34ccf1f9e10cba970a7c6,PennController,29,0,experiment,NULL,PennController,28,_Header_,Start,1687287036904,5f1705733abc1c02b11c85f9,5f1705733abc1c02b11c85f9,26,sandwich,filler,D,50,sandwich40.jpg,sandwich60.jpg,GoalA,NULL
1687287123,623889668fb34ccf1f9e10cba970a7c6,PennController,29,0,experiment,NULL,PennController,28,_Header_,End,1687287036904,5f1705733abc1c02b11c85f9,5f1705733abc1c02b11c85f9,26,sandwich,filler,D,50,sandwich40.jpg,sandwich60.jpg,GoalA,NULL
1687287123,623889668fb34ccf1f9e10cba970a7c6,PennController,29,0,experiment,NULL,Canvas,canvas6,Print,NA,1687287043608,5f1705733abc1c02b11c85f9,5f1705733abc1c02b11c85f9,26,sandwich,filler,D,50,sandwich40.jpg,sandwich60.jpg,GoalA,NULL
1687287123,623889668fb34ccf1f9e10cba970a7c6,PennController,29,0,experiment,NULL,Video,progression,buffer,0.010856,1687287040448,5f1705733abc1c02b11c85f9,5f1705733abc1c02b11c85f9,26,sandwich,filler,D,50,sandwich40.jpg,sandwich60.jpg,GoalA,NULL
1687287123,623889668fb34ccf1f9e10cba970a7c6,PennController,29,0,experiment,NULL,Selector,choice,Selection,option1,1687287044926,5f1705733abc1c02b11c85f9,5f1705733abc1c02b11c85f9,26,sandwich,filler,D,50,sandwich40.jpg,sandwich60.jpg,GoalA,option2;option1
1687287123,623889668fb34ccf1f9e10cba970a7c6,PennController,29,0,experiment,NULL,PennController,28,_Trial_,End,1687287044927,5f1705733abc1c02b11c85f9,5f1705733abc1c02b11c85f9,26,sandwich,filler,D,50,sandwich40.jpg,sandwich60.jpg,GoalA,NULL
1687287123,623889668fb34ccf1f9e10cba970a7c6,PennController,25,0,experiment,NULL,PennController,24,_Trial_,Start,1687287044928,5f1705733abc1c02b11c85f9,5f1705733abc1c02b11c85f9,22,wall,filler,D,25,wall15.jpg,wall35.jpg,GoalA,NULL
1687287123,623889668fb34ccf1f9e10cba970a7c6,PennController,25,0,experiment,NULL,PennController,24,_Header_,Start,1687287044928,5f1705733abc1c02b11c85f9,5f1705733abc1c02b11c85f9,22,wall,filler,D,25,wall15.jpg,wall35.jpg,GoalA,NULL
1687287123,623889668fb34ccf1f9e10cba970a7c6,PennController,25,0,experiment,NULL,PennController,24,_Header_,End,1687287044928,5f1705733abc1c02b11c85f9,5f1705733abc1c02b11c85f9,22,wall,filler,D,25,wall15.jpg,wall35.jpg,GoalA,NULL
1687287123,623889668fb34ccf1f9e10cba970a7c6,PennController,25,0,experiment,NULL,Canvas,canvas6,Print,NA,1687287050626,5f1705733abc1c02b11c85f9,5f1705733abc1c02b11c85f9,22,wall,filler,D,25,wall15.jpg,wall35.jpg,GoalA,NULL
1687287123,623889668fb34ccf1f9e10cba970a7c6,PennController,25,0,experiment,NULL,Video,progression,buffer,0.004503,1687287048452,5f1705733abc1c02b11c85f9,5f1705733abc1c02b11c85f9,22,wall,filler,D,25,wall15.jpg,wall35.jpg,GoalA,NULL
1687287123,623889668fb34ccf1f9e10cba970a7c6,PennController,25,0,experiment,NULL,Selector,choice,Selection,option1,1687287052129,5f1705733abc1c02b11c85f9,5f1705733abc1c02b11c85f9,22,wall,filler,D,25,wall15.jpg,wall35.jpg,GoalA,option1;option2
1687287123,623889668fb34ccf1f9e10cba970a7c6,PennController,25,0,experiment,NULL,PennController,24,_Trial_,End,1687287052130,5f1705733abc1c02b11c85f9,5f1705733abc1c02b11c85f9,22,wall,filler,D,25,wall15.jpg,wall35.jpg,GoalA,NULL
1687287123,623889668fb34ccf1f9e10cba970a7c6,PennController,12,0,experiment,NULL,PennController,11,_Trial_,Start,1687287052131,5f1705733abc1c02b11c85f9,5f1705733abc1c02b11c85f9,9,cake,critical,D,75,cake66.jpg,cake84.jpg,high,NULL
1687287123,623889668fb34ccf1f9e10cba970a7c6,PennController,12,0,experiment,NULL,PennController,11,_Header_,Start,1687287052131,5f1705733abc1c02b11c85f9,5f1705733abc1c02b11c85f9,9,cake,critical,D,75,cake66.jpg,cake84.jpg,high,NULL
1687287123,623889668fb34ccf1f9e10cba970a7c6,PennController,12,0,experiment,NULL,PennController,11,_Header_,End,1687287052131,5f1705733abc1c02b11c85f9,5f1705733abc1c02b11c85f9,9,cake,critical,D,75,cake66.jpg,cake84.jpg,high,NULL
1687287123,623889668fb34ccf1f9e10cba970a7c6,PennController,12,0,experiment,NULL,Canvas,canvas6,Print,NA,1687287061841,5f1705733abc1c02b11c85f9,5f1705733abc1c02b11c85f9,9,cake,critical,D,75,cake66.jpg,cake84.jpg,high,NULL
1687287123,623889668fb34ccf1f9e10cba970a7c6,PennController,12,0,experiment,NULL,Video,progression,buffer,0.010235,1687287055671,5f1705733abc1c02b11c85f9,5f1705733abc1c02b11c85f9,9,cake,critical,D,75,cake66.jpg,cake84.jpg,high,NULL
1687287123,623889668fb34ccf1f9e10cba970a7c6,PennController,12,0,experiment,NULL,Selector,choice,Selection,option1,1687287064140,5f1705733abc1c02b11c85f9,5f1705733abc1c02b11c85f9,9,cake,critical,D,75,cake66.jpg,cake84.jpg,high,option1;option2
1687287123,623889668fb34ccf1f9e10cba970a7c6,PennController,12,0,experiment,NULL,PennController,11,_Trial_,End,1687287064140,5f1705733abc1c02b11c85f9,5f1705733abc1c02b11c85f9,9,cake,critical,D,75,cake66.jpg,cake84.jpg,high,NULL
1687287123,623889668fb34ccf1f9e10cba970a7c6,PennController,19,0,experiment,NULL,PennController,18,_Trial_,Start,1687287064141,5f1705733abc1c02b11c85f9,5f1705733abc1c02b11c85f9,16,blinds,critical,D,25,blinds15.jpg,blinds33.jpg,high,NULL
1687287123,623889668fb34ccf1f9e10cba970a7c6,PennController,19,0,experiment,NULL,PennController,18,_Header_,Start,1687287064141,5f1705733abc1c02b11c85f9,5f1705733abc1c02b11c85f9,16,blinds,critical,D,25,blinds15.jpg,blinds33.jpg,high,NULL
1687287123,623889668fb34ccf1f9e10cba970a7c6,PennController,19,0,experiment,NULL,PennController,18,_Header_,End,1687287064141,5f1705733abc1c02b11c85f9,5f1705733abc1c02b11c85f9,16,blinds,critical,D,25,blinds15.jpg,blinds33.jpg,high,NULL
1687287123,623889668fb34ccf1f9e10cba970a7c6,PennController,19,0,experiment,NULL,Canvas,canvas6,Print,NA,1687287070449,5f1705733abc1c02b11c85f9,5f1705733abc1c02b11c85f9,16,blinds,critical,D,25,blinds15.jpg,blinds33.jpg,high,NULL
1687287123,623889668fb34ccf1f9e10cba970a7c6,PennController,19,0,experiment,NULL,Video,progression,buffer,0.004726,1687287067671,5f1705733abc1c02b11c85f9,5f1705733abc1c02b11c85f9,16,blinds,critical,D,25,blinds15.jpg,blinds33.jpg,high,NULL
1687287123,623889668fb34ccf1f9e10cba970a7c6,PennController,19,0,experiment,NULL,Selector,choice,Selection,option1,1687287071460,5f1705733abc1c02b11c85f9,5f1705733abc1c02b11c85f9,16,blinds,critical,D,25,blinds15.jpg,blinds33.jpg,high,option2;option1
1687287123,623889668fb34ccf1f9e10cba970a7c6,PennController,19,0,experiment,NULL,PennController,18,_Trial_,End,1687287071461,5f1705733abc1c02b11c85f9,5f1705733abc1c02b11c85f9,16,blinds,critical,D,25,blinds15.jpg,blinds33.jpg,high,NULL
1687287123,623889668fb34ccf1f9e10cba970a7c6,PennController,32,0,experiment,NULL,PennController,31,_Trial_,Start,1687287071462,5f1705733abc1c02b11c85f9,5f1705733abc1c02b11c85f9,29,frog,filler,D,50,frog40.jpg,frog60.jpg,GoalB,NULL
1687287123,623889668fb34ccf1f9e10cba970a7c6,PennController,32,0,experiment,NULL,PennController,31,_Header_,Start,1687287071462,5f1705733abc1c02b11c85f9,5f1705733abc1c02b11c85f9,29,frog,filler,D,50,frog40.jpg,frog60.jpg,GoalB,NULL
1687287123,623889668fb34ccf1f9e10cba970a7c6,PennController,32,0,experiment,NULL,PennController,31,_Header_,End,1687287071462,5f1705733abc1c02b11c85f9,5f1705733abc1c02b11c85f9,29,frog,filler,D,50,frog40.jpg,frog60.jpg,GoalB,NULL
1687287123,623889668fb34ccf1f9e10cba970a7c6,PennController,32,0,experiment,NULL,Canvas,canvas6,Print,NA,1687287078181,5f1705733abc1c02b11c85f9,5f1705733abc1c02b11c85f9,29,frog,filler,D,50,frog40.jpg,frog60.jpg,GoalB,NULL
1687287123,623889668fb34ccf1f9e10cba970a7c6,PennController,32,0,experiment,NULL,Video,progression,buffer,0.009188,1687287075000,5f1705733abc1c02b11c85f9,5f1705733abc1c02b11c85f9,29,frog,filler,D,50,frog40.jpg,frog60.jpg,GoalB,NULL
1687287123,623889668fb34ccf1f9e10cba970a7c6,PennController,32,0,experiment,NULL,Selector,choice,Selection,option1,1687287080955,5f1705733abc1c02b11c85f9,5f1705733abc1c02b11c85f9,29,frog,filler,D,50,frog40.jpg,frog60.jpg,GoalB,option1;option2
1687287123,623889668fb34ccf1f9e10cba970a7c6,PennController,32,0,experiment,NULL,PennController,31,_Trial_,End,1687287080955,5f1705733abc1c02b11c85f9,5f1705733abc1c02b11c85f9,29,frog,filler,D,50,frog40.jpg,frog60.jpg,GoalB,NULL
1687287123,623889668fb34ccf1f9e10cba970a7c6,PennController,17,0,experiment,NULL,PennController,16,_Trial_,Start,1687287080956,5f1705733abc1c02b11c85f9,5f1705733abc1c02b11c85f9,14,cover,critical,D,50,cover42.jpg,cover60.jpg,high,NULL
1687287123,623889668fb34ccf1f9e10cba970a7c6,PennController,17,0,experiment,NULL,PennController,16,_Header_,Start,1687287080956,5f1705733abc1c02b11c85f9,5f1705733abc1c02b11c85f9,14,cover,critical,D,50,cover42.jpg,cover60.jpg,high,NULL
1687287123,623889668fb34ccf1f9e10cba970a7c6,PennController,17,0,experiment,NULL,PennController,16,_Header_,End,1687287080956,5f1705733abc1c02b11c85f9,5f1705733abc1c02b11c85f9,14,cover,critical,D,50,cover42.jpg,cover60.jpg,high,NULL
1687287123,623889668fb34ccf1f9e10cba970a7c6,PennController,17,0,experiment,NULL,Canvas,canvas6,Print,NA,1687287089061,5f1705733abc1c02b11c85f9,5f1705733abc1c02b11c85f9,14,cover,critical,D,50,cover42.jpg,cover60.jpg,high,NULL
1687287123,623889668fb34ccf1f9e10cba970a7c6,PennController,17,0,experiment,NULL,Video,progression,buffer,0.004302,1687287084491,5f1705733abc1c02b11c85f9,5f1705733abc1c02b11c85f9,14,cover,critical,D,50,cover42.jpg,cover60.jpg,high,NULL
1687287123,623889668fb34ccf1f9e10cba970a7c6,PennController,17,0,experiment,NULL,Selector,choice,Selection,option1,1687287090154,5f1705733abc1c02b11c85f9,5f1705733abc1c02b11c85f9,14,cover,critical,D,50,cover42.jpg,cover60.jpg,high,option2;option1
1687287123,623889668fb34ccf1f9e10cba970a7c6,PennController,17,0,experiment,NULL,PennController,16,_Trial_,End,1687287090154,5f1705733abc1c02b11c85f9,5f1705733abc1c02b11c85f9,14,cover,critical,D,50,cover42.jpg,cover60.jpg,high,NULL
1687287123,623889668fb34ccf1f9e10cba970a7c6,PennController,24,0,experiment,NULL,PennController,23,_Trial_,Start,1687287090155,5f1705733abc1c02b11c85f9,5f1705733abc1c02b11c85f9,21,visit,filler,D,75,visit65.jpg,visit85.jpg,GoalB,NULL
1687287123,623889668fb34ccf1f9e10cba970a7c6,PennController,24,0,experiment,NULL,PennController,23,_Header_,Start,1687287090155,5f1705733abc1c02b11c85f9,5f1705733abc1c02b11c85f9,21,visit,filler,D,75,visit65.jpg,visit85.jpg,GoalB,NULL
1687287123,623889668fb34ccf1f9e10cba970a7c6,PennController,24,0,experiment,NULL,PennController,23,_Header_,End,1687287090155,5f1705733abc1c02b11c85f9,5f1705733abc1c02b11c85f9,21,visit,filler,D,75,visit65.jpg,visit85.jpg,GoalB,NULL
1687287123,623889668fb34ccf1f9e10cba970a7c6,PennController,24,0,experiment,NULL,Canvas,canvas6,Print,NA,1687287097861,5f1705733abc1c02b11c85f9,5f1705733abc1c02b11c85f9,21,visit,filler,D,75,visit65.jpg,visit85.jpg,GoalB,NULL
1687287123,623889668fb34ccf1f9e10cba970a7c6,PennController,24,0,experiment,NULL,Video,progression,buffer,0.006049,1687287093684,5f1705733abc1c02b11c85f9,5f1705733abc1c02b11c85f9,21,visit,filler,D,75,visit65.jpg,visit85.jpg,GoalB,NULL
1687287123,623889668fb34ccf1f9e10cba970a7c6,PennController,24,0,experiment,NULL,Selector,choice,Selection,option2,1687287099929,5f1705733abc1c02b11c85f9,5f1705733abc1c02b11c85f9,21,visit,filler,D,75,visit65.jpg,visit85.jpg,GoalB,option1;option2
1687287123,623889668fb34ccf1f9e10cba970a7c6,PennController,24,0,experiment,NULL,PennController,23,_Trial_,End,1687287099929,5f1705733abc1c02b11c85f9,5f1705733abc1c02b11c85f9,21,visit,filler,D,75,visit65.jpg,visit85.jpg,GoalB,NULL
1687287123,623889668fb34ccf1f9e10cba970a7c6,PennController,22,0,experiment,NULL,PennController,21,_Trial_,Start,1687287099930,5f1705733abc1c02b11c85f9,5f1705733abc1c02b11c85f9,19,cup,filler,D,25,cup15.jpg,cup35.jpg,GoalB,NULL
1687287123,623889668fb34ccf1f9e10cba970a7c6,PennController,22,0,experiment,NULL,PennController,21,_Header_,Start,1687287099930,5f1705733abc1c02b11c85f9,5f1705733abc1c02b11c85f9,19,cup,filler,D,25,cup15.jpg,cup35.jpg,GoalB,NULL
1687287123,623889668fb34ccf1f9e10cba970a7c6,PennController,22,0,experiment,NULL,PennController,21,_Header_,End,1687287099930,5f1705733abc1c02b11c85f9,5f1705733abc1c02b11c85f9,19,cup,filler,D,25,cup15.jpg,cup35.jpg,GoalB,NULL
1687287123,623889668fb34ccf1f9e10cba970a7c6,PennController,22,0,experiment,NULL,Canvas,canvas6,Print,NA,1687287105628,5f1705733abc1c02b11c85f9,5f1705733abc1c02b11c85f9,19,cup,filler,D,25,cup15.jpg,cup35.jpg,GoalB,NULL
1687287123,623889668fb34ccf1f9e10cba970a7c6,PennController,22,0,experiment,NULL,Video,progression,buffer,0.004569,1687287103459,5f1705733abc1c02b11c85f9,5f1705733abc1c02b11c85f9,19,cup,filler,D,25,cup15.jpg,cup35.jpg,GoalB,NULL
1687287123,623889668fb34ccf1f9e10cba970a7c6,PennController,22,0,experiment,NULL,Selector,choice,Selection,option2,1687287106796,5f1705733abc1c02b11c85f9,5f1705733abc1c02b11c85f9,19,cup,filler,D,25,cup15.jpg,cup35.jpg,GoalB,option2;option1
1687287123,623889668fb34ccf1f9e10cba970a7c6,PennController,22,0,experiment,NULL,PennController,21,_Trial_,End,1687287106796,5f1705733abc1c02b11c85f9,5f1705733abc1c02b11c85f9,19,cup,filler,D,25,cup15.jpg,cup35.jpg,GoalB,NULL
1687287123,623889668fb34ccf1f9e10cba970a7c6,PennController,6,0,experiment,NULL,PennController,5,_Trial_,Start,1687287106797,5f1705733abc1c02b11c85f9,5f1705733abc1c02b11c85f9,3,clean,critical,D,75,clean65.jpg,clean85.jpg,high,NULL
1687287123,623889668fb34ccf1f9e10cba970a7c6,PennController,6,0,experiment,NULL,PennController,5,_Header_,Start,1687287106797,5f1705733abc1c02b11c85f9,5f1705733abc1c02b11c85f9,3,clean,critical,D,75,clean65.jpg,clean85.jpg,high,NULL
1687287123,623889668fb34ccf1f9e10cba970a7c6,PennController,6,0,experiment,NULL,PennController,5,_Header_,End,1687287106797,5f1705733abc1c02b11c85f9,5f1705733abc1c02b11c85f9,3,clean,critical,D,75,clean65.jpg,clean85.jpg,high,NULL
1687287123,623889668fb34ccf1f9e10cba970a7c6,PennController,6,0,experiment,NULL,Canvas,canvas6,Print,NA,1687287114499,5f1705733abc1c02b11c85f9,5f1705733abc1c02b11c85f9,3,clean,critical,D,75,clean65.jpg,clean85.jpg,high,NULL
1687287123,623889668fb34ccf1f9e10cba970a7c6,PennController,6,0,experiment,NULL,Video,progression,buffer,0.009862,1687287110344,5f1705733abc1c02b11c85f9,5f1705733abc1c02b11c85f9,3,clean,critical,D,75,clean65.jpg,clean85.jpg,high,NULL
1687287123,623889668fb34ccf1f9e10cba970a7c6,PennController,6,0,experiment,NULL,Selector,choice,Selection,option2,1687287115289,5f1705733abc1c02b11c85f9,5f1705733abc1c02b11c85f9,3,clean,critical,D,75,clean65.jpg,clean85.jpg,high,option1;option2
1687287123,623889668fb34ccf1f9e10cba970a7c6,PennController,6,0,experiment,NULL,PennController,5,_Trial_,End,1687287115289,5f1705733abc1c02b11c85f9,5f1705733abc1c02b11c85f9,3,clean,critical,D,75,clean65.jpg,clean85.jpg,high,NULL
1687287123,623889668fb34ccf1f9e10cba970a7c6,PennController,31,0,experiment,NULL,PennController,30,_Trial_,Start,1687287115290,5f1705733abc1c02b11c85f9,5f1705733abc1c02b11c85f9,28,sort,filler,D,25,sort15.jpg,sort35.jpg,GoalA,NULL
1687287123,623889668fb34ccf1f9e10cba970a7c6,PennController,31,0,experiment,NULL,PennController,30,_Header_,Start,1687287115290,5f1705733abc1c02b11c85f9,5f1705733abc1c02b11c85f9,28,sort,filler,D,25,sort15.jpg,sort35.jpg,GoalA,NULL
1687287123,623889668fb34ccf1f9e10cba970a7c6,PennController,31,0,experiment,NULL,PennController,30,_Header_,End,1687287115290,5f1705733abc1c02b11c85f9,5f1705733abc1c02b11c85f9,28,sort,filler,D,25,sort15.jpg,sort35.jpg,GoalA,NULL
1687287123,623889668fb34ccf1f9e10cba970a7c6,PennController,31,0,experiment,NULL,Canvas,canvas6,Print,NA,1687287120993,5f1705733abc1c02b11c85f9,5f1705733abc1c02b11c85f9,28,sort,filler,D,25,sort15.jpg,sort35.jpg,GoalA,NULL
1687287123,623889668fb34ccf1f9e10cba970a7c6,PennController,31,0,experiment,NULL,Video,progression,buffer,0.012839,1687287118832,5f1705733abc1c02b11c85f9,5f1705733abc1c02b11c85f9,28,sort,filler,D,25,sort15.jpg,sort35.jpg,GoalA,NULL
1687287123,623889668fb34ccf1f9e10cba970a7c6,PennController,31,0,experiment,NULL,Selector,choice,Selection,option1,1687287122749,5f1705733abc1c02b11c85f9,5f1705733abc1c02b11c85f9,28,sort,filler,D,25,sort15.jpg,sort35.jpg,GoalA,option2;option1
1687287123,623889668fb34ccf1f9e10cba970a7c6,PennController,31,0,experiment,NULL,PennController,30,_Trial_,End,1687287122750,5f1705733abc1c02b11c85f9,5f1705733abc1c02b11c85f9,28,sort,filler,D,25,sort15.jpg,sort35.jpg,GoalA,NULL
