#
# Results on Tuesday June 20 2023 18:56:39 UTC
# USER AGENT: Mozilla/5.0 (Windows NT 10.0; Win64; x64) AppleWebKit/537.36 (KHTML, like Gecko) Chrome/114.0.0.0 Safari/537.36
# Design number was non-random = 3
#
# Columns below this comment are as follows:
# 1. Results reception time.
# 2. MD5 hash of participant's IP address.
# 3. Controller name.
# 4. Order number of item.
# 5. Inner element number.
# 6. Label.
# 7. Latin Square Group.
# 8. PennElementType.
# 9. PennElementName.
# 10. Parameter.
# 11. Value.
# 12. EventTime.
# 13. PROLIFIC_ID.
# 14. Comments.
1687287399,ffba3d78c7120aa66d71b6c28778f974,PennController,2,0,consent,NULL,PennController,0,_Trial_,Start,1687287067106,615fec1b940431fc1e6a69ce,NULL
1687287399,ffba3d78c7120aa66d71b6c28778f974,PennController,2,0,consent,NULL,PennController,0,_Header_,Start,1687287067106,615fec1b940431fc1e6a69ce,NULL
1687287399,ffba3d78c7120aa66d71b6c28778f974,PennController,2,0,consent,NULL,PennController,0,_Header_,End,1687287067106,615fec1b940431fc1e6a69ce,NULL
1687287399,ffba3d78c7120aa66d71b6c28778f974,PennController,2,0,consent,NULL,PennController,0,_Trial_,End,1687287077168,615fec1b940431fc1e6a69ce,NULL
# Columns below this comment are as follows:
# 14. ID.
# 15. Comments.
1687287399,ffba3d78c7120aa66d71b6c28778f974,PennController,3,0,intro,NULL,PennController,1,_Trial_,Start,1687287077172,615fec1b940431fc1e6a69ce,615fec1b940431fc1e6a69ce,NULL
1687287399,ffba3d78c7120aa66d71b6c28778f974,PennController,3,0,intro,NULL,PennController,1,_Header_,Start,1687287077172,615fec1b940431fc1e6a69ce,615fec1b940431fc1e6a69ce,NULL
1687287399,ffba3d78c7120aa66d71b6c28778f974,PennController,3,0,intro,NULL,PennController,1,_Header_,End,1687287077172,615fec1b940431fc1e6a69ce,615fec1b940431fc1e6a69ce,NULL
1687287399,ffba3d78c7120aa66d71b6c28778f974,PennController,3,0,intro,NULL,PennController,1,_Trial_,End,1687287088044,615fec1b940431fc1e6a69ce,615fec1b940431fc1e6a69ce,NULL
# Columns below this comment are as follows:
# 15. item_number.
# 16. item.
# 17. type.
# 18. Group.
# 19. prog.
# 20. prev_image.
# 21. next_image.
# 22. height.
# 23. Comments.
1687287399,ffba3d78c7120aa66d71b6c28778f974,PennController,26,0,experiment,NULL,PennController,25,_Trial_,Start,1687287088047,615fec1b940431fc1e6a69ce,615fec1b940431fc1e6a69ce,23,color,filler,D,50,color40.jpg,color60.jpg,GoalB,NULL
1687287399,ffba3d78c7120aa66d71b6c28778f974,PennController,26,0,experiment,NULL,PennController,25,_Header_,Start,1687287088047,615fec1b940431fc1e6a69ce,615fec1b940431fc1e6a69ce,23,color,filler,D,50,color40.jpg,color60.jpg,GoalB,NULL
1687287399,ffba3d78c7120aa66d71b6c28778f974,PennController,26,0,experiment,NULL,PennController,25,_Header_,End,1687287088047,615fec1b940431fc1e6a69ce,615fec1b940431fc1e6a69ce,23,color,filler,D,50,color40.jpg,color60.jpg,GoalB,NULL
1687287399,ffba3d78c7120aa66d71b6c28778f974,PennController,26,0,experiment,NULL,Canvas,canvas6,Print,NA,1687287094766,615fec1b940431fc1e6a69ce,615fec1b940431fc1e6a69ce,23,color,filler,D,50,color40.jpg,color60.jpg,GoalB,NULL
1687287399,ffba3d78c7120aa66d71b6c28778f974,PennController,26,0,experiment,NULL,Video,progression,buffer,0.004666,1687287091588,615fec1b940431fc1e6a69ce,615fec1b940431fc1e6a69ce,23,color,filler,D,50,color40.jpg,color60.jpg,GoalB,NULL
1687287399,ffba3d78c7120aa66d71b6c28778f974,PennController,26,0,experiment,NULL,Selector,choice,Selection,option2,1687287098628,615fec1b940431fc1e6a69ce,615fec1b940431fc1e6a69ce,23,color,filler,D,50,color40.jpg,color60.jpg,GoalB,option1;option2
1687287399,ffba3d78c7120aa66d71b6c28778f974,PennController,26,0,experiment,NULL,PennController,25,_Trial_,End,1687287098630,615fec1b940431fc1e6a69ce,615fec1b940431fc1e6a69ce,23,color,filler,D,50,color40.jpg,color60.jpg,GoalB,NULL
1687287399,ffba3d78c7120aa66d71b6c28778f974,PennController,22,0,experiment,NULL,PennController,21,_Trial_,Start,1687287098631,615fec1b940431fc1e6a69ce,615fec1b940431fc1e6a69ce,19,cup,filler,D,25,cup15.jpg,cup35.jpg,GoalB,NULL
1687287399,ffba3d78c7120aa66d71b6c28778f974,PennController,22,0,experiment,NULL,PennController,21,_Header_,Start,1687287098631,615fec1b940431fc1e6a69ce,615fec1b940431fc1e6a69ce,19,cup,filler,D,25,cup15.jpg,cup35.jpg,GoalB,NULL
1687287399,ffba3d78c7120aa66d71b6c28778f974,PennController,22,0,experiment,NULL,PennController,21,_Header_,End,1687287098631,615fec1b940431fc1e6a69ce,615fec1b940431fc1e6a69ce,19,cup,filler,D,25,cup15.jpg,cup35.jpg,GoalB,NULL
1687287399,ffba3d78c7120aa66d71b6c28778f974,PennController,22,0,experiment,NULL,Canvas,canvas6,Print,NA,1687287104310,615fec1b940431fc1e6a69ce,615fec1b940431fc1e6a69ce,19,cup,filler,D,25,cup15.jpg,cup35.jpg,GoalB,NULL
1687287399,ffba3d78c7120aa66d71b6c28778f974,PennController,22,0,experiment,NULL,Video,progression,buffer,0.002531,1687287102148,615fec1b940431fc1e6a69ce,615fec1b940431fc1e6a69ce,19,cup,filler,D,25,cup15.jpg,cup35.jpg,GoalB,NULL
1687287399,ffba3d78c7120aa66d71b6c28778f974,PennController,22,0,experiment,NULL,Selector,choice,Selection,option2,1687287106748,615fec1b940431fc1e6a69ce,615fec1b940431fc1e6a69ce,19,cup,filler,D,25,cup15.jpg,cup35.jpg,GoalB,option1;option2
1687287399,ffba3d78c7120aa66d71b6c28778f974,PennController,22,0,experiment,NULL,PennController,21,_Trial_,End,1687287106750,615fec1b940431fc1e6a69ce,615fec1b940431fc1e6a69ce,19,cup,filler,D,25,cup15.jpg,cup35.jpg,GoalB,NULL
1687287399,ffba3d78c7120aa66d71b6c28778f974,PennController,13,0,experiment,NULL,PennController,12,_Trial_,Start,1687287106751,615fec1b940431fc1e6a69ce,615fec1b940431fc1e6a69ce,10,train,critical,D,25,train15.jpg,train35.jpg,high,NULL
1687287399,ffba3d78c7120aa66d71b6c28778f974,PennController,13,0,experiment,NULL,PennController,12,_Header_,Start,1687287106751,615fec1b940431fc1e6a69ce,615fec1b940431fc1e6a69ce,10,train,critical,D,25,train15.jpg,train35.jpg,high,NULL
1687287399,ffba3d78c7120aa66d71b6c28778f974,PennController,13,0,experiment,NULL,PennController,12,_Header_,End,1687287106751,615fec1b940431fc1e6a69ce,615fec1b940431fc1e6a69ce,10,train,critical,D,25,train15.jpg,train35.jpg,high,NULL
1687287399,ffba3d78c7120aa66d71b6c28778f974,PennController,13,0,experiment,NULL,Canvas,canvas6,Print,NA,1687287112434,615fec1b940431fc1e6a69ce,615fec1b940431fc1e6a69ce,10,train,critical,D,25,train15.jpg,train35.jpg,high,NULL
1687287399,ffba3d78c7120aa66d71b6c28778f974,PennController,13,0,experiment,NULL,Video,progression,buffer,0.002835,1687287110271,615fec1b940431fc1e6a69ce,615fec1b940431fc1e6a69ce,10,train,critical,D,25,train15.jpg,train35.jpg,high,NULL
1687287399,ffba3d78c7120aa66d71b6c28778f974,PennController,13,0,experiment,NULL,Selector,choice,Selection,option2,1687287115521,615fec1b940431fc1e6a69ce,615fec1b940431fc1e6a69ce,10,train,critical,D,25,train15.jpg,train35.jpg,high,option1;option2
1687287399,ffba3d78c7120aa66d71b6c28778f974,PennController,13,0,experiment,NULL,PennController,12,_Trial_,End,1687287115524,615fec1b940431fc1e6a69ce,615fec1b940431fc1e6a69ce,10,train,critical,D,25,train15.jpg,train35.jpg,high,NULL
1687287399,ffba3d78c7120aa66d71b6c28778f974,PennController,23,0,experiment,NULL,PennController,22,_Trial_,Start,1687287115526,615fec1b940431fc1e6a69ce,615fec1b940431fc1e6a69ce,20,cat,filler,D,50,cat40.jpg,cat60.jpg,GoalA,NULL
1687287399,ffba3d78c7120aa66d71b6c28778f974,PennController,23,0,experiment,NULL,PennController,22,_Header_,Start,1687287115526,615fec1b940431fc1e6a69ce,615fec1b940431fc1e6a69ce,20,cat,filler,D,50,cat40.jpg,cat60.jpg,GoalA,NULL
1687287399,ffba3d78c7120aa66d71b6c28778f974,PennController,23,0,experiment,NULL,PennController,22,_Header_,End,1687287115526,615fec1b940431fc1e6a69ce,615fec1b940431fc1e6a69ce,20,cat,filler,D,50,cat40.jpg,cat60.jpg,GoalA,NULL
1687287399,ffba3d78c7120aa66d71b6c28778f974,PennController,23,0,experiment,NULL,Canvas,canvas6,Print,NA,1687287122213,615fec1b940431fc1e6a69ce,615fec1b940431fc1e6a69ce,20,cat,filler,D,50,cat40.jpg,cat60.jpg,GoalA,NULL
1687287399,ffba3d78c7120aa66d71b6c28778f974,PennController,23,0,experiment,NULL,Video,progression,buffer,0.003948,1687287119053,615fec1b940431fc1e6a69ce,615fec1b940431fc1e6a69ce,20,cat,filler,D,50,cat40.jpg,cat60.jpg,GoalA,NULL
1687287399,ffba3d78c7120aa66d71b6c28778f974,PennController,23,0,experiment,NULL,Selector,choice,Selection,option2,1687287123617,615fec1b940431fc1e6a69ce,615fec1b940431fc1e6a69ce,20,cat,filler,D,50,cat40.jpg,cat60.jpg,GoalA,option1;option2
1687287399,ffba3d78c7120aa66d71b6c28778f974,PennController,23,0,experiment,NULL,PennController,22,_Trial_,End,1687287123618,615fec1b940431fc1e6a69ce,615fec1b940431fc1e6a69ce,20,cat,filler,D,50,cat40.jpg,cat60.jpg,GoalA,NULL
1687287399,ffba3d78c7120aa66d71b6c28778f974,PennController,4,0,experiment,NULL,PennController,3,_Trial_,Start,1687287123620,615fec1b940431fc1e6a69ce,615fec1b940431fc1e6a69ce,1,vase,critical,D,25,vase15.jpg,vase35.jpg,high,NULL
1687287399,ffba3d78c7120aa66d71b6c28778f974,PennController,4,0,experiment,NULL,PennController,3,_Header_,Start,1687287123620,615fec1b940431fc1e6a69ce,615fec1b940431fc1e6a69ce,1,vase,critical,D,25,vase15.jpg,vase35.jpg,high,NULL
1687287399,ffba3d78c7120aa66d71b6c28778f974,PennController,4,0,experiment,NULL,PennController,3,_Header_,End,1687287123620,615fec1b940431fc1e6a69ce,615fec1b940431fc1e6a69ce,1,vase,critical,D,25,vase15.jpg,vase35.jpg,high,NULL
1687287399,ffba3d78c7120aa66d71b6c28778f974,PennController,4,0,experiment,NULL,Canvas,canvas6,Print,NA,1687287129307,615fec1b940431fc1e6a69ce,615fec1b940431fc1e6a69ce,1,vase,critical,D,25,vase15.jpg,vase35.jpg,high,NULL
1687287399,ffba3d78c7120aa66d71b6c28778f974,PennController,4,0,experiment,NULL,Video,progression,buffer,0.002744,1687287127142,615fec1b940431fc1e6a69ce,615fec1b940431fc1e6a69ce,1,vase,critical,D,25,vase15.jpg,vase35.jpg,high,NULL
1687287399,ffba3d78c7120aa66d71b6c28778f974,PennController,4,0,experiment,NULL,Selector,choice,Selection,option2,1687287132769,615fec1b940431fc1e6a69ce,615fec1b940431fc1e6a69ce,1,vase,critical,D,25,vase15.jpg,vase35.jpg,high,option2;option1
1687287399,ffba3d78c7120aa66d71b6c28778f974,PennController,4,0,experiment,NULL,PennController,3,_Trial_,End,1687287132770,615fec1b940431fc1e6a69ce,615fec1b940431fc1e6a69ce,1,vase,critical,D,25,vase15.jpg,vase35.jpg,high,NULL
1687287399,ffba3d78c7120aa66d71b6c28778f974,PennController,21,0,experiment,NULL,PennController,20,_Trial_,Start,1687287132772,615fec1b940431fc1e6a69ce,615fec1b940431fc1e6a69ce,18,ball,critical,D,75,ball65.jpg,ball85.jpg,high,NULL
1687287399,ffba3d78c7120aa66d71b6c28778f974,PennController,21,0,experiment,NULL,PennController,20,_Header_,Start,1687287132772,615fec1b940431fc1e6a69ce,615fec1b940431fc1e6a69ce,18,ball,critical,D,75,ball65.jpg,ball85.jpg,high,NULL
1687287399,ffba3d78c7120aa66d71b6c28778f974,PennController,21,0,experiment,NULL,PennController,20,_Header_,End,1687287132773,615fec1b940431fc1e6a69ce,615fec1b940431fc1e6a69ce,18,ball,critical,D,75,ball65.jpg,ball85.jpg,high,NULL
1687287399,ffba3d78c7120aa66d71b6c28778f974,PennController,21,0,experiment,NULL,Canvas,canvas6,Print,NA,1687287140461,615fec1b940431fc1e6a69ce,615fec1b940431fc1e6a69ce,18,ball,critical,D,75,ball65.jpg,ball85.jpg,high,NULL
1687287399,ffba3d78c7120aa66d71b6c28778f974,PennController,21,0,experiment,NULL,Video,progression,buffer,0.004284,1687287136300,615fec1b940431fc1e6a69ce,615fec1b940431fc1e6a69ce,18,ball,critical,D,75,ball65.jpg,ball85.jpg,high,NULL
1687287399,ffba3d78c7120aa66d71b6c28778f974,PennController,21,0,experiment,NULL,Selector,choice,Selection,option2,1687287144763,615fec1b940431fc1e6a69ce,615fec1b940431fc1e6a69ce,18,ball,critical,D,75,ball65.jpg,ball85.jpg,high,option1;option2
1687287399,ffba3d78c7120aa66d71b6c28778f974,PennController,21,0,experiment,NULL,PennController,20,_Trial_,End,1687287144765,615fec1b940431fc1e6a69ce,615fec1b940431fc1e6a69ce,18,ball,critical,D,75,ball65.jpg,ball85.jpg,high,NULL
1687287399,ffba3d78c7120aa66d71b6c28778f974,PennController,7,0,experiment,NULL,PennController,6,_Trial_,Start,1687287144766,615fec1b940431fc1e6a69ce,615fec1b940431fc1e6a69ce,4,candy,critical,D,25,candy15.jpg,candy35.jpg,high,NULL
1687287399,ffba3d78c7120aa66d71b6c28778f974,PennController,7,0,experiment,NULL,PennController,6,_Header_,Start,1687287144766,615fec1b940431fc1e6a69ce,615fec1b940431fc1e6a69ce,4,candy,critical,D,25,candy15.jpg,candy35.jpg,high,NULL
1687287399,ffba3d78c7120aa66d71b6c28778f974,PennController,7,0,experiment,NULL,PennController,6,_Header_,End,1687287144766,615fec1b940431fc1e6a69ce,615fec1b940431fc1e6a69ce,4,candy,critical,D,25,candy15.jpg,candy35.jpg,high,NULL
1687287399,ffba3d78c7120aa66d71b6c28778f974,PennController,7,0,experiment,NULL,Canvas,canvas6,Print,NA,1687287150452,615fec1b940431fc1e6a69ce,615fec1b940431fc1e6a69ce,4,candy,critical,D,25,candy15.jpg,candy35.jpg,high,NULL
1687287399,ffba3d78c7120aa66d71b6c28778f974,PennController,7,0,experiment,NULL,Video,progression,buffer,0.004742,1687287148285,615fec1b940431fc1e6a69ce,615fec1b940431fc1e6a69ce,4,candy,critical,D,25,candy15.jpg,candy35.jpg,high,NULL
1687287399,ffba3d78c7120aa66d71b6c28778f974,PennController,7,0,experiment,NULL,Selector,choice,Selection,option2,1687287153986,615fec1b940431fc1e6a69ce,615fec1b940431fc1e6a69ce,4,candy,critical,D,25,candy15.jpg,candy35.jpg,high,option1;option2
1687287399,ffba3d78c7120aa66d71b6c28778f974,PennController,7,0,experiment,NULL,PennController,6,_Trial_,End,1687287153987,615fec1b940431fc1e6a69ce,615fec1b940431fc1e6a69ce,4,candy,critical,D,25,candy15.jpg,candy35.jpg,high,NULL
1687287399,ffba3d78c7120aa66d71b6c28778f974,PennController,18,0,experiment,NULL,PennController,17,_Trial_,Start,1687287153988,615fec1b940431fc1e6a69ce,615fec1b940431fc1e6a69ce,15,zip,critical,D,75,zip65.jpg,zip85.jpg,high,NULL
1687287399,ffba3d78c7120aa66d71b6c28778f974,PennController,18,0,experiment,NULL,PennController,17,_Header_,Start,1687287153988,615fec1b940431fc1e6a69ce,615fec1b940431fc1e6a69ce,15,zip,critical,D,75,zip65.jpg,zip85.jpg,high,NULL
1687287399,ffba3d78c7120aa66d71b6c28778f974,PennController,18,0,experiment,NULL,PennController,17,_Header_,End,1687287153988,615fec1b940431fc1e6a69ce,615fec1b940431fc1e6a69ce,15,zip,critical,D,75,zip65.jpg,zip85.jpg,high,NULL
1687287399,ffba3d78c7120aa66d71b6c28778f974,PennController,18,0,experiment,NULL,Canvas,canvas6,Print,NA,1687287160878,615fec1b940431fc1e6a69ce,615fec1b940431fc1e6a69ce,15,zip,critical,D,75,zip65.jpg,zip85.jpg,high,NULL
1687287399,ffba3d78c7120aa66d71b6c28778f974,PennController,18,0,experiment,NULL,Video,progression,buffer,0.003623,1687287157511,615fec1b940431fc1e6a69ce,615fec1b940431fc1e6a69ce,15,zip,critical,D,75,zip65.jpg,zip85.jpg,high,NULL
1687287399,ffba3d78c7120aa66d71b6c28778f974,PennController,18,0,experiment,NULL,Selector,choice,Selection,option1,1687287169608,615fec1b940431fc1e6a69ce,615fec1b940431fc1e6a69ce,15,zip,critical,D,75,zip65.jpg,zip85.jpg,high,option1;option2
1687287399,ffba3d78c7120aa66d71b6c28778f974,PennController,18,0,experiment,NULL,PennController,17,_Trial_,End,1687287169609,615fec1b940431fc1e6a69ce,615fec1b940431fc1e6a69ce,15,zip,critical,D,75,zip65.jpg,zip85.jpg,high,NULL
1687287399,ffba3d78c7120aa66d71b6c28778f974,PennController,28,0,experiment,NULL,PennController,27,_Trial_,Start,1687287169610,615fec1b940431fc1e6a69ce,615fec1b940431fc1e6a69ce,25,house,filler,D,25,house15.jpg,house35.jpg,GoalB,NULL
1687287399,ffba3d78c7120aa66d71b6c28778f974,PennController,28,0,experiment,NULL,PennController,27,_Header_,Start,1687287169610,615fec1b940431fc1e6a69ce,615fec1b940431fc1e6a69ce,25,house,filler,D,25,house15.jpg,house35.jpg,GoalB,NULL
1687287399,ffba3d78c7120aa66d71b6c28778f974,PennController,28,0,experiment,NULL,PennController,27,_Header_,End,1687287169610,615fec1b940431fc1e6a69ce,615fec1b940431fc1e6a69ce,25,house,filler,D,25,house15.jpg,house35.jpg,GoalB,NULL
1687287399,ffba3d78c7120aa66d71b6c28778f974,PennController,28,0,experiment,NULL,Canvas,canvas6,Print,NA,1687287175284,615fec1b940431fc1e6a69ce,615fec1b940431fc1e6a69ce,25,house,filler,D,25,house15.jpg,house35.jpg,GoalB,NULL
1687287399,ffba3d78c7120aa66d71b6c28778f974,PennController,28,0,experiment,NULL,Video,progression,buffer,0.002604,1687287173127,615fec1b940431fc1e6a69ce,615fec1b940431fc1e6a69ce,25,house,filler,D,25,house15.jpg,house35.jpg,GoalB,NULL
1687287399,ffba3d78c7120aa66d71b6c28778f974,PennController,28,0,experiment,NULL,Selector,choice,Selection,option2,1687287177408,615fec1b940431fc1e6a69ce,615fec1b940431fc1e6a69ce,25,house,filler,D,25,house15.jpg,house35.jpg,GoalB,option2;option1
1687287399,ffba3d78c7120aa66d71b6c28778f974,PennController,28,0,experiment,NULL,PennController,27,_Trial_,End,1687287177409,615fec1b940431fc1e6a69ce,615fec1b940431fc1e6a69ce,25,house,filler,D,25,house15.jpg,house35.jpg,GoalB,NULL
1687287399,ffba3d78c7120aa66d71b6c28778f974,PennController,27,0,experiment,NULL,PennController,26,_Trial_,Start,1687287177410,615fec1b940431fc1e6a69ce,615fec1b940431fc1e6a69ce,24,match,filler,D,75,match65.jpg,match85.jpg,GoalA,NULL
1687287399,ffba3d78c7120aa66d71b6c28778f974,PennController,27,0,experiment,NULL,PennController,26,_Header_,Start,1687287177410,615fec1b940431fc1e6a69ce,615fec1b940431fc1e6a69ce,24,match,filler,D,75,match65.jpg,match85.jpg,GoalA,NULL
1687287399,ffba3d78c7120aa66d71b6c28778f974,PennController,27,0,experiment,NULL,PennController,26,_Header_,End,1687287177410,615fec1b940431fc1e6a69ce,615fec1b940431fc1e6a69ce,24,match,filler,D,75,match65.jpg,match85.jpg,GoalA,NULL
1687287399,ffba3d78c7120aa66d71b6c28778f974,PennController,27,0,experiment,NULL,Canvas,canvas6,Print,NA,1687287185092,615fec1b940431fc1e6a69ce,615fec1b940431fc1e6a69ce,24,match,filler,D,75,match65.jpg,match85.jpg,GoalA,NULL
1687287399,ffba3d78c7120aa66d71b6c28778f974,PennController,27,0,experiment,NULL,Video,progression,buffer,0.002469,1687287180933,615fec1b940431fc1e6a69ce,615fec1b940431fc1e6a69ce,24,match,filler,D,75,match65.jpg,match85.jpg,GoalA,NULL
1687287399,ffba3d78c7120aa66d71b6c28778f974,PennController,27,0,experiment,NULL,Selector,choice,Selection,option1,1687287188087,615fec1b940431fc1e6a69ce,615fec1b940431fc1e6a69ce,24,match,filler,D,75,match65.jpg,match85.jpg,GoalA,option1;option2
1687287399,ffba3d78c7120aa66d71b6c28778f974,PennController,27,0,experiment,NULL,PennController,26,_Trial_,End,1687287188088,615fec1b940431fc1e6a69ce,615fec1b940431fc1e6a69ce,24,match,filler,D,75,match65.jpg,match85.jpg,GoalA,NULL
1687287399,ffba3d78c7120aa66d71b6c28778f974,PennController,17,0,experiment,NULL,PennController,16,_Trial_,Start,1687287188089,615fec1b940431fc1e6a69ce,615fec1b940431fc1e6a69ce,14,cover,critical,D,50,cover42.jpg,cover60.jpg,high,NULL
1687287399,ffba3d78c7120aa66d71b6c28778f974,PennController,17,0,experiment,NULL,PennController,16,_Header_,Start,1687287188089,615fec1b940431fc1e6a69ce,615fec1b940431fc1e6a69ce,14,cover,critical,D,50,cover42.jpg,cover60.jpg,high,NULL
1687287399,ffba3d78c7120aa66d71b6c28778f974,PennController,17,0,experiment,NULL,PennController,16,_Header_,End,1687287188089,615fec1b940431fc1e6a69ce,615fec1b940431fc1e6a69ce,14,cover,critical,D,50,cover42.jpg,cover60.jpg,high,NULL
1687287399,ffba3d78c7120aa66d71b6c28778f974,PennController,17,0,experiment,NULL,Canvas,canvas6,Print,NA,1687287196169,615fec1b940431fc1e6a69ce,615fec1b940431fc1e6a69ce,14,cover,critical,D,50,cover42.jpg,cover60.jpg,high,NULL
1687287399,ffba3d78c7120aa66d71b6c28778f974,PennController,17,0,experiment,NULL,Video,progression,buffer,0.004391,1687287191608,615fec1b940431fc1e6a69ce,615fec1b940431fc1e6a69ce,14,cover,critical,D,50,cover42.jpg,cover60.jpg,high,NULL
1687287399,ffba3d78c7120aa66d71b6c28778f974,PennController,17,0,experiment,NULL,Selector,choice,Selection,option1,1687287198258,615fec1b940431fc1e6a69ce,615fec1b940431fc1e6a69ce,14,cover,critical,D,50,cover42.jpg,cover60.jpg,high,option1;option2
1687287399,ffba3d78c7120aa66d71b6c28778f974,PennController,17,0,experiment,NULL,PennController,16,_Trial_,End,1687287198259,615fec1b940431fc1e6a69ce,615fec1b940431fc1e6a69ce,14,cover,critical,D,50,cover42.jpg,cover60.jpg,high,NULL
1687287399,ffba3d78c7120aa66d71b6c28778f974,PennController,24,0,experiment,NULL,PennController,23,_Trial_,Start,1687287198259,615fec1b940431fc1e6a69ce,615fec1b940431fc1e6a69ce,21,visit,filler,D,75,visit65.jpg,visit85.jpg,GoalB,NULL
1687287399,ffba3d78c7120aa66d71b6c28778f974,PennController,24,0,experiment,NULL,PennController,23,_Header_,Start,1687287198259,615fec1b940431fc1e6a69ce,615fec1b940431fc1e6a69ce,21,visit,filler,D,75,visit65.jpg,visit85.jpg,GoalB,NULL
1687287399,ffba3d78c7120aa66d71b6c28778f974,PennController,24,0,experiment,NULL,PennController,23,_Header_,End,1687287198260,615fec1b940431fc1e6a69ce,615fec1b940431fc1e6a69ce,21,visit,filler,D,75,visit65.jpg,visit85.jpg,GoalB,NULL
1687287399,ffba3d78c7120aa66d71b6c28778f974,PennController,24,0,experiment,NULL,Canvas,canvas6,Print,NA,1687287205945,615fec1b940431fc1e6a69ce,615fec1b940431fc1e6a69ce,21,visit,filler,D,75,visit65.jpg,visit85.jpg,GoalB,NULL
1687287399,ffba3d78c7120aa66d71b6c28778f974,PennController,24,0,experiment,NULL,Video,progression,buffer,0.002197,1687287201776,615fec1b940431fc1e6a69ce,615fec1b940431fc1e6a69ce,21,visit,filler,D,75,visit65.jpg,visit85.jpg,GoalB,NULL
1687287399,ffba3d78c7120aa66d71b6c28778f974,PennController,24,0,experiment,NULL,Selector,choice,Selection,option2,1687287208796,615fec1b940431fc1e6a69ce,615fec1b940431fc1e6a69ce,21,visit,filler,D,75,visit65.jpg,visit85.jpg,GoalB,option2;option1
1687287399,ffba3d78c7120aa66d71b6c28778f974,PennController,24,0,experiment,NULL,PennController,23,_Trial_,End,1687287208798,615fec1b940431fc1e6a69ce,615fec1b940431fc1e6a69ce,21,visit,filler,D,75,visit65.jpg,visit85.jpg,GoalB,NULL
1687287399,ffba3d78c7120aa66d71b6c28778f974,PennController,20,0,experiment,NULL,PennController,19,_Trial_,Start,1687287208799,615fec1b940431fc1e6a69ce,615fec1b940431fc1e6a69ce,17,roll,critical,D,50,roll40.jpg,roll60.jpg,high,NULL
1687287399,ffba3d78c7120aa66d71b6c28778f974,PennController,20,0,experiment,NULL,PennController,19,_Header_,Start,1687287208799,615fec1b940431fc1e6a69ce,615fec1b940431fc1e6a69ce,17,roll,critical,D,50,roll40.jpg,roll60.jpg,high,NULL
1687287399,ffba3d78c7120aa66d71b6c28778f974,PennController,20,0,experiment,NULL,PennController,19,_Header_,End,1687287208799,615fec1b940431fc1e6a69ce,615fec1b940431fc1e6a69ce,17,roll,critical,D,50,roll40.jpg,roll60.jpg,high,NULL
1687287399,ffba3d78c7120aa66d71b6c28778f974,PennController,20,0,experiment,NULL,Canvas,canvas6,Print,NA,1687287215486,615fec1b940431fc1e6a69ce,615fec1b940431fc1e6a69ce,17,roll,critical,D,50,roll40.jpg,roll60.jpg,high,NULL
1687287399,ffba3d78c7120aa66d71b6c28778f974,PennController,20,0,experiment,NULL,Video,progression,buffer,0.002419,1687287212320,615fec1b940431fc1e6a69ce,615fec1b940431fc1e6a69ce,17,roll,critical,D,50,roll40.jpg,roll60.jpg,high,NULL
1687287399,ffba3d78c7120aa66d71b6c28778f974,PennController,20,0,experiment,NULL,Selector,choice,Selection,option1,1687287218475,615fec1b940431fc1e6a69ce,615fec1b940431fc1e6a69ce,17,roll,critical,D,50,roll40.jpg,roll60.jpg,high,option1;option2
1687287399,ffba3d78c7120aa66d71b6c28778f974,PennController,20,0,experiment,NULL,PennController,19,_Trial_,End,1687287218477,615fec1b940431fc1e6a69ce,615fec1b940431fc1e6a69ce,17,roll,critical,D,50,roll40.jpg,roll60.jpg,high,NULL
1687287399,ffba3d78c7120aa66d71b6c28778f974,PennController,9,0,experiment,NULL,PennController,8,_Trial_,Start,1687287218478,615fec1b940431fc1e6a69ce,615fec1b940431fc1e6a69ce,6,flower,critical,D,75,flower65.jpg,flower85.jpg,high,NULL
1687287399,ffba3d78c7120aa66d71b6c28778f974,PennController,9,0,experiment,NULL,PennController,8,_Header_,Start,1687287218478,615fec1b940431fc1e6a69ce,615fec1b940431fc1e6a69ce,6,flower,critical,D,75,flower65.jpg,flower85.jpg,high,NULL
1687287399,ffba3d78c7120aa66d71b6c28778f974,PennController,9,0,experiment,NULL,PennController,8,_Header_,End,1687287218478,615fec1b940431fc1e6a69ce,615fec1b940431fc1e6a69ce,6,flower,critical,D,75,flower65.jpg,flower85.jpg,high,NULL
1687287399,ffba3d78c7120aa66d71b6c28778f974,PennController,9,0,experiment,NULL,Canvas,canvas6,Print,NA,1687287226155,615fec1b940431fc1e6a69ce,615fec1b940431fc1e6a69ce,6,flower,critical,D,75,flower65.jpg,flower85.jpg,high,NULL
1687287399,ffba3d78c7120aa66d71b6c28778f974,PennController,9,0,experiment,NULL,Video,progression,buffer,0.002028,1687287221995,615fec1b940431fc1e6a69ce,615fec1b940431fc1e6a69ce,6,flower,critical,D,75,flower65.jpg,flower85.jpg,high,NULL
1687287399,ffba3d78c7120aa66d71b6c28778f974,PennController,9,0,experiment,NULL,Selector,choice,Selection,option2,1687287228690,615fec1b940431fc1e6a69ce,615fec1b940431fc1e6a69ce,6,flower,critical,D,75,flower65.jpg,flower85.jpg,high,option2;option1
1687287399,ffba3d78c7120aa66d71b6c28778f974,PennController,9,0,experiment,NULL,PennController,8,_Trial_,End,1687287228691,615fec1b940431fc1e6a69ce,615fec1b940431fc1e6a69ce,6,flower,critical,D,75,flower65.jpg,flower85.jpg,high,NULL
1687287399,ffba3d78c7120aa66d71b6c28778f974,PennController,32,0,experiment,NULL,PennController,31,_Trial_,Start,1687287228692,615fec1b940431fc1e6a69ce,615fec1b940431fc1e6a69ce,29,frog,filler,D,50,frog40.jpg,frog60.jpg,GoalB,NULL
1687287399,ffba3d78c7120aa66d71b6c28778f974,PennController,32,0,experiment,NULL,PennController,31,_Header_,Start,1687287228692,615fec1b940431fc1e6a69ce,615fec1b940431fc1e6a69ce,29,frog,filler,D,50,frog40.jpg,frog60.jpg,GoalB,NULL
1687287399,ffba3d78c7120aa66d71b6c28778f974,PennController,32,0,experiment,NULL,PennController,31,_Header_,End,1687287228692,615fec1b940431fc1e6a69ce,615fec1b940431fc1e6a69ce,29,frog,filler,D,50,frog40.jpg,frog60.jpg,GoalB,NULL
1687287399,ffba3d78c7120aa66d71b6c28778f974,PennController,32,0,experiment,NULL,Canvas,canvas6,Print,NA,1687287235387,615fec1b940431fc1e6a69ce,615fec1b940431fc1e6a69ce,29,frog,filler,D,50,frog40.jpg,frog60.jpg,GoalB,NULL
1687287399,ffba3d78c7120aa66d71b6c28778f974,PennController,32,0,experiment,NULL,Video,progression,buffer,0.003338,1687287232216,615fec1b940431fc1e6a69ce,615fec1b940431fc1e6a69ce,29,frog,filler,D,50,frog40.jpg,frog60.jpg,GoalB,NULL
1687287399,ffba3d78c7120aa66d71b6c28778f974,PennController,32,0,experiment,NULL,Selector,choice,Selection,option1,1687287237573,615fec1b940431fc1e6a69ce,615fec1b940431fc1e6a69ce,29,frog,filler,D,50,frog40.jpg,frog60.jpg,GoalB,option1;option2
1687287399,ffba3d78c7120aa66d71b6c28778f974,PennController,32,0,experiment,NULL,PennController,31,_Trial_,End,1687287237574,615fec1b940431fc1e6a69ce,615fec1b940431fc1e6a69ce,29,frog,filler,D,50,frog40.jpg,frog60.jpg,GoalB,NULL
1687287399,ffba3d78c7120aa66d71b6c28778f974,PennController,8,0,experiment,NULL,PennController,7,_Trial_,Start,1687287237575,615fec1b940431fc1e6a69ce,615fec1b940431fc1e6a69ce,5,book,critical,D,50,book40.jpg,book60.jpg,high,NULL
1687287399,ffba3d78c7120aa66d71b6c28778f974,PennController,8,0,experiment,NULL,PennController,7,_Header_,Start,1687287237575,615fec1b940431fc1e6a69ce,615fec1b940431fc1e6a69ce,5,book,critical,D,50,book40.jpg,book60.jpg,high,NULL
1687287399,ffba3d78c7120aa66d71b6c28778f974,PennController,8,0,experiment,NULL,PennController,7,_Header_,End,1687287237575,615fec1b940431fc1e6a69ce,615fec1b940431fc1e6a69ce,5,book,critical,D,50,book40.jpg,book60.jpg,high,NULL
1687287399,ffba3d78c7120aa66d71b6c28778f974,PennController,8,0,experiment,NULL,Canvas,canvas6,Print,NA,1687287244257,615fec1b940431fc1e6a69ce,615fec1b940431fc1e6a69ce,5,book,critical,D,50,book40.jpg,book60.jpg,high,NULL
1687287399,ffba3d78c7120aa66d71b6c28778f974,PennController,8,0,experiment,NULL,Video,progression,buffer,0.004034,1687287241096,615fec1b940431fc1e6a69ce,615fec1b940431fc1e6a69ce,5,book,critical,D,50,book40.jpg,book60.jpg,high,NULL
1687287399,ffba3d78c7120aa66d71b6c28778f974,PennController,8,0,experiment,NULL,Selector,choice,Selection,option1,1687287246700,615fec1b940431fc1e6a69ce,615fec1b940431fc1e6a69ce,5,book,critical,D,50,book40.jpg,book60.jpg,high,option1;option2
1687287399,ffba3d78c7120aa66d71b6c28778f974,PennController,8,0,experiment,NULL,PennController,7,_Trial_,End,1687287246701,615fec1b940431fc1e6a69ce,615fec1b940431fc1e6a69ce,5,book,critical,D,50,book40.jpg,book60.jpg,high,NULL
1687287399,ffba3d78c7120aa66d71b6c28778f974,PennController,16,0,experiment,NULL,PennController,15,_Trial_,Start,1687287246702,615fec1b940431fc1e6a69ce,615fec1b940431fc1e6a69ce,13,mix,critical,D,25,mix15.jpg,mix35.jpg,high,NULL
1687287399,ffba3d78c7120aa66d71b6c28778f974,PennController,16,0,experiment,NULL,PennController,15,_Header_,Start,1687287246702,615fec1b940431fc1e6a69ce,615fec1b940431fc1e6a69ce,13,mix,critical,D,25,mix15.jpg,mix35.jpg,high,NULL
1687287399,ffba3d78c7120aa66d71b6c28778f974,PennController,16,0,experiment,NULL,PennController,15,_Header_,End,1687287246702,615fec1b940431fc1e6a69ce,615fec1b940431fc1e6a69ce,13,mix,critical,D,25,mix15.jpg,mix35.jpg,high,NULL
1687287399,ffba3d78c7120aa66d71b6c28778f974,PennController,16,0,experiment,NULL,Canvas,canvas6,Print,NA,1687287252390,615fec1b940431fc1e6a69ce,615fec1b940431fc1e6a69ce,13,mix,critical,D,25,mix15.jpg,mix35.jpg,high,NULL
1687287399,ffba3d78c7120aa66d71b6c28778f974,PennController,16,0,experiment,NULL,Video,progression,buffer,0.003189,1687287250221,615fec1b940431fc1e6a69ce,615fec1b940431fc1e6a69ce,13,mix,critical,D,25,mix15.jpg,mix35.jpg,high,NULL
1687287399,ffba3d78c7120aa66d71b6c28778f974,PennController,16,0,experiment,NULL,Selector,choice,Selection,option1,1687287254425,615fec1b940431fc1e6a69ce,615fec1b940431fc1e6a69ce,13,mix,critical,D,25,mix15.jpg,mix35.jpg,high,option1;option2
1687287399,ffba3d78c7120aa66d71b6c28778f974,PennController,16,0,experiment,NULL,PennController,15,_Trial_,End,1687287254426,615fec1b940431fc1e6a69ce,615fec1b940431fc1e6a69ce,13,mix,critical,D,25,mix15.jpg,mix35.jpg,high,NULL
1687287399,ffba3d78c7120aa66d71b6c28778f974,PennController,5,0,experiment,NULL,PennController,4,_Trial_,Start,1687287254427,615fec1b940431fc1e6a69ce,615fec1b940431fc1e6a69ce,2,door,critical,D,50,door40.jpg,door60.jpg,high,NULL
1687287399,ffba3d78c7120aa66d71b6c28778f974,PennController,5,0,experiment,NULL,PennController,4,_Header_,Start,1687287254427,615fec1b940431fc1e6a69ce,615fec1b940431fc1e6a69ce,2,door,critical,D,50,door40.jpg,door60.jpg,high,NULL
1687287399,ffba3d78c7120aa66d71b6c28778f974,PennController,5,0,experiment,NULL,PennController,4,_Header_,End,1687287254427,615fec1b940431fc1e6a69ce,615fec1b940431fc1e6a69ce,2,door,critical,D,50,door40.jpg,door60.jpg,high,NULL
1687287399,ffba3d78c7120aa66d71b6c28778f974,PennController,5,0,experiment,NULL,Canvas,canvas6,Print,NA,1687287261114,615fec1b940431fc1e6a69ce,615fec1b940431fc1e6a69ce,2,door,critical,D,50,door40.jpg,door60.jpg,high,NULL
1687287399,ffba3d78c7120aa66d71b6c28778f974,PennController,5,0,experiment,NULL,Video,progression,buffer,0.003871,1687287257946,615fec1b940431fc1e6a69ce,615fec1b940431fc1e6a69ce,2,door,critical,D,50,door40.jpg,door60.jpg,high,NULL
1687287399,ffba3d78c7120aa66d71b6c28778f974,PennController,5,0,experiment,NULL,Selector,choice,Selection,option1,1687287263238,615fec1b940431fc1e6a69ce,615fec1b940431fc1e6a69ce,2,door,critical,D,50,door40.jpg,door60.jpg,high,option1;option2
1687287399,ffba3d78c7120aa66d71b6c28778f974,PennController,5,0,experiment,NULL,PennController,4,_Trial_,End,1687287263239,615fec1b940431fc1e6a69ce,615fec1b940431fc1e6a69ce,2,door,critical,D,50,door40.jpg,door60.jpg,high,NULL
1687287399,ffba3d78c7120aa66d71b6c28778f974,PennController,14,0,experiment,NULL,PennController,13,_Trial_,Start,1687287263240,615fec1b940431fc1e6a69ce,615fec1b940431fc1e6a69ce,11,beads,critical,D,50,beads40.jpg,beads60.jpg,high,NULL
1687287399,ffba3d78c7120aa66d71b6c28778f974,PennController,14,0,experiment,NULL,PennController,13,_Header_,Start,1687287263240,615fec1b940431fc1e6a69ce,615fec1b940431fc1e6a69ce,11,beads,critical,D,50,beads40.jpg,beads60.jpg,high,NULL
1687287399,ffba3d78c7120aa66d71b6c28778f974,PennController,14,0,experiment,NULL,PennController,13,_Header_,End,1687287263240,615fec1b940431fc1e6a69ce,615fec1b940431fc1e6a69ce,11,beads,critical,D,50,beads40.jpg,beads60.jpg,high,NULL
1687287399,ffba3d78c7120aa66d71b6c28778f974,PennController,14,0,experiment,NULL,Canvas,canvas6,Print,NA,1687287269921,615fec1b940431fc1e6a69ce,615fec1b940431fc1e6a69ce,11,beads,critical,D,50,beads40.jpg,beads60.jpg,high,NULL
1687287399,ffba3d78c7120aa66d71b6c28778f974,PennController,14,0,experiment,NULL,Video,progression,buffer,0.002242,1687287266758,615fec1b940431fc1e6a69ce,615fec1b940431fc1e6a69ce,11,beads,critical,D,50,beads40.jpg,beads60.jpg,high,NULL
1687287399,ffba3d78c7120aa66d71b6c28778f974,PennController,14,0,experiment,NULL,Selector,choice,Selection,option2,1687287271699,615fec1b940431fc1e6a69ce,615fec1b940431fc1e6a69ce,11,beads,critical,D,50,beads40.jpg,beads60.jpg,high,option2;option1
1687287399,ffba3d78c7120aa66d71b6c28778f974,PennController,14,0,experiment,NULL,PennController,13,_Trial_,End,1687287271700,615fec1b940431fc1e6a69ce,615fec1b940431fc1e6a69ce,11,beads,critical,D,50,beads40.jpg,beads60.jpg,high,NULL
1687287399,ffba3d78c7120aa66d71b6c28778f974,PennController,10,0,experiment,NULL,PennController,9,_Trial_,Start,1687287271700,615fec1b940431fc1e6a69ce,615fec1b940431fc1e6a69ce,7,stack,critical,D,25,stack15.jpg,stack35.jpg,high,NULL
1687287399,ffba3d78c7120aa66d71b6c28778f974,PennController,10,0,experiment,NULL,PennController,9,_Header_,Start,1687287271700,615fec1b940431fc1e6a69ce,615fec1b940431fc1e6a69ce,7,stack,critical,D,25,stack15.jpg,stack35.jpg,high,NULL
1687287399,ffba3d78c7120aa66d71b6c28778f974,PennController,10,0,experiment,NULL,PennController,9,_Header_,End,1687287271701,615fec1b940431fc1e6a69ce,615fec1b940431fc1e6a69ce,7,stack,critical,D,25,stack15.jpg,stack35.jpg,high,NULL
1687287399,ffba3d78c7120aa66d71b6c28778f974,PennController,10,0,experiment,NULL,Canvas,canvas6,Print,NA,1687287277383,615fec1b940431fc1e6a69ce,615fec1b940431fc1e6a69ce,7,stack,critical,D,25,stack15.jpg,stack35.jpg,high,NULL
1687287399,ffba3d78c7120aa66d71b6c28778f974,PennController,10,0,experiment,NULL,Video,progression,buffer,0.003136,1687287275223,615fec1b940431fc1e6a69ce,615fec1b940431fc1e6a69ce,7,stack,critical,D,25,stack15.jpg,stack35.jpg,high,NULL
1687287399,ffba3d78c7120aa66d71b6c28778f974,PennController,10,0,experiment,NULL,Selector,choice,Selection,option2,1687287279829,615fec1b940431fc1e6a69ce,615fec1b940431fc1e6a69ce,7,stack,critical,D,25,stack15.jpg,stack35.jpg,high,option2;option1
1687287399,ffba3d78c7120aa66d71b6c28778f974,PennController,10,0,experiment,NULL,PennController,9,_Trial_,End,1687287279830,615fec1b940431fc1e6a69ce,615fec1b940431fc1e6a69ce,7,stack,critical,D,25,stack15.jpg,stack35.jpg,high,NULL
1687287399,ffba3d78c7120aa66d71b6c28778f974,PennController,30,0,experiment,NULL,PennController,29,_Trial_,Start,1687287279831,615fec1b940431fc1e6a69ce,615fec1b940431fc1e6a69ce,27,square,filler,D,75,square65.jpg,square85.jpg,GoalB,NULL
1687287399,ffba3d78c7120aa66d71b6c28778f974,PennController,30,0,experiment,NULL,PennController,29,_Header_,Start,1687287279831,615fec1b940431fc1e6a69ce,615fec1b940431fc1e6a69ce,27,square,filler,D,75,square65.jpg,square85.jpg,GoalB,NULL
1687287399,ffba3d78c7120aa66d71b6c28778f974,PennController,30,0,experiment,NULL,PennController,29,_Header_,End,1687287279831,615fec1b940431fc1e6a69ce,615fec1b940431fc1e6a69ce,27,square,filler,D,75,square65.jpg,square85.jpg,GoalB,NULL
1687287399,ffba3d78c7120aa66d71b6c28778f974,PennController,30,0,experiment,NULL,Canvas,canvas6,Print,NA,1687287287505,615fec1b940431fc1e6a69ce,615fec1b940431fc1e6a69ce,27,square,filler,D,75,square65.jpg,square85.jpg,GoalB,NULL
1687287399,ffba3d78c7120aa66d71b6c28778f974,PennController,30,0,experiment,NULL,Video,progression,buffer,0.002114,1687287283352,615fec1b940431fc1e6a69ce,615fec1b940431fc1e6a69ce,27,square,filler,D,75,square65.jpg,square85.jpg,GoalB,NULL
1687287399,ffba3d78c7120aa66d71b6c28778f974,PennController,30,0,experiment,NULL,Selector,choice,Selection,option1,1687287290181,615fec1b940431fc1e6a69ce,615fec1b940431fc1e6a69ce,27,square,filler,D,75,square65.jpg,square85.jpg,GoalB,option2;option1
1687287399,ffba3d78c7120aa66d71b6c28778f974,PennController,30,0,experiment,NULL,PennController,29,_Trial_,End,1687287290182,615fec1b940431fc1e6a69ce,615fec1b940431fc1e6a69ce,27,square,filler,D,75,square65.jpg,square85.jpg,GoalB,NULL
1687287399,ffba3d78c7120aa66d71b6c28778f974,PennController,12,0,experiment,NULL,PennController,11,_Trial_,Start,1687287290183,615fec1b940431fc1e6a69ce,615fec1b940431fc1e6a69ce,9,cake,critical,D,75,cake66.jpg,cake84.jpg,high,NULL
1687287399,ffba3d78c7120aa66d71b6c28778f974,PennController,12,0,experiment,NULL,PennController,11,_Header_,Start,1687287290183,615fec1b940431fc1e6a69ce,615fec1b940431fc1e6a69ce,9,cake,critical,D,75,cake66.jpg,cake84.jpg,high,NULL
1687287399,ffba3d78c7120aa66d71b6c28778f974,PennController,12,0,experiment,NULL,PennController,11,_Header_,End,1687287290183,615fec1b940431fc1e6a69ce,615fec1b940431fc1e6a69ce,9,cake,critical,D,75,cake66.jpg,cake84.jpg,high,NULL
1687287399,ffba3d78c7120aa66d71b6c28778f974,PennController,12,0,experiment,NULL,Canvas,canvas6,Print,NA,1687287299864,615fec1b940431fc1e6a69ce,615fec1b940431fc1e6a69ce,9,cake,critical,D,75,cake66.jpg,cake84.jpg,high,NULL
1687287399,ffba3d78c7120aa66d71b6c28778f974,PennController,12,0,experiment,NULL,Video,progression,buffer,0.002289,1687287293702,615fec1b940431fc1e6a69ce,615fec1b940431fc1e6a69ce,9,cake,critical,D,75,cake66.jpg,cake84.jpg,high,NULL
1687287399,ffba3d78c7120aa66d71b6c28778f974,PennController,12,0,experiment,NULL,Selector,choice,Selection,option1,1687287303462,615fec1b940431fc1e6a69ce,615fec1b940431fc1e6a69ce,9,cake,critical,D,75,cake66.jpg,cake84.jpg,high,option1;option2
1687287399,ffba3d78c7120aa66d71b6c28778f974,PennController,12,0,experiment,NULL,PennController,11,_Trial_,End,1687287303463,615fec1b940431fc1e6a69ce,615fec1b940431fc1e6a69ce,9,cake,critical,D,75,cake66.jpg,cake84.jpg,high,NULL
1687287399,ffba3d78c7120aa66d71b6c28778f974,PennController,25,0,experiment,NULL,PennController,24,_Trial_,Start,1687287303464,615fec1b940431fc1e6a69ce,615fec1b940431fc1e6a69ce,22,wall,filler,D,25,wall15.jpg,wall35.jpg,GoalA,NULL
1687287399,ffba3d78c7120aa66d71b6c28778f974,PennController,25,0,experiment,NULL,PennController,24,_Header_,Start,1687287303464,615fec1b940431fc1e6a69ce,615fec1b940431fc1e6a69ce,22,wall,filler,D,25,wall15.jpg,wall35.jpg,GoalA,NULL
1687287399,ffba3d78c7120aa66d71b6c28778f974,PennController,25,0,experiment,NULL,PennController,24,_Header_,End,1687287303464,615fec1b940431fc1e6a69ce,615fec1b940431fc1e6a69ce,22,wall,filler,D,25,wall15.jpg,wall35.jpg,GoalA,NULL
1687287399,ffba3d78c7120aa66d71b6c28778f974,PennController,25,0,experiment,NULL,Canvas,canvas6,Print,NA,1687287309138,615fec1b940431fc1e6a69ce,615fec1b940431fc1e6a69ce,22,wall,filler,D,25,wall15.jpg,wall35.jpg,GoalA,NULL
1687287399,ffba3d78c7120aa66d71b6c28778f974,PennController,25,0,experiment,NULL,Video,progression,buffer,0.00244,1687287306976,615fec1b940431fc1e6a69ce,615fec1b940431fc1e6a69ce,22,wall,filler,D,25,wall15.jpg,wall35.jpg,GoalA,NULL
1687287399,ffba3d78c7120aa66d71b6c28778f974,PennController,25,0,experiment,NULL,Selector,choice,Selection,option2,1687287313542,615fec1b940431fc1e6a69ce,615fec1b940431fc1e6a69ce,22,wall,filler,D,25,wall15.jpg,wall35.jpg,GoalA,option2;option1
1687287399,ffba3d78c7120aa66d71b6c28778f974,PennController,25,0,experiment,NULL,PennController,24,_Trial_,End,1687287313543,615fec1b940431fc1e6a69ce,615fec1b940431fc1e6a69ce,22,wall,filler,D,25,wall15.jpg,wall35.jpg,GoalA,NULL
1687287399,ffba3d78c7120aa66d71b6c28778f974,PennController,19,0,experiment,NULL,PennController,18,_Trial_,Start,1687287313544,615fec1b940431fc1e6a69ce,615fec1b940431fc1e6a69ce,16,blinds,critical,D,25,blinds15.jpg,blinds33.jpg,high,NULL
1687287399,ffba3d78c7120aa66d71b6c28778f974,PennController,19,0,experiment,NULL,PennController,18,_Header_,Start,1687287313544,615fec1b940431fc1e6a69ce,615fec1b940431fc1e6a69ce,16,blinds,critical,D,25,blinds15.jpg,blinds33.jpg,high,NULL
1687287399,ffba3d78c7120aa66d71b6c28778f974,PennController,19,0,experiment,NULL,PennController,18,_Header_,End,1687287313544,615fec1b940431fc1e6a69ce,615fec1b940431fc1e6a69ce,16,blinds,critical,D,25,blinds15.jpg,blinds33.jpg,high,NULL
1687287399,ffba3d78c7120aa66d71b6c28778f974,PennController,19,0,experiment,NULL,Canvas,canvas6,Print,NA,1687287319831,615fec1b940431fc1e6a69ce,615fec1b940431fc1e6a69ce,16,blinds,critical,D,25,blinds15.jpg,blinds33.jpg,high,NULL
1687287399,ffba3d78c7120aa66d71b6c28778f974,PennController,19,0,experiment,NULL,Video,progression,buffer,0.002498,1687287317069,615fec1b940431fc1e6a69ce,615fec1b940431fc1e6a69ce,16,blinds,critical,D,25,blinds15.jpg,blinds33.jpg,high,NULL
1687287399,ffba3d78c7120aa66d71b6c28778f974,PennController,19,0,experiment,NULL,Selector,choice,Selection,option2,1687287322826,615fec1b940431fc1e6a69ce,615fec1b940431fc1e6a69ce,16,blinds,critical,D,25,blinds15.jpg,blinds33.jpg,high,option2;option1
1687287399,ffba3d78c7120aa66d71b6c28778f974,PennController,19,0,experiment,NULL,PennController,18,_Trial_,End,1687287322827,615fec1b940431fc1e6a69ce,615fec1b940431fc1e6a69ce,16,blinds,critical,D,25,blinds15.jpg,blinds33.jpg,high,NULL
1687287399,ffba3d78c7120aa66d71b6c28778f974,PennController,31,0,experiment,NULL,PennController,30,_Trial_,Start,1687287322828,615fec1b940431fc1e6a69ce,615fec1b940431fc1e6a69ce,28,sort,filler,D,25,sort15.jpg,sort35.jpg,GoalA,NULL
1687287399,ffba3d78c7120aa66d71b6c28778f974,PennController,31,0,experiment,NULL,PennController,30,_Header_,Start,1687287322828,615fec1b940431fc1e6a69ce,615fec1b940431fc1e6a69ce,28,sort,filler,D,25,sort15.jpg,sort35.jpg,GoalA,NULL
1687287399,ffba3d78c7120aa66d71b6c28778f974,PennController,31,0,experiment,NULL,PennController,30,_Header_,End,1687287322828,615fec1b940431fc1e6a69ce,615fec1b940431fc1e6a69ce,28,sort,filler,D,25,sort15.jpg,sort35.jpg,GoalA,NULL
1687287399,ffba3d78c7120aa66d71b6c28778f974,PennController,31,0,experiment,NULL,Canvas,canvas6,Print,NA,1687287328506,615fec1b940431fc1e6a69ce,615fec1b940431fc1e6a69ce,28,sort,filler,D,25,sort15.jpg,sort35.jpg,GoalA,NULL
1687287399,ffba3d78c7120aa66d71b6c28778f974,PennController,31,0,experiment,NULL,Video,progression,buffer,0.002866,1687287326346,615fec1b940431fc1e6a69ce,615fec1b940431fc1e6a69ce,28,sort,filler,D,25,sort15.jpg,sort35.jpg,GoalA,NULL
1687287399,ffba3d78c7120aa66d71b6c28778f974,PennController,31,0,experiment,NULL,Selector,choice,Selection,option2,1687287330227,615fec1b940431fc1e6a69ce,615fec1b940431fc1e6a69ce,28,sort,filler,D,25,sort15.jpg,sort35.jpg,GoalA,option2;option1
1687287399,ffba3d78c7120aa66d71b6c28778f974,PennController,31,0,experiment,NULL,PennController,30,_Trial_,End,1687287330228,615fec1b940431fc1e6a69ce,615fec1b940431fc1e6a69ce,28,sort,filler,D,25,sort15.jpg,sort35.jpg,GoalA,NULL
1687287399,ffba3d78c7120aa66d71b6c28778f974,PennController,6,0,experiment,NULL,PennController,5,_Trial_,Start,1687287330228,615fec1b940431fc1e6a69ce,615fec1b940431fc1e6a69ce,3,clean,critical,D,75,clean65.jpg,clean85.jpg,high,NULL
1687287399,ffba3d78c7120aa66d71b6c28778f974,PennController,6,0,experiment,NULL,PennController,5,_Header_,Start,1687287330228,615fec1b940431fc1e6a69ce,615fec1b940431fc1e6a69ce,3,clean,critical,D,75,clean65.jpg,clean85.jpg,high,NULL
1687287399,ffba3d78c7120aa66d71b6c28778f974,PennController,6,0,experiment,NULL,PennController,5,_Header_,End,1687287330229,615fec1b940431fc1e6a69ce,615fec1b940431fc1e6a69ce,3,clean,critical,D,75,clean65.jpg,clean85.jpg,high,NULL
1687287399,ffba3d78c7120aa66d71b6c28778f974,PennController,6,0,experiment,NULL,Canvas,canvas6,Print,NA,1687287337901,615fec1b940431fc1e6a69ce,615fec1b940431fc1e6a69ce,3,clean,critical,D,75,clean65.jpg,clean85.jpg,high,NULL
1687287399,ffba3d78c7120aa66d71b6c28778f974,PennController,6,0,experiment,NULL,Video,progression,buffer,0.002973,1687287333745,615fec1b940431fc1e6a69ce,615fec1b940431fc1e6a69ce,3,clean,critical,D,75,clean65.jpg,clean85.jpg,high,NULL
1687287399,ffba3d78c7120aa66d71b6c28778f974,PennController,6,0,experiment,NULL,Selector,choice,Selection,option1,1687287340590,615fec1b940431fc1e6a69ce,615fec1b940431fc1e6a69ce,3,clean,critical,D,75,clean65.jpg,clean85.jpg,high,option1;option2
1687287399,ffba3d78c7120aa66d71b6c28778f974,PennController,6,0,experiment,NULL,PennController,5,_Trial_,End,1687287340592,615fec1b940431fc1e6a69ce,615fec1b940431fc1e6a69ce,3,clean,critical,D,75,clean65.jpg,clean85.jpg,high,NULL
1687287399,ffba3d78c7120aa66d71b6c28778f974,PennController,11,0,experiment,NULL,PennController,10,_Trial_,Start,1687287340592,615fec1b940431fc1e6a69ce,615fec1b940431fc1e6a69ce,8,cucumber,critical,D,50,cucumber42.jpg,cucumber60.jpg,high,NULL
1687287399,ffba3d78c7120aa66d71b6c28778f974,PennController,11,0,experiment,NULL,PennController,10,_Header_,Start,1687287340592,615fec1b940431fc1e6a69ce,615fec1b940431fc1e6a69ce,8,cucumber,critical,D,50,cucumber42.jpg,cucumber60.jpg,high,NULL
1687287399,ffba3d78c7120aa66d71b6c28778f974,PennController,11,0,experiment,NULL,PennController,10,_Header_,End,1687287340592,615fec1b940431fc1e6a69ce,615fec1b940431fc1e6a69ce,8,cucumber,critical,D,50,cucumber42.jpg,cucumber60.jpg,high,NULL
1687287399,ffba3d78c7120aa66d71b6c28778f974,PennController,11,0,experiment,NULL,Canvas,canvas6,Print,NA,1687287348676,615fec1b940431fc1e6a69ce,615fec1b940431fc1e6a69ce,8,cucumber,critical,D,50,cucumber42.jpg,cucumber60.jpg,high,NULL
1687287399,ffba3d78c7120aa66d71b6c28778f974,PennController,11,0,experiment,NULL,Video,progression,buffer,0.003702,1687287344111,615fec1b940431fc1e6a69ce,615fec1b940431fc1e6a69ce,8,cucumber,critical,D,50,cucumber42.jpg,cucumber60.jpg,high,NULL
1687287399,ffba3d78c7120aa66d71b6c28778f974,PennController,11,0,experiment,NULL,Selector,choice,Selection,option1,1687287351936,615fec1b940431fc1e6a69ce,615fec1b940431fc1e6a69ce,8,cucumber,critical,D,50,cucumber42.jpg,cucumber60.jpg,high,option1;option2
1687287399,ffba3d78c7120aa66d71b6c28778f974,PennController,11,0,experiment,NULL,PennController,10,_Trial_,End,1687287351937,615fec1b940431fc1e6a69ce,615fec1b940431fc1e6a69ce,8,cucumber,critical,D,50,cucumber42.jpg,cucumber60.jpg,high,NULL
1687287399,ffba3d78c7120aa66d71b6c28778f974,PennController,29,0,experiment,NULL,PennController,28,_Trial_,Start,1687287351938,615fec1b940431fc1e6a69ce,615fec1b940431fc1e6a69ce,26,sandwich,filler,D,50,sandwich40.jpg,sandwich60.jpg,GoalA,NULL
1687287399,ffba3d78c7120aa66d71b6c28778f974,PennController,29,0,experiment,NULL,PennController,28,_Header_,Start,1687287351938,615fec1b940431fc1e6a69ce,615fec1b940431fc1e6a69ce,26,sandwich,filler,D,50,sandwich40.jpg,sandwich60.jpg,GoalA,NULL
1687287399,ffba3d78c7120aa66d71b6c28778f974,PennController,29,0,experiment,NULL,PennController,28,_Header_,End,1687287351939,615fec1b940431fc1e6a69ce,615fec1b940431fc1e6a69ce,26,sandwich,filler,D,50,sandwich40.jpg,sandwich60.jpg,GoalA,NULL
1687287399,ffba3d78c7120aa66d71b6c28778f974,PennController,29,0,experiment,NULL,Canvas,canvas6,Print,NA,1687287358615,615fec1b940431fc1e6a69ce,615fec1b940431fc1e6a69ce,26,sandwich,filler,D,50,sandwich40.jpg,sandwich60.jpg,GoalA,NULL
1687287399,ffba3d78c7120aa66d71b6c28778f974,PennController,29,0,experiment,NULL,Video,progression,buffer,0.002317,1687287355457,615fec1b940431fc1e6a69ce,615fec1b940431fc1e6a69ce,26,sandwich,filler,D,50,sandwich40.jpg,sandwich60.jpg,GoalA,NULL
1687287399,ffba3d78c7120aa66d71b6c28778f974,PennController,29,0,experiment,NULL,Selector,choice,Selection,option1,1687287361998,615fec1b940431fc1e6a69ce,615fec1b940431fc1e6a69ce,26,sandwich,filler,D,50,sandwich40.jpg,sandwich60.jpg,GoalA,option2;option1
1687287399,ffba3d78c7120aa66d71b6c28778f974,PennController,29,0,experiment,NULL,PennController,28,_Trial_,End,1687287361999,615fec1b940431fc1e6a69ce,615fec1b940431fc1e6a69ce,26,sandwich,filler,D,50,sandwich40.jpg,sandwich60.jpg,GoalA,NULL
1687287399,ffba3d78c7120aa66d71b6c28778f974,PennController,15,0,experiment,NULL,PennController,14,_Trial_,Start,1687287362000,615fec1b940431fc1e6a69ce,615fec1b940431fc1e6a69ce,12,erase,critical,D,75,erase66.jpg,erase84.jpg,high,NULL
1687287399,ffba3d78c7120aa66d71b6c28778f974,PennController,15,0,experiment,NULL,PennController,14,_Header_,Start,1687287362000,615fec1b940431fc1e6a69ce,615fec1b940431fc1e6a69ce,12,erase,critical,D,75,erase66.jpg,erase84.jpg,high,NULL
1687287399,ffba3d78c7120aa66d71b6c28778f974,PennController,15,0,experiment,NULL,PennController,14,_Header_,End,1687287362000,615fec1b940431fc1e6a69ce,615fec1b940431fc1e6a69ce,12,erase,critical,D,75,erase66.jpg,erase84.jpg,high,NULL
1687287399,ffba3d78c7120aa66d71b6c28778f974,PennController,15,0,experiment,NULL,Canvas,canvas6,Print,NA,1687287371670,615fec1b940431fc1e6a69ce,615fec1b940431fc1e6a69ce,12,erase,critical,D,75,erase66.jpg,erase84.jpg,high,NULL
1687287399,ffba3d78c7120aa66d71b6c28778f974,PennController,15,0,experiment,NULL,Video,progression,buffer,0.003192,1687287365516,615fec1b940431fc1e6a69ce,615fec1b940431fc1e6a69ce,12,erase,critical,D,75,erase66.jpg,erase84.jpg,high,NULL
1687287399,ffba3d78c7120aa66d71b6c28778f974,PennController,15,0,experiment,NULL,Selector,choice,Selection,option1,1687287373788,615fec1b940431fc1e6a69ce,615fec1b940431fc1e6a69ce,12,erase,critical,D,75,erase66.jpg,erase84.jpg,high,option2;option1
1687287399,ffba3d78c7120aa66d71b6c28778f974,PennController,15,0,experiment,NULL,PennController,14,_Trial_,End,1687287373789,615fec1b940431fc1e6a69ce,615fec1b940431fc1e6a69ce,12,erase,critical,D,75,erase66.jpg,erase84.jpg,high,NULL
