#
# Results on Tuesday June 20 2023 18:55:27 UTC
# USER AGENT: Mozilla/5.0 (Macintosh; Intel Mac OS X 10_15_7) AppleWebKit/537.36 (KHTML, like Gecko) Chrome/114.0.0.0 Safari/537.36
# Design number was non-random = 3
#
# Columns below this comment are as follows:
# 1. Results reception time.
# 2. MD5 hash of participant's IP address.
# 3. Controller name.
# 4. Order number of item.
# 5. Inner element number.
# 6. Label.
# 7. Latin Square Group.
# 8. PennElementType.
# 9. PennElementName.
# 10. Parameter.
# 11. Value.
# 12. EventTime.
# 13. PROLIFIC_ID.
# 14. Comments.
1687287327,f6419ceba02b08057eb2b687bdd900e0,PennController,2,0,consent,NULL,PennController,0,_Trial_,Start,1687287055610,615afde5191d9fec2d471954,NULL
1687287327,f6419ceba02b08057eb2b687bdd900e0,PennController,2,0,consent,NULL,PennController,0,_Header_,Start,1687287055610,615afde5191d9fec2d471954,NULL
1687287327,f6419ceba02b08057eb2b687bdd900e0,PennController,2,0,consent,NULL,PennController,0,_Header_,End,1687287055610,615afde5191d9fec2d471954,NULL
1687287327,f6419ceba02b08057eb2b687bdd900e0,PennController,2,0,consent,NULL,PennController,0,_Trial_,End,1687287064932,615afde5191d9fec2d471954,NULL
# Columns below this comment are as follows:
# 14. ID.
# 15. Comments.
1687287327,f6419ceba02b08057eb2b687bdd900e0,PennController,3,0,intro,NULL,PennController,1,_Trial_,Start,1687287064935,615afde5191d9fec2d471954,615afde5191d9fec2d471954,NULL
1687287327,f6419ceba02b08057eb2b687bdd900e0,PennController,3,0,intro,NULL,PennController,1,_Header_,Start,1687287064935,615afde5191d9fec2d471954,615afde5191d9fec2d471954,NULL
1687287327,f6419ceba02b08057eb2b687bdd900e0,PennController,3,0,intro,NULL,PennController,1,_Header_,End,1687287064935,615afde5191d9fec2d471954,615afde5191d9fec2d471954,NULL
1687287327,f6419ceba02b08057eb2b687bdd900e0,PennController,3,0,intro,NULL,PennController,1,_Trial_,End,1687287075581,615afde5191d9fec2d471954,615afde5191d9fec2d471954,NULL
# Columns below this comment are as follows:
# 15. item_number.
# 16. item.
# 17. type.
# 18. Group.
# 19. prog.
# 20. prev_image.
# 21. next_image.
# 22. height.
# 23. Comments.
1687287327,f6419ceba02b08057eb2b687bdd900e0,PennController,30,0,experiment,NULL,PennController,29,_Trial_,Start,1687287075583,615afde5191d9fec2d471954,615afde5191d9fec2d471954,27,square,filler,D,75,square65.jpg,square85.jpg,GoalB,NULL
1687287327,f6419ceba02b08057eb2b687bdd900e0,PennController,30,0,experiment,NULL,PennController,29,_Header_,Start,1687287075583,615afde5191d9fec2d471954,615afde5191d9fec2d471954,27,square,filler,D,75,square65.jpg,square85.jpg,GoalB,NULL
1687287327,f6419ceba02b08057eb2b687bdd900e0,PennController,30,0,experiment,NULL,PennController,29,_Header_,End,1687287075583,615afde5191d9fec2d471954,615afde5191d9fec2d471954,27,square,filler,D,75,square65.jpg,square85.jpg,GoalB,NULL
1687287327,f6419ceba02b08057eb2b687bdd900e0,PennController,30,0,experiment,NULL,Canvas,canvas6,Print,NA,1687287083287,615afde5191d9fec2d471954,615afde5191d9fec2d471954,27,square,filler,D,75,square65.jpg,square85.jpg,GoalB,NULL
1687287327,f6419ceba02b08057eb2b687bdd900e0,PennController,30,0,experiment,NULL,Video,progression,buffer,0.003593,1687287079120,615afde5191d9fec2d471954,615afde5191d9fec2d471954,27,square,filler,D,75,square65.jpg,square85.jpg,GoalB,NULL
1687287327,f6419ceba02b08057eb2b687bdd900e0,PennController,30,0,experiment,NULL,Selector,choice,Selection,option2,1687287085543,615afde5191d9fec2d471954,615afde5191d9fec2d471954,27,square,filler,D,75,square65.jpg,square85.jpg,GoalB,option1;option2
1687287327,f6419ceba02b08057eb2b687bdd900e0,PennController,30,0,experiment,NULL,PennController,29,_Trial_,End,1687287085546,615afde5191d9fec2d471954,615afde5191d9fec2d471954,27,square,filler,D,75,square65.jpg,square85.jpg,GoalB,NULL
1687287327,f6419ceba02b08057eb2b687bdd900e0,PennController,27,0,experiment,NULL,PennController,26,_Trial_,Start,1687287085548,615afde5191d9fec2d471954,615afde5191d9fec2d471954,24,match,filler,D,75,match65.jpg,match85.jpg,GoalA,NULL
1687287327,f6419ceba02b08057eb2b687bdd900e0,PennController,27,0,experiment,NULL,PennController,26,_Header_,Start,1687287085548,615afde5191d9fec2d471954,615afde5191d9fec2d471954,24,match,filler,D,75,match65.jpg,match85.jpg,GoalA,NULL
1687287327,f6419ceba02b08057eb2b687bdd900e0,PennController,27,0,experiment,NULL,PennController,26,_Header_,End,1687287085548,615afde5191d9fec2d471954,615afde5191d9fec2d471954,24,match,filler,D,75,match65.jpg,match85.jpg,GoalA,NULL
1687287327,f6419ceba02b08057eb2b687bdd900e0,PennController,27,0,experiment,NULL,Canvas,canvas6,Print,NA,1687287093247,615afde5191d9fec2d471954,615afde5191d9fec2d471954,24,match,filler,D,75,match65.jpg,match85.jpg,GoalA,NULL
1687287327,f6419ceba02b08057eb2b687bdd900e0,PennController,27,0,experiment,NULL,Video,progression,buffer,0.003858,1687287089078,615afde5191d9fec2d471954,615afde5191d9fec2d471954,24,match,filler,D,75,match65.jpg,match85.jpg,GoalA,NULL
1687287327,f6419ceba02b08057eb2b687bdd900e0,PennController,27,0,experiment,NULL,Selector,choice,Selection,option2,1687287095675,615afde5191d9fec2d471954,615afde5191d9fec2d471954,24,match,filler,D,75,match65.jpg,match85.jpg,GoalA,option2;option1
1687287327,f6419ceba02b08057eb2b687bdd900e0,PennController,27,0,experiment,NULL,PennController,26,_Trial_,End,1687287095677,615afde5191d9fec2d471954,615afde5191d9fec2d471954,24,match,filler,D,75,match65.jpg,match85.jpg,GoalA,NULL
1687287327,f6419ceba02b08057eb2b687bdd900e0,PennController,9,0,experiment,NULL,PennController,8,_Trial_,Start,1687287095679,615afde5191d9fec2d471954,615afde5191d9fec2d471954,6,flower,critical,D,75,flower65.jpg,flower85.jpg,high,NULL
1687287327,f6419ceba02b08057eb2b687bdd900e0,PennController,9,0,experiment,NULL,PennController,8,_Header_,Start,1687287095679,615afde5191d9fec2d471954,615afde5191d9fec2d471954,6,flower,critical,D,75,flower65.jpg,flower85.jpg,high,NULL
1687287327,f6419ceba02b08057eb2b687bdd900e0,PennController,9,0,experiment,NULL,PennController,8,_Header_,End,1687287095679,615afde5191d9fec2d471954,615afde5191d9fec2d471954,6,flower,critical,D,75,flower65.jpg,flower85.jpg,high,NULL
1687287327,f6419ceba02b08057eb2b687bdd900e0,PennController,9,0,experiment,NULL,Canvas,canvas6,Print,NA,1687287103387,615afde5191d9fec2d471954,615afde5191d9fec2d471954,6,flower,critical,D,75,flower65.jpg,flower85.jpg,high,NULL
1687287327,f6419ceba02b08057eb2b687bdd900e0,PennController,9,0,experiment,NULL,Video,progression,buffer,0.004219,1687287099214,615afde5191d9fec2d471954,615afde5191d9fec2d471954,6,flower,critical,D,75,flower65.jpg,flower85.jpg,high,NULL
1687287327,f6419ceba02b08057eb2b687bdd900e0,PennController,9,0,experiment,NULL,Selector,choice,Selection,option2,1687287106076,615afde5191d9fec2d471954,615afde5191d9fec2d471954,6,flower,critical,D,75,flower65.jpg,flower85.jpg,high,option2;option1
1687287327,f6419ceba02b08057eb2b687bdd900e0,PennController,9,0,experiment,NULL,PennController,8,_Trial_,End,1687287106078,615afde5191d9fec2d471954,615afde5191d9fec2d471954,6,flower,critical,D,75,flower65.jpg,flower85.jpg,high,NULL
1687287327,f6419ceba02b08057eb2b687bdd900e0,PennController,18,0,experiment,NULL,PennController,17,_Trial_,Start,1687287106079,615afde5191d9fec2d471954,615afde5191d9fec2d471954,15,zip,critical,D,75,zip65.jpg,zip85.jpg,high,NULL
1687287327,f6419ceba02b08057eb2b687bdd900e0,PennController,18,0,experiment,NULL,PennController,17,_Header_,Start,1687287106079,615afde5191d9fec2d471954,615afde5191d9fec2d471954,15,zip,critical,D,75,zip65.jpg,zip85.jpg,high,NULL
1687287327,f6419ceba02b08057eb2b687bdd900e0,PennController,18,0,experiment,NULL,PennController,17,_Header_,End,1687287106079,615afde5191d9fec2d471954,615afde5191d9fec2d471954,15,zip,critical,D,75,zip65.jpg,zip85.jpg,high,NULL
1687287327,f6419ceba02b08057eb2b687bdd900e0,PennController,18,0,experiment,NULL,Canvas,canvas6,Print,NA,1687287112983,615afde5191d9fec2d471954,615afde5191d9fec2d471954,15,zip,critical,D,75,zip65.jpg,zip85.jpg,high,NULL
1687287327,f6419ceba02b08057eb2b687bdd900e0,PennController,18,0,experiment,NULL,Video,progression,buffer,0.003429,1687287109612,615afde5191d9fec2d471954,615afde5191d9fec2d471954,15,zip,critical,D,75,zip65.jpg,zip85.jpg,high,NULL
1687287327,f6419ceba02b08057eb2b687bdd900e0,PennController,18,0,experiment,NULL,Selector,choice,Selection,option2,1687287114659,615afde5191d9fec2d471954,615afde5191d9fec2d471954,15,zip,critical,D,75,zip65.jpg,zip85.jpg,high,option2;option1
1687287327,f6419ceba02b08057eb2b687bdd900e0,PennController,18,0,experiment,NULL,PennController,17,_Trial_,End,1687287114661,615afde5191d9fec2d471954,615afde5191d9fec2d471954,15,zip,critical,D,75,zip65.jpg,zip85.jpg,high,NULL
1687287327,f6419ceba02b08057eb2b687bdd900e0,PennController,6,0,experiment,NULL,PennController,5,_Trial_,Start,1687287114662,615afde5191d9fec2d471954,615afde5191d9fec2d471954,3,clean,critical,D,75,clean65.jpg,clean85.jpg,high,NULL
1687287327,f6419ceba02b08057eb2b687bdd900e0,PennController,6,0,experiment,NULL,PennController,5,_Header_,Start,1687287114662,615afde5191d9fec2d471954,615afde5191d9fec2d471954,3,clean,critical,D,75,clean65.jpg,clean85.jpg,high,NULL
1687287327,f6419ceba02b08057eb2b687bdd900e0,PennController,6,0,experiment,NULL,PennController,5,_Header_,End,1687287114662,615afde5191d9fec2d471954,615afde5191d9fec2d471954,3,clean,critical,D,75,clean65.jpg,clean85.jpg,high,NULL
1687287327,f6419ceba02b08057eb2b687bdd900e0,PennController,6,0,experiment,NULL,Canvas,canvas6,Print,NA,1687287122370,615afde5191d9fec2d471954,615afde5191d9fec2d471954,3,clean,critical,D,75,clean65.jpg,clean85.jpg,high,NULL
1687287327,f6419ceba02b08057eb2b687bdd900e0,PennController,6,0,experiment,NULL,Video,progression,buffer,0.003893,1687287118195,615afde5191d9fec2d471954,615afde5191d9fec2d471954,3,clean,critical,D,75,clean65.jpg,clean85.jpg,high,NULL
1687287327,f6419ceba02b08057eb2b687bdd900e0,PennController,6,0,experiment,NULL,Selector,choice,Selection,option1,1687287123759,615afde5191d9fec2d471954,615afde5191d9fec2d471954,3,clean,critical,D,75,clean65.jpg,clean85.jpg,high,option2;option1
1687287327,f6419ceba02b08057eb2b687bdd900e0,PennController,6,0,experiment,NULL,PennController,5,_Trial_,End,1687287123761,615afde5191d9fec2d471954,615afde5191d9fec2d471954,3,clean,critical,D,75,clean65.jpg,clean85.jpg,high,NULL
1687287327,f6419ceba02b08057eb2b687bdd900e0,PennController,25,0,experiment,NULL,PennController,24,_Trial_,Start,1687287123763,615afde5191d9fec2d471954,615afde5191d9fec2d471954,22,wall,filler,D,25,wall15.jpg,wall35.jpg,GoalA,NULL
1687287327,f6419ceba02b08057eb2b687bdd900e0,PennController,25,0,experiment,NULL,PennController,24,_Header_,Start,1687287123763,615afde5191d9fec2d471954,615afde5191d9fec2d471954,22,wall,filler,D,25,wall15.jpg,wall35.jpg,GoalA,NULL
1687287327,f6419ceba02b08057eb2b687bdd900e0,PennController,25,0,experiment,NULL,PennController,24,_Header_,End,1687287123763,615afde5191d9fec2d471954,615afde5191d9fec2d471954,22,wall,filler,D,25,wall15.jpg,wall35.jpg,GoalA,NULL
1687287327,f6419ceba02b08057eb2b687bdd900e0,PennController,25,0,experiment,NULL,Canvas,canvas6,Print,NA,1687287129465,615afde5191d9fec2d471954,615afde5191d9fec2d471954,22,wall,filler,D,25,wall15.jpg,wall35.jpg,GoalA,NULL
1687287327,f6419ceba02b08057eb2b687bdd900e0,PennController,25,0,experiment,NULL,Video,progression,buffer,0.004002,1687287127291,615afde5191d9fec2d471954,615afde5191d9fec2d471954,22,wall,filler,D,25,wall15.jpg,wall35.jpg,GoalA,NULL
1687287327,f6419ceba02b08057eb2b687bdd900e0,PennController,25,0,experiment,NULL,Selector,choice,Selection,option1,1687287130893,615afde5191d9fec2d471954,615afde5191d9fec2d471954,22,wall,filler,D,25,wall15.jpg,wall35.jpg,GoalA,option1;option2
1687287327,f6419ceba02b08057eb2b687bdd900e0,PennController,25,0,experiment,NULL,PennController,24,_Trial_,End,1687287130895,615afde5191d9fec2d471954,615afde5191d9fec2d471954,22,wall,filler,D,25,wall15.jpg,wall35.jpg,GoalA,NULL
1687287327,f6419ceba02b08057eb2b687bdd900e0,PennController,17,0,experiment,NULL,PennController,16,_Trial_,Start,1687287130896,615afde5191d9fec2d471954,615afde5191d9fec2d471954,14,cover,critical,D,50,cover42.jpg,cover60.jpg,high,NULL
1687287327,f6419ceba02b08057eb2b687bdd900e0,PennController,17,0,experiment,NULL,PennController,16,_Header_,Start,1687287130896,615afde5191d9fec2d471954,615afde5191d9fec2d471954,14,cover,critical,D,50,cover42.jpg,cover60.jpg,high,NULL
1687287327,f6419ceba02b08057eb2b687bdd900e0,PennController,17,0,experiment,NULL,PennController,16,_Header_,End,1687287130896,615afde5191d9fec2d471954,615afde5191d9fec2d471954,14,cover,critical,D,50,cover42.jpg,cover60.jpg,high,NULL
1687287327,f6419ceba02b08057eb2b687bdd900e0,PennController,17,0,experiment,NULL,Canvas,canvas6,Print,NA,1687287139003,615afde5191d9fec2d471954,615afde5191d9fec2d471954,14,cover,critical,D,50,cover42.jpg,cover60.jpg,high,NULL
1687287327,f6419ceba02b08057eb2b687bdd900e0,PennController,17,0,experiment,NULL,Video,progression,buffer,0.002918,1687287134421,615afde5191d9fec2d471954,615afde5191d9fec2d471954,14,cover,critical,D,50,cover42.jpg,cover60.jpg,high,NULL
1687287327,f6419ceba02b08057eb2b687bdd900e0,PennController,17,0,experiment,NULL,Selector,choice,Selection,option1,1687287140176,615afde5191d9fec2d471954,615afde5191d9fec2d471954,14,cover,critical,D,50,cover42.jpg,cover60.jpg,high,option2;option1
1687287327,f6419ceba02b08057eb2b687bdd900e0,PennController,17,0,experiment,NULL,PennController,16,_Trial_,End,1687287140178,615afde5191d9fec2d471954,615afde5191d9fec2d471954,14,cover,critical,D,50,cover42.jpg,cover60.jpg,high,NULL
1687287327,f6419ceba02b08057eb2b687bdd900e0,PennController,10,0,experiment,NULL,PennController,9,_Trial_,Start,1687287140180,615afde5191d9fec2d471954,615afde5191d9fec2d471954,7,stack,critical,D,25,stack15.jpg,stack35.jpg,high,NULL
1687287327,f6419ceba02b08057eb2b687bdd900e0,PennController,10,0,experiment,NULL,PennController,9,_Header_,Start,1687287140180,615afde5191d9fec2d471954,615afde5191d9fec2d471954,7,stack,critical,D,25,stack15.jpg,stack35.jpg,high,NULL
1687287327,f6419ceba02b08057eb2b687bdd900e0,PennController,10,0,experiment,NULL,PennController,9,_Header_,End,1687287140180,615afde5191d9fec2d471954,615afde5191d9fec2d471954,7,stack,critical,D,25,stack15.jpg,stack35.jpg,high,NULL
1687287327,f6419ceba02b08057eb2b687bdd900e0,PennController,10,0,experiment,NULL,Canvas,canvas6,Print,NA,1687287145882,615afde5191d9fec2d471954,615afde5191d9fec2d471954,7,stack,critical,D,25,stack15.jpg,stack35.jpg,high,NULL
1687287327,f6419ceba02b08057eb2b687bdd900e0,PennController,10,0,experiment,NULL,Video,progression,buffer,0.003582,1687287143712,615afde5191d9fec2d471954,615afde5191d9fec2d471954,7,stack,critical,D,25,stack15.jpg,stack35.jpg,high,NULL
1687287327,f6419ceba02b08057eb2b687bdd900e0,PennController,10,0,experiment,NULL,Selector,choice,Selection,option2,1687287147542,615afde5191d9fec2d471954,615afde5191d9fec2d471954,7,stack,critical,D,25,stack15.jpg,stack35.jpg,high,option2;option1
1687287327,f6419ceba02b08057eb2b687bdd900e0,PennController,10,0,experiment,NULL,PennController,9,_Trial_,End,1687287147544,615afde5191d9fec2d471954,615afde5191d9fec2d471954,7,stack,critical,D,25,stack15.jpg,stack35.jpg,high,NULL
1687287327,f6419ceba02b08057eb2b687bdd900e0,PennController,5,0,experiment,NULL,PennController,4,_Trial_,Start,1687287147546,615afde5191d9fec2d471954,615afde5191d9fec2d471954,2,door,critical,D,50,door40.jpg,door60.jpg,high,NULL
1687287327,f6419ceba02b08057eb2b687bdd900e0,PennController,5,0,experiment,NULL,PennController,4,_Header_,Start,1687287147546,615afde5191d9fec2d471954,615afde5191d9fec2d471954,2,door,critical,D,50,door40.jpg,door60.jpg,high,NULL
1687287327,f6419ceba02b08057eb2b687bdd900e0,PennController,5,0,experiment,NULL,PennController,4,_Header_,End,1687287147546,615afde5191d9fec2d471954,615afde5191d9fec2d471954,2,door,critical,D,50,door40.jpg,door60.jpg,high,NULL
1687287327,f6419ceba02b08057eb2b687bdd900e0,PennController,5,0,experiment,NULL,Canvas,canvas6,Print,NA,1687287154254,615afde5191d9fec2d471954,615afde5191d9fec2d471954,2,door,critical,D,50,door40.jpg,door60.jpg,high,NULL
1687287327,f6419ceba02b08057eb2b687bdd900e0,PennController,5,0,experiment,NULL,Video,progression,buffer,0.00356,1687287151077,615afde5191d9fec2d471954,615afde5191d9fec2d471954,2,door,critical,D,50,door40.jpg,door60.jpg,high,NULL
1687287327,f6419ceba02b08057eb2b687bdd900e0,PennController,5,0,experiment,NULL,Selector,choice,Selection,option2,1687287156458,615afde5191d9fec2d471954,615afde5191d9fec2d471954,2,door,critical,D,50,door40.jpg,door60.jpg,high,option2;option1
1687287327,f6419ceba02b08057eb2b687bdd900e0,PennController,5,0,experiment,NULL,PennController,4,_Trial_,End,1687287156460,615afde5191d9fec2d471954,615afde5191d9fec2d471954,2,door,critical,D,50,door40.jpg,door60.jpg,high,NULL
1687287327,f6419ceba02b08057eb2b687bdd900e0,PennController,8,0,experiment,NULL,PennController,7,_Trial_,Start,1687287156461,615afde5191d9fec2d471954,615afde5191d9fec2d471954,5,book,critical,D,50,book40.jpg,book60.jpg,high,NULL
1687287327,f6419ceba02b08057eb2b687bdd900e0,PennController,8,0,experiment,NULL,PennController,7,_Header_,Start,1687287156461,615afde5191d9fec2d471954,615afde5191d9fec2d471954,5,book,critical,D,50,book40.jpg,book60.jpg,high,NULL
1687287327,f6419ceba02b08057eb2b687bdd900e0,PennController,8,0,experiment,NULL,PennController,7,_Header_,End,1687287156461,615afde5191d9fec2d471954,615afde5191d9fec2d471954,5,book,critical,D,50,book40.jpg,book60.jpg,high,NULL
1687287327,f6419ceba02b08057eb2b687bdd900e0,PennController,8,0,experiment,NULL,Canvas,canvas6,Print,NA,1687287163152,615afde5191d9fec2d471954,615afde5191d9fec2d471954,5,book,critical,D,50,book40.jpg,book60.jpg,high,NULL
1687287327,f6419ceba02b08057eb2b687bdd900e0,PennController,8,0,experiment,NULL,Video,progression,buffer,0.002112,1687287159986,615afde5191d9fec2d471954,615afde5191d9fec2d471954,5,book,critical,D,50,book40.jpg,book60.jpg,high,NULL
1687287327,f6419ceba02b08057eb2b687bdd900e0,PennController,8,0,experiment,NULL,Selector,choice,Selection,option2,1687287164975,615afde5191d9fec2d471954,615afde5191d9fec2d471954,5,book,critical,D,50,book40.jpg,book60.jpg,high,option1;option2
1687287327,f6419ceba02b08057eb2b687bdd900e0,PennController,8,0,experiment,NULL,PennController,7,_Trial_,End,1687287164978,615afde5191d9fec2d471954,615afde5191d9fec2d471954,5,book,critical,D,50,book40.jpg,book60.jpg,high,NULL
1687287327,f6419ceba02b08057eb2b687bdd900e0,PennController,31,0,experiment,NULL,PennController,30,_Trial_,Start,1687287164980,615afde5191d9fec2d471954,615afde5191d9fec2d471954,28,sort,filler,D,25,sort15.jpg,sort35.jpg,GoalA,NULL
1687287327,f6419ceba02b08057eb2b687bdd900e0,PennController,31,0,experiment,NULL,PennController,30,_Header_,Start,1687287164980,615afde5191d9fec2d471954,615afde5191d9fec2d471954,28,sort,filler,D,25,sort15.jpg,sort35.jpg,GoalA,NULL
1687287327,f6419ceba02b08057eb2b687bdd900e0,PennController,31,0,experiment,NULL,PennController,30,_Header_,End,1687287164980,615afde5191d9fec2d471954,615afde5191d9fec2d471954,28,sort,filler,D,25,sort15.jpg,sort35.jpg,GoalA,NULL
1687287327,f6419ceba02b08057eb2b687bdd900e0,PennController,31,0,experiment,NULL,Canvas,canvas6,Print,NA,1687287170684,615afde5191d9fec2d471954,615afde5191d9fec2d471954,28,sort,filler,D,25,sort15.jpg,sort35.jpg,GoalA,NULL
1687287327,f6419ceba02b08057eb2b687bdd900e0,PennController,31,0,experiment,NULL,Video,progression,buffer,0.003504,1687287168509,615afde5191d9fec2d471954,615afde5191d9fec2d471954,28,sort,filler,D,25,sort15.jpg,sort35.jpg,GoalA,NULL
1687287327,f6419ceba02b08057eb2b687bdd900e0,PennController,31,0,experiment,NULL,Selector,choice,Selection,option2,1687287172225,615afde5191d9fec2d471954,615afde5191d9fec2d471954,28,sort,filler,D,25,sort15.jpg,sort35.jpg,GoalA,option2;option1
1687287327,f6419ceba02b08057eb2b687bdd900e0,PennController,31,0,experiment,NULL,PennController,30,_Trial_,End,1687287172227,615afde5191d9fec2d471954,615afde5191d9fec2d471954,28,sort,filler,D,25,sort15.jpg,sort35.jpg,GoalA,NULL
1687287327,f6419ceba02b08057eb2b687bdd900e0,PennController,15,0,experiment,NULL,PennController,14,_Trial_,Start,1687287172228,615afde5191d9fec2d471954,615afde5191d9fec2d471954,12,erase,critical,D,75,erase66.jpg,erase84.jpg,high,NULL
1687287327,f6419ceba02b08057eb2b687bdd900e0,PennController,15,0,experiment,NULL,PennController,14,_Header_,Start,1687287172228,615afde5191d9fec2d471954,615afde5191d9fec2d471954,12,erase,critical,D,75,erase66.jpg,erase84.jpg,high,NULL
1687287327,f6419ceba02b08057eb2b687bdd900e0,PennController,15,0,experiment,NULL,PennController,14,_Header_,End,1687287172228,615afde5191d9fec2d471954,615afde5191d9fec2d471954,12,erase,critical,D,75,erase66.jpg,erase84.jpg,high,NULL
1687287327,f6419ceba02b08057eb2b687bdd900e0,PennController,15,0,experiment,NULL,Canvas,canvas6,Print,NA,1687287181932,615afde5191d9fec2d471954,615afde5191d9fec2d471954,12,erase,critical,D,75,erase66.jpg,erase84.jpg,high,NULL
1687287327,f6419ceba02b08057eb2b687bdd900e0,PennController,15,0,experiment,NULL,Video,progression,buffer,0.00417,1687287175760,615afde5191d9fec2d471954,615afde5191d9fec2d471954,12,erase,critical,D,75,erase66.jpg,erase84.jpg,high,NULL
1687287327,f6419ceba02b08057eb2b687bdd900e0,PennController,15,0,experiment,NULL,Selector,choice,Selection,option2,1687287184292,615afde5191d9fec2d471954,615afde5191d9fec2d471954,12,erase,critical,D,75,erase66.jpg,erase84.jpg,high,option1;option2
1687287327,f6419ceba02b08057eb2b687bdd900e0,PennController,15,0,experiment,NULL,PennController,14,_Trial_,End,1687287184293,615afde5191d9fec2d471954,615afde5191d9fec2d471954,12,erase,critical,D,75,erase66.jpg,erase84.jpg,high,NULL
1687287327,f6419ceba02b08057eb2b687bdd900e0,PennController,19,0,experiment,NULL,PennController,18,_Trial_,Start,1687287184295,615afde5191d9fec2d471954,615afde5191d9fec2d471954,16,blinds,critical,D,25,blinds15.jpg,blinds33.jpg,high,NULL
1687287327,f6419ceba02b08057eb2b687bdd900e0,PennController,19,0,experiment,NULL,PennController,18,_Header_,Start,1687287184295,615afde5191d9fec2d471954,615afde5191d9fec2d471954,16,blinds,critical,D,25,blinds15.jpg,blinds33.jpg,high,NULL
1687287327,f6419ceba02b08057eb2b687bdd900e0,PennController,19,0,experiment,NULL,PennController,18,_Header_,End,1687287184295,615afde5191d9fec2d471954,615afde5191d9fec2d471954,16,blinds,critical,D,25,blinds15.jpg,blinds33.jpg,high,NULL
1687287327,f6419ceba02b08057eb2b687bdd900e0,PennController,19,0,experiment,NULL,Canvas,canvas6,Print,NA,1687287190600,615afde5191d9fec2d471954,615afde5191d9fec2d471954,16,blinds,critical,D,25,blinds15.jpg,blinds33.jpg,high,NULL
1687287327,f6419ceba02b08057eb2b687bdd900e0,PennController,19,0,experiment,NULL,Video,progression,buffer,0.002431,1687287187821,615afde5191d9fec2d471954,615afde5191d9fec2d471954,16,blinds,critical,D,25,blinds15.jpg,blinds33.jpg,high,NULL
1687287327,f6419ceba02b08057eb2b687bdd900e0,PennController,19,0,experiment,NULL,Selector,choice,Selection,option2,1687287192159,615afde5191d9fec2d471954,615afde5191d9fec2d471954,16,blinds,critical,D,25,blinds15.jpg,blinds33.jpg,high,option1;option2
1687287327,f6419ceba02b08057eb2b687bdd900e0,PennController,19,0,experiment,NULL,PennController,18,_Trial_,End,1687287192160,615afde5191d9fec2d471954,615afde5191d9fec2d471954,16,blinds,critical,D,25,blinds15.jpg,blinds33.jpg,high,NULL
1687287327,f6419ceba02b08057eb2b687bdd900e0,PennController,14,0,experiment,NULL,PennController,13,_Trial_,Start,1687287192162,615afde5191d9fec2d471954,615afde5191d9fec2d471954,11,beads,critical,D,50,beads40.jpg,beads60.jpg,high,NULL
1687287327,f6419ceba02b08057eb2b687bdd900e0,PennController,14,0,experiment,NULL,PennController,13,_Header_,Start,1687287192162,615afde5191d9fec2d471954,615afde5191d9fec2d471954,11,beads,critical,D,50,beads40.jpg,beads60.jpg,high,NULL
1687287327,f6419ceba02b08057eb2b687bdd900e0,PennController,14,0,experiment,NULL,PennController,13,_Header_,End,1687287192162,615afde5191d9fec2d471954,615afde5191d9fec2d471954,11,beads,critical,D,50,beads40.jpg,beads60.jpg,high,NULL
1687287327,f6419ceba02b08057eb2b687bdd900e0,PennController,14,0,experiment,NULL,Canvas,canvas6,Print,NA,1687287198847,615afde5191d9fec2d471954,615afde5191d9fec2d471954,11,beads,critical,D,50,beads40.jpg,beads60.jpg,high,NULL
1687287327,f6419ceba02b08057eb2b687bdd900e0,PennController,14,0,experiment,NULL,Video,progression,buffer,0.002417,1687287195683,615afde5191d9fec2d471954,615afde5191d9fec2d471954,11,beads,critical,D,50,beads40.jpg,beads60.jpg,high,NULL
1687287327,f6419ceba02b08057eb2b687bdd900e0,PennController,14,0,experiment,NULL,Selector,choice,Selection,option2,1687287201307,615afde5191d9fec2d471954,615afde5191d9fec2d471954,11,beads,critical,D,50,beads40.jpg,beads60.jpg,high,option1;option2
1687287327,f6419ceba02b08057eb2b687bdd900e0,PennController,14,0,experiment,NULL,PennController,13,_Trial_,End,1687287201309,615afde5191d9fec2d471954,615afde5191d9fec2d471954,11,beads,critical,D,50,beads40.jpg,beads60.jpg,high,NULL
1687287327,f6419ceba02b08057eb2b687bdd900e0,PennController,11,0,experiment,NULL,PennController,10,_Trial_,Start,1687287201310,615afde5191d9fec2d471954,615afde5191d9fec2d471954,8,cucumber,critical,D,50,cucumber42.jpg,cucumber60.jpg,high,NULL
1687287327,f6419ceba02b08057eb2b687bdd900e0,PennController,11,0,experiment,NULL,PennController,10,_Header_,Start,1687287201310,615afde5191d9fec2d471954,615afde5191d9fec2d471954,8,cucumber,critical,D,50,cucumber42.jpg,cucumber60.jpg,high,NULL
1687287327,f6419ceba02b08057eb2b687bdd900e0,PennController,11,0,experiment,NULL,PennController,10,_Header_,End,1687287201310,615afde5191d9fec2d471954,615afde5191d9fec2d471954,8,cucumber,critical,D,50,cucumber42.jpg,cucumber60.jpg,high,NULL
1687287327,f6419ceba02b08057eb2b687bdd900e0,PennController,11,0,experiment,NULL,Canvas,canvas6,Print,NA,1687287209398,615afde5191d9fec2d471954,615afde5191d9fec2d471954,8,cucumber,critical,D,50,cucumber42.jpg,cucumber60.jpg,high,NULL
1687287327,f6419ceba02b08057eb2b687bdd900e0,PennController,11,0,experiment,NULL,Video,progression,buffer,0.001572,1687287204833,615afde5191d9fec2d471954,615afde5191d9fec2d471954,8,cucumber,critical,D,50,cucumber42.jpg,cucumber60.jpg,high,NULL
1687287327,f6419ceba02b08057eb2b687bdd900e0,PennController,11,0,experiment,NULL,Selector,choice,Selection,option2,1687287210825,615afde5191d9fec2d471954,615afde5191d9fec2d471954,8,cucumber,critical,D,50,cucumber42.jpg,cucumber60.jpg,high,option2;option1
1687287327,f6419ceba02b08057eb2b687bdd900e0,PennController,11,0,experiment,NULL,PennController,10,_Trial_,End,1687287210826,615afde5191d9fec2d471954,615afde5191d9fec2d471954,8,cucumber,critical,D,50,cucumber42.jpg,cucumber60.jpg,high,NULL
1687287327,f6419ceba02b08057eb2b687bdd900e0,PennController,21,0,experiment,NULL,PennController,20,_Trial_,Start,1687287210827,615afde5191d9fec2d471954,615afde5191d9fec2d471954,18,ball,critical,D,75,ball65.jpg,ball85.jpg,high,NULL
1687287327,f6419ceba02b08057eb2b687bdd900e0,PennController,21,0,experiment,NULL,PennController,20,_Header_,Start,1687287210827,615afde5191d9fec2d471954,615afde5191d9fec2d471954,18,ball,critical,D,75,ball65.jpg,ball85.jpg,high,NULL
1687287327,f6419ceba02b08057eb2b687bdd900e0,PennController,21,0,experiment,NULL,PennController,20,_Header_,End,1687287210827,615afde5191d9fec2d471954,615afde5191d9fec2d471954,18,ball,critical,D,75,ball65.jpg,ball85.jpg,high,NULL
1687287327,f6419ceba02b08057eb2b687bdd900e0,PennController,21,0,experiment,NULL,Canvas,canvas6,Print,NA,1687287218535,615afde5191d9fec2d471954,615afde5191d9fec2d471954,18,ball,critical,D,75,ball65.jpg,ball85.jpg,high,NULL
1687287327,f6419ceba02b08057eb2b687bdd900e0,PennController,21,0,experiment,NULL,Video,progression,buffer,0.002874,1687287214354,615afde5191d9fec2d471954,615afde5191d9fec2d471954,18,ball,critical,D,75,ball65.jpg,ball85.jpg,high,NULL
1687287327,f6419ceba02b08057eb2b687bdd900e0,PennController,21,0,experiment,NULL,Selector,choice,Selection,option2,1687287219991,615afde5191d9fec2d471954,615afde5191d9fec2d471954,18,ball,critical,D,75,ball65.jpg,ball85.jpg,high,option2;option1
1687287327,f6419ceba02b08057eb2b687bdd900e0,PennController,21,0,experiment,NULL,PennController,20,_Trial_,End,1687287219992,615afde5191d9fec2d471954,615afde5191d9fec2d471954,18,ball,critical,D,75,ball65.jpg,ball85.jpg,high,NULL
1687287327,f6419ceba02b08057eb2b687bdd900e0,PennController,13,0,experiment,NULL,PennController,12,_Trial_,Start,1687287219993,615afde5191d9fec2d471954,615afde5191d9fec2d471954,10,train,critical,D,25,train15.jpg,train35.jpg,high,NULL
1687287327,f6419ceba02b08057eb2b687bdd900e0,PennController,13,0,experiment,NULL,PennController,12,_Header_,Start,1687287219993,615afde5191d9fec2d471954,615afde5191d9fec2d471954,10,train,critical,D,25,train15.jpg,train35.jpg,high,NULL
1687287327,f6419ceba02b08057eb2b687bdd900e0,PennController,13,0,experiment,NULL,PennController,12,_Header_,End,1687287219993,615afde5191d9fec2d471954,615afde5191d9fec2d471954,10,train,critical,D,25,train15.jpg,train35.jpg,high,NULL
1687287327,f6419ceba02b08057eb2b687bdd900e0,PennController,13,0,experiment,NULL,Canvas,canvas6,Print,NA,1687287225700,615afde5191d9fec2d471954,615afde5191d9fec2d471954,10,train,critical,D,25,train15.jpg,train35.jpg,high,NULL
1687287327,f6419ceba02b08057eb2b687bdd900e0,PennController,13,0,experiment,NULL,Video,progression,buffer,0.004989,1687287223524,615afde5191d9fec2d471954,615afde5191d9fec2d471954,10,train,critical,D,25,train15.jpg,train35.jpg,high,NULL
1687287327,f6419ceba02b08057eb2b687bdd900e0,PennController,13,0,experiment,NULL,Selector,choice,Selection,option2,1687287227625,615afde5191d9fec2d471954,615afde5191d9fec2d471954,10,train,critical,D,25,train15.jpg,train35.jpg,high,option1;option2
1687287327,f6419ceba02b08057eb2b687bdd900e0,PennController,13,0,experiment,NULL,PennController,12,_Trial_,End,1687287227627,615afde5191d9fec2d471954,615afde5191d9fec2d471954,10,train,critical,D,25,train15.jpg,train35.jpg,high,NULL
1687287327,f6419ceba02b08057eb2b687bdd900e0,PennController,29,0,experiment,NULL,PennController,28,_Trial_,Start,1687287227628,615afde5191d9fec2d471954,615afde5191d9fec2d471954,26,sandwich,filler,D,50,sandwich40.jpg,sandwich60.jpg,GoalA,NULL
1687287327,f6419ceba02b08057eb2b687bdd900e0,PennController,29,0,experiment,NULL,PennController,28,_Header_,Start,1687287227628,615afde5191d9fec2d471954,615afde5191d9fec2d471954,26,sandwich,filler,D,50,sandwich40.jpg,sandwich60.jpg,GoalA,NULL
1687287327,f6419ceba02b08057eb2b687bdd900e0,PennController,29,0,experiment,NULL,PennController,28,_Header_,End,1687287227628,615afde5191d9fec2d471954,615afde5191d9fec2d471954,26,sandwich,filler,D,50,sandwich40.jpg,sandwich60.jpg,GoalA,NULL
1687287327,f6419ceba02b08057eb2b687bdd900e0,PennController,29,0,experiment,NULL,Canvas,canvas6,Print,NA,1687287234335,615afde5191d9fec2d471954,615afde5191d9fec2d471954,26,sandwich,filler,D,50,sandwich40.jpg,sandwich60.jpg,GoalA,NULL
1687287327,f6419ceba02b08057eb2b687bdd900e0,PennController,29,0,experiment,NULL,Video,progression,buffer,0.004053,1687287231155,615afde5191d9fec2d471954,615afde5191d9fec2d471954,26,sandwich,filler,D,50,sandwich40.jpg,sandwich60.jpg,GoalA,NULL
1687287327,f6419ceba02b08057eb2b687bdd900e0,PennController,29,0,experiment,NULL,Selector,choice,Selection,option1,1687287235708,615afde5191d9fec2d471954,615afde5191d9fec2d471954,26,sandwich,filler,D,50,sandwich40.jpg,sandwich60.jpg,GoalA,option2;option1
1687287327,f6419ceba02b08057eb2b687bdd900e0,PennController,29,0,experiment,NULL,PennController,28,_Trial_,End,1687287235708,615afde5191d9fec2d471954,615afde5191d9fec2d471954,26,sandwich,filler,D,50,sandwich40.jpg,sandwich60.jpg,GoalA,NULL
1687287327,f6419ceba02b08057eb2b687bdd900e0,PennController,22,0,experiment,NULL,PennController,21,_Trial_,Start,1687287235710,615afde5191d9fec2d471954,615afde5191d9fec2d471954,19,cup,filler,D,25,cup15.jpg,cup35.jpg,GoalB,NULL
1687287327,f6419ceba02b08057eb2b687bdd900e0,PennController,22,0,experiment,NULL,PennController,21,_Header_,Start,1687287235710,615afde5191d9fec2d471954,615afde5191d9fec2d471954,19,cup,filler,D,25,cup15.jpg,cup35.jpg,GoalB,NULL
1687287327,f6419ceba02b08057eb2b687bdd900e0,PennController,22,0,experiment,NULL,PennController,21,_Header_,End,1687287235710,615afde5191d9fec2d471954,615afde5191d9fec2d471954,19,cup,filler,D,25,cup15.jpg,cup35.jpg,GoalB,NULL
1687287327,f6419ceba02b08057eb2b687bdd900e0,PennController,22,0,experiment,NULL,Canvas,canvas6,Print,NA,1687287241401,615afde5191d9fec2d471954,615afde5191d9fec2d471954,19,cup,filler,D,25,cup15.jpg,cup35.jpg,GoalB,NULL
1687287327,f6419ceba02b08057eb2b687bdd900e0,PennController,22,0,experiment,NULL,Video,progression,buffer,0.002228,1687287239236,615afde5191d9fec2d471954,615afde5191d9fec2d471954,19,cup,filler,D,25,cup15.jpg,cup35.jpg,GoalB,NULL
1687287327,f6419ceba02b08057eb2b687bdd900e0,PennController,22,0,experiment,NULL,Selector,choice,Selection,option2,1687287243975,615afde5191d9fec2d471954,615afde5191d9fec2d471954,19,cup,filler,D,25,cup15.jpg,cup35.jpg,GoalB,option2;option1
1687287327,f6419ceba02b08057eb2b687bdd900e0,PennController,22,0,experiment,NULL,PennController,21,_Trial_,End,1687287243977,615afde5191d9fec2d471954,615afde5191d9fec2d471954,19,cup,filler,D,25,cup15.jpg,cup35.jpg,GoalB,NULL
1687287327,f6419ceba02b08057eb2b687bdd900e0,PennController,7,0,experiment,NULL,PennController,6,_Trial_,Start,1687287243978,615afde5191d9fec2d471954,615afde5191d9fec2d471954,4,candy,critical,D,25,candy15.jpg,candy35.jpg,high,NULL
1687287327,f6419ceba02b08057eb2b687bdd900e0,PennController,7,0,experiment,NULL,PennController,6,_Header_,Start,1687287243978,615afde5191d9fec2d471954,615afde5191d9fec2d471954,4,candy,critical,D,25,candy15.jpg,candy35.jpg,high,NULL
1687287327,f6419ceba02b08057eb2b687bdd900e0,PennController,7,0,experiment,NULL,PennController,6,_Header_,End,1687287243978,615afde5191d9fec2d471954,615afde5191d9fec2d471954,4,candy,critical,D,25,candy15.jpg,candy35.jpg,high,NULL
1687287327,f6419ceba02b08057eb2b687bdd900e0,PennController,7,0,experiment,NULL,Canvas,canvas6,Print,NA,1687287249665,615afde5191d9fec2d471954,615afde5191d9fec2d471954,4,candy,critical,D,25,candy15.jpg,candy35.jpg,high,NULL
1687287327,f6419ceba02b08057eb2b687bdd900e0,PennController,7,0,experiment,NULL,Video,progression,buffer,0.002141,1687287247501,615afde5191d9fec2d471954,615afde5191d9fec2d471954,4,candy,critical,D,25,candy15.jpg,candy35.jpg,high,NULL
1687287327,f6419ceba02b08057eb2b687bdd900e0,PennController,7,0,experiment,NULL,Selector,choice,Selection,option1,1687287250809,615afde5191d9fec2d471954,615afde5191d9fec2d471954,4,candy,critical,D,25,candy15.jpg,candy35.jpg,high,option2;option1
1687287327,f6419ceba02b08057eb2b687bdd900e0,PennController,7,0,experiment,NULL,PennController,6,_Trial_,End,1687287250811,615afde5191d9fec2d471954,615afde5191d9fec2d471954,4,candy,critical,D,25,candy15.jpg,candy35.jpg,high,NULL
1687287327,f6419ceba02b08057eb2b687bdd900e0,PennController,16,0,experiment,NULL,PennController,15,_Trial_,Start,1687287250812,615afde5191d9fec2d471954,615afde5191d9fec2d471954,13,mix,critical,D,25,mix15.jpg,mix35.jpg,high,NULL
1687287327,f6419ceba02b08057eb2b687bdd900e0,PennController,16,0,experiment,NULL,PennController,15,_Header_,Start,1687287250812,615afde5191d9fec2d471954,615afde5191d9fec2d471954,13,mix,critical,D,25,mix15.jpg,mix35.jpg,high,NULL
1687287327,f6419ceba02b08057eb2b687bdd900e0,PennController,16,0,experiment,NULL,PennController,15,_Header_,End,1687287250812,615afde5191d9fec2d471954,615afde5191d9fec2d471954,13,mix,critical,D,25,mix15.jpg,mix35.jpg,high,NULL
1687287327,f6419ceba02b08057eb2b687bdd900e0,PennController,16,0,experiment,NULL,Canvas,canvas6,Print,NA,1687287256518,615afde5191d9fec2d471954,615afde5191d9fec2d471954,13,mix,critical,D,25,mix15.jpg,mix35.jpg,high,NULL
1687287327,f6419ceba02b08057eb2b687bdd900e0,PennController,16,0,experiment,NULL,Video,progression,buffer,0.003316,1687287254340,615afde5191d9fec2d471954,615afde5191d9fec2d471954,13,mix,critical,D,25,mix15.jpg,mix35.jpg,high,NULL
1687287327,f6419ceba02b08057eb2b687bdd900e0,PennController,16,0,experiment,NULL,Selector,choice,Selection,option2,1687287257841,615afde5191d9fec2d471954,615afde5191d9fec2d471954,13,mix,critical,D,25,mix15.jpg,mix35.jpg,high,option1;option2
1687287327,f6419ceba02b08057eb2b687bdd900e0,PennController,16,0,experiment,NULL,PennController,15,_Trial_,End,1687287257843,615afde5191d9fec2d471954,615afde5191d9fec2d471954,13,mix,critical,D,25,mix15.jpg,mix35.jpg,high,NULL
1687287327,f6419ceba02b08057eb2b687bdd900e0,PennController,32,0,experiment,NULL,PennController,31,_Trial_,Start,1687287257844,615afde5191d9fec2d471954,615afde5191d9fec2d471954,29,frog,filler,D,50,frog40.jpg,frog60.jpg,GoalB,NULL
1687287327,f6419ceba02b08057eb2b687bdd900e0,PennController,32,0,experiment,NULL,PennController,31,_Header_,Start,1687287257844,615afde5191d9fec2d471954,615afde5191d9fec2d471954,29,frog,filler,D,50,frog40.jpg,frog60.jpg,GoalB,NULL
1687287327,f6419ceba02b08057eb2b687bdd900e0,PennController,32,0,experiment,NULL,PennController,31,_Header_,End,1687287257844,615afde5191d9fec2d471954,615afde5191d9fec2d471954,29,frog,filler,D,50,frog40.jpg,frog60.jpg,GoalB,NULL
1687287327,f6419ceba02b08057eb2b687bdd900e0,PennController,32,0,experiment,NULL,Canvas,canvas6,Print,NA,1687287264534,615afde5191d9fec2d471954,615afde5191d9fec2d471954,29,frog,filler,D,50,frog40.jpg,frog60.jpg,GoalB,NULL
1687287327,f6419ceba02b08057eb2b687bdd900e0,PennController,32,0,experiment,NULL,Video,progression,buffer,0.0025,1687287261369,615afde5191d9fec2d471954,615afde5191d9fec2d471954,29,frog,filler,D,50,frog40.jpg,frog60.jpg,GoalB,NULL
1687287327,f6419ceba02b08057eb2b687bdd900e0,PennController,32,0,experiment,NULL,Selector,choice,Selection,option1,1687287265875,615afde5191d9fec2d471954,615afde5191d9fec2d471954,29,frog,filler,D,50,frog40.jpg,frog60.jpg,GoalB,option2;option1
1687287327,f6419ceba02b08057eb2b687bdd900e0,PennController,32,0,experiment,NULL,PennController,31,_Trial_,End,1687287265877,615afde5191d9fec2d471954,615afde5191d9fec2d471954,29,frog,filler,D,50,frog40.jpg,frog60.jpg,GoalB,NULL
1687287327,f6419ceba02b08057eb2b687bdd900e0,PennController,20,0,experiment,NULL,PennController,19,_Trial_,Start,1687287265878,615afde5191d9fec2d471954,615afde5191d9fec2d471954,17,roll,critical,D,50,roll40.jpg,roll60.jpg,high,NULL
1687287327,f6419ceba02b08057eb2b687bdd900e0,PennController,20,0,experiment,NULL,PennController,19,_Header_,Start,1687287265878,615afde5191d9fec2d471954,615afde5191d9fec2d471954,17,roll,critical,D,50,roll40.jpg,roll60.jpg,high,NULL
1687287327,f6419ceba02b08057eb2b687bdd900e0,PennController,20,0,experiment,NULL,PennController,19,_Header_,End,1687287265878,615afde5191d9fec2d471954,615afde5191d9fec2d471954,17,roll,critical,D,50,roll40.jpg,roll60.jpg,high,NULL
1687287327,f6419ceba02b08057eb2b687bdd900e0,PennController,20,0,experiment,NULL,Canvas,canvas6,Print,NA,1687287272568,615afde5191d9fec2d471954,615afde5191d9fec2d471954,17,roll,critical,D,50,roll40.jpg,roll60.jpg,high,NULL
1687287327,f6419ceba02b08057eb2b687bdd900e0,PennController,20,0,experiment,NULL,Video,progression,buffer,0.002753,1687287269403,615afde5191d9fec2d471954,615afde5191d9fec2d471954,17,roll,critical,D,50,roll40.jpg,roll60.jpg,high,NULL
1687287327,f6419ceba02b08057eb2b687bdd900e0,PennController,20,0,experiment,NULL,Selector,choice,Selection,option1,1687287274224,615afde5191d9fec2d471954,615afde5191d9fec2d471954,17,roll,critical,D,50,roll40.jpg,roll60.jpg,high,option1;option2
1687287327,f6419ceba02b08057eb2b687bdd900e0,PennController,20,0,experiment,NULL,PennController,19,_Trial_,End,1687287274225,615afde5191d9fec2d471954,615afde5191d9fec2d471954,17,roll,critical,D,50,roll40.jpg,roll60.jpg,high,NULL
1687287327,f6419ceba02b08057eb2b687bdd900e0,PennController,24,0,experiment,NULL,PennController,23,_Trial_,Start,1687287274227,615afde5191d9fec2d471954,615afde5191d9fec2d471954,21,visit,filler,D,75,visit65.jpg,visit85.jpg,GoalB,NULL
1687287327,f6419ceba02b08057eb2b687bdd900e0,PennController,24,0,experiment,NULL,PennController,23,_Header_,Start,1687287274227,615afde5191d9fec2d471954,615afde5191d9fec2d471954,21,visit,filler,D,75,visit65.jpg,visit85.jpg,GoalB,NULL
1687287327,f6419ceba02b08057eb2b687bdd900e0,PennController,24,0,experiment,NULL,PennController,23,_Header_,End,1687287274227,615afde5191d9fec2d471954,615afde5191d9fec2d471954,21,visit,filler,D,75,visit65.jpg,visit85.jpg,GoalB,NULL
1687287327,f6419ceba02b08057eb2b687bdd900e0,PennController,24,0,experiment,NULL,Canvas,canvas6,Print,NA,1687287281933,615afde5191d9fec2d471954,615afde5191d9fec2d471954,21,visit,filler,D,75,visit65.jpg,visit85.jpg,GoalB,NULL
1687287327,f6419ceba02b08057eb2b687bdd900e0,PennController,24,0,experiment,NULL,Video,progression,buffer,0.003442,1687287277755,615afde5191d9fec2d471954,615afde5191d9fec2d471954,21,visit,filler,D,75,visit65.jpg,visit85.jpg,GoalB,NULL
1687287327,f6419ceba02b08057eb2b687bdd900e0,PennController,24,0,experiment,NULL,Selector,choice,Selection,option2,1687287283141,615afde5191d9fec2d471954,615afde5191d9fec2d471954,21,visit,filler,D,75,visit65.jpg,visit85.jpg,GoalB,option2;option1
1687287327,f6419ceba02b08057eb2b687bdd900e0,PennController,24,0,experiment,NULL,PennController,23,_Trial_,End,1687287283144,615afde5191d9fec2d471954,615afde5191d9fec2d471954,21,visit,filler,D,75,visit65.jpg,visit85.jpg,GoalB,NULL
1687287327,f6419ceba02b08057eb2b687bdd900e0,PennController,23,0,experiment,NULL,PennController,22,_Trial_,Start,1687287283145,615afde5191d9fec2d471954,615afde5191d9fec2d471954,20,cat,filler,D,50,cat40.jpg,cat60.jpg,GoalA,NULL
1687287327,f6419ceba02b08057eb2b687bdd900e0,PennController,23,0,experiment,NULL,PennController,22,_Header_,Start,1687287283145,615afde5191d9fec2d471954,615afde5191d9fec2d471954,20,cat,filler,D,50,cat40.jpg,cat60.jpg,GoalA,NULL
1687287327,f6419ceba02b08057eb2b687bdd900e0,PennController,23,0,experiment,NULL,PennController,22,_Header_,End,1687287283145,615afde5191d9fec2d471954,615afde5191d9fec2d471954,20,cat,filler,D,50,cat40.jpg,cat60.jpg,GoalA,NULL
1687287327,f6419ceba02b08057eb2b687bdd900e0,PennController,23,0,experiment,NULL,Canvas,canvas6,Print,NA,1687287289850,615afde5191d9fec2d471954,615afde5191d9fec2d471954,20,cat,filler,D,50,cat40.jpg,cat60.jpg,GoalA,NULL
1687287327,f6419ceba02b08057eb2b687bdd900e0,PennController,23,0,experiment,NULL,Video,progression,buffer,0.003672,1687287286673,615afde5191d9fec2d471954,615afde5191d9fec2d471954,20,cat,filler,D,50,cat40.jpg,cat60.jpg,GoalA,NULL
1687287327,f6419ceba02b08057eb2b687bdd900e0,PennController,23,0,experiment,NULL,Selector,choice,Selection,option2,1687287290942,615afde5191d9fec2d471954,615afde5191d9fec2d471954,20,cat,filler,D,50,cat40.jpg,cat60.jpg,GoalA,option1;option2
1687287327,f6419ceba02b08057eb2b687bdd900e0,PennController,23,0,experiment,NULL,PennController,22,_Trial_,End,1687287290943,615afde5191d9fec2d471954,615afde5191d9fec2d471954,20,cat,filler,D,50,cat40.jpg,cat60.jpg,GoalA,NULL
1687287327,f6419ceba02b08057eb2b687bdd900e0,PennController,28,0,experiment,NULL,PennController,27,_Trial_,Start,1687287290944,615afde5191d9fec2d471954,615afde5191d9fec2d471954,25,house,filler,D,25,house15.jpg,house35.jpg,GoalB,NULL
1687287327,f6419ceba02b08057eb2b687bdd900e0,PennController,28,0,experiment,NULL,PennController,27,_Header_,Start,1687287290945,615afde5191d9fec2d471954,615afde5191d9fec2d471954,25,house,filler,D,25,house15.jpg,house35.jpg,GoalB,NULL
1687287327,f6419ceba02b08057eb2b687bdd900e0,PennController,28,0,experiment,NULL,PennController,27,_Header_,End,1687287290945,615afde5191d9fec2d471954,615afde5191d9fec2d471954,25,house,filler,D,25,house15.jpg,house35.jpg,GoalB,NULL
1687287327,f6419ceba02b08057eb2b687bdd900e0,PennController,28,0,experiment,NULL,Canvas,canvas6,Print,NA,1687287296651,615afde5191d9fec2d471954,615afde5191d9fec2d471954,25,house,filler,D,25,house15.jpg,house35.jpg,GoalB,NULL
1687287327,f6419ceba02b08057eb2b687bdd900e0,PennController,28,0,experiment,NULL,Video,progression,buffer,0.003267,1687287294473,615afde5191d9fec2d471954,615afde5191d9fec2d471954,25,house,filler,D,25,house15.jpg,house35.jpg,GoalB,NULL
1687287327,f6419ceba02b08057eb2b687bdd900e0,PennController,28,0,experiment,NULL,Selector,choice,Selection,option2,1687287298058,615afde5191d9fec2d471954,615afde5191d9fec2d471954,25,house,filler,D,25,house15.jpg,house35.jpg,GoalB,option2;option1
1687287327,f6419ceba02b08057eb2b687bdd900e0,PennController,28,0,experiment,NULL,PennController,27,_Trial_,End,1687287298060,615afde5191d9fec2d471954,615afde5191d9fec2d471954,25,house,filler,D,25,house15.jpg,house35.jpg,GoalB,NULL
1687287327,f6419ceba02b08057eb2b687bdd900e0,PennController,4,0,experiment,NULL,PennController,3,_Trial_,Start,1687287298061,615afde5191d9fec2d471954,615afde5191d9fec2d471954,1,vase,critical,D,25,vase15.jpg,vase35.jpg,high,NULL
1687287327,f6419ceba02b08057eb2b687bdd900e0,PennController,4,0,experiment,NULL,PennController,3,_Header_,Start,1687287298061,615afde5191d9fec2d471954,615afde5191d9fec2d471954,1,vase,critical,D,25,vase15.jpg,vase35.jpg,high,NULL
1687287327,f6419ceba02b08057eb2b687bdd900e0,PennController,4,0,experiment,NULL,PennController,3,_Header_,End,1687287298061,615afde5191d9fec2d471954,615afde5191d9fec2d471954,1,vase,critical,D,25,vase15.jpg,vase35.jpg,high,NULL
1687287327,f6419ceba02b08057eb2b687bdd900e0,PennController,4,0,experiment,NULL,Canvas,canvas6,Print,NA,1687287303751,615afde5191d9fec2d471954,615afde5191d9fec2d471954,1,vase,critical,D,25,vase15.jpg,vase35.jpg,high,NULL
1687287327,f6419ceba02b08057eb2b687bdd900e0,PennController,4,0,experiment,NULL,Video,progression,buffer,0.001108,1687287301582,615afde5191d9fec2d471954,615afde5191d9fec2d471954,1,vase,critical,D,25,vase15.jpg,vase35.jpg,high,NULL
1687287327,f6419ceba02b08057eb2b687bdd900e0,PennController,4,0,experiment,NULL,Selector,choice,Selection,option2,1687287306391,615afde5191d9fec2d471954,615afde5191d9fec2d471954,1,vase,critical,D,25,vase15.jpg,vase35.jpg,high,option1;option2
1687287327,f6419ceba02b08057eb2b687bdd900e0,PennController,4,0,experiment,NULL,PennController,3,_Trial_,End,1687287306393,615afde5191d9fec2d471954,615afde5191d9fec2d471954,1,vase,critical,D,25,vase15.jpg,vase35.jpg,high,NULL
1687287327,f6419ceba02b08057eb2b687bdd900e0,PennController,26,0,experiment,NULL,PennController,25,_Trial_,Start,1687287306395,615afde5191d9fec2d471954,615afde5191d9fec2d471954,23,color,filler,D,50,color40.jpg,color60.jpg,GoalB,NULL
1687287327,f6419ceba02b08057eb2b687bdd900e0,PennController,26,0,experiment,NULL,PennController,25,_Header_,Start,1687287306395,615afde5191d9fec2d471954,615afde5191d9fec2d471954,23,color,filler,D,50,color40.jpg,color60.jpg,GoalB,NULL
1687287327,f6419ceba02b08057eb2b687bdd900e0,PennController,26,0,experiment,NULL,PennController,25,_Header_,End,1687287306395,615afde5191d9fec2d471954,615afde5191d9fec2d471954,23,color,filler,D,50,color40.jpg,color60.jpg,GoalB,NULL
1687287327,f6419ceba02b08057eb2b687bdd900e0,PennController,26,0,experiment,NULL,Canvas,canvas6,Print,NA,1687287313098,615afde5191d9fec2d471954,615afde5191d9fec2d471954,23,color,filler,D,50,color40.jpg,color60.jpg,GoalB,NULL
1687287327,f6419ceba02b08057eb2b687bdd900e0,PennController,26,0,experiment,NULL,Video,progression,buffer,0.003393,1687287309922,615afde5191d9fec2d471954,615afde5191d9fec2d471954,23,color,filler,D,50,color40.jpg,color60.jpg,GoalB,NULL
1687287327,f6419ceba02b08057eb2b687bdd900e0,PennController,26,0,experiment,NULL,Selector,choice,Selection,option2,1687287314374,615afde5191d9fec2d471954,615afde5191d9fec2d471954,23,color,filler,D,50,color40.jpg,color60.jpg,GoalB,option1;option2
1687287327,f6419ceba02b08057eb2b687bdd900e0,PennController,26,0,experiment,NULL,PennController,25,_Trial_,End,1687287314376,615afde5191d9fec2d471954,615afde5191d9fec2d471954,23,color,filler,D,50,color40.jpg,color60.jpg,GoalB,NULL
1687287327,f6419ceba02b08057eb2b687bdd900e0,PennController,12,0,experiment,NULL,PennController,11,_Trial_,Start,1687287314378,615afde5191d9fec2d471954,615afde5191d9fec2d471954,9,cake,critical,D,75,cake66.jpg,cake84.jpg,high,NULL
1687287327,f6419ceba02b08057eb2b687bdd900e0,PennController,12,0,experiment,NULL,PennController,11,_Header_,Start,1687287314378,615afde5191d9fec2d471954,615afde5191d9fec2d471954,9,cake,critical,D,75,cake66.jpg,cake84.jpg,high,NULL
1687287327,f6419ceba02b08057eb2b687bdd900e0,PennController,12,0,experiment,NULL,PennController,11,_Header_,End,1687287314378,615afde5191d9fec2d471954,615afde5191d9fec2d471954,9,cake,critical,D,75,cake66.jpg,cake84.jpg,high,NULL
1687287327,f6419ceba02b08057eb2b687bdd900e0,PennController,12,0,experiment,NULL,Canvas,canvas6,Print,NA,1687287324068,615afde5191d9fec2d471954,615afde5191d9fec2d471954,9,cake,critical,D,75,cake66.jpg,cake84.jpg,high,NULL
1687287327,f6419ceba02b08057eb2b687bdd900e0,PennController,12,0,experiment,NULL,Video,progression,buffer,0.00259,1687287317903,615afde5191d9fec2d471954,615afde5191d9fec2d471954,9,cake,critical,D,75,cake66.jpg,cake84.jpg,high,NULL
1687287327,f6419ceba02b08057eb2b687bdd900e0,PennController,12,0,experiment,NULL,Selector,choice,Selection,option2,1687287325525,615afde5191d9fec2d471954,615afde5191d9fec2d471954,9,cake,critical,D,75,cake66.jpg,cake84.jpg,high,option2;option1
1687287327,f6419ceba02b08057eb2b687bdd900e0,PennController,12,0,experiment,NULL,PennController,11,_Trial_,End,1687287325526,615afde5191d9fec2d471954,615afde5191d9fec2d471954,9,cake,critical,D,75,cake66.jpg,cake84.jpg,high,NULL
