#
# Results on Tuesday June 20 2023 18:57:13 UTC
# USER AGENT: Mozilla/5.0 (Windows NT 6.1; Win64; x64) AppleWebKit/537.36 (KHTML, like Gecko) Chrome/109.0.0.0 Safari/537.36 OPR/95.0.0.0
# Design number was non-random = 3
#
# Columns below this comment are as follows:
# 1. Results reception time.
# 2. MD5 hash of participant's IP address.
# 3. Controller name.
# 4. Order number of item.
# 5. Inner element number.
# 6. Label.
# 7. Latin Square Group.
# 8. PennElementType.
# 9. PennElementName.
# 10. Parameter.
# 11. Value.
# 12. EventTime.
# 13. PROLIFIC_ID.
# 14. Comments.
1687287433,4bfde525e5c69f5c8b36a9a92a54440c,PennController,2,0,consent,NULL,PennController,0,_Trial_,Start,1687287084352,5ce43a8af5f5b00015477c7f,NULL
1687287433,4bfde525e5c69f5c8b36a9a92a54440c,PennController,2,0,consent,NULL,PennController,0,_Header_,Start,1687287084352,5ce43a8af5f5b00015477c7f,NULL
1687287433,4bfde525e5c69f5c8b36a9a92a54440c,PennController,2,0,consent,NULL,PennController,0,_Header_,End,1687287084352,5ce43a8af5f5b00015477c7f,NULL
1687287433,4bfde525e5c69f5c8b36a9a92a54440c,PennController,2,0,consent,NULL,PennController,0,_Trial_,End,1687287119127,5ce43a8af5f5b00015477c7f,NULL
# Columns below this comment are as follows:
# 14. ID.
# 15. Comments.
1687287433,4bfde525e5c69f5c8b36a9a92a54440c,PennController,3,0,intro,NULL,PennController,1,_Trial_,Start,1687287119134,5ce43a8af5f5b00015477c7f,5ce43a8af5f5b00015477c7f,NULL
1687287433,4bfde525e5c69f5c8b36a9a92a54440c,PennController,3,0,intro,NULL,PennController,1,_Header_,Start,1687287119134,5ce43a8af5f5b00015477c7f,5ce43a8af5f5b00015477c7f,NULL
1687287433,4bfde525e5c69f5c8b36a9a92a54440c,PennController,3,0,intro,NULL,PennController,1,_Header_,End,1687287119134,5ce43a8af5f5b00015477c7f,5ce43a8af5f5b00015477c7f,NULL
1687287433,4bfde525e5c69f5c8b36a9a92a54440c,PennController,3,0,intro,NULL,PennController,1,_Trial_,End,1687287125220,5ce43a8af5f5b00015477c7f,5ce43a8af5f5b00015477c7f,NULL
# Columns below this comment are as follows:
# 15. item_number.
# 16. item.
# 17. type.
# 18. Group.
# 19. prog.
# 20. prev_image.
# 21. next_image.
# 22. height.
# 23. Comments.
1687287433,4bfde525e5c69f5c8b36a9a92a54440c,PennController,10,0,experiment,NULL,PennController,9,_Trial_,Start,1687287125223,5ce43a8af5f5b00015477c7f,5ce43a8af5f5b00015477c7f,7,stack,critical,D,25,stack15.jpg,stack35.jpg,high,NULL
1687287433,4bfde525e5c69f5c8b36a9a92a54440c,PennController,10,0,experiment,NULL,PennController,9,_Header_,Start,1687287125223,5ce43a8af5f5b00015477c7f,5ce43a8af5f5b00015477c7f,7,stack,critical,D,25,stack15.jpg,stack35.jpg,high,NULL
1687287433,4bfde525e5c69f5c8b36a9a92a54440c,PennController,10,0,experiment,NULL,PennController,9,_Header_,End,1687287125223,5ce43a8af5f5b00015477c7f,5ce43a8af5f5b00015477c7f,7,stack,critical,D,25,stack15.jpg,stack35.jpg,high,NULL
1687287433,4bfde525e5c69f5c8b36a9a92a54440c,PennController,10,0,experiment,NULL,Canvas,canvas6,Print,NA,1687287130964,5ce43a8af5f5b00015477c7f,5ce43a8af5f5b00015477c7f,7,stack,critical,D,25,stack15.jpg,stack35.jpg,high,NULL
1687287433,4bfde525e5c69f5c8b36a9a92a54440c,PennController,10,0,experiment,NULL,Video,progression,buffer,0.014,1687287128793,5ce43a8af5f5b00015477c7f,5ce43a8af5f5b00015477c7f,7,stack,critical,D,25,stack15.jpg,stack35.jpg,high,NULL
1687287433,4bfde525e5c69f5c8b36a9a92a54440c,PennController,10,0,experiment,NULL,Selector,choice,Selection,option1,1687287136085,5ce43a8af5f5b00015477c7f,5ce43a8af5f5b00015477c7f,7,stack,critical,D,25,stack15.jpg,stack35.jpg,high,option1;option2
1687287433,4bfde525e5c69f5c8b36a9a92a54440c,PennController,10,0,experiment,NULL,PennController,9,_Trial_,End,1687287136090,5ce43a8af5f5b00015477c7f,5ce43a8af5f5b00015477c7f,7,stack,critical,D,25,stack15.jpg,stack35.jpg,high,NULL
1687287433,4bfde525e5c69f5c8b36a9a92a54440c,PennController,25,0,experiment,NULL,PennController,24,_Trial_,Start,1687287136092,5ce43a8af5f5b00015477c7f,5ce43a8af5f5b00015477c7f,22,wall,filler,D,25,wall15.jpg,wall35.jpg,GoalA,NULL
1687287433,4bfde525e5c69f5c8b36a9a92a54440c,PennController,25,0,experiment,NULL,PennController,24,_Header_,Start,1687287136092,5ce43a8af5f5b00015477c7f,5ce43a8af5f5b00015477c7f,22,wall,filler,D,25,wall15.jpg,wall35.jpg,GoalA,NULL
1687287433,4bfde525e5c69f5c8b36a9a92a54440c,PennController,25,0,experiment,NULL,PennController,24,_Header_,End,1687287136093,5ce43a8af5f5b00015477c7f,5ce43a8af5f5b00015477c7f,22,wall,filler,D,25,wall15.jpg,wall35.jpg,GoalA,NULL
1687287433,4bfde525e5c69f5c8b36a9a92a54440c,PennController,25,0,experiment,NULL,Canvas,canvas6,Print,NA,1687287141792,5ce43a8af5f5b00015477c7f,5ce43a8af5f5b00015477c7f,22,wall,filler,D,25,wall15.jpg,wall35.jpg,GoalA,NULL
1687287433,4bfde525e5c69f5c8b36a9a92a54440c,PennController,25,0,experiment,NULL,Video,progression,buffer,0.006,1687287139632,5ce43a8af5f5b00015477c7f,5ce43a8af5f5b00015477c7f,22,wall,filler,D,25,wall15.jpg,wall35.jpg,GoalA,NULL
1687287433,4bfde525e5c69f5c8b36a9a92a54440c,PennController,25,0,experiment,NULL,Selector,choice,Selection,option1,1687287148225,5ce43a8af5f5b00015477c7f,5ce43a8af5f5b00015477c7f,22,wall,filler,D,25,wall15.jpg,wall35.jpg,GoalA,option1;option2
1687287433,4bfde525e5c69f5c8b36a9a92a54440c,PennController,25,0,experiment,NULL,PennController,24,_Trial_,End,1687287148227,5ce43a8af5f5b00015477c7f,5ce43a8af5f5b00015477c7f,22,wall,filler,D,25,wall15.jpg,wall35.jpg,GoalA,NULL
1687287433,4bfde525e5c69f5c8b36a9a92a54440c,PennController,9,0,experiment,NULL,PennController,8,_Trial_,Start,1687287148230,5ce43a8af5f5b00015477c7f,5ce43a8af5f5b00015477c7f,6,flower,critical,D,75,flower65.jpg,flower85.jpg,high,NULL
1687287433,4bfde525e5c69f5c8b36a9a92a54440c,PennController,9,0,experiment,NULL,PennController,8,_Header_,Start,1687287148230,5ce43a8af5f5b00015477c7f,5ce43a8af5f5b00015477c7f,6,flower,critical,D,75,flower65.jpg,flower85.jpg,high,NULL
1687287433,4bfde525e5c69f5c8b36a9a92a54440c,PennController,9,0,experiment,NULL,PennController,8,_Header_,End,1687287148230,5ce43a8af5f5b00015477c7f,5ce43a8af5f5b00015477c7f,6,flower,critical,D,75,flower65.jpg,flower85.jpg,high,NULL
1687287433,4bfde525e5c69f5c8b36a9a92a54440c,PennController,9,0,experiment,NULL,Canvas,canvas6,Print,NA,1687287155941,5ce43a8af5f5b00015477c7f,5ce43a8af5f5b00015477c7f,6,flower,critical,D,75,flower65.jpg,flower85.jpg,high,NULL
1687287433,4bfde525e5c69f5c8b36a9a92a54440c,PennController,9,0,experiment,NULL,Video,progression,buffer,0.008,1687287151772,5ce43a8af5f5b00015477c7f,5ce43a8af5f5b00015477c7f,6,flower,critical,D,75,flower65.jpg,flower85.jpg,high,NULL
1687287433,4bfde525e5c69f5c8b36a9a92a54440c,PennController,9,0,experiment,NULL,Selector,choice,Selection,option1,1687287162856,5ce43a8af5f5b00015477c7f,5ce43a8af5f5b00015477c7f,6,flower,critical,D,75,flower65.jpg,flower85.jpg,high,option1;option2
1687287433,4bfde525e5c69f5c8b36a9a92a54440c,PennController,9,0,experiment,NULL,PennController,8,_Trial_,End,1687287162859,5ce43a8af5f5b00015477c7f,5ce43a8af5f5b00015477c7f,6,flower,critical,D,75,flower65.jpg,flower85.jpg,high,NULL
1687287433,4bfde525e5c69f5c8b36a9a92a54440c,PennController,17,0,experiment,NULL,PennController,16,_Trial_,Start,1687287162861,5ce43a8af5f5b00015477c7f,5ce43a8af5f5b00015477c7f,14,cover,critical,D,50,cover42.jpg,cover60.jpg,high,NULL
1687287433,4bfde525e5c69f5c8b36a9a92a54440c,PennController,17,0,experiment,NULL,PennController,16,_Header_,Start,1687287162861,5ce43a8af5f5b00015477c7f,5ce43a8af5f5b00015477c7f,14,cover,critical,D,50,cover42.jpg,cover60.jpg,high,NULL
1687287433,4bfde525e5c69f5c8b36a9a92a54440c,PennController,17,0,experiment,NULL,PennController,16,_Header_,End,1687287162862,5ce43a8af5f5b00015477c7f,5ce43a8af5f5b00015477c7f,14,cover,critical,D,50,cover42.jpg,cover60.jpg,high,NULL
1687287433,4bfde525e5c69f5c8b36a9a92a54440c,PennController,17,0,experiment,NULL,Canvas,canvas6,Print,NA,1687287170975,5ce43a8af5f5b00015477c7f,5ce43a8af5f5b00015477c7f,14,cover,critical,D,50,cover42.jpg,cover60.jpg,high,NULL
1687287433,4bfde525e5c69f5c8b36a9a92a54440c,PennController,17,0,experiment,NULL,Video,progression,buffer,0.007,1687287166401,5ce43a8af5f5b00015477c7f,5ce43a8af5f5b00015477c7f,14,cover,critical,D,50,cover42.jpg,cover60.jpg,high,NULL
1687287433,4bfde525e5c69f5c8b36a9a92a54440c,PennController,17,0,experiment,NULL,Selector,choice,Selection,option1,1687287175352,5ce43a8af5f5b00015477c7f,5ce43a8af5f5b00015477c7f,14,cover,critical,D,50,cover42.jpg,cover60.jpg,high,option2;option1
1687287433,4bfde525e5c69f5c8b36a9a92a54440c,PennController,17,0,experiment,NULL,PennController,16,_Trial_,End,1687287175355,5ce43a8af5f5b00015477c7f,5ce43a8af5f5b00015477c7f,14,cover,critical,D,50,cover42.jpg,cover60.jpg,high,NULL
1687287433,4bfde525e5c69f5c8b36a9a92a54440c,PennController,11,0,experiment,NULL,PennController,10,_Trial_,Start,1687287175359,5ce43a8af5f5b00015477c7f,5ce43a8af5f5b00015477c7f,8,cucumber,critical,D,50,cucumber42.jpg,cucumber60.jpg,high,NULL
1687287433,4bfde525e5c69f5c8b36a9a92a54440c,PennController,11,0,experiment,NULL,PennController,10,_Header_,Start,1687287175359,5ce43a8af5f5b00015477c7f,5ce43a8af5f5b00015477c7f,8,cucumber,critical,D,50,cucumber42.jpg,cucumber60.jpg,high,NULL
1687287433,4bfde525e5c69f5c8b36a9a92a54440c,PennController,11,0,experiment,NULL,PennController,10,_Header_,End,1687287175359,5ce43a8af5f5b00015477c7f,5ce43a8af5f5b00015477c7f,8,cucumber,critical,D,50,cucumber42.jpg,cucumber60.jpg,high,NULL
1687287433,4bfde525e5c69f5c8b36a9a92a54440c,PennController,11,0,experiment,NULL,Canvas,canvas6,Print,NA,1687287183458,5ce43a8af5f5b00015477c7f,5ce43a8af5f5b00015477c7f,8,cucumber,critical,D,50,cucumber42.jpg,cucumber60.jpg,high,NULL
1687287433,4bfde525e5c69f5c8b36a9a92a54440c,PennController,11,0,experiment,NULL,Video,progression,buffer,0.009,1687287178890,5ce43a8af5f5b00015477c7f,5ce43a8af5f5b00015477c7f,8,cucumber,critical,D,50,cucumber42.jpg,cucumber60.jpg,high,NULL
1687287433,4bfde525e5c69f5c8b36a9a92a54440c,PennController,11,0,experiment,NULL,Selector,choice,Selection,option1,1687287186097,5ce43a8af5f5b00015477c7f,5ce43a8af5f5b00015477c7f,8,cucumber,critical,D,50,cucumber42.jpg,cucumber60.jpg,high,option1;option2
1687287433,4bfde525e5c69f5c8b36a9a92a54440c,PennController,11,0,experiment,NULL,PennController,10,_Trial_,End,1687287186102,5ce43a8af5f5b00015477c7f,5ce43a8af5f5b00015477c7f,8,cucumber,critical,D,50,cucumber42.jpg,cucumber60.jpg,high,NULL
1687287433,4bfde525e5c69f5c8b36a9a92a54440c,PennController,23,0,experiment,NULL,PennController,22,_Trial_,Start,1687287186105,5ce43a8af5f5b00015477c7f,5ce43a8af5f5b00015477c7f,20,cat,filler,D,50,cat40.jpg,cat60.jpg,GoalA,NULL
1687287433,4bfde525e5c69f5c8b36a9a92a54440c,PennController,23,0,experiment,NULL,PennController,22,_Header_,Start,1687287186105,5ce43a8af5f5b00015477c7f,5ce43a8af5f5b00015477c7f,20,cat,filler,D,50,cat40.jpg,cat60.jpg,GoalA,NULL
1687287433,4bfde525e5c69f5c8b36a9a92a54440c,PennController,23,0,experiment,NULL,PennController,22,_Header_,End,1687287186106,5ce43a8af5f5b00015477c7f,5ce43a8af5f5b00015477c7f,20,cat,filler,D,50,cat40.jpg,cat60.jpg,GoalA,NULL
1687287433,4bfde525e5c69f5c8b36a9a92a54440c,PennController,23,0,experiment,NULL,Canvas,canvas6,Print,NA,1687287192858,5ce43a8af5f5b00015477c7f,5ce43a8af5f5b00015477c7f,20,cat,filler,D,50,cat40.jpg,cat60.jpg,GoalA,NULL
1687287433,4bfde525e5c69f5c8b36a9a92a54440c,PennController,23,0,experiment,NULL,Video,progression,buffer,0,1687287189653,5ce43a8af5f5b00015477c7f,5ce43a8af5f5b00015477c7f,20,cat,filler,D,50,cat40.jpg,cat60.jpg,GoalA,NULL
1687287433,4bfde525e5c69f5c8b36a9a92a54440c,PennController,23,0,experiment,NULL,Selector,choice,Selection,option2,1687287197568,5ce43a8af5f5b00015477c7f,5ce43a8af5f5b00015477c7f,20,cat,filler,D,50,cat40.jpg,cat60.jpg,GoalA,option1;option2
1687287433,4bfde525e5c69f5c8b36a9a92a54440c,PennController,23,0,experiment,NULL,PennController,22,_Trial_,End,1687287197571,5ce43a8af5f5b00015477c7f,5ce43a8af5f5b00015477c7f,20,cat,filler,D,50,cat40.jpg,cat60.jpg,GoalA,NULL
1687287433,4bfde525e5c69f5c8b36a9a92a54440c,PennController,8,0,experiment,NULL,PennController,7,_Trial_,Start,1687287197573,5ce43a8af5f5b00015477c7f,5ce43a8af5f5b00015477c7f,5,book,critical,D,50,book40.jpg,book60.jpg,high,NULL
1687287433,4bfde525e5c69f5c8b36a9a92a54440c,PennController,8,0,experiment,NULL,PennController,7,_Header_,Start,1687287197573,5ce43a8af5f5b00015477c7f,5ce43a8af5f5b00015477c7f,5,book,critical,D,50,book40.jpg,book60.jpg,high,NULL
1687287433,4bfde525e5c69f5c8b36a9a92a54440c,PennController,8,0,experiment,NULL,PennController,7,_Header_,End,1687287197573,5ce43a8af5f5b00015477c7f,5ce43a8af5f5b00015477c7f,5,book,critical,D,50,book40.jpg,book60.jpg,high,NULL
1687287433,4bfde525e5c69f5c8b36a9a92a54440c,PennController,8,0,experiment,NULL,Canvas,canvas6,Print,NA,1687287204273,5ce43a8af5f5b00015477c7f,5ce43a8af5f5b00015477c7f,5,book,critical,D,50,book40.jpg,book60.jpg,high,NULL
1687287433,4bfde525e5c69f5c8b36a9a92a54440c,PennController,8,0,experiment,NULL,Video,progression,buffer,0.008,1687287201107,5ce43a8af5f5b00015477c7f,5ce43a8af5f5b00015477c7f,5,book,critical,D,50,book40.jpg,book60.jpg,high,NULL
1687287433,4bfde525e5c69f5c8b36a9a92a54440c,PennController,8,0,experiment,NULL,Selector,choice,Selection,option2,1687287208256,5ce43a8af5f5b00015477c7f,5ce43a8af5f5b00015477c7f,5,book,critical,D,50,book40.jpg,book60.jpg,high,option2;option1
1687287433,4bfde525e5c69f5c8b36a9a92a54440c,PennController,8,0,experiment,NULL,PennController,7,_Trial_,End,1687287208258,5ce43a8af5f5b00015477c7f,5ce43a8af5f5b00015477c7f,5,book,critical,D,50,book40.jpg,book60.jpg,high,NULL
1687287433,4bfde525e5c69f5c8b36a9a92a54440c,PennController,4,0,experiment,NULL,PennController,3,_Trial_,Start,1687287208260,5ce43a8af5f5b00015477c7f,5ce43a8af5f5b00015477c7f,1,vase,critical,D,25,vase15.jpg,vase35.jpg,high,NULL
1687287433,4bfde525e5c69f5c8b36a9a92a54440c,PennController,4,0,experiment,NULL,PennController,3,_Header_,Start,1687287208260,5ce43a8af5f5b00015477c7f,5ce43a8af5f5b00015477c7f,1,vase,critical,D,25,vase15.jpg,vase35.jpg,high,NULL
1687287433,4bfde525e5c69f5c8b36a9a92a54440c,PennController,4,0,experiment,NULL,PennController,3,_Header_,End,1687287208260,5ce43a8af5f5b00015477c7f,5ce43a8af5f5b00015477c7f,1,vase,critical,D,25,vase15.jpg,vase35.jpg,high,NULL
1687287433,4bfde525e5c69f5c8b36a9a92a54440c,PennController,4,0,experiment,NULL,Canvas,canvas6,Print,NA,1687287213962,5ce43a8af5f5b00015477c7f,5ce43a8af5f5b00015477c7f,1,vase,critical,D,25,vase15.jpg,vase35.jpg,high,NULL
1687287433,4bfde525e5c69f5c8b36a9a92a54440c,PennController,4,0,experiment,NULL,Video,progression,buffer,0.009,1687287211790,5ce43a8af5f5b00015477c7f,5ce43a8af5f5b00015477c7f,1,vase,critical,D,25,vase15.jpg,vase35.jpg,high,NULL
1687287433,4bfde525e5c69f5c8b36a9a92a54440c,PennController,4,0,experiment,NULL,Selector,choice,Selection,option1,1687287219313,5ce43a8af5f5b00015477c7f,5ce43a8af5f5b00015477c7f,1,vase,critical,D,25,vase15.jpg,vase35.jpg,high,option1;option2
1687287433,4bfde525e5c69f5c8b36a9a92a54440c,PennController,4,0,experiment,NULL,PennController,3,_Trial_,End,1687287219316,5ce43a8af5f5b00015477c7f,5ce43a8af5f5b00015477c7f,1,vase,critical,D,25,vase15.jpg,vase35.jpg,high,NULL
1687287433,4bfde525e5c69f5c8b36a9a92a54440c,PennController,29,0,experiment,NULL,PennController,28,_Trial_,Start,1687287219318,5ce43a8af5f5b00015477c7f,5ce43a8af5f5b00015477c7f,26,sandwich,filler,D,50,sandwich40.jpg,sandwich60.jpg,GoalA,NULL
1687287433,4bfde525e5c69f5c8b36a9a92a54440c,PennController,29,0,experiment,NULL,PennController,28,_Header_,Start,1687287219318,5ce43a8af5f5b00015477c7f,5ce43a8af5f5b00015477c7f,26,sandwich,filler,D,50,sandwich40.jpg,sandwich60.jpg,GoalA,NULL
1687287433,4bfde525e5c69f5c8b36a9a92a54440c,PennController,29,0,experiment,NULL,PennController,28,_Header_,End,1687287219318,5ce43a8af5f5b00015477c7f,5ce43a8af5f5b00015477c7f,26,sandwich,filler,D,50,sandwich40.jpg,sandwich60.jpg,GoalA,NULL
1687287433,4bfde525e5c69f5c8b36a9a92a54440c,PennController,29,0,experiment,NULL,Canvas,canvas6,Print,NA,1687287226026,5ce43a8af5f5b00015477c7f,5ce43a8af5f5b00015477c7f,26,sandwich,filler,D,50,sandwich40.jpg,sandwich60.jpg,GoalA,NULL
1687287433,4bfde525e5c69f5c8b36a9a92a54440c,PennController,29,0,experiment,NULL,Video,progression,buffer,0.008,1687287222861,5ce43a8af5f5b00015477c7f,5ce43a8af5f5b00015477c7f,26,sandwich,filler,D,50,sandwich40.jpg,sandwich60.jpg,GoalA,NULL
1687287433,4bfde525e5c69f5c8b36a9a92a54440c,PennController,29,0,experiment,NULL,Selector,choice,Selection,option1,1687287229361,5ce43a8af5f5b00015477c7f,5ce43a8af5f5b00015477c7f,26,sandwich,filler,D,50,sandwich40.jpg,sandwich60.jpg,GoalA,option1;option2
1687287433,4bfde525e5c69f5c8b36a9a92a54440c,PennController,29,0,experiment,NULL,PennController,28,_Trial_,End,1687287229364,5ce43a8af5f5b00015477c7f,5ce43a8af5f5b00015477c7f,26,sandwich,filler,D,50,sandwich40.jpg,sandwich60.jpg,GoalA,NULL
1687287433,4bfde525e5c69f5c8b36a9a92a54440c,PennController,30,0,experiment,NULL,PennController,29,_Trial_,Start,1687287229368,5ce43a8af5f5b00015477c7f,5ce43a8af5f5b00015477c7f,27,square,filler,D,75,square65.jpg,square85.jpg,GoalB,NULL
1687287433,4bfde525e5c69f5c8b36a9a92a54440c,PennController,30,0,experiment,NULL,PennController,29,_Header_,Start,1687287229368,5ce43a8af5f5b00015477c7f,5ce43a8af5f5b00015477c7f,27,square,filler,D,75,square65.jpg,square85.jpg,GoalB,NULL
1687287433,4bfde525e5c69f5c8b36a9a92a54440c,PennController,30,0,experiment,NULL,PennController,29,_Header_,End,1687287229368,5ce43a8af5f5b00015477c7f,5ce43a8af5f5b00015477c7f,27,square,filler,D,75,square65.jpg,square85.jpg,GoalB,NULL
1687287433,4bfde525e5c69f5c8b36a9a92a54440c,PennController,30,0,experiment,NULL,Canvas,canvas6,Print,NA,1687287237111,5ce43a8af5f5b00015477c7f,5ce43a8af5f5b00015477c7f,27,square,filler,D,75,square65.jpg,square85.jpg,GoalB,NULL
1687287433,4bfde525e5c69f5c8b36a9a92a54440c,PennController,30,0,experiment,NULL,Video,progression,buffer,0.012,1687287232912,5ce43a8af5f5b00015477c7f,5ce43a8af5f5b00015477c7f,27,square,filler,D,75,square65.jpg,square85.jpg,GoalB,NULL
1687287433,4bfde525e5c69f5c8b36a9a92a54440c,PennController,30,0,experiment,NULL,Selector,choice,Selection,option2,1687287240600,5ce43a8af5f5b00015477c7f,5ce43a8af5f5b00015477c7f,27,square,filler,D,75,square65.jpg,square85.jpg,GoalB,option2;option1
1687287433,4bfde525e5c69f5c8b36a9a92a54440c,PennController,30,0,experiment,NULL,PennController,29,_Trial_,End,1687287240603,5ce43a8af5f5b00015477c7f,5ce43a8af5f5b00015477c7f,27,square,filler,D,75,square65.jpg,square85.jpg,GoalB,NULL
1687287433,4bfde525e5c69f5c8b36a9a92a54440c,PennController,15,0,experiment,NULL,PennController,14,_Trial_,Start,1687287240607,5ce43a8af5f5b00015477c7f,5ce43a8af5f5b00015477c7f,12,erase,critical,D,75,erase66.jpg,erase84.jpg,high,NULL
1687287433,4bfde525e5c69f5c8b36a9a92a54440c,PennController,15,0,experiment,NULL,PennController,14,_Header_,Start,1687287240607,5ce43a8af5f5b00015477c7f,5ce43a8af5f5b00015477c7f,12,erase,critical,D,75,erase66.jpg,erase84.jpg,high,NULL
1687287433,4bfde525e5c69f5c8b36a9a92a54440c,PennController,15,0,experiment,NULL,PennController,14,_Header_,End,1687287240607,5ce43a8af5f5b00015477c7f,5ce43a8af5f5b00015477c7f,12,erase,critical,D,75,erase66.jpg,erase84.jpg,high,NULL
1687287433,4bfde525e5c69f5c8b36a9a92a54440c,PennController,15,0,experiment,NULL,Canvas,canvas6,Print,NA,1687287250306,5ce43a8af5f5b00015477c7f,5ce43a8af5f5b00015477c7f,12,erase,critical,D,75,erase66.jpg,erase84.jpg,high,NULL
1687287433,4bfde525e5c69f5c8b36a9a92a54440c,PennController,15,0,experiment,NULL,Video,progression,buffer,0.015,1687287244145,5ce43a8af5f5b00015477c7f,5ce43a8af5f5b00015477c7f,12,erase,critical,D,75,erase66.jpg,erase84.jpg,high,NULL
1687287433,4bfde525e5c69f5c8b36a9a92a54440c,PennController,15,0,experiment,NULL,Selector,choice,Selection,option1,1687287255209,5ce43a8af5f5b00015477c7f,5ce43a8af5f5b00015477c7f,12,erase,critical,D,75,erase66.jpg,erase84.jpg,high,option1;option2
1687287433,4bfde525e5c69f5c8b36a9a92a54440c,PennController,15,0,experiment,NULL,PennController,14,_Trial_,End,1687287255213,5ce43a8af5f5b00015477c7f,5ce43a8af5f5b00015477c7f,12,erase,critical,D,75,erase66.jpg,erase84.jpg,high,NULL
1687287433,4bfde525e5c69f5c8b36a9a92a54440c,PennController,7,0,experiment,NULL,PennController,6,_Trial_,Start,1687287255216,5ce43a8af5f5b00015477c7f,5ce43a8af5f5b00015477c7f,4,candy,critical,D,25,candy15.jpg,candy35.jpg,high,NULL
1687287433,4bfde525e5c69f5c8b36a9a92a54440c,PennController,7,0,experiment,NULL,PennController,6,_Header_,Start,1687287255216,5ce43a8af5f5b00015477c7f,5ce43a8af5f5b00015477c7f,4,candy,critical,D,25,candy15.jpg,candy35.jpg,high,NULL
1687287433,4bfde525e5c69f5c8b36a9a92a54440c,PennController,7,0,experiment,NULL,PennController,6,_Header_,End,1687287255216,5ce43a8af5f5b00015477c7f,5ce43a8af5f5b00015477c7f,4,candy,critical,D,25,candy15.jpg,candy35.jpg,high,NULL
1687287433,4bfde525e5c69f5c8b36a9a92a54440c,PennController,7,0,experiment,NULL,Canvas,canvas6,Print,NA,1687287260903,5ce43a8af5f5b00015477c7f,5ce43a8af5f5b00015477c7f,4,candy,critical,D,25,candy15.jpg,candy35.jpg,high,NULL
1687287433,4bfde525e5c69f5c8b36a9a92a54440c,PennController,7,0,experiment,NULL,Video,progression,buffer,0.006,1687287258744,5ce43a8af5f5b00015477c7f,5ce43a8af5f5b00015477c7f,4,candy,critical,D,25,candy15.jpg,candy35.jpg,high,NULL
1687287433,4bfde525e5c69f5c8b36a9a92a54440c,PennController,7,0,experiment,NULL,Selector,choice,Selection,option1,1687287263728,5ce43a8af5f5b00015477c7f,5ce43a8af5f5b00015477c7f,4,candy,critical,D,25,candy15.jpg,candy35.jpg,high,option2;option1
1687287433,4bfde525e5c69f5c8b36a9a92a54440c,PennController,7,0,experiment,NULL,PennController,6,_Trial_,End,1687287263731,5ce43a8af5f5b00015477c7f,5ce43a8af5f5b00015477c7f,4,candy,critical,D,25,candy15.jpg,candy35.jpg,high,NULL
1687287433,4bfde525e5c69f5c8b36a9a92a54440c,PennController,20,0,experiment,NULL,PennController,19,_Trial_,Start,1687287263733,5ce43a8af5f5b00015477c7f,5ce43a8af5f5b00015477c7f,17,roll,critical,D,50,roll40.jpg,roll60.jpg,high,NULL
1687287433,4bfde525e5c69f5c8b36a9a92a54440c,PennController,20,0,experiment,NULL,PennController,19,_Header_,Start,1687287263733,5ce43a8af5f5b00015477c7f,5ce43a8af5f5b00015477c7f,17,roll,critical,D,50,roll40.jpg,roll60.jpg,high,NULL
1687287433,4bfde525e5c69f5c8b36a9a92a54440c,PennController,20,0,experiment,NULL,PennController,19,_Header_,End,1687287263733,5ce43a8af5f5b00015477c7f,5ce43a8af5f5b00015477c7f,17,roll,critical,D,50,roll40.jpg,roll60.jpg,high,NULL
1687287433,4bfde525e5c69f5c8b36a9a92a54440c,PennController,20,0,experiment,NULL,Canvas,canvas6,Print,NA,1687287270438,5ce43a8af5f5b00015477c7f,5ce43a8af5f5b00015477c7f,17,roll,critical,D,50,roll40.jpg,roll60.jpg,high,NULL
1687287433,4bfde525e5c69f5c8b36a9a92a54440c,PennController,20,0,experiment,NULL,Video,progression,buffer,0.007,1687287267268,5ce43a8af5f5b00015477c7f,5ce43a8af5f5b00015477c7f,17,roll,critical,D,50,roll40.jpg,roll60.jpg,high,NULL
1687287433,4bfde525e5c69f5c8b36a9a92a54440c,PennController,20,0,experiment,NULL,Selector,choice,Selection,option1,1687287273768,5ce43a8af5f5b00015477c7f,5ce43a8af5f5b00015477c7f,17,roll,critical,D,50,roll40.jpg,roll60.jpg,high,option2;option1
1687287433,4bfde525e5c69f5c8b36a9a92a54440c,PennController,20,0,experiment,NULL,PennController,19,_Trial_,End,1687287273771,5ce43a8af5f5b00015477c7f,5ce43a8af5f5b00015477c7f,17,roll,critical,D,50,roll40.jpg,roll60.jpg,high,NULL
1687287433,4bfde525e5c69f5c8b36a9a92a54440c,PennController,12,0,experiment,NULL,PennController,11,_Trial_,Start,1687287273774,5ce43a8af5f5b00015477c7f,5ce43a8af5f5b00015477c7f,9,cake,critical,D,75,cake66.jpg,cake84.jpg,high,NULL
1687287433,4bfde525e5c69f5c8b36a9a92a54440c,PennController,12,0,experiment,NULL,PennController,11,_Header_,Start,1687287273774,5ce43a8af5f5b00015477c7f,5ce43a8af5f5b00015477c7f,9,cake,critical,D,75,cake66.jpg,cake84.jpg,high,NULL
1687287433,4bfde525e5c69f5c8b36a9a92a54440c,PennController,12,0,experiment,NULL,PennController,11,_Header_,End,1687287273774,5ce43a8af5f5b00015477c7f,5ce43a8af5f5b00015477c7f,9,cake,critical,D,75,cake66.jpg,cake84.jpg,high,NULL
1687287433,4bfde525e5c69f5c8b36a9a92a54440c,PennController,12,0,experiment,NULL,Canvas,canvas6,Print,NA,1687287283491,5ce43a8af5f5b00015477c7f,5ce43a8af5f5b00015477c7f,9,cake,critical,D,75,cake66.jpg,cake84.jpg,high,NULL
1687287433,4bfde525e5c69f5c8b36a9a92a54440c,PennController,12,0,experiment,NULL,Video,progression,buffer,0.003,1687287277318,5ce43a8af5f5b00015477c7f,5ce43a8af5f5b00015477c7f,9,cake,critical,D,75,cake66.jpg,cake84.jpg,high,NULL
1687287433,4bfde525e5c69f5c8b36a9a92a54440c,PennController,12,0,experiment,NULL,Selector,choice,Selection,option1,1687287287088,5ce43a8af5f5b00015477c7f,5ce43a8af5f5b00015477c7f,9,cake,critical,D,75,cake66.jpg,cake84.jpg,high,option1;option2
1687287433,4bfde525e5c69f5c8b36a9a92a54440c,PennController,12,0,experiment,NULL,PennController,11,_Trial_,End,1687287287091,5ce43a8af5f5b00015477c7f,5ce43a8af5f5b00015477c7f,9,cake,critical,D,75,cake66.jpg,cake84.jpg,high,NULL
1687287433,4bfde525e5c69f5c8b36a9a92a54440c,PennController,18,0,experiment,NULL,PennController,17,_Trial_,Start,1687287287093,5ce43a8af5f5b00015477c7f,5ce43a8af5f5b00015477c7f,15,zip,critical,D,75,zip65.jpg,zip85.jpg,high,NULL
1687287433,4bfde525e5c69f5c8b36a9a92a54440c,PennController,18,0,experiment,NULL,PennController,17,_Header_,Start,1687287287093,5ce43a8af5f5b00015477c7f,5ce43a8af5f5b00015477c7f,15,zip,critical,D,75,zip65.jpg,zip85.jpg,high,NULL
1687287433,4bfde525e5c69f5c8b36a9a92a54440c,PennController,18,0,experiment,NULL,PennController,17,_Header_,End,1687287287093,5ce43a8af5f5b00015477c7f,5ce43a8af5f5b00015477c7f,15,zip,critical,D,75,zip65.jpg,zip85.jpg,high,NULL
1687287433,4bfde525e5c69f5c8b36a9a92a54440c,PennController,18,0,experiment,NULL,Canvas,canvas6,Print,NA,1687287294002,5ce43a8af5f5b00015477c7f,5ce43a8af5f5b00015477c7f,15,zip,critical,D,75,zip65.jpg,zip85.jpg,high,NULL
1687287433,4bfde525e5c69f5c8b36a9a92a54440c,PennController,18,0,experiment,NULL,Video,progression,buffer,0.006,1687287290631,5ce43a8af5f5b00015477c7f,5ce43a8af5f5b00015477c7f,15,zip,critical,D,75,zip65.jpg,zip85.jpg,high,NULL
1687287433,4bfde525e5c69f5c8b36a9a92a54440c,PennController,18,0,experiment,NULL,Selector,choice,Selection,option1,1687287298634,5ce43a8af5f5b00015477c7f,5ce43a8af5f5b00015477c7f,15,zip,critical,D,75,zip65.jpg,zip85.jpg,high,option2;option1
1687287433,4bfde525e5c69f5c8b36a9a92a54440c,PennController,18,0,experiment,NULL,PennController,17,_Trial_,End,1687287298637,5ce43a8af5f5b00015477c7f,5ce43a8af5f5b00015477c7f,15,zip,critical,D,75,zip65.jpg,zip85.jpg,high,NULL
1687287433,4bfde525e5c69f5c8b36a9a92a54440c,PennController,13,0,experiment,NULL,PennController,12,_Trial_,Start,1687287298642,5ce43a8af5f5b00015477c7f,5ce43a8af5f5b00015477c7f,10,train,critical,D,25,train15.jpg,train35.jpg,high,NULL
1687287433,4bfde525e5c69f5c8b36a9a92a54440c,PennController,13,0,experiment,NULL,PennController,12,_Header_,Start,1687287298642,5ce43a8af5f5b00015477c7f,5ce43a8af5f5b00015477c7f,10,train,critical,D,25,train15.jpg,train35.jpg,high,NULL
1687287433,4bfde525e5c69f5c8b36a9a92a54440c,PennController,13,0,experiment,NULL,PennController,12,_Header_,End,1687287298642,5ce43a8af5f5b00015477c7f,5ce43a8af5f5b00015477c7f,10,train,critical,D,25,train15.jpg,train35.jpg,high,NULL
1687287433,4bfde525e5c69f5c8b36a9a92a54440c,PennController,13,0,experiment,NULL,Canvas,canvas6,Print,NA,1687287304363,5ce43a8af5f5b00015477c7f,5ce43a8af5f5b00015477c7f,10,train,critical,D,25,train15.jpg,train35.jpg,high,NULL
1687287433,4bfde525e5c69f5c8b36a9a92a54440c,PennController,13,0,experiment,NULL,Video,progression,buffer,0.019,1687287302193,5ce43a8af5f5b00015477c7f,5ce43a8af5f5b00015477c7f,10,train,critical,D,25,train15.jpg,train35.jpg,high,NULL
1687287433,4bfde525e5c69f5c8b36a9a92a54440c,PennController,13,0,experiment,NULL,Selector,choice,Selection,option1,1687287306193,5ce43a8af5f5b00015477c7f,5ce43a8af5f5b00015477c7f,10,train,critical,D,25,train15.jpg,train35.jpg,high,option1;option2
1687287433,4bfde525e5c69f5c8b36a9a92a54440c,PennController,13,0,experiment,NULL,PennController,12,_Trial_,End,1687287306196,5ce43a8af5f5b00015477c7f,5ce43a8af5f5b00015477c7f,10,train,critical,D,25,train15.jpg,train35.jpg,high,NULL
1687287433,4bfde525e5c69f5c8b36a9a92a54440c,PennController,19,0,experiment,NULL,PennController,18,_Trial_,Start,1687287306198,5ce43a8af5f5b00015477c7f,5ce43a8af5f5b00015477c7f,16,blinds,critical,D,25,blinds15.jpg,blinds33.jpg,high,NULL
1687287433,4bfde525e5c69f5c8b36a9a92a54440c,PennController,19,0,experiment,NULL,PennController,18,_Header_,Start,1687287306198,5ce43a8af5f5b00015477c7f,5ce43a8af5f5b00015477c7f,16,blinds,critical,D,25,blinds15.jpg,blinds33.jpg,high,NULL
1687287433,4bfde525e5c69f5c8b36a9a92a54440c,PennController,19,0,experiment,NULL,PennController,18,_Header_,End,1687287306198,5ce43a8af5f5b00015477c7f,5ce43a8af5f5b00015477c7f,16,blinds,critical,D,25,blinds15.jpg,blinds33.jpg,high,NULL
1687287433,4bfde525e5c69f5c8b36a9a92a54440c,PennController,19,0,experiment,NULL,Canvas,canvas6,Print,NA,1687287312521,5ce43a8af5f5b00015477c7f,5ce43a8af5f5b00015477c7f,16,blinds,critical,D,25,blinds15.jpg,blinds33.jpg,high,NULL
1687287433,4bfde525e5c69f5c8b36a9a92a54440c,PennController,19,0,experiment,NULL,Video,progression,buffer,0.039,1687287309781,5ce43a8af5f5b00015477c7f,5ce43a8af5f5b00015477c7f,16,blinds,critical,D,25,blinds15.jpg,blinds33.jpg,high,NULL
1687287433,4bfde525e5c69f5c8b36a9a92a54440c,PennController,19,0,experiment,NULL,Selector,choice,Selection,option1,1687287314705,5ce43a8af5f5b00015477c7f,5ce43a8af5f5b00015477c7f,16,blinds,critical,D,25,blinds15.jpg,blinds33.jpg,high,option2;option1
1687287433,4bfde525e5c69f5c8b36a9a92a54440c,PennController,19,0,experiment,NULL,PennController,18,_Trial_,End,1687287314707,5ce43a8af5f5b00015477c7f,5ce43a8af5f5b00015477c7f,16,blinds,critical,D,25,blinds15.jpg,blinds33.jpg,high,NULL
1687287433,4bfde525e5c69f5c8b36a9a92a54440c,PennController,32,0,experiment,NULL,PennController,31,_Trial_,Start,1687287314713,5ce43a8af5f5b00015477c7f,5ce43a8af5f5b00015477c7f,29,frog,filler,D,50,frog40.jpg,frog60.jpg,GoalB,NULL
1687287433,4bfde525e5c69f5c8b36a9a92a54440c,PennController,32,0,experiment,NULL,PennController,31,_Header_,Start,1687287314713,5ce43a8af5f5b00015477c7f,5ce43a8af5f5b00015477c7f,29,frog,filler,D,50,frog40.jpg,frog60.jpg,GoalB,NULL
1687287433,4bfde525e5c69f5c8b36a9a92a54440c,PennController,32,0,experiment,NULL,PennController,31,_Header_,End,1687287314713,5ce43a8af5f5b00015477c7f,5ce43a8af5f5b00015477c7f,29,frog,filler,D,50,frog40.jpg,frog60.jpg,GoalB,NULL
1687287433,4bfde525e5c69f5c8b36a9a92a54440c,PennController,32,0,experiment,NULL,Canvas,canvas6,Print,NA,1687287321404,5ce43a8af5f5b00015477c7f,5ce43a8af5f5b00015477c7f,29,frog,filler,D,50,frog40.jpg,frog60.jpg,GoalB,NULL
1687287433,4bfde525e5c69f5c8b36a9a92a54440c,PennController,32,0,experiment,NULL,Video,progression,buffer,0.004,1687287318240,5ce43a8af5f5b00015477c7f,5ce43a8af5f5b00015477c7f,29,frog,filler,D,50,frog40.jpg,frog60.jpg,GoalB,NULL
1687287433,4bfde525e5c69f5c8b36a9a92a54440c,PennController,32,0,experiment,NULL,Selector,choice,Selection,option1,1687287326028,5ce43a8af5f5b00015477c7f,5ce43a8af5f5b00015477c7f,29,frog,filler,D,50,frog40.jpg,frog60.jpg,GoalB,option2;option1
1687287433,4bfde525e5c69f5c8b36a9a92a54440c,PennController,32,0,experiment,NULL,PennController,31,_Trial_,End,1687287326031,5ce43a8af5f5b00015477c7f,5ce43a8af5f5b00015477c7f,29,frog,filler,D,50,frog40.jpg,frog60.jpg,GoalB,NULL
1687287433,4bfde525e5c69f5c8b36a9a92a54440c,PennController,14,0,experiment,NULL,PennController,13,_Trial_,Start,1687287326034,5ce43a8af5f5b00015477c7f,5ce43a8af5f5b00015477c7f,11,beads,critical,D,50,beads40.jpg,beads60.jpg,high,NULL
1687287433,4bfde525e5c69f5c8b36a9a92a54440c,PennController,14,0,experiment,NULL,PennController,13,_Header_,Start,1687287326034,5ce43a8af5f5b00015477c7f,5ce43a8af5f5b00015477c7f,11,beads,critical,D,50,beads40.jpg,beads60.jpg,high,NULL
1687287433,4bfde525e5c69f5c8b36a9a92a54440c,PennController,14,0,experiment,NULL,PennController,13,_Header_,End,1687287326034,5ce43a8af5f5b00015477c7f,5ce43a8af5f5b00015477c7f,11,beads,critical,D,50,beads40.jpg,beads60.jpg,high,NULL
1687287433,4bfde525e5c69f5c8b36a9a92a54440c,PennController,14,0,experiment,NULL,Canvas,canvas6,Print,NA,1687287332738,5ce43a8af5f5b00015477c7f,5ce43a8af5f5b00015477c7f,11,beads,critical,D,50,beads40.jpg,beads60.jpg,high,NULL
1687287433,4bfde525e5c69f5c8b36a9a92a54440c,PennController,14,0,experiment,NULL,Video,progression,buffer,0.008,1687287329568,5ce43a8af5f5b00015477c7f,5ce43a8af5f5b00015477c7f,11,beads,critical,D,50,beads40.jpg,beads60.jpg,high,NULL
1687287433,4bfde525e5c69f5c8b36a9a92a54440c,PennController,14,0,experiment,NULL,Selector,choice,Selection,option1,1687287334329,5ce43a8af5f5b00015477c7f,5ce43a8af5f5b00015477c7f,11,beads,critical,D,50,beads40.jpg,beads60.jpg,high,option1;option2
1687287433,4bfde525e5c69f5c8b36a9a92a54440c,PennController,14,0,experiment,NULL,PennController,13,_Trial_,End,1687287334332,5ce43a8af5f5b00015477c7f,5ce43a8af5f5b00015477c7f,11,beads,critical,D,50,beads40.jpg,beads60.jpg,high,NULL
1687287433,4bfde525e5c69f5c8b36a9a92a54440c,PennController,24,0,experiment,NULL,PennController,23,_Trial_,Start,1687287334334,5ce43a8af5f5b00015477c7f,5ce43a8af5f5b00015477c7f,21,visit,filler,D,75,visit65.jpg,visit85.jpg,GoalB,NULL
1687287433,4bfde525e5c69f5c8b36a9a92a54440c,PennController,24,0,experiment,NULL,PennController,23,_Header_,Start,1687287334334,5ce43a8af5f5b00015477c7f,5ce43a8af5f5b00015477c7f,21,visit,filler,D,75,visit65.jpg,visit85.jpg,GoalB,NULL
1687287433,4bfde525e5c69f5c8b36a9a92a54440c,PennController,24,0,experiment,NULL,PennController,23,_Header_,End,1687287334334,5ce43a8af5f5b00015477c7f,5ce43a8af5f5b00015477c7f,21,visit,filler,D,75,visit65.jpg,visit85.jpg,GoalB,NULL
1687287433,4bfde525e5c69f5c8b36a9a92a54440c,PennController,24,0,experiment,NULL,Canvas,canvas6,Print,NA,1687287342037,5ce43a8af5f5b00015477c7f,5ce43a8af5f5b00015477c7f,21,visit,filler,D,75,visit65.jpg,visit85.jpg,GoalB,NULL
1687287433,4bfde525e5c69f5c8b36a9a92a54440c,PennController,24,0,experiment,NULL,Video,progression,buffer,0.007,1687287337861,5ce43a8af5f5b00015477c7f,5ce43a8af5f5b00015477c7f,21,visit,filler,D,75,visit65.jpg,visit85.jpg,GoalB,NULL
1687287433,4bfde525e5c69f5c8b36a9a92a54440c,PennController,24,0,experiment,NULL,Selector,choice,Selection,option2,1687287343825,5ce43a8af5f5b00015477c7f,5ce43a8af5f5b00015477c7f,21,visit,filler,D,75,visit65.jpg,visit85.jpg,GoalB,option2;option1
1687287433,4bfde525e5c69f5c8b36a9a92a54440c,PennController,24,0,experiment,NULL,PennController,23,_Trial_,End,1687287343828,5ce43a8af5f5b00015477c7f,5ce43a8af5f5b00015477c7f,21,visit,filler,D,75,visit65.jpg,visit85.jpg,GoalB,NULL
1687287433,4bfde525e5c69f5c8b36a9a92a54440c,PennController,26,0,experiment,NULL,PennController,25,_Trial_,Start,1687287343830,5ce43a8af5f5b00015477c7f,5ce43a8af5f5b00015477c7f,23,color,filler,D,50,color40.jpg,color60.jpg,GoalB,NULL
1687287433,4bfde525e5c69f5c8b36a9a92a54440c,PennController,26,0,experiment,NULL,PennController,25,_Header_,Start,1687287343830,5ce43a8af5f5b00015477c7f,5ce43a8af5f5b00015477c7f,23,color,filler,D,50,color40.jpg,color60.jpg,GoalB,NULL
1687287433,4bfde525e5c69f5c8b36a9a92a54440c,PennController,26,0,experiment,NULL,PennController,25,_Header_,End,1687287343830,5ce43a8af5f5b00015477c7f,5ce43a8af5f5b00015477c7f,23,color,filler,D,50,color40.jpg,color60.jpg,GoalB,NULL
1687287433,4bfde525e5c69f5c8b36a9a92a54440c,PennController,26,0,experiment,NULL,Canvas,canvas6,Print,NA,1687287350534,5ce43a8af5f5b00015477c7f,5ce43a8af5f5b00015477c7f,23,color,filler,D,50,color40.jpg,color60.jpg,GoalB,NULL
1687287433,4bfde525e5c69f5c8b36a9a92a54440c,PennController,26,0,experiment,NULL,Video,progression,buffer,0.02,1687287347384,5ce43a8af5f5b00015477c7f,5ce43a8af5f5b00015477c7f,23,color,filler,D,50,color40.jpg,color60.jpg,GoalB,NULL
1687287433,4bfde525e5c69f5c8b36a9a92a54440c,PennController,26,0,experiment,NULL,Selector,choice,Selection,option2,1687287358329,5ce43a8af5f5b00015477c7f,5ce43a8af5f5b00015477c7f,23,color,filler,D,50,color40.jpg,color60.jpg,GoalB,option1;option2
1687287433,4bfde525e5c69f5c8b36a9a92a54440c,PennController,26,0,experiment,NULL,PennController,25,_Trial_,End,1687287358331,5ce43a8af5f5b00015477c7f,5ce43a8af5f5b00015477c7f,23,color,filler,D,50,color40.jpg,color60.jpg,GoalB,NULL
1687287433,4bfde525e5c69f5c8b36a9a92a54440c,PennController,6,0,experiment,NULL,PennController,5,_Trial_,Start,1687287358334,5ce43a8af5f5b00015477c7f,5ce43a8af5f5b00015477c7f,3,clean,critical,D,75,clean65.jpg,clean85.jpg,high,NULL
1687287433,4bfde525e5c69f5c8b36a9a92a54440c,PennController,6,0,experiment,NULL,PennController,5,_Header_,Start,1687287358334,5ce43a8af5f5b00015477c7f,5ce43a8af5f5b00015477c7f,3,clean,critical,D,75,clean65.jpg,clean85.jpg,high,NULL
1687287433,4bfde525e5c69f5c8b36a9a92a54440c,PennController,6,0,experiment,NULL,PennController,5,_Header_,End,1687287358334,5ce43a8af5f5b00015477c7f,5ce43a8af5f5b00015477c7f,3,clean,critical,D,75,clean65.jpg,clean85.jpg,high,NULL
1687287433,4bfde525e5c69f5c8b36a9a92a54440c,PennController,6,0,experiment,NULL,Canvas,canvas6,Print,NA,1687287366050,5ce43a8af5f5b00015477c7f,5ce43a8af5f5b00015477c7f,3,clean,critical,D,75,clean65.jpg,clean85.jpg,high,NULL
1687287433,4bfde525e5c69f5c8b36a9a92a54440c,PennController,6,0,experiment,NULL,Video,progression,buffer,0,1687287361872,5ce43a8af5f5b00015477c7f,5ce43a8af5f5b00015477c7f,3,clean,critical,D,75,clean65.jpg,clean85.jpg,high,NULL
1687287433,4bfde525e5c69f5c8b36a9a92a54440c,PennController,6,0,experiment,NULL,Selector,choice,Selection,option1,1687287370818,5ce43a8af5f5b00015477c7f,5ce43a8af5f5b00015477c7f,3,clean,critical,D,75,clean65.jpg,clean85.jpg,high,option1;option2
1687287433,4bfde525e5c69f5c8b36a9a92a54440c,PennController,6,0,experiment,NULL,PennController,5,_Trial_,End,1687287370828,5ce43a8af5f5b00015477c7f,5ce43a8af5f5b00015477c7f,3,clean,critical,D,75,clean65.jpg,clean85.jpg,high,NULL
1687287433,4bfde525e5c69f5c8b36a9a92a54440c,PennController,21,0,experiment,NULL,PennController,20,_Trial_,Start,1687287370833,5ce43a8af5f5b00015477c7f,5ce43a8af5f5b00015477c7f,18,ball,critical,D,75,ball65.jpg,ball85.jpg,high,NULL
1687287433,4bfde525e5c69f5c8b36a9a92a54440c,PennController,21,0,experiment,NULL,PennController,20,_Header_,Start,1687287370833,5ce43a8af5f5b00015477c7f,5ce43a8af5f5b00015477c7f,18,ball,critical,D,75,ball65.jpg,ball85.jpg,high,NULL
1687287433,4bfde525e5c69f5c8b36a9a92a54440c,PennController,21,0,experiment,NULL,PennController,20,_Header_,End,1687287370833,5ce43a8af5f5b00015477c7f,5ce43a8af5f5b00015477c7f,18,ball,critical,D,75,ball65.jpg,ball85.jpg,high,NULL
1687287433,4bfde525e5c69f5c8b36a9a92a54440c,PennController,21,0,experiment,NULL,Canvas,canvas6,Print,NA,1687287378530,5ce43a8af5f5b00015477c7f,5ce43a8af5f5b00015477c7f,18,ball,critical,D,75,ball65.jpg,ball85.jpg,high,NULL
1687287433,4bfde525e5c69f5c8b36a9a92a54440c,PennController,21,0,experiment,NULL,Video,progression,buffer,0.008,1687287374368,5ce43a8af5f5b00015477c7f,5ce43a8af5f5b00015477c7f,18,ball,critical,D,75,ball65.jpg,ball85.jpg,high,NULL
1687287433,4bfde525e5c69f5c8b36a9a92a54440c,PennController,21,0,experiment,NULL,Selector,choice,Selection,option1,1687287380313,5ce43a8af5f5b00015477c7f,5ce43a8af5f5b00015477c7f,18,ball,critical,D,75,ball65.jpg,ball85.jpg,high,option2;option1
1687287433,4bfde525e5c69f5c8b36a9a92a54440c,PennController,21,0,experiment,NULL,PennController,20,_Trial_,End,1687287380315,5ce43a8af5f5b00015477c7f,5ce43a8af5f5b00015477c7f,18,ball,critical,D,75,ball65.jpg,ball85.jpg,high,NULL
1687287433,4bfde525e5c69f5c8b36a9a92a54440c,PennController,22,0,experiment,NULL,PennController,21,_Trial_,Start,1687287380318,5ce43a8af5f5b00015477c7f,5ce43a8af5f5b00015477c7f,19,cup,filler,D,25,cup15.jpg,cup35.jpg,GoalB,NULL
1687287433,4bfde525e5c69f5c8b36a9a92a54440c,PennController,22,0,experiment,NULL,PennController,21,_Header_,Start,1687287380318,5ce43a8af5f5b00015477c7f,5ce43a8af5f5b00015477c7f,19,cup,filler,D,25,cup15.jpg,cup35.jpg,GoalB,NULL
1687287433,4bfde525e5c69f5c8b36a9a92a54440c,PennController,22,0,experiment,NULL,PennController,21,_Header_,End,1687287380318,5ce43a8af5f5b00015477c7f,5ce43a8af5f5b00015477c7f,19,cup,filler,D,25,cup15.jpg,cup35.jpg,GoalB,NULL
1687287433,4bfde525e5c69f5c8b36a9a92a54440c,PennController,22,0,experiment,NULL,Canvas,canvas6,Print,NA,1687287386034,5ce43a8af5f5b00015477c7f,5ce43a8af5f5b00015477c7f,19,cup,filler,D,25,cup15.jpg,cup35.jpg,GoalB,NULL
1687287433,4bfde525e5c69f5c8b36a9a92a54440c,PennController,22,0,experiment,NULL,Video,progression,buffer,0.004,1687287383858,5ce43a8af5f5b00015477c7f,5ce43a8af5f5b00015477c7f,19,cup,filler,D,25,cup15.jpg,cup35.jpg,GoalB,NULL
1687287433,4bfde525e5c69f5c8b36a9a92a54440c,PennController,22,0,experiment,NULL,Selector,choice,Selection,option1,1687287388709,5ce43a8af5f5b00015477c7f,5ce43a8af5f5b00015477c7f,19,cup,filler,D,25,cup15.jpg,cup35.jpg,GoalB,option2;option1
1687287433,4bfde525e5c69f5c8b36a9a92a54440c,PennController,22,0,experiment,NULL,PennController,21,_Trial_,End,1687287388715,5ce43a8af5f5b00015477c7f,5ce43a8af5f5b00015477c7f,19,cup,filler,D,25,cup15.jpg,cup35.jpg,GoalB,NULL
1687287433,4bfde525e5c69f5c8b36a9a92a54440c,PennController,27,0,experiment,NULL,PennController,26,_Trial_,Start,1687287388720,5ce43a8af5f5b00015477c7f,5ce43a8af5f5b00015477c7f,24,match,filler,D,75,match65.jpg,match85.jpg,GoalA,NULL
1687287433,4bfde525e5c69f5c8b36a9a92a54440c,PennController,27,0,experiment,NULL,PennController,26,_Header_,Start,1687287388720,5ce43a8af5f5b00015477c7f,5ce43a8af5f5b00015477c7f,24,match,filler,D,75,match65.jpg,match85.jpg,GoalA,NULL
1687287433,4bfde525e5c69f5c8b36a9a92a54440c,PennController,27,0,experiment,NULL,PennController,26,_Header_,End,1687287388720,5ce43a8af5f5b00015477c7f,5ce43a8af5f5b00015477c7f,24,match,filler,D,75,match65.jpg,match85.jpg,GoalA,NULL
1687287433,4bfde525e5c69f5c8b36a9a92a54440c,PennController,27,0,experiment,NULL,Canvas,canvas6,Print,NA,1687287396431,5ce43a8af5f5b00015477c7f,5ce43a8af5f5b00015477c7f,24,match,filler,D,75,match65.jpg,match85.jpg,GoalA,NULL
1687287433,4bfde525e5c69f5c8b36a9a92a54440c,PennController,27,0,experiment,NULL,Video,progression,buffer,0.008,1687287392260,5ce43a8af5f5b00015477c7f,5ce43a8af5f5b00015477c7f,24,match,filler,D,75,match65.jpg,match85.jpg,GoalA,NULL
1687287433,4bfde525e5c69f5c8b36a9a92a54440c,PennController,27,0,experiment,NULL,Selector,choice,Selection,option2,1687287398433,5ce43a8af5f5b00015477c7f,5ce43a8af5f5b00015477c7f,24,match,filler,D,75,match65.jpg,match85.jpg,GoalA,option1;option2
1687287433,4bfde525e5c69f5c8b36a9a92a54440c,PennController,27,0,experiment,NULL,PennController,26,_Trial_,End,1687287398435,5ce43a8af5f5b00015477c7f,5ce43a8af5f5b00015477c7f,24,match,filler,D,75,match65.jpg,match85.jpg,GoalA,NULL
1687287433,4bfde525e5c69f5c8b36a9a92a54440c,PennController,28,0,experiment,NULL,PennController,27,_Trial_,Start,1687287398437,5ce43a8af5f5b00015477c7f,5ce43a8af5f5b00015477c7f,25,house,filler,D,25,house15.jpg,house35.jpg,GoalB,NULL
1687287433,4bfde525e5c69f5c8b36a9a92a54440c,PennController,28,0,experiment,NULL,PennController,27,_Header_,Start,1687287398437,5ce43a8af5f5b00015477c7f,5ce43a8af5f5b00015477c7f,25,house,filler,D,25,house15.jpg,house35.jpg,GoalB,NULL
1687287433,4bfde525e5c69f5c8b36a9a92a54440c,PennController,28,0,experiment,NULL,PennController,27,_Header_,End,1687287398438,5ce43a8af5f5b00015477c7f,5ce43a8af5f5b00015477c7f,25,house,filler,D,25,house15.jpg,house35.jpg,GoalB,NULL
1687287433,4bfde525e5c69f5c8b36a9a92a54440c,PennController,28,0,experiment,NULL,Canvas,canvas6,Print,NA,1687287404130,5ce43a8af5f5b00015477c7f,5ce43a8af5f5b00015477c7f,25,house,filler,D,25,house15.jpg,house35.jpg,GoalB,NULL
1687287433,4bfde525e5c69f5c8b36a9a92a54440c,PennController,28,0,experiment,NULL,Video,progression,buffer,0.006,1687287401970,5ce43a8af5f5b00015477c7f,5ce43a8af5f5b00015477c7f,25,house,filler,D,25,house15.jpg,house35.jpg,GoalB,NULL
1687287433,4bfde525e5c69f5c8b36a9a92a54440c,PennController,28,0,experiment,NULL,Selector,choice,Selection,option2,1687287409177,5ce43a8af5f5b00015477c7f,5ce43a8af5f5b00015477c7f,25,house,filler,D,25,house15.jpg,house35.jpg,GoalB,option1;option2
1687287433,4bfde525e5c69f5c8b36a9a92a54440c,PennController,28,0,experiment,NULL,PennController,27,_Trial_,End,1687287409182,5ce43a8af5f5b00015477c7f,5ce43a8af5f5b00015477c7f,25,house,filler,D,25,house15.jpg,house35.jpg,GoalB,NULL
1687287433,4bfde525e5c69f5c8b36a9a92a54440c,PennController,5,0,experiment,NULL,PennController,4,_Trial_,Start,1687287409185,5ce43a8af5f5b00015477c7f,5ce43a8af5f5b00015477c7f,2,door,critical,D,50,door40.jpg,door60.jpg,high,NULL
1687287433,4bfde525e5c69f5c8b36a9a92a54440c,PennController,5,0,experiment,NULL,PennController,4,_Header_,Start,1687287409185,5ce43a8af5f5b00015477c7f,5ce43a8af5f5b00015477c7f,2,door,critical,D,50,door40.jpg,door60.jpg,high,NULL
1687287433,4bfde525e5c69f5c8b36a9a92a54440c,PennController,5,0,experiment,NULL,PennController,4,_Header_,End,1687287409185,5ce43a8af5f5b00015477c7f,5ce43a8af5f5b00015477c7f,2,door,critical,D,50,door40.jpg,door60.jpg,high,NULL
1687287433,4bfde525e5c69f5c8b36a9a92a54440c,PennController,5,0,experiment,NULL,Canvas,canvas6,Print,NA,1687287415900,5ce43a8af5f5b00015477c7f,5ce43a8af5f5b00015477c7f,2,door,critical,D,50,door40.jpg,door60.jpg,high,NULL
1687287433,4bfde525e5c69f5c8b36a9a92a54440c,PennController,5,0,experiment,NULL,Video,progression,buffer,0.002,1687287412722,5ce43a8af5f5b00015477c7f,5ce43a8af5f5b00015477c7f,2,door,critical,D,50,door40.jpg,door60.jpg,high,NULL
1687287433,4bfde525e5c69f5c8b36a9a92a54440c,PennController,5,0,experiment,NULL,Selector,choice,Selection,option1,1687287418472,5ce43a8af5f5b00015477c7f,5ce43a8af5f5b00015477c7f,2,door,critical,D,50,door40.jpg,door60.jpg,high,option1;option2
1687287433,4bfde525e5c69f5c8b36a9a92a54440c,PennController,5,0,experiment,NULL,PennController,4,_Trial_,End,1687287418475,5ce43a8af5f5b00015477c7f,5ce43a8af5f5b00015477c7f,2,door,critical,D,50,door40.jpg,door60.jpg,high,NULL
1687287433,4bfde525e5c69f5c8b36a9a92a54440c,PennController,31,0,experiment,NULL,PennController,30,_Trial_,Start,1687287418478,5ce43a8af5f5b00015477c7f,5ce43a8af5f5b00015477c7f,28,sort,filler,D,25,sort15.jpg,sort35.jpg,GoalA,NULL
1687287433,4bfde525e5c69f5c8b36a9a92a54440c,PennController,31,0,experiment,NULL,PennController,30,_Header_,Start,1687287418478,5ce43a8af5f5b00015477c7f,5ce43a8af5f5b00015477c7f,28,sort,filler,D,25,sort15.jpg,sort35.jpg,GoalA,NULL
1687287433,4bfde525e5c69f5c8b36a9a92a54440c,PennController,31,0,experiment,NULL,PennController,30,_Header_,End,1687287418478,5ce43a8af5f5b00015477c7f,5ce43a8af5f5b00015477c7f,28,sort,filler,D,25,sort15.jpg,sort35.jpg,GoalA,NULL
1687287433,4bfde525e5c69f5c8b36a9a92a54440c,PennController,31,0,experiment,NULL,Canvas,canvas6,Print,NA,1687287424202,5ce43a8af5f5b00015477c7f,5ce43a8af5f5b00015477c7f,28,sort,filler,D,25,sort15.jpg,sort35.jpg,GoalA,NULL
1687287433,4bfde525e5c69f5c8b36a9a92a54440c,PennController,31,0,experiment,NULL,Video,progression,buffer,0.009,1687287422030,5ce43a8af5f5b00015477c7f,5ce43a8af5f5b00015477c7f,28,sort,filler,D,25,sort15.jpg,sort35.jpg,GoalA,NULL
1687287433,4bfde525e5c69f5c8b36a9a92a54440c,PennController,31,0,experiment,NULL,Selector,choice,Selection,option1,1687287426530,5ce43a8af5f5b00015477c7f,5ce43a8af5f5b00015477c7f,28,sort,filler,D,25,sort15.jpg,sort35.jpg,GoalA,option1;option2
1687287433,4bfde525e5c69f5c8b36a9a92a54440c,PennController,31,0,experiment,NULL,PennController,30,_Trial_,End,1687287426533,5ce43a8af5f5b00015477c7f,5ce43a8af5f5b00015477c7f,28,sort,filler,D,25,sort15.jpg,sort35.jpg,GoalA,NULL
1687287433,4bfde525e5c69f5c8b36a9a92a54440c,PennController,16,0,experiment,NULL,PennController,15,_Trial_,Start,1687287426535,5ce43a8af5f5b00015477c7f,5ce43a8af5f5b00015477c7f,13,mix,critical,D,25,mix15.jpg,mix35.jpg,high,NULL
1687287433,4bfde525e5c69f5c8b36a9a92a54440c,PennController,16,0,experiment,NULL,PennController,15,_Header_,Start,1687287426535,5ce43a8af5f5b00015477c7f,5ce43a8af5f5b00015477c7f,13,mix,critical,D,25,mix15.jpg,mix35.jpg,high,NULL
1687287433,4bfde525e5c69f5c8b36a9a92a54440c,PennController,16,0,experiment,NULL,PennController,15,_Header_,End,1687287426535,5ce43a8af5f5b00015477c7f,5ce43a8af5f5b00015477c7f,13,mix,critical,D,25,mix15.jpg,mix35.jpg,high,NULL
1687287433,4bfde525e5c69f5c8b36a9a92a54440c,PennController,16,0,experiment,NULL,Canvas,canvas6,Print,NA,1687287432233,5ce43a8af5f5b00015477c7f,5ce43a8af5f5b00015477c7f,13,mix,critical,D,25,mix15.jpg,mix35.jpg,high,NULL
1687287433,4bfde525e5c69f5c8b36a9a92a54440c,PennController,16,0,experiment,NULL,Video,progression,buffer,0.005,1687287430070,5ce43a8af5f5b00015477c7f,5ce43a8af5f5b00015477c7f,13,mix,critical,D,25,mix15.jpg,mix35.jpg,high,NULL
1687287433,4bfde525e5c69f5c8b36a9a92a54440c,PennController,16,0,experiment,NULL,Selector,choice,Selection,option1,1687287433833,5ce43a8af5f5b00015477c7f,5ce43a8af5f5b00015477c7f,13,mix,critical,D,25,mix15.jpg,mix35.jpg,high,option2;option1
1687287433,4bfde525e5c69f5c8b36a9a92a54440c,PennController,16,0,experiment,NULL,PennController,15,_Trial_,End,1687287433835,5ce43a8af5f5b00015477c7f,5ce43a8af5f5b00015477c7f,13,mix,critical,D,25,mix15.jpg,mix35.jpg,high,NULL
