#
# Results on Tuesday June 20 2023 19:10:21 UTC
# USER AGENT: Mozilla/5.0 (Windows NT 10.0; Win64; x64) AppleWebKit/537.36 (KHTML, like Gecko) Chrome/114.0.0.0 Safari/537.36 Edg/114.0.1823.51
# Design number was non-random = 56
#
# Columns below this comment are as follows:
# 1. Results reception time.
# 2. MD5 hash of participant's IP address.
# 3. Controller name.
# 4. Order number of item.
# 5. Inner element number.
# 6. Label.
# 7. Latin Square Group.
# 8. PennElementType.
# 9. PennElementName.
# 10. Parameter.
# 11. Value.
# 12. EventTime.
# 13. PROLIFIC_ID.
# 14. Comments.
1687288221,51bb331ee39c74155ee0a29038b29ef3,PennController,2,0,consent,NULL,PennController,0,_Trial_,Start,1687287952579,60a6ba026f8bd75b67b23c97,NULL
1687288221,51bb331ee39c74155ee0a29038b29ef3,PennController,2,0,consent,NULL,PennController,0,_Header_,Start,1687287952579,60a6ba026f8bd75b67b23c97,NULL
1687288221,51bb331ee39c74155ee0a29038b29ef3,PennController,2,0,consent,NULL,PennController,0,_Header_,End,1687287952580,60a6ba026f8bd75b67b23c97,NULL
1687288221,51bb331ee39c74155ee0a29038b29ef3,PennController,2,0,consent,NULL,PennController,0,_Trial_,End,1687287955084,60a6ba026f8bd75b67b23c97,NULL
# Columns below this comment are as follows:
# 14. ID.
# 15. Comments.
1687288221,51bb331ee39c74155ee0a29038b29ef3,PennController,3,0,intro,NULL,PennController,1,_Trial_,Start,1687287955085,60a6ba026f8bd75b67b23c97,60a6ba026f8bd75b67b23c97,NULL
1687288221,51bb331ee39c74155ee0a29038b29ef3,PennController,3,0,intro,NULL,PennController,1,_Header_,Start,1687287955085,60a6ba026f8bd75b67b23c97,60a6ba026f8bd75b67b23c97,NULL
1687288221,51bb331ee39c74155ee0a29038b29ef3,PennController,3,0,intro,NULL,PennController,1,_Header_,End,1687287955085,60a6ba026f8bd75b67b23c97,60a6ba026f8bd75b67b23c97,NULL
1687288221,51bb331ee39c74155ee0a29038b29ef3,PennController,3,0,intro,NULL,PennController,1,_Trial_,End,1687287960642,60a6ba026f8bd75b67b23c97,60a6ba026f8bd75b67b23c97,NULL
# Columns below this comment are as follows:
# 15. item_number.
# 16. item.
# 17. type.
# 18. Group.
# 19. prog.
# 20. prev_image.
# 21. next_image.
# 22. height.
# 23. Comments.
1687288221,51bb331ee39c74155ee0a29038b29ef3,PennController,17,0,experiment,NULL,PennController,16,_Trial_,Start,1687287960645,60a6ba026f8bd75b67b23c97,60a6ba026f8bd75b67b23c97,14,cover,critical,C,25,cover15.jpg,cover33.jpg,low,NULL
1687288221,51bb331ee39c74155ee0a29038b29ef3,PennController,17,0,experiment,NULL,PennController,16,_Header_,Start,1687287960645,60a6ba026f8bd75b67b23c97,60a6ba026f8bd75b67b23c97,14,cover,critical,C,25,cover15.jpg,cover33.jpg,low,NULL
1687288221,51bb331ee39c74155ee0a29038b29ef3,PennController,17,0,experiment,NULL,PennController,16,_Header_,End,1687287960645,60a6ba026f8bd75b67b23c97,60a6ba026f8bd75b67b23c97,14,cover,critical,C,25,cover15.jpg,cover33.jpg,low,NULL
1687288221,51bb331ee39c74155ee0a29038b29ef3,PennController,17,0,experiment,NULL,Canvas,canvas6,Print,NA,1687287966927,60a6ba026f8bd75b67b23c97,60a6ba026f8bd75b67b23c97,14,cover,critical,C,25,cover15.jpg,cover33.jpg,low,NULL
1687288221,51bb331ee39c74155ee0a29038b29ef3,PennController,17,0,experiment,NULL,Video,progression,buffer,0.00296,1687287964170,60a6ba026f8bd75b67b23c97,60a6ba026f8bd75b67b23c97,14,cover,critical,C,25,cover15.jpg,cover33.jpg,low,NULL
1687288221,51bb331ee39c74155ee0a29038b29ef3,PennController,17,0,experiment,NULL,Selector,choice,Selection,option2,1687287969267,60a6ba026f8bd75b67b23c97,60a6ba026f8bd75b67b23c97,14,cover,critical,C,25,cover15.jpg,cover33.jpg,low,option1;option2
1687288221,51bb331ee39c74155ee0a29038b29ef3,PennController,17,0,experiment,NULL,PennController,16,_Trial_,End,1687287969268,60a6ba026f8bd75b67b23c97,60a6ba026f8bd75b67b23c97,14,cover,critical,C,25,cover15.jpg,cover33.jpg,low,NULL
1687288221,51bb331ee39c74155ee0a29038b29ef3,PennController,25,0,experiment,NULL,PennController,24,_Trial_,Start,1687287969270,60a6ba026f8bd75b67b23c97,60a6ba026f8bd75b67b23c97,22,wall,filler,C,75,wall65.jpg,wall85.jpg,GoalB,NULL
1687288221,51bb331ee39c74155ee0a29038b29ef3,PennController,25,0,experiment,NULL,PennController,24,_Header_,Start,1687287969270,60a6ba026f8bd75b67b23c97,60a6ba026f8bd75b67b23c97,22,wall,filler,C,75,wall65.jpg,wall85.jpg,GoalB,NULL
1687288221,51bb331ee39c74155ee0a29038b29ef3,PennController,25,0,experiment,NULL,PennController,24,_Header_,End,1687287969270,60a6ba026f8bd75b67b23c97,60a6ba026f8bd75b67b23c97,22,wall,filler,C,75,wall65.jpg,wall85.jpg,GoalB,NULL
1687288221,51bb331ee39c74155ee0a29038b29ef3,PennController,25,0,experiment,NULL,Canvas,canvas6,Print,NA,1687287976960,60a6ba026f8bd75b67b23c97,60a6ba026f8bd75b67b23c97,22,wall,filler,C,75,wall65.jpg,wall85.jpg,GoalB,NULL
1687288221,51bb331ee39c74155ee0a29038b29ef3,PennController,25,0,experiment,NULL,Video,progression,buffer,0.001395,1687287972790,60a6ba026f8bd75b67b23c97,60a6ba026f8bd75b67b23c97,22,wall,filler,C,75,wall65.jpg,wall85.jpg,GoalB,NULL
1687288221,51bb331ee39c74155ee0a29038b29ef3,PennController,25,0,experiment,NULL,Selector,choice,Selection,option2,1687287978123,60a6ba026f8bd75b67b23c97,60a6ba026f8bd75b67b23c97,22,wall,filler,C,75,wall65.jpg,wall85.jpg,GoalB,option2;option1
1687288221,51bb331ee39c74155ee0a29038b29ef3,PennController,25,0,experiment,NULL,PennController,24,_Trial_,End,1687287978124,60a6ba026f8bd75b67b23c97,60a6ba026f8bd75b67b23c97,22,wall,filler,C,75,wall65.jpg,wall85.jpg,GoalB,NULL
1687288221,51bb331ee39c74155ee0a29038b29ef3,PennController,22,0,experiment,NULL,PennController,21,_Trial_,Start,1687287978125,60a6ba026f8bd75b67b23c97,60a6ba026f8bd75b67b23c97,19,cup,filler,C,75,cup65.jpg,cup85.jpg,GoalA,NULL
1687288221,51bb331ee39c74155ee0a29038b29ef3,PennController,22,0,experiment,NULL,PennController,21,_Header_,Start,1687287978125,60a6ba026f8bd75b67b23c97,60a6ba026f8bd75b67b23c97,19,cup,filler,C,75,cup65.jpg,cup85.jpg,GoalA,NULL
1687288221,51bb331ee39c74155ee0a29038b29ef3,PennController,22,0,experiment,NULL,PennController,21,_Header_,End,1687287978125,60a6ba026f8bd75b67b23c97,60a6ba026f8bd75b67b23c97,19,cup,filler,C,75,cup65.jpg,cup85.jpg,GoalA,NULL
1687288221,51bb331ee39c74155ee0a29038b29ef3,PennController,22,0,experiment,NULL,Canvas,canvas6,Print,NA,1687287985808,60a6ba026f8bd75b67b23c97,60a6ba026f8bd75b67b23c97,19,cup,filler,C,75,cup65.jpg,cup85.jpg,GoalA,NULL
1687288221,51bb331ee39c74155ee0a29038b29ef3,PennController,22,0,experiment,NULL,Video,progression,buffer,0.001614,1687287981643,60a6ba026f8bd75b67b23c97,60a6ba026f8bd75b67b23c97,19,cup,filler,C,75,cup65.jpg,cup85.jpg,GoalA,NULL
1687288221,51bb331ee39c74155ee0a29038b29ef3,PennController,22,0,experiment,NULL,Selector,choice,Selection,option2,1687287988308,60a6ba026f8bd75b67b23c97,60a6ba026f8bd75b67b23c97,19,cup,filler,C,75,cup65.jpg,cup85.jpg,GoalA,option1;option2
1687288221,51bb331ee39c74155ee0a29038b29ef3,PennController,22,0,experiment,NULL,PennController,21,_Trial_,End,1687287988309,60a6ba026f8bd75b67b23c97,60a6ba026f8bd75b67b23c97,19,cup,filler,C,75,cup65.jpg,cup85.jpg,GoalA,NULL
1687288221,51bb331ee39c74155ee0a29038b29ef3,PennController,13,0,experiment,NULL,PennController,12,_Trial_,Start,1687287988311,60a6ba026f8bd75b67b23c97,60a6ba026f8bd75b67b23c97,10,train,critical,C,75,train65.jpg,train85.jpg,low,NULL
1687288221,51bb331ee39c74155ee0a29038b29ef3,PennController,13,0,experiment,NULL,PennController,12,_Header_,Start,1687287988311,60a6ba026f8bd75b67b23c97,60a6ba026f8bd75b67b23c97,10,train,critical,C,75,train65.jpg,train85.jpg,low,NULL
1687288221,51bb331ee39c74155ee0a29038b29ef3,PennController,13,0,experiment,NULL,PennController,12,_Header_,End,1687287988311,60a6ba026f8bd75b67b23c97,60a6ba026f8bd75b67b23c97,10,train,critical,C,75,train65.jpg,train85.jpg,low,NULL
1687288221,51bb331ee39c74155ee0a29038b29ef3,PennController,13,0,experiment,NULL,Canvas,canvas6,Print,NA,1687287995992,60a6ba026f8bd75b67b23c97,60a6ba026f8bd75b67b23c97,10,train,critical,C,75,train65.jpg,train85.jpg,low,NULL
1687288221,51bb331ee39c74155ee0a29038b29ef3,PennController,13,0,experiment,NULL,Video,progression,buffer,0.001307,1687287991826,60a6ba026f8bd75b67b23c97,60a6ba026f8bd75b67b23c97,10,train,critical,C,75,train65.jpg,train85.jpg,low,NULL
1687288221,51bb331ee39c74155ee0a29038b29ef3,PennController,13,0,experiment,NULL,Selector,choice,Selection,option1,1687288000317,60a6ba026f8bd75b67b23c97,60a6ba026f8bd75b67b23c97,10,train,critical,C,75,train65.jpg,train85.jpg,low,option1;option2
1687288221,51bb331ee39c74155ee0a29038b29ef3,PennController,13,0,experiment,NULL,PennController,12,_Trial_,End,1687288000318,60a6ba026f8bd75b67b23c97,60a6ba026f8bd75b67b23c97,10,train,critical,C,75,train65.jpg,train85.jpg,low,NULL
1687288221,51bb331ee39c74155ee0a29038b29ef3,PennController,16,0,experiment,NULL,PennController,15,_Trial_,Start,1687288000319,60a6ba026f8bd75b67b23c97,60a6ba026f8bd75b67b23c97,13,mix,critical,C,75,mix65.jpg,mix85.jpg,low,NULL
1687288221,51bb331ee39c74155ee0a29038b29ef3,PennController,16,0,experiment,NULL,PennController,15,_Header_,Start,1687288000319,60a6ba026f8bd75b67b23c97,60a6ba026f8bd75b67b23c97,13,mix,critical,C,75,mix65.jpg,mix85.jpg,low,NULL
1687288221,51bb331ee39c74155ee0a29038b29ef3,PennController,16,0,experiment,NULL,PennController,15,_Header_,End,1687288000319,60a6ba026f8bd75b67b23c97,60a6ba026f8bd75b67b23c97,13,mix,critical,C,75,mix65.jpg,mix85.jpg,low,NULL
1687288221,51bb331ee39c74155ee0a29038b29ef3,PennController,16,0,experiment,NULL,Canvas,canvas6,Print,NA,1687288007991,60a6ba026f8bd75b67b23c97,60a6ba026f8bd75b67b23c97,13,mix,critical,C,75,mix65.jpg,mix85.jpg,low,NULL
1687288221,51bb331ee39c74155ee0a29038b29ef3,PennController,16,0,experiment,NULL,Video,progression,buffer,0.001811,1687288003835,60a6ba026f8bd75b67b23c97,60a6ba026f8bd75b67b23c97,13,mix,critical,C,75,mix65.jpg,mix85.jpg,low,NULL
1687288221,51bb331ee39c74155ee0a29038b29ef3,PennController,16,0,experiment,NULL,Selector,choice,Selection,option1,1687288010915,60a6ba026f8bd75b67b23c97,60a6ba026f8bd75b67b23c97,13,mix,critical,C,75,mix65.jpg,mix85.jpg,low,option1;option2
1687288221,51bb331ee39c74155ee0a29038b29ef3,PennController,16,0,experiment,NULL,PennController,15,_Trial_,End,1687288010916,60a6ba026f8bd75b67b23c97,60a6ba026f8bd75b67b23c97,13,mix,critical,C,75,mix65.jpg,mix85.jpg,low,NULL
1687288221,51bb331ee39c74155ee0a29038b29ef3,PennController,27,0,experiment,NULL,PennController,26,_Trial_,Start,1687288010916,60a6ba026f8bd75b67b23c97,60a6ba026f8bd75b67b23c97,24,match,filler,C,50,match40.jpg,match60.jpg,GoalB,NULL
1687288221,51bb331ee39c74155ee0a29038b29ef3,PennController,27,0,experiment,NULL,PennController,26,_Header_,Start,1687288010916,60a6ba026f8bd75b67b23c97,60a6ba026f8bd75b67b23c97,24,match,filler,C,50,match40.jpg,match60.jpg,GoalB,NULL
1687288221,51bb331ee39c74155ee0a29038b29ef3,PennController,27,0,experiment,NULL,PennController,26,_Header_,End,1687288010916,60a6ba026f8bd75b67b23c97,60a6ba026f8bd75b67b23c97,24,match,filler,C,50,match40.jpg,match60.jpg,GoalB,NULL
1687288221,51bb331ee39c74155ee0a29038b29ef3,PennController,27,0,experiment,NULL,Canvas,canvas6,Print,NA,1687288017592,60a6ba026f8bd75b67b23c97,60a6ba026f8bd75b67b23c97,24,match,filler,C,50,match40.jpg,match60.jpg,GoalB,NULL
1687288221,51bb331ee39c74155ee0a29038b29ef3,PennController,27,0,experiment,NULL,Video,progression,buffer,0.001714,1687288014436,60a6ba026f8bd75b67b23c97,60a6ba026f8bd75b67b23c97,24,match,filler,C,50,match40.jpg,match60.jpg,GoalB,NULL
1687288221,51bb331ee39c74155ee0a29038b29ef3,PennController,27,0,experiment,NULL,Selector,choice,Selection,option1,1687288019903,60a6ba026f8bd75b67b23c97,60a6ba026f8bd75b67b23c97,24,match,filler,C,50,match40.jpg,match60.jpg,GoalB,option2;option1
1687288221,51bb331ee39c74155ee0a29038b29ef3,PennController,27,0,experiment,NULL,PennController,26,_Trial_,End,1687288019904,60a6ba026f8bd75b67b23c97,60a6ba026f8bd75b67b23c97,24,match,filler,C,50,match40.jpg,match60.jpg,GoalB,NULL
1687288221,51bb331ee39c74155ee0a29038b29ef3,PennController,14,0,experiment,NULL,PennController,13,_Trial_,Start,1687288019906,60a6ba026f8bd75b67b23c97,60a6ba026f8bd75b67b23c97,11,beads,critical,C,25,beads15.jpg,beads35.jpg,low,NULL
1687288221,51bb331ee39c74155ee0a29038b29ef3,PennController,14,0,experiment,NULL,PennController,13,_Header_,Start,1687288019906,60a6ba026f8bd75b67b23c97,60a6ba026f8bd75b67b23c97,11,beads,critical,C,25,beads15.jpg,beads35.jpg,low,NULL
1687288221,51bb331ee39c74155ee0a29038b29ef3,PennController,14,0,experiment,NULL,PennController,13,_Header_,End,1687288019906,60a6ba026f8bd75b67b23c97,60a6ba026f8bd75b67b23c97,11,beads,critical,C,25,beads15.jpg,beads35.jpg,low,NULL
1687288221,51bb331ee39c74155ee0a29038b29ef3,PennController,14,0,experiment,NULL,Canvas,canvas6,Print,NA,1687288025574,60a6ba026f8bd75b67b23c97,60a6ba026f8bd75b67b23c97,11,beads,critical,C,25,beads15.jpg,beads35.jpg,low,NULL
1687288221,51bb331ee39c74155ee0a29038b29ef3,PennController,14,0,experiment,NULL,Video,progression,buffer,0.001194,1687288023420,60a6ba026f8bd75b67b23c97,60a6ba026f8bd75b67b23c97,11,beads,critical,C,25,beads15.jpg,beads35.jpg,low,NULL
1687288221,51bb331ee39c74155ee0a29038b29ef3,PennController,14,0,experiment,NULL,Selector,choice,Selection,option2,1687288028390,60a6ba026f8bd75b67b23c97,60a6ba026f8bd75b67b23c97,11,beads,critical,C,25,beads15.jpg,beads35.jpg,low,option1;option2
1687288221,51bb331ee39c74155ee0a29038b29ef3,PennController,14,0,experiment,NULL,PennController,13,_Trial_,End,1687288028391,60a6ba026f8bd75b67b23c97,60a6ba026f8bd75b67b23c97,11,beads,critical,C,25,beads15.jpg,beads35.jpg,low,NULL
1687288221,51bb331ee39c74155ee0a29038b29ef3,PennController,15,0,experiment,NULL,PennController,14,_Trial_,Start,1687288028392,60a6ba026f8bd75b67b23c97,60a6ba026f8bd75b67b23c97,12,erase,critical,C,50,erase42.jpg,erase60.jpg,low,NULL
1687288221,51bb331ee39c74155ee0a29038b29ef3,PennController,15,0,experiment,NULL,PennController,14,_Header_,Start,1687288028392,60a6ba026f8bd75b67b23c97,60a6ba026f8bd75b67b23c97,12,erase,critical,C,50,erase42.jpg,erase60.jpg,low,NULL
1687288221,51bb331ee39c74155ee0a29038b29ef3,PennController,15,0,experiment,NULL,PennController,14,_Header_,End,1687288028392,60a6ba026f8bd75b67b23c97,60a6ba026f8bd75b67b23c97,12,erase,critical,C,50,erase42.jpg,erase60.jpg,low,NULL
1687288221,51bb331ee39c74155ee0a29038b29ef3,PennController,15,0,experiment,NULL,Canvas,canvas6,Print,NA,1687288036458,60a6ba026f8bd75b67b23c97,60a6ba026f8bd75b67b23c97,12,erase,critical,C,50,erase42.jpg,erase60.jpg,low,NULL
1687288221,51bb331ee39c74155ee0a29038b29ef3,PennController,15,0,experiment,NULL,Video,progression,buffer,0.001307,1687288031902,60a6ba026f8bd75b67b23c97,60a6ba026f8bd75b67b23c97,12,erase,critical,C,50,erase42.jpg,erase60.jpg,low,NULL
1687288221,51bb331ee39c74155ee0a29038b29ef3,PennController,15,0,experiment,NULL,Selector,choice,Selection,option2,1687288038049,60a6ba026f8bd75b67b23c97,60a6ba026f8bd75b67b23c97,12,erase,critical,C,50,erase42.jpg,erase60.jpg,low,option2;option1
1687288221,51bb331ee39c74155ee0a29038b29ef3,PennController,15,0,experiment,NULL,PennController,14,_Trial_,End,1687288038050,60a6ba026f8bd75b67b23c97,60a6ba026f8bd75b67b23c97,12,erase,critical,C,50,erase42.jpg,erase60.jpg,low,NULL
1687288221,51bb331ee39c74155ee0a29038b29ef3,PennController,20,0,experiment,NULL,PennController,19,_Trial_,Start,1687288038050,60a6ba026f8bd75b67b23c97,60a6ba026f8bd75b67b23c97,17,roll,critical,C,25,roll15.jpg,roll35.jpg,low,NULL
1687288221,51bb331ee39c74155ee0a29038b29ef3,PennController,20,0,experiment,NULL,PennController,19,_Header_,Start,1687288038050,60a6ba026f8bd75b67b23c97,60a6ba026f8bd75b67b23c97,17,roll,critical,C,25,roll15.jpg,roll35.jpg,low,NULL
1687288221,51bb331ee39c74155ee0a29038b29ef3,PennController,20,0,experiment,NULL,PennController,19,_Header_,End,1687288038050,60a6ba026f8bd75b67b23c97,60a6ba026f8bd75b67b23c97,17,roll,critical,C,25,roll15.jpg,roll35.jpg,low,NULL
1687288221,51bb331ee39c74155ee0a29038b29ef3,PennController,20,0,experiment,NULL,Canvas,canvas6,Print,NA,1687288043725,60a6ba026f8bd75b67b23c97,60a6ba026f8bd75b67b23c97,17,roll,critical,C,25,roll15.jpg,roll35.jpg,low,NULL
1687288221,51bb331ee39c74155ee0a29038b29ef3,PennController,20,0,experiment,NULL,Video,progression,buffer,0.001465,1687288041561,60a6ba026f8bd75b67b23c97,60a6ba026f8bd75b67b23c97,17,roll,critical,C,25,roll15.jpg,roll35.jpg,low,NULL
1687288221,51bb331ee39c74155ee0a29038b29ef3,PennController,20,0,experiment,NULL,Selector,choice,Selection,option1,1687288045388,60a6ba026f8bd75b67b23c97,60a6ba026f8bd75b67b23c97,17,roll,critical,C,25,roll15.jpg,roll35.jpg,low,option1;option2
1687288221,51bb331ee39c74155ee0a29038b29ef3,PennController,20,0,experiment,NULL,PennController,19,_Trial_,End,1687288045389,60a6ba026f8bd75b67b23c97,60a6ba026f8bd75b67b23c97,17,roll,critical,C,25,roll15.jpg,roll35.jpg,low,NULL
1687288221,51bb331ee39c74155ee0a29038b29ef3,PennController,19,0,experiment,NULL,PennController,18,_Trial_,Start,1687288045390,60a6ba026f8bd75b67b23c97,60a6ba026f8bd75b67b23c97,16,blinds,critical,C,75,blinds66.jpg,blinds84.jpg,low,NULL
1687288221,51bb331ee39c74155ee0a29038b29ef3,PennController,19,0,experiment,NULL,PennController,18,_Header_,Start,1687288045390,60a6ba026f8bd75b67b23c97,60a6ba026f8bd75b67b23c97,16,blinds,critical,C,75,blinds66.jpg,blinds84.jpg,low,NULL
1687288221,51bb331ee39c74155ee0a29038b29ef3,PennController,19,0,experiment,NULL,PennController,18,_Header_,End,1687288045390,60a6ba026f8bd75b67b23c97,60a6ba026f8bd75b67b23c97,16,blinds,critical,C,75,blinds66.jpg,blinds84.jpg,low,NULL
1687288221,51bb331ee39c74155ee0a29038b29ef3,PennController,19,0,experiment,NULL,Canvas,canvas6,Print,NA,1687288055078,60a6ba026f8bd75b67b23c97,60a6ba026f8bd75b67b23c97,16,blinds,critical,C,75,blinds66.jpg,blinds84.jpg,low,NULL
1687288221,51bb331ee39c74155ee0a29038b29ef3,PennController,19,0,experiment,NULL,Video,progression,buffer,0.001868,1687288048906,60a6ba026f8bd75b67b23c97,60a6ba026f8bd75b67b23c97,16,blinds,critical,C,75,blinds66.jpg,blinds84.jpg,low,NULL
1687288221,51bb331ee39c74155ee0a29038b29ef3,PennController,19,0,experiment,NULL,Selector,choice,Selection,option2,1687288056651,60a6ba026f8bd75b67b23c97,60a6ba026f8bd75b67b23c97,16,blinds,critical,C,75,blinds66.jpg,blinds84.jpg,low,option1;option2
1687288221,51bb331ee39c74155ee0a29038b29ef3,PennController,19,0,experiment,NULL,PennController,18,_Trial_,End,1687288056652,60a6ba026f8bd75b67b23c97,60a6ba026f8bd75b67b23c97,16,blinds,critical,C,75,blinds66.jpg,blinds84.jpg,low,NULL
1687288221,51bb331ee39c74155ee0a29038b29ef3,PennController,4,0,experiment,NULL,PennController,3,_Trial_,Start,1687288056653,60a6ba026f8bd75b67b23c97,60a6ba026f8bd75b67b23c97,1,vase,critical,C,75,vase65.jpg,vase85.jpg,low,NULL
1687288221,51bb331ee39c74155ee0a29038b29ef3,PennController,4,0,experiment,NULL,PennController,3,_Header_,Start,1687288056653,60a6ba026f8bd75b67b23c97,60a6ba026f8bd75b67b23c97,1,vase,critical,C,75,vase65.jpg,vase85.jpg,low,NULL
1687288221,51bb331ee39c74155ee0a29038b29ef3,PennController,4,0,experiment,NULL,PennController,3,_Header_,End,1687288056653,60a6ba026f8bd75b67b23c97,60a6ba026f8bd75b67b23c97,1,vase,critical,C,75,vase65.jpg,vase85.jpg,low,NULL
1687288221,51bb331ee39c74155ee0a29038b29ef3,PennController,4,0,experiment,NULL,Canvas,canvas6,Print,NA,1687288064324,60a6ba026f8bd75b67b23c97,60a6ba026f8bd75b67b23c97,1,vase,critical,C,75,vase65.jpg,vase85.jpg,low,NULL
1687288221,51bb331ee39c74155ee0a29038b29ef3,PennController,4,0,experiment,NULL,Video,progression,buffer,0.002062,1687288060170,60a6ba026f8bd75b67b23c97,60a6ba026f8bd75b67b23c97,1,vase,critical,C,75,vase65.jpg,vase85.jpg,low,NULL
1687288221,51bb331ee39c74155ee0a29038b29ef3,PennController,4,0,experiment,NULL,Selector,choice,Selection,option2,1687288066244,60a6ba026f8bd75b67b23c97,60a6ba026f8bd75b67b23c97,1,vase,critical,C,75,vase65.jpg,vase85.jpg,low,option1;option2
1687288221,51bb331ee39c74155ee0a29038b29ef3,PennController,4,0,experiment,NULL,PennController,3,_Trial_,End,1687288066245,60a6ba026f8bd75b67b23c97,60a6ba026f8bd75b67b23c97,1,vase,critical,C,75,vase65.jpg,vase85.jpg,low,NULL
1687288221,51bb331ee39c74155ee0a29038b29ef3,PennController,21,0,experiment,NULL,PennController,20,_Trial_,Start,1687288066246,60a6ba026f8bd75b67b23c97,60a6ba026f8bd75b67b23c97,18,ball,critical,C,50,ball40.jpg,ball60.jpg,low,NULL
1687288221,51bb331ee39c74155ee0a29038b29ef3,PennController,21,0,experiment,NULL,PennController,20,_Header_,Start,1687288066246,60a6ba026f8bd75b67b23c97,60a6ba026f8bd75b67b23c97,18,ball,critical,C,50,ball40.jpg,ball60.jpg,low,NULL
1687288221,51bb331ee39c74155ee0a29038b29ef3,PennController,21,0,experiment,NULL,PennController,20,_Header_,End,1687288066246,60a6ba026f8bd75b67b23c97,60a6ba026f8bd75b67b23c97,18,ball,critical,C,50,ball40.jpg,ball60.jpg,low,NULL
1687288221,51bb331ee39c74155ee0a29038b29ef3,PennController,21,0,experiment,NULL,Canvas,canvas6,Print,NA,1687288072923,60a6ba026f8bd75b67b23c97,60a6ba026f8bd75b67b23c97,18,ball,critical,C,50,ball40.jpg,ball60.jpg,low,NULL
1687288221,51bb331ee39c74155ee0a29038b29ef3,PennController,21,0,experiment,NULL,Video,progression,buffer,0.001858,1687288069757,60a6ba026f8bd75b67b23c97,60a6ba026f8bd75b67b23c97,18,ball,critical,C,50,ball40.jpg,ball60.jpg,low,NULL
1687288221,51bb331ee39c74155ee0a29038b29ef3,PennController,21,0,experiment,NULL,Selector,choice,Selection,option2,1687288075393,60a6ba026f8bd75b67b23c97,60a6ba026f8bd75b67b23c97,18,ball,critical,C,50,ball40.jpg,ball60.jpg,low,option2;option1
1687288221,51bb331ee39c74155ee0a29038b29ef3,PennController,21,0,experiment,NULL,PennController,20,_Trial_,End,1687288075394,60a6ba026f8bd75b67b23c97,60a6ba026f8bd75b67b23c97,18,ball,critical,C,50,ball40.jpg,ball60.jpg,low,NULL
1687288221,51bb331ee39c74155ee0a29038b29ef3,PennController,8,0,experiment,NULL,PennController,7,_Trial_,Start,1687288075395,60a6ba026f8bd75b67b23c97,60a6ba026f8bd75b67b23c97,5,book,critical,C,25,book15.jpg,book35.jpg,low,NULL
1687288221,51bb331ee39c74155ee0a29038b29ef3,PennController,8,0,experiment,NULL,PennController,7,_Header_,Start,1687288075395,60a6ba026f8bd75b67b23c97,60a6ba026f8bd75b67b23c97,5,book,critical,C,25,book15.jpg,book35.jpg,low,NULL
1687288221,51bb331ee39c74155ee0a29038b29ef3,PennController,8,0,experiment,NULL,PennController,7,_Header_,End,1687288075395,60a6ba026f8bd75b67b23c97,60a6ba026f8bd75b67b23c97,5,book,critical,C,25,book15.jpg,book35.jpg,low,NULL
1687288221,51bb331ee39c74155ee0a29038b29ef3,PennController,8,0,experiment,NULL,Canvas,canvas6,Print,NA,1687288081076,60a6ba026f8bd75b67b23c97,60a6ba026f8bd75b67b23c97,5,book,critical,C,25,book15.jpg,book35.jpg,low,NULL
1687288221,51bb331ee39c74155ee0a29038b29ef3,PennController,8,0,experiment,NULL,Video,progression,buffer,0.002804,1687288078912,60a6ba026f8bd75b67b23c97,60a6ba026f8bd75b67b23c97,5,book,critical,C,25,book15.jpg,book35.jpg,low,NULL
1687288221,51bb331ee39c74155ee0a29038b29ef3,PennController,8,0,experiment,NULL,Selector,choice,Selection,option1,1687288082309,60a6ba026f8bd75b67b23c97,60a6ba026f8bd75b67b23c97,5,book,critical,C,25,book15.jpg,book35.jpg,low,option1;option2
1687288221,51bb331ee39c74155ee0a29038b29ef3,PennController,8,0,experiment,NULL,PennController,7,_Trial_,End,1687288082310,60a6ba026f8bd75b67b23c97,60a6ba026f8bd75b67b23c97,5,book,critical,C,25,book15.jpg,book35.jpg,low,NULL
1687288221,51bb331ee39c74155ee0a29038b29ef3,PennController,9,0,experiment,NULL,PennController,8,_Trial_,Start,1687288082311,60a6ba026f8bd75b67b23c97,60a6ba026f8bd75b67b23c97,6,flower,critical,C,50,flower40.jpg,flower60.jpg,low,NULL
1687288221,51bb331ee39c74155ee0a29038b29ef3,PennController,9,0,experiment,NULL,PennController,8,_Header_,Start,1687288082311,60a6ba026f8bd75b67b23c97,60a6ba026f8bd75b67b23c97,6,flower,critical,C,50,flower40.jpg,flower60.jpg,low,NULL
1687288221,51bb331ee39c74155ee0a29038b29ef3,PennController,9,0,experiment,NULL,PennController,8,_Header_,End,1687288082311,60a6ba026f8bd75b67b23c97,60a6ba026f8bd75b67b23c97,6,flower,critical,C,50,flower40.jpg,flower60.jpg,low,NULL
1687288221,51bb331ee39c74155ee0a29038b29ef3,PennController,9,0,experiment,NULL,Canvas,canvas6,Print,NA,1687288088995,60a6ba026f8bd75b67b23c97,60a6ba026f8bd75b67b23c97,6,flower,critical,C,50,flower40.jpg,flower60.jpg,low,NULL
1687288221,51bb331ee39c74155ee0a29038b29ef3,PennController,9,0,experiment,NULL,Video,progression,buffer,0.002532,1687288085822,60a6ba026f8bd75b67b23c97,60a6ba026f8bd75b67b23c97,6,flower,critical,C,50,flower40.jpg,flower60.jpg,low,NULL
1687288221,51bb331ee39c74155ee0a29038b29ef3,PennController,9,0,experiment,NULL,Selector,choice,Selection,option1,1687288091415,60a6ba026f8bd75b67b23c97,60a6ba026f8bd75b67b23c97,6,flower,critical,C,50,flower40.jpg,flower60.jpg,low,option2;option1
1687288221,51bb331ee39c74155ee0a29038b29ef3,PennController,9,0,experiment,NULL,PennController,8,_Trial_,End,1687288091416,60a6ba026f8bd75b67b23c97,60a6ba026f8bd75b67b23c97,6,flower,critical,C,50,flower40.jpg,flower60.jpg,low,NULL
1687288221,51bb331ee39c74155ee0a29038b29ef3,PennController,18,0,experiment,NULL,PennController,17,_Trial_,Start,1687288091416,60a6ba026f8bd75b67b23c97,60a6ba026f8bd75b67b23c97,15,zip,critical,C,50,zip40.jpg,zip60.jpg,low,NULL
1687288221,51bb331ee39c74155ee0a29038b29ef3,PennController,18,0,experiment,NULL,PennController,17,_Header_,Start,1687288091416,60a6ba026f8bd75b67b23c97,60a6ba026f8bd75b67b23c97,15,zip,critical,C,50,zip40.jpg,zip60.jpg,low,NULL
1687288221,51bb331ee39c74155ee0a29038b29ef3,PennController,18,0,experiment,NULL,PennController,17,_Header_,End,1687288091416,60a6ba026f8bd75b67b23c97,60a6ba026f8bd75b67b23c97,15,zip,critical,C,50,zip40.jpg,zip60.jpg,low,NULL
1687288221,51bb331ee39c74155ee0a29038b29ef3,PennController,18,0,experiment,NULL,Canvas,canvas6,Print,NA,1687288098094,60a6ba026f8bd75b67b23c97,60a6ba026f8bd75b67b23c97,15,zip,critical,C,50,zip40.jpg,zip60.jpg,low,NULL
1687288221,51bb331ee39c74155ee0a29038b29ef3,PennController,18,0,experiment,NULL,Video,progression,buffer,0.002355,1687288094934,60a6ba026f8bd75b67b23c97,60a6ba026f8bd75b67b23c97,15,zip,critical,C,50,zip40.jpg,zip60.jpg,low,NULL
1687288221,51bb331ee39c74155ee0a29038b29ef3,PennController,18,0,experiment,NULL,Selector,choice,Selection,option1,1687288103193,60a6ba026f8bd75b67b23c97,60a6ba026f8bd75b67b23c97,15,zip,critical,C,50,zip40.jpg,zip60.jpg,low,option2;option1
1687288221,51bb331ee39c74155ee0a29038b29ef3,PennController,18,0,experiment,NULL,PennController,17,_Trial_,End,1687288103194,60a6ba026f8bd75b67b23c97,60a6ba026f8bd75b67b23c97,15,zip,critical,C,50,zip40.jpg,zip60.jpg,low,NULL
1687288221,51bb331ee39c74155ee0a29038b29ef3,PennController,7,0,experiment,NULL,PennController,6,_Trial_,Start,1687288103195,60a6ba026f8bd75b67b23c97,60a6ba026f8bd75b67b23c97,4,candy,critical,C,75,candy65.jpg,candy85.jpg,low,NULL
1687288221,51bb331ee39c74155ee0a29038b29ef3,PennController,7,0,experiment,NULL,PennController,6,_Header_,Start,1687288103195,60a6ba026f8bd75b67b23c97,60a6ba026f8bd75b67b23c97,4,candy,critical,C,75,candy65.jpg,candy85.jpg,low,NULL
1687288221,51bb331ee39c74155ee0a29038b29ef3,PennController,7,0,experiment,NULL,PennController,6,_Header_,End,1687288103195,60a6ba026f8bd75b67b23c97,60a6ba026f8bd75b67b23c97,4,candy,critical,C,75,candy65.jpg,candy85.jpg,low,NULL
1687288221,51bb331ee39c74155ee0a29038b29ef3,PennController,7,0,experiment,NULL,Canvas,canvas6,Print,NA,1687288110877,60a6ba026f8bd75b67b23c97,60a6ba026f8bd75b67b23c97,4,candy,critical,C,75,candy65.jpg,candy85.jpg,low,NULL
1687288221,51bb331ee39c74155ee0a29038b29ef3,PennController,7,0,experiment,NULL,Video,progression,buffer,0.002348,1687288106708,60a6ba026f8bd75b67b23c97,60a6ba026f8bd75b67b23c97,4,candy,critical,C,75,candy65.jpg,candy85.jpg,low,NULL
1687288221,51bb331ee39c74155ee0a29038b29ef3,PennController,7,0,experiment,NULL,Selector,choice,Selection,option1,1687288113072,60a6ba026f8bd75b67b23c97,60a6ba026f8bd75b67b23c97,4,candy,critical,C,75,candy65.jpg,candy85.jpg,low,option1;option2
1687288221,51bb331ee39c74155ee0a29038b29ef3,PennController,7,0,experiment,NULL,PennController,6,_Trial_,End,1687288113072,60a6ba026f8bd75b67b23c97,60a6ba026f8bd75b67b23c97,4,candy,critical,C,75,candy65.jpg,candy85.jpg,low,NULL
1687288221,51bb331ee39c74155ee0a29038b29ef3,PennController,10,0,experiment,NULL,PennController,9,_Trial_,Start,1687288113073,60a6ba026f8bd75b67b23c97,60a6ba026f8bd75b67b23c97,7,stack,critical,C,75,stack65.jpg,stack85.jpg,low,NULL
1687288221,51bb331ee39c74155ee0a29038b29ef3,PennController,10,0,experiment,NULL,PennController,9,_Header_,Start,1687288113073,60a6ba026f8bd75b67b23c97,60a6ba026f8bd75b67b23c97,7,stack,critical,C,75,stack65.jpg,stack85.jpg,low,NULL
1687288221,51bb331ee39c74155ee0a29038b29ef3,PennController,10,0,experiment,NULL,PennController,9,_Header_,End,1687288113073,60a6ba026f8bd75b67b23c97,60a6ba026f8bd75b67b23c97,7,stack,critical,C,75,stack65.jpg,stack85.jpg,low,NULL
1687288221,51bb331ee39c74155ee0a29038b29ef3,PennController,10,0,experiment,NULL,Canvas,canvas6,Print,NA,1687288120760,60a6ba026f8bd75b67b23c97,60a6ba026f8bd75b67b23c97,7,stack,critical,C,75,stack65.jpg,stack85.jpg,low,NULL
1687288221,51bb331ee39c74155ee0a29038b29ef3,PennController,10,0,experiment,NULL,Video,progression,buffer,0.001825,1687288116589,60a6ba026f8bd75b67b23c97,60a6ba026f8bd75b67b23c97,7,stack,critical,C,75,stack65.jpg,stack85.jpg,low,NULL
1687288221,51bb331ee39c74155ee0a29038b29ef3,PennController,10,0,experiment,NULL,Selector,choice,Selection,option1,1687288124705,60a6ba026f8bd75b67b23c97,60a6ba026f8bd75b67b23c97,7,stack,critical,C,75,stack65.jpg,stack85.jpg,low,option2;option1
1687288221,51bb331ee39c74155ee0a29038b29ef3,PennController,10,0,experiment,NULL,PennController,9,_Trial_,End,1687288124706,60a6ba026f8bd75b67b23c97,60a6ba026f8bd75b67b23c97,7,stack,critical,C,75,stack65.jpg,stack85.jpg,low,NULL
1687288221,51bb331ee39c74155ee0a29038b29ef3,PennController,12,0,experiment,NULL,PennController,11,_Trial_,Start,1687288124707,60a6ba026f8bd75b67b23c97,60a6ba026f8bd75b67b23c97,9,cake,critical,C,50,cake42.jpg,cake60.jpg,low,NULL
1687288221,51bb331ee39c74155ee0a29038b29ef3,PennController,12,0,experiment,NULL,PennController,11,_Header_,Start,1687288124707,60a6ba026f8bd75b67b23c97,60a6ba026f8bd75b67b23c97,9,cake,critical,C,50,cake42.jpg,cake60.jpg,low,NULL
1687288221,51bb331ee39c74155ee0a29038b29ef3,PennController,12,0,experiment,NULL,PennController,11,_Header_,End,1687288124707,60a6ba026f8bd75b67b23c97,60a6ba026f8bd75b67b23c97,9,cake,critical,C,50,cake42.jpg,cake60.jpg,low,NULL
1687288221,51bb331ee39c74155ee0a29038b29ef3,PennController,12,0,experiment,NULL,Canvas,canvas6,Print,NA,1687288132775,60a6ba026f8bd75b67b23c97,60a6ba026f8bd75b67b23c97,9,cake,critical,C,50,cake42.jpg,cake60.jpg,low,NULL
1687288221,51bb331ee39c74155ee0a29038b29ef3,PennController,12,0,experiment,NULL,Video,progression,buffer,0.001243,1687288128219,60a6ba026f8bd75b67b23c97,60a6ba026f8bd75b67b23c97,9,cake,critical,C,50,cake42.jpg,cake60.jpg,low,NULL
1687288221,51bb331ee39c74155ee0a29038b29ef3,PennController,12,0,experiment,NULL,Selector,choice,Selection,option2,1687288133841,60a6ba026f8bd75b67b23c97,60a6ba026f8bd75b67b23c97,9,cake,critical,C,50,cake42.jpg,cake60.jpg,low,option1;option2
1687288221,51bb331ee39c74155ee0a29038b29ef3,PennController,12,0,experiment,NULL,PennController,11,_Trial_,End,1687288133842,60a6ba026f8bd75b67b23c97,60a6ba026f8bd75b67b23c97,9,cake,critical,C,50,cake42.jpg,cake60.jpg,low,NULL
1687288221,51bb331ee39c74155ee0a29038b29ef3,PennController,28,0,experiment,NULL,PennController,27,_Trial_,Start,1687288133843,60a6ba026f8bd75b67b23c97,60a6ba026f8bd75b67b23c97,25,house,filler,C,75,house65.jpg,house85.jpg,GoalA,NULL
1687288221,51bb331ee39c74155ee0a29038b29ef3,PennController,28,0,experiment,NULL,PennController,27,_Header_,Start,1687288133843,60a6ba026f8bd75b67b23c97,60a6ba026f8bd75b67b23c97,25,house,filler,C,75,house65.jpg,house85.jpg,GoalA,NULL
1687288221,51bb331ee39c74155ee0a29038b29ef3,PennController,28,0,experiment,NULL,PennController,27,_Header_,End,1687288133843,60a6ba026f8bd75b67b23c97,60a6ba026f8bd75b67b23c97,25,house,filler,C,75,house65.jpg,house85.jpg,GoalA,NULL
1687288221,51bb331ee39c74155ee0a29038b29ef3,PennController,28,0,experiment,NULL,Canvas,canvas6,Print,NA,1687288141512,60a6ba026f8bd75b67b23c97,60a6ba026f8bd75b67b23c97,25,house,filler,C,75,house65.jpg,house85.jpg,GoalA,NULL
1687288221,51bb331ee39c74155ee0a29038b29ef3,PennController,28,0,experiment,NULL,Video,progression,buffer,0.001171,1687288137349,60a6ba026f8bd75b67b23c97,60a6ba026f8bd75b67b23c97,25,house,filler,C,75,house65.jpg,house85.jpg,GoalA,NULL
1687288221,51bb331ee39c74155ee0a29038b29ef3,PennController,28,0,experiment,NULL,Selector,choice,Selection,option2,1687288144437,60a6ba026f8bd75b67b23c97,60a6ba026f8bd75b67b23c97,25,house,filler,C,75,house65.jpg,house85.jpg,GoalA,option2;option1
1687288221,51bb331ee39c74155ee0a29038b29ef3,PennController,28,0,experiment,NULL,PennController,27,_Trial_,End,1687288144438,60a6ba026f8bd75b67b23c97,60a6ba026f8bd75b67b23c97,25,house,filler,C,75,house65.jpg,house85.jpg,GoalA,NULL
1687288221,51bb331ee39c74155ee0a29038b29ef3,PennController,6,0,experiment,NULL,PennController,5,_Trial_,Start,1687288144439,60a6ba026f8bd75b67b23c97,60a6ba026f8bd75b67b23c97,3,clean,critical,C,50,clean40.jpg,clean60.jpg,low,NULL
1687288221,51bb331ee39c74155ee0a29038b29ef3,PennController,6,0,experiment,NULL,PennController,5,_Header_,Start,1687288144439,60a6ba026f8bd75b67b23c97,60a6ba026f8bd75b67b23c97,3,clean,critical,C,50,clean40.jpg,clean60.jpg,low,NULL
1687288221,51bb331ee39c74155ee0a29038b29ef3,PennController,6,0,experiment,NULL,PennController,5,_Header_,End,1687288144439,60a6ba026f8bd75b67b23c97,60a6ba026f8bd75b67b23c97,3,clean,critical,C,50,clean40.jpg,clean60.jpg,low,NULL
1687288221,51bb331ee39c74155ee0a29038b29ef3,PennController,6,0,experiment,NULL,Canvas,canvas6,Print,NA,1687288151127,60a6ba026f8bd75b67b23c97,60a6ba026f8bd75b67b23c97,3,clean,critical,C,50,clean40.jpg,clean60.jpg,low,NULL
1687288221,51bb331ee39c74155ee0a29038b29ef3,PennController,6,0,experiment,NULL,Video,progression,buffer,0.001234,1687288147959,60a6ba026f8bd75b67b23c97,60a6ba026f8bd75b67b23c97,3,clean,critical,C,50,clean40.jpg,clean60.jpg,low,NULL
1687288221,51bb331ee39c74155ee0a29038b29ef3,PennController,6,0,experiment,NULL,Selector,choice,Selection,option2,1687288152942,60a6ba026f8bd75b67b23c97,60a6ba026f8bd75b67b23c97,3,clean,critical,C,50,clean40.jpg,clean60.jpg,low,option1;option2
1687288221,51bb331ee39c74155ee0a29038b29ef3,PennController,6,0,experiment,NULL,PennController,5,_Trial_,End,1687288152943,60a6ba026f8bd75b67b23c97,60a6ba026f8bd75b67b23c97,3,clean,critical,C,50,clean40.jpg,clean60.jpg,low,NULL
1687288221,51bb331ee39c74155ee0a29038b29ef3,PennController,29,0,experiment,NULL,PennController,28,_Trial_,Start,1687288152943,60a6ba026f8bd75b67b23c97,60a6ba026f8bd75b67b23c97,26,sandwich,filler,C,25,sandwich15.jpg,sandwich35.jpg,GoalB,NULL
1687288221,51bb331ee39c74155ee0a29038b29ef3,PennController,29,0,experiment,NULL,PennController,28,_Header_,Start,1687288152943,60a6ba026f8bd75b67b23c97,60a6ba026f8bd75b67b23c97,26,sandwich,filler,C,25,sandwich15.jpg,sandwich35.jpg,GoalB,NULL
1687288221,51bb331ee39c74155ee0a29038b29ef3,PennController,29,0,experiment,NULL,PennController,28,_Header_,End,1687288152943,60a6ba026f8bd75b67b23c97,60a6ba026f8bd75b67b23c97,26,sandwich,filler,C,25,sandwich15.jpg,sandwich35.jpg,GoalB,NULL
1687288221,51bb331ee39c74155ee0a29038b29ef3,PennController,29,0,experiment,NULL,Canvas,canvas6,Print,NA,1687288158627,60a6ba026f8bd75b67b23c97,60a6ba026f8bd75b67b23c97,26,sandwich,filler,C,25,sandwich15.jpg,sandwich35.jpg,GoalB,NULL
1687288221,51bb331ee39c74155ee0a29038b29ef3,PennController,29,0,experiment,NULL,Video,progression,buffer,0.001462,1687288156457,60a6ba026f8bd75b67b23c97,60a6ba026f8bd75b67b23c97,26,sandwich,filler,C,25,sandwich15.jpg,sandwich35.jpg,GoalB,NULL
1687288221,51bb331ee39c74155ee0a29038b29ef3,PennController,29,0,experiment,NULL,Selector,choice,Selection,option1,1687288159915,60a6ba026f8bd75b67b23c97,60a6ba026f8bd75b67b23c97,26,sandwich,filler,C,25,sandwich15.jpg,sandwich35.jpg,GoalB,option2;option1
1687288221,51bb331ee39c74155ee0a29038b29ef3,PennController,29,0,experiment,NULL,PennController,28,_Trial_,End,1687288159916,60a6ba026f8bd75b67b23c97,60a6ba026f8bd75b67b23c97,26,sandwich,filler,C,25,sandwich15.jpg,sandwich35.jpg,GoalB,NULL
1687288221,51bb331ee39c74155ee0a29038b29ef3,PennController,24,0,experiment,NULL,PennController,23,_Trial_,Start,1687288159917,60a6ba026f8bd75b67b23c97,60a6ba026f8bd75b67b23c97,21,visit,filler,C,50,visit40.jpg,visit60.jpg,GoalA,NULL
1687288221,51bb331ee39c74155ee0a29038b29ef3,PennController,24,0,experiment,NULL,PennController,23,_Header_,Start,1687288159917,60a6ba026f8bd75b67b23c97,60a6ba026f8bd75b67b23c97,21,visit,filler,C,50,visit40.jpg,visit60.jpg,GoalA,NULL
1687288221,51bb331ee39c74155ee0a29038b29ef3,PennController,24,0,experiment,NULL,PennController,23,_Header_,End,1687288159917,60a6ba026f8bd75b67b23c97,60a6ba026f8bd75b67b23c97,21,visit,filler,C,50,visit40.jpg,visit60.jpg,GoalA,NULL
1687288221,51bb331ee39c74155ee0a29038b29ef3,PennController,24,0,experiment,NULL,Canvas,canvas6,Print,NA,1687288166594,60a6ba026f8bd75b67b23c97,60a6ba026f8bd75b67b23c97,21,visit,filler,C,50,visit40.jpg,visit60.jpg,GoalA,NULL
1687288221,51bb331ee39c74155ee0a29038b29ef3,PennController,24,0,experiment,NULL,Video,progression,buffer,0.001354,1687288163428,60a6ba026f8bd75b67b23c97,60a6ba026f8bd75b67b23c97,21,visit,filler,C,50,visit40.jpg,visit60.jpg,GoalA,NULL
1687288221,51bb331ee39c74155ee0a29038b29ef3,PennController,24,0,experiment,NULL,Selector,choice,Selection,option1,1687288167881,60a6ba026f8bd75b67b23c97,60a6ba026f8bd75b67b23c97,21,visit,filler,C,50,visit40.jpg,visit60.jpg,GoalA,option1;option2
1687288221,51bb331ee39c74155ee0a29038b29ef3,PennController,24,0,experiment,NULL,PennController,23,_Trial_,End,1687288167882,60a6ba026f8bd75b67b23c97,60a6ba026f8bd75b67b23c97,21,visit,filler,C,50,visit40.jpg,visit60.jpg,GoalA,NULL
1687288221,51bb331ee39c74155ee0a29038b29ef3,PennController,32,0,experiment,NULL,PennController,31,_Trial_,Start,1687288167882,60a6ba026f8bd75b67b23c97,60a6ba026f8bd75b67b23c97,29,frog,filler,C,25,frog15.jpg,frog35.jpg,GoalA,NULL
1687288221,51bb331ee39c74155ee0a29038b29ef3,PennController,32,0,experiment,NULL,PennController,31,_Header_,Start,1687288167882,60a6ba026f8bd75b67b23c97,60a6ba026f8bd75b67b23c97,29,frog,filler,C,25,frog15.jpg,frog35.jpg,GoalA,NULL
1687288221,51bb331ee39c74155ee0a29038b29ef3,PennController,32,0,experiment,NULL,PennController,31,_Header_,End,1687288167882,60a6ba026f8bd75b67b23c97,60a6ba026f8bd75b67b23c97,29,frog,filler,C,25,frog15.jpg,frog35.jpg,GoalA,NULL
1687288221,51bb331ee39c74155ee0a29038b29ef3,PennController,32,0,experiment,NULL,Canvas,canvas6,Print,NA,1687288173558,60a6ba026f8bd75b67b23c97,60a6ba026f8bd75b67b23c97,29,frog,filler,C,25,frog15.jpg,frog35.jpg,GoalA,NULL
1687288221,51bb331ee39c74155ee0a29038b29ef3,PennController,32,0,experiment,NULL,Video,progression,buffer,0.001356,1687288171398,60a6ba026f8bd75b67b23c97,60a6ba026f8bd75b67b23c97,29,frog,filler,C,25,frog15.jpg,frog35.jpg,GoalA,NULL
1687288221,51bb331ee39c74155ee0a29038b29ef3,PennController,32,0,experiment,NULL,Selector,choice,Selection,option2,1687288174661,60a6ba026f8bd75b67b23c97,60a6ba026f8bd75b67b23c97,29,frog,filler,C,25,frog15.jpg,frog35.jpg,GoalA,option1;option2
1687288221,51bb331ee39c74155ee0a29038b29ef3,PennController,32,0,experiment,NULL,PennController,31,_Trial_,End,1687288174662,60a6ba026f8bd75b67b23c97,60a6ba026f8bd75b67b23c97,29,frog,filler,C,25,frog15.jpg,frog35.jpg,GoalA,NULL
1687288221,51bb331ee39c74155ee0a29038b29ef3,PennController,26,0,experiment,NULL,PennController,25,_Trial_,Start,1687288174662,60a6ba026f8bd75b67b23c97,60a6ba026f8bd75b67b23c97,23,color,filler,C,25,color15.jpg,color35.jpg,GoalA,NULL
1687288221,51bb331ee39c74155ee0a29038b29ef3,PennController,26,0,experiment,NULL,PennController,25,_Header_,Start,1687288174662,60a6ba026f8bd75b67b23c97,60a6ba026f8bd75b67b23c97,23,color,filler,C,25,color15.jpg,color35.jpg,GoalA,NULL
1687288221,51bb331ee39c74155ee0a29038b29ef3,PennController,26,0,experiment,NULL,PennController,25,_Header_,End,1687288174662,60a6ba026f8bd75b67b23c97,60a6ba026f8bd75b67b23c97,23,color,filler,C,25,color15.jpg,color35.jpg,GoalA,NULL
1687288221,51bb331ee39c74155ee0a29038b29ef3,PennController,26,0,experiment,NULL,Canvas,canvas6,Print,NA,1687288180344,60a6ba026f8bd75b67b23c97,60a6ba026f8bd75b67b23c97,23,color,filler,C,25,color15.jpg,color35.jpg,GoalA,NULL
1687288221,51bb331ee39c74155ee0a29038b29ef3,PennController,26,0,experiment,NULL,Video,progression,buffer,0.002314,1687288178179,60a6ba026f8bd75b67b23c97,60a6ba026f8bd75b67b23c97,23,color,filler,C,25,color15.jpg,color35.jpg,GoalA,NULL
1687288221,51bb331ee39c74155ee0a29038b29ef3,PennController,26,0,experiment,NULL,Selector,choice,Selection,option2,1687288181667,60a6ba026f8bd75b67b23c97,60a6ba026f8bd75b67b23c97,23,color,filler,C,25,color15.jpg,color35.jpg,GoalA,option1;option2
1687288221,51bb331ee39c74155ee0a29038b29ef3,PennController,26,0,experiment,NULL,PennController,25,_Trial_,End,1687288181668,60a6ba026f8bd75b67b23c97,60a6ba026f8bd75b67b23c97,23,color,filler,C,25,color15.jpg,color35.jpg,GoalA,NULL
1687288221,51bb331ee39c74155ee0a29038b29ef3,PennController,5,0,experiment,NULL,PennController,4,_Trial_,Start,1687288181669,60a6ba026f8bd75b67b23c97,60a6ba026f8bd75b67b23c97,2,door,critical,C,25,door15.jpg,door35.jpg,low,NULL
1687288221,51bb331ee39c74155ee0a29038b29ef3,PennController,5,0,experiment,NULL,PennController,4,_Header_,Start,1687288181669,60a6ba026f8bd75b67b23c97,60a6ba026f8bd75b67b23c97,2,door,critical,C,25,door15.jpg,door35.jpg,low,NULL
1687288221,51bb331ee39c74155ee0a29038b29ef3,PennController,5,0,experiment,NULL,PennController,4,_Header_,End,1687288181669,60a6ba026f8bd75b67b23c97,60a6ba026f8bd75b67b23c97,2,door,critical,C,25,door15.jpg,door35.jpg,low,NULL
1687288221,51bb331ee39c74155ee0a29038b29ef3,PennController,5,0,experiment,NULL,Canvas,canvas6,Print,NA,1687288187341,60a6ba026f8bd75b67b23c97,60a6ba026f8bd75b67b23c97,2,door,critical,C,25,door15.jpg,door35.jpg,low,NULL
1687288221,51bb331ee39c74155ee0a29038b29ef3,PennController,5,0,experiment,NULL,Video,progression,buffer,0.001147,1687288185182,60a6ba026f8bd75b67b23c97,60a6ba026f8bd75b67b23c97,2,door,critical,C,25,door15.jpg,door35.jpg,low,NULL
1687288221,51bb331ee39c74155ee0a29038b29ef3,PennController,5,0,experiment,NULL,Selector,choice,Selection,option2,1687288188529,60a6ba026f8bd75b67b23c97,60a6ba026f8bd75b67b23c97,2,door,critical,C,25,door15.jpg,door35.jpg,low,option1;option2
1687288221,51bb331ee39c74155ee0a29038b29ef3,PennController,5,0,experiment,NULL,PennController,4,_Trial_,End,1687288188530,60a6ba026f8bd75b67b23c97,60a6ba026f8bd75b67b23c97,2,door,critical,C,25,door15.jpg,door35.jpg,low,NULL
1687288221,51bb331ee39c74155ee0a29038b29ef3,PennController,11,0,experiment,NULL,PennController,10,_Trial_,Start,1687288188530,60a6ba026f8bd75b67b23c97,60a6ba026f8bd75b67b23c97,8,cucumber,critical,C,25,cucumber15.jpg,cucumber33.jpg,low,NULL
1687288221,51bb331ee39c74155ee0a29038b29ef3,PennController,11,0,experiment,NULL,PennController,10,_Header_,Start,1687288188530,60a6ba026f8bd75b67b23c97,60a6ba026f8bd75b67b23c97,8,cucumber,critical,C,25,cucumber15.jpg,cucumber33.jpg,low,NULL
1687288221,51bb331ee39c74155ee0a29038b29ef3,PennController,11,0,experiment,NULL,PennController,10,_Header_,End,1687288188530,60a6ba026f8bd75b67b23c97,60a6ba026f8bd75b67b23c97,8,cucumber,critical,C,25,cucumber15.jpg,cucumber33.jpg,low,NULL
1687288221,51bb331ee39c74155ee0a29038b29ef3,PennController,11,0,experiment,NULL,Canvas,canvas6,Print,NA,1687288194812,60a6ba026f8bd75b67b23c97,60a6ba026f8bd75b67b23c97,8,cucumber,critical,C,25,cucumber15.jpg,cucumber33.jpg,low,NULL
1687288221,51bb331ee39c74155ee0a29038b29ef3,PennController,11,0,experiment,NULL,Video,progression,buffer,0.001364,1687288192043,60a6ba026f8bd75b67b23c97,60a6ba026f8bd75b67b23c97,8,cucumber,critical,C,25,cucumber15.jpg,cucumber33.jpg,low,NULL
1687288221,51bb331ee39c74155ee0a29038b29ef3,PennController,11,0,experiment,NULL,Selector,choice,Selection,option1,1687288195902,60a6ba026f8bd75b67b23c97,60a6ba026f8bd75b67b23c97,8,cucumber,critical,C,25,cucumber15.jpg,cucumber33.jpg,low,option2;option1
1687288221,51bb331ee39c74155ee0a29038b29ef3,PennController,11,0,experiment,NULL,PennController,10,_Trial_,End,1687288195903,60a6ba026f8bd75b67b23c97,60a6ba026f8bd75b67b23c97,8,cucumber,critical,C,25,cucumber15.jpg,cucumber33.jpg,low,NULL
1687288221,51bb331ee39c74155ee0a29038b29ef3,PennController,31,0,experiment,NULL,PennController,30,_Trial_,Start,1687288195905,60a6ba026f8bd75b67b23c97,60a6ba026f8bd75b67b23c97,28,sort,filler,C,75,sort65.jpg,sort85.jpg,GoalB,NULL
1687288221,51bb331ee39c74155ee0a29038b29ef3,PennController,31,0,experiment,NULL,PennController,30,_Header_,Start,1687288195905,60a6ba026f8bd75b67b23c97,60a6ba026f8bd75b67b23c97,28,sort,filler,C,75,sort65.jpg,sort85.jpg,GoalB,NULL
1687288221,51bb331ee39c74155ee0a29038b29ef3,PennController,31,0,experiment,NULL,PennController,30,_Header_,End,1687288195905,60a6ba026f8bd75b67b23c97,60a6ba026f8bd75b67b23c97,28,sort,filler,C,75,sort65.jpg,sort85.jpg,GoalB,NULL
1687288221,51bb331ee39c74155ee0a29038b29ef3,PennController,31,0,experiment,NULL,Canvas,canvas6,Print,NA,1687288203576,60a6ba026f8bd75b67b23c97,60a6ba026f8bd75b67b23c97,28,sort,filler,C,75,sort65.jpg,sort85.jpg,GoalB,NULL
1687288221,51bb331ee39c74155ee0a29038b29ef3,PennController,31,0,experiment,NULL,Video,progression,buffer,0.001388,1687288199418,60a6ba026f8bd75b67b23c97,60a6ba026f8bd75b67b23c97,28,sort,filler,C,75,sort65.jpg,sort85.jpg,GoalB,NULL
1687288221,51bb331ee39c74155ee0a29038b29ef3,PennController,31,0,experiment,NULL,Selector,choice,Selection,option2,1687288205114,60a6ba026f8bd75b67b23c97,60a6ba026f8bd75b67b23c97,28,sort,filler,C,75,sort65.jpg,sort85.jpg,GoalB,option1;option2
1687288221,51bb331ee39c74155ee0a29038b29ef3,PennController,31,0,experiment,NULL,PennController,30,_Trial_,End,1687288205116,60a6ba026f8bd75b67b23c97,60a6ba026f8bd75b67b23c97,28,sort,filler,C,75,sort65.jpg,sort85.jpg,GoalB,NULL
1687288221,51bb331ee39c74155ee0a29038b29ef3,PennController,30,0,experiment,NULL,PennController,29,_Trial_,Start,1687288205116,60a6ba026f8bd75b67b23c97,60a6ba026f8bd75b67b23c97,27,square,filler,C,50,square40.jpg,square60.jpg,GoalA,NULL
1687288221,51bb331ee39c74155ee0a29038b29ef3,PennController,30,0,experiment,NULL,PennController,29,_Header_,Start,1687288205116,60a6ba026f8bd75b67b23c97,60a6ba026f8bd75b67b23c97,27,square,filler,C,50,square40.jpg,square60.jpg,GoalA,NULL
1687288221,51bb331ee39c74155ee0a29038b29ef3,PennController,30,0,experiment,NULL,PennController,29,_Header_,End,1687288205117,60a6ba026f8bd75b67b23c97,60a6ba026f8bd75b67b23c97,27,square,filler,C,50,square40.jpg,square60.jpg,GoalA,NULL
1687288221,51bb331ee39c74155ee0a29038b29ef3,PennController,30,0,experiment,NULL,Canvas,canvas6,Print,NA,1687288211795,60a6ba026f8bd75b67b23c97,60a6ba026f8bd75b67b23c97,27,square,filler,C,50,square40.jpg,square60.jpg,GoalA,NULL
1687288221,51bb331ee39c74155ee0a29038b29ef3,PennController,30,0,experiment,NULL,Video,progression,buffer,0.00222,1687288208635,60a6ba026f8bd75b67b23c97,60a6ba026f8bd75b67b23c97,27,square,filler,C,50,square40.jpg,square60.jpg,GoalA,NULL
1687288221,51bb331ee39c74155ee0a29038b29ef3,PennController,30,0,experiment,NULL,Selector,choice,Selection,option1,1687288213057,60a6ba026f8bd75b67b23c97,60a6ba026f8bd75b67b23c97,27,square,filler,C,50,square40.jpg,square60.jpg,GoalA,option2;option1
1687288221,51bb331ee39c74155ee0a29038b29ef3,PennController,30,0,experiment,NULL,PennController,29,_Trial_,End,1687288213058,60a6ba026f8bd75b67b23c97,60a6ba026f8bd75b67b23c97,27,square,filler,C,50,square40.jpg,square60.jpg,GoalA,NULL
1687288221,51bb331ee39c74155ee0a29038b29ef3,PennController,23,0,experiment,NULL,PennController,22,_Trial_,Start,1687288213059,60a6ba026f8bd75b67b23c97,60a6ba026f8bd75b67b23c97,20,cat,filler,C,25,cat15.jpg,cat35.jpg,GoalB,NULL
1687288221,51bb331ee39c74155ee0a29038b29ef3,PennController,23,0,experiment,NULL,PennController,22,_Header_,Start,1687288213059,60a6ba026f8bd75b67b23c97,60a6ba026f8bd75b67b23c97,20,cat,filler,C,25,cat15.jpg,cat35.jpg,GoalB,NULL
1687288221,51bb331ee39c74155ee0a29038b29ef3,PennController,23,0,experiment,NULL,PennController,22,_Header_,End,1687288213059,60a6ba026f8bd75b67b23c97,60a6ba026f8bd75b67b23c97,20,cat,filler,C,25,cat15.jpg,cat35.jpg,GoalB,NULL
1687288221,51bb331ee39c74155ee0a29038b29ef3,PennController,23,0,experiment,NULL,Canvas,canvas6,Print,NA,1687288218725,60a6ba026f8bd75b67b23c97,60a6ba026f8bd75b67b23c97,20,cat,filler,C,25,cat15.jpg,cat35.jpg,GoalB,NULL
1687288221,51bb331ee39c74155ee0a29038b29ef3,PennController,23,0,experiment,NULL,Video,progression,buffer,0.00148,1687288216570,60a6ba026f8bd75b67b23c97,60a6ba026f8bd75b67b23c97,20,cat,filler,C,25,cat15.jpg,cat35.jpg,GoalB,NULL
1687288221,51bb331ee39c74155ee0a29038b29ef3,PennController,23,0,experiment,NULL,Selector,choice,Selection,option2,1687288219884,60a6ba026f8bd75b67b23c97,60a6ba026f8bd75b67b23c97,20,cat,filler,C,25,cat15.jpg,cat35.jpg,GoalB,option2;option1
1687288221,51bb331ee39c74155ee0a29038b29ef3,PennController,23,0,experiment,NULL,PennController,22,_Trial_,End,1687288219885,60a6ba026f8bd75b67b23c97,60a6ba026f8bd75b67b23c97,20,cat,filler,C,25,cat15.jpg,cat35.jpg,GoalB,NULL
