#
# Results on Tuesday June 20 2023 18:54:41 UTC
# USER AGENT: Mozilla/5.0 (Windows NT 10.0; Win64; x64) AppleWebKit/537.36 (KHTML, like Gecko) Chrome/114.0.0.0 Safari/537.36
# Design number was non-random = 3
#
# Columns below this comment are as follows:
# 1. Results reception time.
# 2. MD5 hash of participant's IP address.
# 3. Controller name.
# 4. Order number of item.
# 5. Inner element number.
# 6. Label.
# 7. Latin Square Group.
# 8. PennElementType.
# 9. PennElementName.
# 10. Parameter.
# 11. Value.
# 12. EventTime.
# 13. PROLIFIC_ID.
# 14. Comments.
1687287281,d0351600448e1fea621f54fb78be1f8d,PennController,2,0,consent,NULL,PennController,0,_Trial_,Start,1687286953720,6159ee4a75c783cd361820e1,NULL
1687287281,d0351600448e1fea621f54fb78be1f8d,PennController,2,0,consent,NULL,PennController,0,_Header_,Start,1687286953720,6159ee4a75c783cd361820e1,NULL
1687287281,d0351600448e1fea621f54fb78be1f8d,PennController,2,0,consent,NULL,PennController,0,_Header_,End,1687286953720,6159ee4a75c783cd361820e1,NULL
1687287281,d0351600448e1fea621f54fb78be1f8d,PennController,2,0,consent,NULL,PennController,0,_Trial_,End,1687286967459,6159ee4a75c783cd361820e1,NULL
# Columns below this comment are as follows:
# 14. ID.
# 15. Comments.
1687287281,d0351600448e1fea621f54fb78be1f8d,PennController,3,0,intro,NULL,PennController,1,_Trial_,Start,1687286967460,6159ee4a75c783cd361820e1,6159ee4a75c783cd361820e1,NULL
1687287281,d0351600448e1fea621f54fb78be1f8d,PennController,3,0,intro,NULL,PennController,1,_Header_,Start,1687286967460,6159ee4a75c783cd361820e1,6159ee4a75c783cd361820e1,NULL
1687287281,d0351600448e1fea621f54fb78be1f8d,PennController,3,0,intro,NULL,PennController,1,_Header_,End,1687286967461,6159ee4a75c783cd361820e1,6159ee4a75c783cd361820e1,NULL
1687287281,d0351600448e1fea621f54fb78be1f8d,PennController,3,0,intro,NULL,PennController,1,_Trial_,End,1687286995177,6159ee4a75c783cd361820e1,6159ee4a75c783cd361820e1,NULL
# Columns below this comment are as follows:
# 15. item_number.
# 16. item.
# 17. type.
# 18. Group.
# 19. prog.
# 20. prev_image.
# 21. next_image.
# 22. height.
# 23. Comments.
1687287281,d0351600448e1fea621f54fb78be1f8d,PennController,4,0,experiment,NULL,PennController,3,_Trial_,Start,1687286995178,6159ee4a75c783cd361820e1,6159ee4a75c783cd361820e1,1,vase,critical,D,25,vase15.jpg,vase35.jpg,high,NULL
1687287281,d0351600448e1fea621f54fb78be1f8d,PennController,4,0,experiment,NULL,PennController,3,_Header_,Start,1687286995178,6159ee4a75c783cd361820e1,6159ee4a75c783cd361820e1,1,vase,critical,D,25,vase15.jpg,vase35.jpg,high,NULL
1687287281,d0351600448e1fea621f54fb78be1f8d,PennController,4,0,experiment,NULL,PennController,3,_Header_,End,1687286995178,6159ee4a75c783cd361820e1,6159ee4a75c783cd361820e1,1,vase,critical,D,25,vase15.jpg,vase35.jpg,high,NULL
1687287281,d0351600448e1fea621f54fb78be1f8d,PennController,4,0,experiment,NULL,Canvas,canvas6,Print,NA,1687287000914,6159ee4a75c783cd361820e1,6159ee4a75c783cd361820e1,1,vase,critical,D,25,vase15.jpg,vase35.jpg,high,NULL
1687287281,d0351600448e1fea621f54fb78be1f8d,PennController,4,0,experiment,NULL,Video,progression,buffer,0.002066,1687286998705,6159ee4a75c783cd361820e1,6159ee4a75c783cd361820e1,1,vase,critical,D,25,vase15.jpg,vase35.jpg,high,NULL
1687287281,d0351600448e1fea621f54fb78be1f8d,PennController,4,0,experiment,NULL,Selector,choice,Selection,option2,1687287004992,6159ee4a75c783cd361820e1,6159ee4a75c783cd361820e1,1,vase,critical,D,25,vase15.jpg,vase35.jpg,high,option2;option1
1687287281,d0351600448e1fea621f54fb78be1f8d,PennController,4,0,experiment,NULL,PennController,3,_Trial_,End,1687287004993,6159ee4a75c783cd361820e1,6159ee4a75c783cd361820e1,1,vase,critical,D,25,vase15.jpg,vase35.jpg,high,NULL
1687287281,d0351600448e1fea621f54fb78be1f8d,PennController,29,0,experiment,NULL,PennController,28,_Trial_,Start,1687287004994,6159ee4a75c783cd361820e1,6159ee4a75c783cd361820e1,26,sandwich,filler,D,50,sandwich40.jpg,sandwich60.jpg,GoalA,NULL
1687287281,d0351600448e1fea621f54fb78be1f8d,PennController,29,0,experiment,NULL,PennController,28,_Header_,Start,1687287004994,6159ee4a75c783cd361820e1,6159ee4a75c783cd361820e1,26,sandwich,filler,D,50,sandwich40.jpg,sandwich60.jpg,GoalA,NULL
1687287281,d0351600448e1fea621f54fb78be1f8d,PennController,29,0,experiment,NULL,PennController,28,_Header_,End,1687287004994,6159ee4a75c783cd361820e1,6159ee4a75c783cd361820e1,26,sandwich,filler,D,50,sandwich40.jpg,sandwich60.jpg,GoalA,NULL
1687287281,d0351600448e1fea621f54fb78be1f8d,PennController,29,0,experiment,NULL,Canvas,canvas6,Print,NA,1687287011716,6159ee4a75c783cd361820e1,6159ee4a75c783cd361820e1,26,sandwich,filler,D,50,sandwich40.jpg,sandwich60.jpg,GoalA,NULL
1687287281,d0351600448e1fea621f54fb78be1f8d,PennController,29,0,experiment,NULL,Video,progression,buffer,0.001344,1687287008520,6159ee4a75c783cd361820e1,6159ee4a75c783cd361820e1,26,sandwich,filler,D,50,sandwich40.jpg,sandwich60.jpg,GoalA,NULL
1687287281,d0351600448e1fea621f54fb78be1f8d,PennController,29,0,experiment,NULL,Selector,choice,Selection,option1,1687287013369,6159ee4a75c783cd361820e1,6159ee4a75c783cd361820e1,26,sandwich,filler,D,50,sandwich40.jpg,sandwich60.jpg,GoalA,option2;option1
1687287281,d0351600448e1fea621f54fb78be1f8d,PennController,29,0,experiment,NULL,PennController,28,_Trial_,End,1687287013370,6159ee4a75c783cd361820e1,6159ee4a75c783cd361820e1,26,sandwich,filler,D,50,sandwich40.jpg,sandwich60.jpg,GoalA,NULL
1687287281,d0351600448e1fea621f54fb78be1f8d,PennController,5,0,experiment,NULL,PennController,4,_Trial_,Start,1687287013372,6159ee4a75c783cd361820e1,6159ee4a75c783cd361820e1,2,door,critical,D,50,door40.jpg,door60.jpg,high,NULL
1687287281,d0351600448e1fea621f54fb78be1f8d,PennController,5,0,experiment,NULL,PennController,4,_Header_,Start,1687287013372,6159ee4a75c783cd361820e1,6159ee4a75c783cd361820e1,2,door,critical,D,50,door40.jpg,door60.jpg,high,NULL
1687287281,d0351600448e1fea621f54fb78be1f8d,PennController,5,0,experiment,NULL,PennController,4,_Header_,End,1687287013372,6159ee4a75c783cd361820e1,6159ee4a75c783cd361820e1,2,door,critical,D,50,door40.jpg,door60.jpg,high,NULL
1687287281,d0351600448e1fea621f54fb78be1f8d,PennController,5,0,experiment,NULL,Canvas,canvas6,Print,NA,1687287020090,6159ee4a75c783cd361820e1,6159ee4a75c783cd361820e1,2,door,critical,D,50,door40.jpg,door60.jpg,high,NULL
1687287281,d0351600448e1fea621f54fb78be1f8d,PennController,5,0,experiment,NULL,Video,progression,buffer,0.001453,1687287016886,6159ee4a75c783cd361820e1,6159ee4a75c783cd361820e1,2,door,critical,D,50,door40.jpg,door60.jpg,high,NULL
1687287281,d0351600448e1fea621f54fb78be1f8d,PennController,5,0,experiment,NULL,Selector,choice,Selection,option2,1687287023198,6159ee4a75c783cd361820e1,6159ee4a75c783cd361820e1,2,door,critical,D,50,door40.jpg,door60.jpg,high,option2;option1
1687287281,d0351600448e1fea621f54fb78be1f8d,PennController,5,0,experiment,NULL,PennController,4,_Trial_,End,1687287023199,6159ee4a75c783cd361820e1,6159ee4a75c783cd361820e1,2,door,critical,D,50,door40.jpg,door60.jpg,high,NULL
1687287281,d0351600448e1fea621f54fb78be1f8d,PennController,31,0,experiment,NULL,PennController,30,_Trial_,Start,1687287023200,6159ee4a75c783cd361820e1,6159ee4a75c783cd361820e1,28,sort,filler,D,25,sort15.jpg,sort35.jpg,GoalA,NULL
1687287281,d0351600448e1fea621f54fb78be1f8d,PennController,31,0,experiment,NULL,PennController,30,_Header_,Start,1687287023200,6159ee4a75c783cd361820e1,6159ee4a75c783cd361820e1,28,sort,filler,D,25,sort15.jpg,sort35.jpg,GoalA,NULL
1687287281,d0351600448e1fea621f54fb78be1f8d,PennController,31,0,experiment,NULL,PennController,30,_Header_,End,1687287023200,6159ee4a75c783cd361820e1,6159ee4a75c783cd361820e1,28,sort,filler,D,25,sort15.jpg,sort35.jpg,GoalA,NULL
1687287281,d0351600448e1fea621f54fb78be1f8d,PennController,31,0,experiment,NULL,Canvas,canvas6,Print,NA,1687287028929,6159ee4a75c783cd361820e1,6159ee4a75c783cd361820e1,28,sort,filler,D,25,sort15.jpg,sort35.jpg,GoalA,NULL
1687287281,d0351600448e1fea621f54fb78be1f8d,PennController,31,0,experiment,NULL,Video,progression,buffer,0.001729,1687287026726,6159ee4a75c783cd361820e1,6159ee4a75c783cd361820e1,28,sort,filler,D,25,sort15.jpg,sort35.jpg,GoalA,NULL
1687287281,d0351600448e1fea621f54fb78be1f8d,PennController,31,0,experiment,NULL,Selector,choice,Selection,option2,1687287031696,6159ee4a75c783cd361820e1,6159ee4a75c783cd361820e1,28,sort,filler,D,25,sort15.jpg,sort35.jpg,GoalA,option2;option1
1687287281,d0351600448e1fea621f54fb78be1f8d,PennController,31,0,experiment,NULL,PennController,30,_Trial_,End,1687287031697,6159ee4a75c783cd361820e1,6159ee4a75c783cd361820e1,28,sort,filler,D,25,sort15.jpg,sort35.jpg,GoalA,NULL
1687287281,d0351600448e1fea621f54fb78be1f8d,PennController,21,0,experiment,NULL,PennController,20,_Trial_,Start,1687287031698,6159ee4a75c783cd361820e1,6159ee4a75c783cd361820e1,18,ball,critical,D,75,ball65.jpg,ball85.jpg,high,NULL
1687287281,d0351600448e1fea621f54fb78be1f8d,PennController,21,0,experiment,NULL,PennController,20,_Header_,Start,1687287031698,6159ee4a75c783cd361820e1,6159ee4a75c783cd361820e1,18,ball,critical,D,75,ball65.jpg,ball85.jpg,high,NULL
1687287281,d0351600448e1fea621f54fb78be1f8d,PennController,21,0,experiment,NULL,PennController,20,_Header_,End,1687287031698,6159ee4a75c783cd361820e1,6159ee4a75c783cd361820e1,18,ball,critical,D,75,ball65.jpg,ball85.jpg,high,NULL
1687287281,d0351600448e1fea621f54fb78be1f8d,PennController,21,0,experiment,NULL,Canvas,canvas6,Print,NA,1687287039414,6159ee4a75c783cd361820e1,6159ee4a75c783cd361820e1,18,ball,critical,D,75,ball65.jpg,ball85.jpg,high,NULL
1687287281,d0351600448e1fea621f54fb78be1f8d,PennController,21,0,experiment,NULL,Video,progression,buffer,0.00175,1687287035219,6159ee4a75c783cd361820e1,6159ee4a75c783cd361820e1,18,ball,critical,D,75,ball65.jpg,ball85.jpg,high,NULL
1687287281,d0351600448e1fea621f54fb78be1f8d,PennController,21,0,experiment,NULL,Selector,choice,Selection,option2,1687287042839,6159ee4a75c783cd361820e1,6159ee4a75c783cd361820e1,18,ball,critical,D,75,ball65.jpg,ball85.jpg,high,option1;option2
1687287281,d0351600448e1fea621f54fb78be1f8d,PennController,21,0,experiment,NULL,PennController,20,_Trial_,End,1687287042840,6159ee4a75c783cd361820e1,6159ee4a75c783cd361820e1,18,ball,critical,D,75,ball65.jpg,ball85.jpg,high,NULL
1687287281,d0351600448e1fea621f54fb78be1f8d,PennController,10,0,experiment,NULL,PennController,9,_Trial_,Start,1687287042841,6159ee4a75c783cd361820e1,6159ee4a75c783cd361820e1,7,stack,critical,D,25,stack15.jpg,stack35.jpg,high,NULL
1687287281,d0351600448e1fea621f54fb78be1f8d,PennController,10,0,experiment,NULL,PennController,9,_Header_,Start,1687287042841,6159ee4a75c783cd361820e1,6159ee4a75c783cd361820e1,7,stack,critical,D,25,stack15.jpg,stack35.jpg,high,NULL
1687287281,d0351600448e1fea621f54fb78be1f8d,PennController,10,0,experiment,NULL,PennController,9,_Header_,End,1687287042841,6159ee4a75c783cd361820e1,6159ee4a75c783cd361820e1,7,stack,critical,D,25,stack15.jpg,stack35.jpg,high,NULL
1687287281,d0351600448e1fea621f54fb78be1f8d,PennController,10,0,experiment,NULL,Canvas,canvas6,Print,NA,1687287048575,6159ee4a75c783cd361820e1,6159ee4a75c783cd361820e1,7,stack,critical,D,25,stack15.jpg,stack35.jpg,high,NULL
1687287281,d0351600448e1fea621f54fb78be1f8d,PennController,10,0,experiment,NULL,Video,progression,buffer,0.001796,1687287046374,6159ee4a75c783cd361820e1,6159ee4a75c783cd361820e1,7,stack,critical,D,25,stack15.jpg,stack35.jpg,high,NULL
1687287281,d0351600448e1fea621f54fb78be1f8d,PennController,10,0,experiment,NULL,Selector,choice,Selection,option1,1687287050495,6159ee4a75c783cd361820e1,6159ee4a75c783cd361820e1,7,stack,critical,D,25,stack15.jpg,stack35.jpg,high,option2;option1
1687287281,d0351600448e1fea621f54fb78be1f8d,PennController,10,0,experiment,NULL,PennController,9,_Trial_,End,1687287050496,6159ee4a75c783cd361820e1,6159ee4a75c783cd361820e1,7,stack,critical,D,25,stack15.jpg,stack35.jpg,high,NULL
1687287281,d0351600448e1fea621f54fb78be1f8d,PennController,20,0,experiment,NULL,PennController,19,_Trial_,Start,1687287050497,6159ee4a75c783cd361820e1,6159ee4a75c783cd361820e1,17,roll,critical,D,50,roll40.jpg,roll60.jpg,high,NULL
1687287281,d0351600448e1fea621f54fb78be1f8d,PennController,20,0,experiment,NULL,PennController,19,_Header_,Start,1687287050497,6159ee4a75c783cd361820e1,6159ee4a75c783cd361820e1,17,roll,critical,D,50,roll40.jpg,roll60.jpg,high,NULL
1687287281,d0351600448e1fea621f54fb78be1f8d,PennController,20,0,experiment,NULL,PennController,19,_Header_,End,1687287050497,6159ee4a75c783cd361820e1,6159ee4a75c783cd361820e1,17,roll,critical,D,50,roll40.jpg,roll60.jpg,high,NULL
1687287281,d0351600448e1fea621f54fb78be1f8d,PennController,20,0,experiment,NULL,Canvas,canvas6,Print,NA,1687287057256,6159ee4a75c783cd361820e1,6159ee4a75c783cd361820e1,17,roll,critical,D,50,roll40.jpg,roll60.jpg,high,NULL
1687287281,d0351600448e1fea621f54fb78be1f8d,PennController,20,0,experiment,NULL,Video,progression,buffer,0,1687287054025,6159ee4a75c783cd361820e1,6159ee4a75c783cd361820e1,17,roll,critical,D,50,roll40.jpg,roll60.jpg,high,NULL
1687287281,d0351600448e1fea621f54fb78be1f8d,PennController,20,0,experiment,NULL,Selector,choice,Selection,option1,1687287058760,6159ee4a75c783cd361820e1,6159ee4a75c783cd361820e1,17,roll,critical,D,50,roll40.jpg,roll60.jpg,high,option1;option2
1687287281,d0351600448e1fea621f54fb78be1f8d,PennController,20,0,experiment,NULL,PennController,19,_Trial_,End,1687287058761,6159ee4a75c783cd361820e1,6159ee4a75c783cd361820e1,17,roll,critical,D,50,roll40.jpg,roll60.jpg,high,NULL
1687287281,d0351600448e1fea621f54fb78be1f8d,PennController,18,0,experiment,NULL,PennController,17,_Trial_,Start,1687287058762,6159ee4a75c783cd361820e1,6159ee4a75c783cd361820e1,15,zip,critical,D,75,zip65.jpg,zip85.jpg,high,NULL
1687287281,d0351600448e1fea621f54fb78be1f8d,PennController,18,0,experiment,NULL,PennController,17,_Header_,Start,1687287058762,6159ee4a75c783cd361820e1,6159ee4a75c783cd361820e1,15,zip,critical,D,75,zip65.jpg,zip85.jpg,high,NULL
1687287281,d0351600448e1fea621f54fb78be1f8d,PennController,18,0,experiment,NULL,PennController,17,_Header_,End,1687287058762,6159ee4a75c783cd361820e1,6159ee4a75c783cd361820e1,15,zip,critical,D,75,zip65.jpg,zip85.jpg,high,NULL
1687287281,d0351600448e1fea621f54fb78be1f8d,PennController,18,0,experiment,NULL,Canvas,canvas6,Print,NA,1687287065690,6159ee4a75c783cd361820e1,6159ee4a75c783cd361820e1,15,zip,critical,D,75,zip65.jpg,zip85.jpg,high,NULL
1687287281,d0351600448e1fea621f54fb78be1f8d,PennController,18,0,experiment,NULL,Video,progression,buffer,0.008209,1687287062298,6159ee4a75c783cd361820e1,6159ee4a75c783cd361820e1,15,zip,critical,D,75,zip65.jpg,zip85.jpg,high,NULL
1687287281,d0351600448e1fea621f54fb78be1f8d,PennController,18,0,experiment,NULL,Selector,choice,Selection,option2,1687287068581,6159ee4a75c783cd361820e1,6159ee4a75c783cd361820e1,15,zip,critical,D,75,zip65.jpg,zip85.jpg,high,option2;option1
1687287281,d0351600448e1fea621f54fb78be1f8d,PennController,18,0,experiment,NULL,PennController,17,_Trial_,End,1687287068582,6159ee4a75c783cd361820e1,6159ee4a75c783cd361820e1,15,zip,critical,D,75,zip65.jpg,zip85.jpg,high,NULL
1687287281,d0351600448e1fea621f54fb78be1f8d,PennController,32,0,experiment,NULL,PennController,31,_Trial_,Start,1687287068583,6159ee4a75c783cd361820e1,6159ee4a75c783cd361820e1,29,frog,filler,D,50,frog40.jpg,frog60.jpg,GoalB,NULL
1687287281,d0351600448e1fea621f54fb78be1f8d,PennController,32,0,experiment,NULL,PennController,31,_Header_,Start,1687287068583,6159ee4a75c783cd361820e1,6159ee4a75c783cd361820e1,29,frog,filler,D,50,frog40.jpg,frog60.jpg,GoalB,NULL
1687287281,d0351600448e1fea621f54fb78be1f8d,PennController,32,0,experiment,NULL,PennController,31,_Header_,End,1687287068583,6159ee4a75c783cd361820e1,6159ee4a75c783cd361820e1,29,frog,filler,D,50,frog40.jpg,frog60.jpg,GoalB,NULL
1687287281,d0351600448e1fea621f54fb78be1f8d,PennController,32,0,experiment,NULL,Canvas,canvas6,Print,NA,1687287075320,6159ee4a75c783cd361820e1,6159ee4a75c783cd361820e1,29,frog,filler,D,50,frog40.jpg,frog60.jpg,GoalB,NULL
1687287281,d0351600448e1fea621f54fb78be1f8d,PennController,32,0,experiment,NULL,Video,progression,buffer,0.008254,1687287072128,6159ee4a75c783cd361820e1,6159ee4a75c783cd361820e1,29,frog,filler,D,50,frog40.jpg,frog60.jpg,GoalB,NULL
1687287281,d0351600448e1fea621f54fb78be1f8d,PennController,32,0,experiment,NULL,Selector,choice,Selection,option2,1687287076534,6159ee4a75c783cd361820e1,6159ee4a75c783cd361820e1,29,frog,filler,D,50,frog40.jpg,frog60.jpg,GoalB,option2;option1
1687287281,d0351600448e1fea621f54fb78be1f8d,PennController,32,0,experiment,NULL,PennController,31,_Trial_,End,1687287076535,6159ee4a75c783cd361820e1,6159ee4a75c783cd361820e1,29,frog,filler,D,50,frog40.jpg,frog60.jpg,GoalB,NULL
1687287281,d0351600448e1fea621f54fb78be1f8d,PennController,6,0,experiment,NULL,PennController,5,_Trial_,Start,1687287076536,6159ee4a75c783cd361820e1,6159ee4a75c783cd361820e1,3,clean,critical,D,75,clean65.jpg,clean85.jpg,high,NULL
1687287281,d0351600448e1fea621f54fb78be1f8d,PennController,6,0,experiment,NULL,PennController,5,_Header_,Start,1687287076536,6159ee4a75c783cd361820e1,6159ee4a75c783cd361820e1,3,clean,critical,D,75,clean65.jpg,clean85.jpg,high,NULL
1687287281,d0351600448e1fea621f54fb78be1f8d,PennController,6,0,experiment,NULL,PennController,5,_Header_,End,1687287076536,6159ee4a75c783cd361820e1,6159ee4a75c783cd361820e1,3,clean,critical,D,75,clean65.jpg,clean85.jpg,high,NULL
1687287281,d0351600448e1fea621f54fb78be1f8d,PennController,6,0,experiment,NULL,Canvas,canvas6,Print,NA,1687287084257,6159ee4a75c783cd361820e1,6159ee4a75c783cd361820e1,3,clean,critical,D,75,clean65.jpg,clean85.jpg,high,NULL
1687287281,d0351600448e1fea621f54fb78be1f8d,PennController,6,0,experiment,NULL,Video,progression,buffer,0.00133,1687287080057,6159ee4a75c783cd361820e1,6159ee4a75c783cd361820e1,3,clean,critical,D,75,clean65.jpg,clean85.jpg,high,NULL
1687287281,d0351600448e1fea621f54fb78be1f8d,PennController,6,0,experiment,NULL,Selector,choice,Selection,option2,1687287086948,6159ee4a75c783cd361820e1,6159ee4a75c783cd361820e1,3,clean,critical,D,75,clean65.jpg,clean85.jpg,high,option2;option1
1687287281,d0351600448e1fea621f54fb78be1f8d,PennController,6,0,experiment,NULL,PennController,5,_Trial_,End,1687287086949,6159ee4a75c783cd361820e1,6159ee4a75c783cd361820e1,3,clean,critical,D,75,clean65.jpg,clean85.jpg,high,NULL
1687287281,d0351600448e1fea621f54fb78be1f8d,PennController,23,0,experiment,NULL,PennController,22,_Trial_,Start,1687287086950,6159ee4a75c783cd361820e1,6159ee4a75c783cd361820e1,20,cat,filler,D,50,cat40.jpg,cat60.jpg,GoalA,NULL
1687287281,d0351600448e1fea621f54fb78be1f8d,PennController,23,0,experiment,NULL,PennController,22,_Header_,Start,1687287086950,6159ee4a75c783cd361820e1,6159ee4a75c783cd361820e1,20,cat,filler,D,50,cat40.jpg,cat60.jpg,GoalA,NULL
1687287281,d0351600448e1fea621f54fb78be1f8d,PennController,23,0,experiment,NULL,PennController,22,_Header_,End,1687287086950,6159ee4a75c783cd361820e1,6159ee4a75c783cd361820e1,20,cat,filler,D,50,cat40.jpg,cat60.jpg,GoalA,NULL
1687287281,d0351600448e1fea621f54fb78be1f8d,PennController,23,0,experiment,NULL,Canvas,canvas6,Print,NA,1687287093672,6159ee4a75c783cd361820e1,6159ee4a75c783cd361820e1,20,cat,filler,D,50,cat40.jpg,cat60.jpg,GoalA,NULL
1687287281,d0351600448e1fea621f54fb78be1f8d,PennController,23,0,experiment,NULL,Video,progression,buffer,0.002681,1687287090475,6159ee4a75c783cd361820e1,6159ee4a75c783cd361820e1,20,cat,filler,D,50,cat40.jpg,cat60.jpg,GoalA,NULL
1687287281,d0351600448e1fea621f54fb78be1f8d,PennController,23,0,experiment,NULL,Selector,choice,Selection,option2,1687287094860,6159ee4a75c783cd361820e1,6159ee4a75c783cd361820e1,20,cat,filler,D,50,cat40.jpg,cat60.jpg,GoalA,option2;option1
1687287281,d0351600448e1fea621f54fb78be1f8d,PennController,23,0,experiment,NULL,PennController,22,_Trial_,End,1687287094861,6159ee4a75c783cd361820e1,6159ee4a75c783cd361820e1,20,cat,filler,D,50,cat40.jpg,cat60.jpg,GoalA,NULL
1687287281,d0351600448e1fea621f54fb78be1f8d,PennController,22,0,experiment,NULL,PennController,21,_Trial_,Start,1687287094862,6159ee4a75c783cd361820e1,6159ee4a75c783cd361820e1,19,cup,filler,D,25,cup15.jpg,cup35.jpg,GoalB,NULL
1687287281,d0351600448e1fea621f54fb78be1f8d,PennController,22,0,experiment,NULL,PennController,21,_Header_,Start,1687287094862,6159ee4a75c783cd361820e1,6159ee4a75c783cd361820e1,19,cup,filler,D,25,cup15.jpg,cup35.jpg,GoalB,NULL
1687287281,d0351600448e1fea621f54fb78be1f8d,PennController,22,0,experiment,NULL,PennController,21,_Header_,End,1687287094862,6159ee4a75c783cd361820e1,6159ee4a75c783cd361820e1,19,cup,filler,D,25,cup15.jpg,cup35.jpg,GoalB,NULL
1687287281,d0351600448e1fea621f54fb78be1f8d,PennController,22,0,experiment,NULL,Canvas,canvas6,Print,NA,1687287100585,6159ee4a75c783cd361820e1,6159ee4a75c783cd361820e1,19,cup,filler,D,25,cup15.jpg,cup35.jpg,GoalB,NULL
1687287281,d0351600448e1fea621f54fb78be1f8d,PennController,22,0,experiment,NULL,Video,progression,buffer,0.00248,1687287098384,6159ee4a75c783cd361820e1,6159ee4a75c783cd361820e1,19,cup,filler,D,25,cup15.jpg,cup35.jpg,GoalB,NULL
1687287281,d0351600448e1fea621f54fb78be1f8d,PennController,22,0,experiment,NULL,Selector,choice,Selection,option2,1687287102260,6159ee4a75c783cd361820e1,6159ee4a75c783cd361820e1,19,cup,filler,D,25,cup15.jpg,cup35.jpg,GoalB,option1;option2
1687287281,d0351600448e1fea621f54fb78be1f8d,PennController,22,0,experiment,NULL,PennController,21,_Trial_,End,1687287102261,6159ee4a75c783cd361820e1,6159ee4a75c783cd361820e1,19,cup,filler,D,25,cup15.jpg,cup35.jpg,GoalB,NULL
1687287281,d0351600448e1fea621f54fb78be1f8d,PennController,28,0,experiment,NULL,PennController,27,_Trial_,Start,1687287102261,6159ee4a75c783cd361820e1,6159ee4a75c783cd361820e1,25,house,filler,D,25,house15.jpg,house35.jpg,GoalB,NULL
1687287281,d0351600448e1fea621f54fb78be1f8d,PennController,28,0,experiment,NULL,PennController,27,_Header_,Start,1687287102261,6159ee4a75c783cd361820e1,6159ee4a75c783cd361820e1,25,house,filler,D,25,house15.jpg,house35.jpg,GoalB,NULL
1687287281,d0351600448e1fea621f54fb78be1f8d,PennController,28,0,experiment,NULL,PennController,27,_Header_,End,1687287102262,6159ee4a75c783cd361820e1,6159ee4a75c783cd361820e1,25,house,filler,D,25,house15.jpg,house35.jpg,GoalB,NULL
1687287281,d0351600448e1fea621f54fb78be1f8d,PennController,28,0,experiment,NULL,Canvas,canvas6,Print,NA,1687287107982,6159ee4a75c783cd361820e1,6159ee4a75c783cd361820e1,25,house,filler,D,25,house15.jpg,house35.jpg,GoalB,NULL
1687287281,d0351600448e1fea621f54fb78be1f8d,PennController,28,0,experiment,NULL,Video,progression,buffer,0.001819,1687287105780,6159ee4a75c783cd361820e1,6159ee4a75c783cd361820e1,25,house,filler,D,25,house15.jpg,house35.jpg,GoalB,NULL
1687287281,d0351600448e1fea621f54fb78be1f8d,PennController,28,0,experiment,NULL,Selector,choice,Selection,option2,1687287108874,6159ee4a75c783cd361820e1,6159ee4a75c783cd361820e1,25,house,filler,D,25,house15.jpg,house35.jpg,GoalB,option2;option1
1687287281,d0351600448e1fea621f54fb78be1f8d,PennController,28,0,experiment,NULL,PennController,27,_Trial_,End,1687287108875,6159ee4a75c783cd361820e1,6159ee4a75c783cd361820e1,25,house,filler,D,25,house15.jpg,house35.jpg,GoalB,NULL
1687287281,d0351600448e1fea621f54fb78be1f8d,PennController,13,0,experiment,NULL,PennController,12,_Trial_,Start,1687287108876,6159ee4a75c783cd361820e1,6159ee4a75c783cd361820e1,10,train,critical,D,25,train15.jpg,train35.jpg,high,NULL
1687287281,d0351600448e1fea621f54fb78be1f8d,PennController,13,0,experiment,NULL,PennController,12,_Header_,Start,1687287108876,6159ee4a75c783cd361820e1,6159ee4a75c783cd361820e1,10,train,critical,D,25,train15.jpg,train35.jpg,high,NULL
1687287281,d0351600448e1fea621f54fb78be1f8d,PennController,13,0,experiment,NULL,PennController,12,_Header_,End,1687287108876,6159ee4a75c783cd361820e1,6159ee4a75c783cd361820e1,10,train,critical,D,25,train15.jpg,train35.jpg,high,NULL
1687287281,d0351600448e1fea621f54fb78be1f8d,PennController,13,0,experiment,NULL,Canvas,canvas6,Print,NA,1687287114596,6159ee4a75c783cd361820e1,6159ee4a75c783cd361820e1,10,train,critical,D,25,train15.jpg,train35.jpg,high,NULL
1687287281,d0351600448e1fea621f54fb78be1f8d,PennController,13,0,experiment,NULL,Video,progression,buffer,0.001729,1687287112399,6159ee4a75c783cd361820e1,6159ee4a75c783cd361820e1,10,train,critical,D,25,train15.jpg,train35.jpg,high,NULL
1687287281,d0351600448e1fea621f54fb78be1f8d,PennController,13,0,experiment,NULL,Selector,choice,Selection,option2,1687287118470,6159ee4a75c783cd361820e1,6159ee4a75c783cd361820e1,10,train,critical,D,25,train15.jpg,train35.jpg,high,option1;option2
1687287281,d0351600448e1fea621f54fb78be1f8d,PennController,13,0,experiment,NULL,PennController,12,_Trial_,End,1687287118471,6159ee4a75c783cd361820e1,6159ee4a75c783cd361820e1,10,train,critical,D,25,train15.jpg,train35.jpg,high,NULL
1687287281,d0351600448e1fea621f54fb78be1f8d,PennController,14,0,experiment,NULL,PennController,13,_Trial_,Start,1687287118472,6159ee4a75c783cd361820e1,6159ee4a75c783cd361820e1,11,beads,critical,D,50,beads40.jpg,beads60.jpg,high,NULL
1687287281,d0351600448e1fea621f54fb78be1f8d,PennController,14,0,experiment,NULL,PennController,13,_Header_,Start,1687287118472,6159ee4a75c783cd361820e1,6159ee4a75c783cd361820e1,11,beads,critical,D,50,beads40.jpg,beads60.jpg,high,NULL
1687287281,d0351600448e1fea621f54fb78be1f8d,PennController,14,0,experiment,NULL,PennController,13,_Header_,End,1687287118472,6159ee4a75c783cd361820e1,6159ee4a75c783cd361820e1,11,beads,critical,D,50,beads40.jpg,beads60.jpg,high,NULL
1687287281,d0351600448e1fea621f54fb78be1f8d,PennController,14,0,experiment,NULL,Canvas,canvas6,Print,NA,1687287125190,6159ee4a75c783cd361820e1,6159ee4a75c783cd361820e1,11,beads,critical,D,50,beads40.jpg,beads60.jpg,high,NULL
1687287281,d0351600448e1fea621f54fb78be1f8d,PennController,14,0,experiment,NULL,Video,progression,buffer,0.001261,1687287121991,6159ee4a75c783cd361820e1,6159ee4a75c783cd361820e1,11,beads,critical,D,50,beads40.jpg,beads60.jpg,high,NULL
1687287281,d0351600448e1fea621f54fb78be1f8d,PennController,14,0,experiment,NULL,Selector,choice,Selection,option2,1687287127256,6159ee4a75c783cd361820e1,6159ee4a75c783cd361820e1,11,beads,critical,D,50,beads40.jpg,beads60.jpg,high,option1;option2
1687287281,d0351600448e1fea621f54fb78be1f8d,PennController,14,0,experiment,NULL,PennController,13,_Trial_,End,1687287127257,6159ee4a75c783cd361820e1,6159ee4a75c783cd361820e1,11,beads,critical,D,50,beads40.jpg,beads60.jpg,high,NULL
1687287281,d0351600448e1fea621f54fb78be1f8d,PennController,9,0,experiment,NULL,PennController,8,_Trial_,Start,1687287127258,6159ee4a75c783cd361820e1,6159ee4a75c783cd361820e1,6,flower,critical,D,75,flower65.jpg,flower85.jpg,high,NULL
1687287281,d0351600448e1fea621f54fb78be1f8d,PennController,9,0,experiment,NULL,PennController,8,_Header_,Start,1687287127258,6159ee4a75c783cd361820e1,6159ee4a75c783cd361820e1,6,flower,critical,D,75,flower65.jpg,flower85.jpg,high,NULL
1687287281,d0351600448e1fea621f54fb78be1f8d,PennController,9,0,experiment,NULL,PennController,8,_Header_,End,1687287127258,6159ee4a75c783cd361820e1,6159ee4a75c783cd361820e1,6,flower,critical,D,75,flower65.jpg,flower85.jpg,high,NULL
1687287281,d0351600448e1fea621f54fb78be1f8d,PennController,9,0,experiment,NULL,Canvas,canvas6,Print,NA,1687287134976,6159ee4a75c783cd361820e1,6159ee4a75c783cd361820e1,6,flower,critical,D,75,flower65.jpg,flower85.jpg,high,NULL
1687287281,d0351600448e1fea621f54fb78be1f8d,PennController,9,0,experiment,NULL,Video,progression,buffer,0.00145,1687287130774,6159ee4a75c783cd361820e1,6159ee4a75c783cd361820e1,6,flower,critical,D,75,flower65.jpg,flower85.jpg,high,NULL
1687287281,d0351600448e1fea621f54fb78be1f8d,PennController,9,0,experiment,NULL,Selector,choice,Selection,option2,1687287138607,6159ee4a75c783cd361820e1,6159ee4a75c783cd361820e1,6,flower,critical,D,75,flower65.jpg,flower85.jpg,high,option1;option2
1687287281,d0351600448e1fea621f54fb78be1f8d,PennController,9,0,experiment,NULL,PennController,8,_Trial_,End,1687287138608,6159ee4a75c783cd361820e1,6159ee4a75c783cd361820e1,6,flower,critical,D,75,flower65.jpg,flower85.jpg,high,NULL
1687287281,d0351600448e1fea621f54fb78be1f8d,PennController,24,0,experiment,NULL,PennController,23,_Trial_,Start,1687287138609,6159ee4a75c783cd361820e1,6159ee4a75c783cd361820e1,21,visit,filler,D,75,visit65.jpg,visit85.jpg,GoalB,NULL
1687287281,d0351600448e1fea621f54fb78be1f8d,PennController,24,0,experiment,NULL,PennController,23,_Header_,Start,1687287138609,6159ee4a75c783cd361820e1,6159ee4a75c783cd361820e1,21,visit,filler,D,75,visit65.jpg,visit85.jpg,GoalB,NULL
1687287281,d0351600448e1fea621f54fb78be1f8d,PennController,24,0,experiment,NULL,PennController,23,_Header_,End,1687287138609,6159ee4a75c783cd361820e1,6159ee4a75c783cd361820e1,21,visit,filler,D,75,visit65.jpg,visit85.jpg,GoalB,NULL
1687287281,d0351600448e1fea621f54fb78be1f8d,PennController,24,0,experiment,NULL,Canvas,canvas6,Print,NA,1687287146333,6159ee4a75c783cd361820e1,6159ee4a75c783cd361820e1,21,visit,filler,D,75,visit65.jpg,visit85.jpg,GoalB,NULL
1687287281,d0351600448e1fea621f54fb78be1f8d,PennController,24,0,experiment,NULL,Video,progression,buffer,0.001956,1687287142129,6159ee4a75c783cd361820e1,6159ee4a75c783cd361820e1,21,visit,filler,D,75,visit65.jpg,visit85.jpg,GoalB,NULL
1687287281,d0351600448e1fea621f54fb78be1f8d,PennController,24,0,experiment,NULL,Selector,choice,Selection,option2,1687287148580,6159ee4a75c783cd361820e1,6159ee4a75c783cd361820e1,21,visit,filler,D,75,visit65.jpg,visit85.jpg,GoalB,option1;option2
1687287281,d0351600448e1fea621f54fb78be1f8d,PennController,24,0,experiment,NULL,PennController,23,_Trial_,End,1687287148581,6159ee4a75c783cd361820e1,6159ee4a75c783cd361820e1,21,visit,filler,D,75,visit65.jpg,visit85.jpg,GoalB,NULL
1687287281,d0351600448e1fea621f54fb78be1f8d,PennController,12,0,experiment,NULL,PennController,11,_Trial_,Start,1687287148582,6159ee4a75c783cd361820e1,6159ee4a75c783cd361820e1,9,cake,critical,D,75,cake66.jpg,cake84.jpg,high,NULL
1687287281,d0351600448e1fea621f54fb78be1f8d,PennController,12,0,experiment,NULL,PennController,11,_Header_,Start,1687287148582,6159ee4a75c783cd361820e1,6159ee4a75c783cd361820e1,9,cake,critical,D,75,cake66.jpg,cake84.jpg,high,NULL
1687287281,d0351600448e1fea621f54fb78be1f8d,PennController,12,0,experiment,NULL,PennController,11,_Header_,End,1687287148582,6159ee4a75c783cd361820e1,6159ee4a75c783cd361820e1,9,cake,critical,D,75,cake66.jpg,cake84.jpg,high,NULL
1687287281,d0351600448e1fea621f54fb78be1f8d,PennController,12,0,experiment,NULL,Canvas,canvas6,Print,NA,1687287158301,6159ee4a75c783cd361820e1,6159ee4a75c783cd361820e1,9,cake,critical,D,75,cake66.jpg,cake84.jpg,high,NULL
1687287281,d0351600448e1fea621f54fb78be1f8d,PennController,12,0,experiment,NULL,Video,progression,buffer,0.001705,1687287152099,6159ee4a75c783cd361820e1,6159ee4a75c783cd361820e1,9,cake,critical,D,75,cake66.jpg,cake84.jpg,high,NULL
1687287281,d0351600448e1fea621f54fb78be1f8d,PennController,12,0,experiment,NULL,Selector,choice,Selection,option1,1687287161352,6159ee4a75c783cd361820e1,6159ee4a75c783cd361820e1,9,cake,critical,D,75,cake66.jpg,cake84.jpg,high,option2;option1
1687287281,d0351600448e1fea621f54fb78be1f8d,PennController,12,0,experiment,NULL,PennController,11,_Trial_,End,1687287161353,6159ee4a75c783cd361820e1,6159ee4a75c783cd361820e1,9,cake,critical,D,75,cake66.jpg,cake84.jpg,high,NULL
1687287281,d0351600448e1fea621f54fb78be1f8d,PennController,8,0,experiment,NULL,PennController,7,_Trial_,Start,1687287161354,6159ee4a75c783cd361820e1,6159ee4a75c783cd361820e1,5,book,critical,D,50,book40.jpg,book60.jpg,high,NULL
1687287281,d0351600448e1fea621f54fb78be1f8d,PennController,8,0,experiment,NULL,PennController,7,_Header_,Start,1687287161354,6159ee4a75c783cd361820e1,6159ee4a75c783cd361820e1,5,book,critical,D,50,book40.jpg,book60.jpg,high,NULL
1687287281,d0351600448e1fea621f54fb78be1f8d,PennController,8,0,experiment,NULL,PennController,7,_Header_,End,1687287161354,6159ee4a75c783cd361820e1,6159ee4a75c783cd361820e1,5,book,critical,D,50,book40.jpg,book60.jpg,high,NULL
1687287281,d0351600448e1fea621f54fb78be1f8d,PennController,8,0,experiment,NULL,Canvas,canvas6,Print,NA,1687287168078,6159ee4a75c783cd361820e1,6159ee4a75c783cd361820e1,5,book,critical,D,50,book40.jpg,book60.jpg,high,NULL
1687287281,d0351600448e1fea621f54fb78be1f8d,PennController,8,0,experiment,NULL,Video,progression,buffer,0.00218,1687287164878,6159ee4a75c783cd361820e1,6159ee4a75c783cd361820e1,5,book,critical,D,50,book40.jpg,book60.jpg,high,NULL
1687287281,d0351600448e1fea621f54fb78be1f8d,PennController,8,0,experiment,NULL,Selector,choice,Selection,option1,1687287170123,6159ee4a75c783cd361820e1,6159ee4a75c783cd361820e1,5,book,critical,D,50,book40.jpg,book60.jpg,high,option2;option1
1687287281,d0351600448e1fea621f54fb78be1f8d,PennController,8,0,experiment,NULL,PennController,7,_Trial_,End,1687287170124,6159ee4a75c783cd361820e1,6159ee4a75c783cd361820e1,5,book,critical,D,50,book40.jpg,book60.jpg,high,NULL
1687287281,d0351600448e1fea621f54fb78be1f8d,PennController,7,0,experiment,NULL,PennController,6,_Trial_,Start,1687287170125,6159ee4a75c783cd361820e1,6159ee4a75c783cd361820e1,4,candy,critical,D,25,candy15.jpg,candy35.jpg,high,NULL
1687287281,d0351600448e1fea621f54fb78be1f8d,PennController,7,0,experiment,NULL,PennController,6,_Header_,Start,1687287170125,6159ee4a75c783cd361820e1,6159ee4a75c783cd361820e1,4,candy,critical,D,25,candy15.jpg,candy35.jpg,high,NULL
1687287281,d0351600448e1fea621f54fb78be1f8d,PennController,7,0,experiment,NULL,PennController,6,_Header_,End,1687287170125,6159ee4a75c783cd361820e1,6159ee4a75c783cd361820e1,4,candy,critical,D,25,candy15.jpg,candy35.jpg,high,NULL
1687287281,d0351600448e1fea621f54fb78be1f8d,PennController,7,0,experiment,NULL,Canvas,canvas6,Print,NA,1687287175843,6159ee4a75c783cd361820e1,6159ee4a75c783cd361820e1,4,candy,critical,D,25,candy15.jpg,candy35.jpg,high,NULL
1687287281,d0351600448e1fea621f54fb78be1f8d,PennController,7,0,experiment,NULL,Video,progression,buffer,0.001531,1687287173645,6159ee4a75c783cd361820e1,6159ee4a75c783cd361820e1,4,candy,critical,D,25,candy15.jpg,candy35.jpg,high,NULL
1687287281,d0351600448e1fea621f54fb78be1f8d,PennController,7,0,experiment,NULL,Selector,choice,Selection,option1,1687287177732,6159ee4a75c783cd361820e1,6159ee4a75c783cd361820e1,4,candy,critical,D,25,candy15.jpg,candy35.jpg,high,option1;option2
1687287281,d0351600448e1fea621f54fb78be1f8d,PennController,7,0,experiment,NULL,PennController,6,_Trial_,End,1687287177733,6159ee4a75c783cd361820e1,6159ee4a75c783cd361820e1,4,candy,critical,D,25,candy15.jpg,candy35.jpg,high,NULL
1687287281,d0351600448e1fea621f54fb78be1f8d,PennController,11,0,experiment,NULL,PennController,10,_Trial_,Start,1687287177733,6159ee4a75c783cd361820e1,6159ee4a75c783cd361820e1,8,cucumber,critical,D,50,cucumber42.jpg,cucumber60.jpg,high,NULL
1687287281,d0351600448e1fea621f54fb78be1f8d,PennController,11,0,experiment,NULL,PennController,10,_Header_,Start,1687287177733,6159ee4a75c783cd361820e1,6159ee4a75c783cd361820e1,8,cucumber,critical,D,50,cucumber42.jpg,cucumber60.jpg,high,NULL
1687287281,d0351600448e1fea621f54fb78be1f8d,PennController,11,0,experiment,NULL,PennController,10,_Header_,End,1687287177733,6159ee4a75c783cd361820e1,6159ee4a75c783cd361820e1,8,cucumber,critical,D,50,cucumber42.jpg,cucumber60.jpg,high,NULL
1687287281,d0351600448e1fea621f54fb78be1f8d,PennController,11,0,experiment,NULL,Canvas,canvas6,Print,NA,1687287185845,6159ee4a75c783cd361820e1,6159ee4a75c783cd361820e1,8,cucumber,critical,D,50,cucumber42.jpg,cucumber60.jpg,high,NULL
1687287281,d0351600448e1fea621f54fb78be1f8d,PennController,11,0,experiment,NULL,Video,progression,buffer,0.001813,1687287181255,6159ee4a75c783cd361820e1,6159ee4a75c783cd361820e1,8,cucumber,critical,D,50,cucumber42.jpg,cucumber60.jpg,high,NULL
1687287281,d0351600448e1fea621f54fb78be1f8d,PennController,11,0,experiment,NULL,Selector,choice,Selection,option1,1687287187537,6159ee4a75c783cd361820e1,6159ee4a75c783cd361820e1,8,cucumber,critical,D,50,cucumber42.jpg,cucumber60.jpg,high,option2;option1
1687287281,d0351600448e1fea621f54fb78be1f8d,PennController,11,0,experiment,NULL,PennController,10,_Trial_,End,1687287187538,6159ee4a75c783cd361820e1,6159ee4a75c783cd361820e1,8,cucumber,critical,D,50,cucumber42.jpg,cucumber60.jpg,high,NULL
1687287281,d0351600448e1fea621f54fb78be1f8d,PennController,15,0,experiment,NULL,PennController,14,_Trial_,Start,1687287187539,6159ee4a75c783cd361820e1,6159ee4a75c783cd361820e1,12,erase,critical,D,75,erase66.jpg,erase84.jpg,high,NULL
1687287281,d0351600448e1fea621f54fb78be1f8d,PennController,15,0,experiment,NULL,PennController,14,_Header_,Start,1687287187539,6159ee4a75c783cd361820e1,6159ee4a75c783cd361820e1,12,erase,critical,D,75,erase66.jpg,erase84.jpg,high,NULL
1687287281,d0351600448e1fea621f54fb78be1f8d,PennController,15,0,experiment,NULL,PennController,14,_Header_,End,1687287187539,6159ee4a75c783cd361820e1,6159ee4a75c783cd361820e1,12,erase,critical,D,75,erase66.jpg,erase84.jpg,high,NULL
1687287281,d0351600448e1fea621f54fb78be1f8d,PennController,15,0,experiment,NULL,Canvas,canvas6,Print,NA,1687287197261,6159ee4a75c783cd361820e1,6159ee4a75c783cd361820e1,12,erase,critical,D,75,erase66.jpg,erase84.jpg,high,NULL
1687287281,d0351600448e1fea621f54fb78be1f8d,PennController,15,0,experiment,NULL,Video,progression,buffer,0.001777,1687287191054,6159ee4a75c783cd361820e1,6159ee4a75c783cd361820e1,12,erase,critical,D,75,erase66.jpg,erase84.jpg,high,NULL
1687287281,d0351600448e1fea621f54fb78be1f8d,PennController,15,0,experiment,NULL,Selector,choice,Selection,option1,1687287205655,6159ee4a75c783cd361820e1,6159ee4a75c783cd361820e1,12,erase,critical,D,75,erase66.jpg,erase84.jpg,high,option2;option1
1687287281,d0351600448e1fea621f54fb78be1f8d,PennController,15,0,experiment,NULL,PennController,14,_Trial_,End,1687287205656,6159ee4a75c783cd361820e1,6159ee4a75c783cd361820e1,12,erase,critical,D,75,erase66.jpg,erase84.jpg,high,NULL
1687287281,d0351600448e1fea621f54fb78be1f8d,PennController,25,0,experiment,NULL,PennController,24,_Trial_,Start,1687287205657,6159ee4a75c783cd361820e1,6159ee4a75c783cd361820e1,22,wall,filler,D,25,wall15.jpg,wall35.jpg,GoalA,NULL
1687287281,d0351600448e1fea621f54fb78be1f8d,PennController,25,0,experiment,NULL,PennController,24,_Header_,Start,1687287205657,6159ee4a75c783cd361820e1,6159ee4a75c783cd361820e1,22,wall,filler,D,25,wall15.jpg,wall35.jpg,GoalA,NULL
1687287281,d0351600448e1fea621f54fb78be1f8d,PennController,25,0,experiment,NULL,PennController,24,_Header_,End,1687287205657,6159ee4a75c783cd361820e1,6159ee4a75c783cd361820e1,22,wall,filler,D,25,wall15.jpg,wall35.jpg,GoalA,NULL
1687287281,d0351600448e1fea621f54fb78be1f8d,PennController,25,0,experiment,NULL,Canvas,canvas6,Print,NA,1687287211373,6159ee4a75c783cd361820e1,6159ee4a75c783cd361820e1,22,wall,filler,D,25,wall15.jpg,wall35.jpg,GoalA,NULL
1687287281,d0351600448e1fea621f54fb78be1f8d,PennController,25,0,experiment,NULL,Video,progression,buffer,0.002447,1687287209179,6159ee4a75c783cd361820e1,6159ee4a75c783cd361820e1,22,wall,filler,D,25,wall15.jpg,wall35.jpg,GoalA,NULL
1687287281,d0351600448e1fea621f54fb78be1f8d,PennController,25,0,experiment,NULL,Selector,choice,Selection,option1,1687287215949,6159ee4a75c783cd361820e1,6159ee4a75c783cd361820e1,22,wall,filler,D,25,wall15.jpg,wall35.jpg,GoalA,option1;option2
1687287281,d0351600448e1fea621f54fb78be1f8d,PennController,25,0,experiment,NULL,PennController,24,_Trial_,End,1687287215950,6159ee4a75c783cd361820e1,6159ee4a75c783cd361820e1,22,wall,filler,D,25,wall15.jpg,wall35.jpg,GoalA,NULL
1687287281,d0351600448e1fea621f54fb78be1f8d,PennController,17,0,experiment,NULL,PennController,16,_Trial_,Start,1687287215951,6159ee4a75c783cd361820e1,6159ee4a75c783cd361820e1,14,cover,critical,D,50,cover42.jpg,cover60.jpg,high,NULL
1687287281,d0351600448e1fea621f54fb78be1f8d,PennController,17,0,experiment,NULL,PennController,16,_Header_,Start,1687287215951,6159ee4a75c783cd361820e1,6159ee4a75c783cd361820e1,14,cover,critical,D,50,cover42.jpg,cover60.jpg,high,NULL
1687287281,d0351600448e1fea621f54fb78be1f8d,PennController,17,0,experiment,NULL,PennController,16,_Header_,End,1687287215951,6159ee4a75c783cd361820e1,6159ee4a75c783cd361820e1,14,cover,critical,D,50,cover42.jpg,cover60.jpg,high,NULL
1687287281,d0351600448e1fea621f54fb78be1f8d,PennController,17,0,experiment,NULL,Canvas,canvas6,Print,NA,1687287224059,6159ee4a75c783cd361820e1,6159ee4a75c783cd361820e1,14,cover,critical,D,50,cover42.jpg,cover60.jpg,high,NULL
1687287281,d0351600448e1fea621f54fb78be1f8d,PennController,17,0,experiment,NULL,Video,progression,buffer,0.001525,1687287219468,6159ee4a75c783cd361820e1,6159ee4a75c783cd361820e1,14,cover,critical,D,50,cover42.jpg,cover60.jpg,high,NULL
1687287281,d0351600448e1fea621f54fb78be1f8d,PennController,17,0,experiment,NULL,Selector,choice,Selection,option1,1687287226588,6159ee4a75c783cd361820e1,6159ee4a75c783cd361820e1,14,cover,critical,D,50,cover42.jpg,cover60.jpg,high,option2;option1
1687287281,d0351600448e1fea621f54fb78be1f8d,PennController,17,0,experiment,NULL,PennController,16,_Trial_,End,1687287226589,6159ee4a75c783cd361820e1,6159ee4a75c783cd361820e1,14,cover,critical,D,50,cover42.jpg,cover60.jpg,high,NULL
1687287281,d0351600448e1fea621f54fb78be1f8d,PennController,19,0,experiment,NULL,PennController,18,_Trial_,Start,1687287226590,6159ee4a75c783cd361820e1,6159ee4a75c783cd361820e1,16,blinds,critical,D,25,blinds15.jpg,blinds33.jpg,high,NULL
1687287281,d0351600448e1fea621f54fb78be1f8d,PennController,19,0,experiment,NULL,PennController,18,_Header_,Start,1687287226590,6159ee4a75c783cd361820e1,6159ee4a75c783cd361820e1,16,blinds,critical,D,25,blinds15.jpg,blinds33.jpg,high,NULL
1687287281,d0351600448e1fea621f54fb78be1f8d,PennController,19,0,experiment,NULL,PennController,18,_Header_,End,1687287226590,6159ee4a75c783cd361820e1,6159ee4a75c783cd361820e1,16,blinds,critical,D,25,blinds15.jpg,blinds33.jpg,high,NULL
1687287281,d0351600448e1fea621f54fb78be1f8d,PennController,19,0,experiment,NULL,Canvas,canvas6,Print,NA,1687287232910,6159ee4a75c783cd361820e1,6159ee4a75c783cd361820e1,16,blinds,critical,D,25,blinds15.jpg,blinds33.jpg,high,NULL
1687287281,d0351600448e1fea621f54fb78be1f8d,PennController,19,0,experiment,NULL,Video,progression,buffer,0.00125,1687287230103,6159ee4a75c783cd361820e1,6159ee4a75c783cd361820e1,16,blinds,critical,D,25,blinds15.jpg,blinds33.jpg,high,NULL
1687287281,d0351600448e1fea621f54fb78be1f8d,PennController,19,0,experiment,NULL,Selector,choice,Selection,option1,1687287238414,6159ee4a75c783cd361820e1,6159ee4a75c783cd361820e1,16,blinds,critical,D,25,blinds15.jpg,blinds33.jpg,high,option2;option1
1687287281,d0351600448e1fea621f54fb78be1f8d,PennController,19,0,experiment,NULL,PennController,18,_Trial_,End,1687287238415,6159ee4a75c783cd361820e1,6159ee4a75c783cd361820e1,16,blinds,critical,D,25,blinds15.jpg,blinds33.jpg,high,NULL
1687287281,d0351600448e1fea621f54fb78be1f8d,PennController,16,0,experiment,NULL,PennController,15,_Trial_,Start,1687287238416,6159ee4a75c783cd361820e1,6159ee4a75c783cd361820e1,13,mix,critical,D,25,mix15.jpg,mix35.jpg,high,NULL
1687287281,d0351600448e1fea621f54fb78be1f8d,PennController,16,0,experiment,NULL,PennController,15,_Header_,Start,1687287238416,6159ee4a75c783cd361820e1,6159ee4a75c783cd361820e1,13,mix,critical,D,25,mix15.jpg,mix35.jpg,high,NULL
1687287281,d0351600448e1fea621f54fb78be1f8d,PennController,16,0,experiment,NULL,PennController,15,_Header_,End,1687287238416,6159ee4a75c783cd361820e1,6159ee4a75c783cd361820e1,13,mix,critical,D,25,mix15.jpg,mix35.jpg,high,NULL
1687287281,d0351600448e1fea621f54fb78be1f8d,PennController,16,0,experiment,NULL,Canvas,canvas6,Print,NA,1687287244150,6159ee4a75c783cd361820e1,6159ee4a75c783cd361820e1,13,mix,critical,D,25,mix15.jpg,mix35.jpg,high,NULL
1687287281,d0351600448e1fea621f54fb78be1f8d,PennController,16,0,experiment,NULL,Video,progression,buffer,0.006348,1687287241956,6159ee4a75c783cd361820e1,6159ee4a75c783cd361820e1,13,mix,critical,D,25,mix15.jpg,mix35.jpg,high,NULL
1687287281,d0351600448e1fea621f54fb78be1f8d,PennController,16,0,experiment,NULL,Selector,choice,Selection,option1,1687287245534,6159ee4a75c783cd361820e1,6159ee4a75c783cd361820e1,13,mix,critical,D,25,mix15.jpg,mix35.jpg,high,option1;option2
1687287281,d0351600448e1fea621f54fb78be1f8d,PennController,16,0,experiment,NULL,PennController,15,_Trial_,End,1687287245535,6159ee4a75c783cd361820e1,6159ee4a75c783cd361820e1,13,mix,critical,D,25,mix15.jpg,mix35.jpg,high,NULL
1687287281,d0351600448e1fea621f54fb78be1f8d,PennController,27,0,experiment,NULL,PennController,26,_Trial_,Start,1687287245536,6159ee4a75c783cd361820e1,6159ee4a75c783cd361820e1,24,match,filler,D,75,match65.jpg,match85.jpg,GoalA,NULL
1687287281,d0351600448e1fea621f54fb78be1f8d,PennController,27,0,experiment,NULL,PennController,26,_Header_,Start,1687287245536,6159ee4a75c783cd361820e1,6159ee4a75c783cd361820e1,24,match,filler,D,75,match65.jpg,match85.jpg,GoalA,NULL
1687287281,d0351600448e1fea621f54fb78be1f8d,PennController,27,0,experiment,NULL,PennController,26,_Header_,End,1687287245536,6159ee4a75c783cd361820e1,6159ee4a75c783cd361820e1,24,match,filler,D,75,match65.jpg,match85.jpg,GoalA,NULL
1687287281,d0351600448e1fea621f54fb78be1f8d,PennController,27,0,experiment,NULL,Canvas,canvas6,Print,NA,1687287253246,6159ee4a75c783cd361820e1,6159ee4a75c783cd361820e1,24,match,filler,D,75,match65.jpg,match85.jpg,GoalA,NULL
1687287281,d0351600448e1fea621f54fb78be1f8d,PennController,27,0,experiment,NULL,Video,progression,buffer,0.003327,1687287249055,6159ee4a75c783cd361820e1,6159ee4a75c783cd361820e1,24,match,filler,D,75,match65.jpg,match85.jpg,GoalA,NULL
1687287281,d0351600448e1fea621f54fb78be1f8d,PennController,27,0,experiment,NULL,Selector,choice,Selection,option1,1687287257033,6159ee4a75c783cd361820e1,6159ee4a75c783cd361820e1,24,match,filler,D,75,match65.jpg,match85.jpg,GoalA,option1;option2
1687287281,d0351600448e1fea621f54fb78be1f8d,PennController,27,0,experiment,NULL,PennController,26,_Trial_,End,1687287257033,6159ee4a75c783cd361820e1,6159ee4a75c783cd361820e1,24,match,filler,D,75,match65.jpg,match85.jpg,GoalA,NULL
1687287281,d0351600448e1fea621f54fb78be1f8d,PennController,30,0,experiment,NULL,PennController,29,_Trial_,Start,1687287257034,6159ee4a75c783cd361820e1,6159ee4a75c783cd361820e1,27,square,filler,D,75,square65.jpg,square85.jpg,GoalB,NULL
1687287281,d0351600448e1fea621f54fb78be1f8d,PennController,30,0,experiment,NULL,PennController,29,_Header_,Start,1687287257034,6159ee4a75c783cd361820e1,6159ee4a75c783cd361820e1,27,square,filler,D,75,square65.jpg,square85.jpg,GoalB,NULL
1687287281,d0351600448e1fea621f54fb78be1f8d,PennController,30,0,experiment,NULL,PennController,29,_Header_,End,1687287257034,6159ee4a75c783cd361820e1,6159ee4a75c783cd361820e1,27,square,filler,D,75,square65.jpg,square85.jpg,GoalB,NULL
1687287281,d0351600448e1fea621f54fb78be1f8d,PennController,30,0,experiment,NULL,Canvas,canvas6,Print,NA,1687287264748,6159ee4a75c783cd361820e1,6159ee4a75c783cd361820e1,27,square,filler,D,75,square65.jpg,square85.jpg,GoalB,NULL
1687287281,d0351600448e1fea621f54fb78be1f8d,PennController,30,0,experiment,NULL,Video,progression,buffer,0.001718,1687287260557,6159ee4a75c783cd361820e1,6159ee4a75c783cd361820e1,27,square,filler,D,75,square65.jpg,square85.jpg,GoalB,NULL
1687287281,d0351600448e1fea621f54fb78be1f8d,PennController,30,0,experiment,NULL,Selector,choice,Selection,option2,1687287271032,6159ee4a75c783cd361820e1,6159ee4a75c783cd361820e1,27,square,filler,D,75,square65.jpg,square85.jpg,GoalB,option1;option2
1687287281,d0351600448e1fea621f54fb78be1f8d,PennController,30,0,experiment,NULL,PennController,29,_Trial_,End,1687287271033,6159ee4a75c783cd361820e1,6159ee4a75c783cd361820e1,27,square,filler,D,75,square65.jpg,square85.jpg,GoalB,NULL
1687287281,d0351600448e1fea621f54fb78be1f8d,PennController,26,0,experiment,NULL,PennController,25,_Trial_,Start,1687287271033,6159ee4a75c783cd361820e1,6159ee4a75c783cd361820e1,23,color,filler,D,50,color40.jpg,color60.jpg,GoalB,NULL
1687287281,d0351600448e1fea621f54fb78be1f8d,PennController,26,0,experiment,NULL,PennController,25,_Header_,Start,1687287271033,6159ee4a75c783cd361820e1,6159ee4a75c783cd361820e1,23,color,filler,D,50,color40.jpg,color60.jpg,GoalB,NULL
1687287281,d0351600448e1fea621f54fb78be1f8d,PennController,26,0,experiment,NULL,PennController,25,_Header_,End,1687287271033,6159ee4a75c783cd361820e1,6159ee4a75c783cd361820e1,23,color,filler,D,50,color40.jpg,color60.jpg,GoalB,NULL
1687287281,d0351600448e1fea621f54fb78be1f8d,PennController,26,0,experiment,NULL,Canvas,canvas6,Print,NA,1687287277759,6159ee4a75c783cd361820e1,6159ee4a75c783cd361820e1,23,color,filler,D,50,color40.jpg,color60.jpg,GoalB,NULL
1687287281,d0351600448e1fea621f54fb78be1f8d,PennController,26,0,experiment,NULL,Video,progression,buffer,0.00781,1687287274568,6159ee4a75c783cd361820e1,6159ee4a75c783cd361820e1,23,color,filler,D,50,color40.jpg,color60.jpg,GoalB,NULL
1687287281,d0351600448e1fea621f54fb78be1f8d,PennController,26,0,experiment,NULL,Selector,choice,Selection,option1,1687287281229,6159ee4a75c783cd361820e1,6159ee4a75c783cd361820e1,23,color,filler,D,50,color40.jpg,color60.jpg,GoalB,option2;option1
1687287281,d0351600448e1fea621f54fb78be1f8d,PennController,26,0,experiment,NULL,PennController,25,_Trial_,End,1687287281230,6159ee4a75c783cd361820e1,6159ee4a75c783cd361820e1,23,color,filler,D,50,color40.jpg,color60.jpg,GoalB,NULL
