#
# Results on Thursday June 22 2023 05:52:39 UTC
# USER AGENT: Mozilla/5.0 (Macintosh; Intel Mac OS X 10_15_7) AppleWebKit/537.36 (KHTML, like Gecko) Chrome/114.0.0.0 Safari/537.36
# Design number was non-random = 87
#
# Columns below this comment are as follows:
# 1. Results reception time.
# 2. MD5 hash of participant's IP address.
# 3. Controller name.
# 4. Order number of item.
# 5. Inner element number.
# 6. Label.
# 7. Latin Square Group.
# 8. PennElementType.
# 9. PennElementName.
# 10. Parameter.
# 11. Value.
# 12. EventTime.
# 13. PROLIFIC_ID.
# 14. Comments.
1687413159,571958e192efc1e5a31fc2e504172fac,PennController,3,0,consent,NULL,PennController,0,_Trial_,Start,1687412755409,627bbf69ab2788507bc421a2,NULL
1687413159,571958e192efc1e5a31fc2e504172fac,PennController,3,0,consent,NULL,PennController,0,_Header_,Start,1687412755409,627bbf69ab2788507bc421a2,NULL
1687413159,571958e192efc1e5a31fc2e504172fac,PennController,3,0,consent,NULL,PennController,0,_Header_,End,1687412755410,627bbf69ab2788507bc421a2,NULL
1687413159,571958e192efc1e5a31fc2e504172fac,PennController,3,0,consent,NULL,PennController,0,_Trial_,End,1687412796018,627bbf69ab2788507bc421a2,NULL
# Columns below this comment are as follows:
# 14. ID.
# 15. Comments.
1687413159,571958e192efc1e5a31fc2e504172fac,PennController,4,0,intro,NULL,PennController,1,_Trial_,Start,1687412796022,627bbf69ab2788507bc421a2,627bbf69ab2788507bc421a2,NULL
1687413159,571958e192efc1e5a31fc2e504172fac,PennController,4,0,intro,NULL,PennController,1,_Header_,Start,1687412796022,627bbf69ab2788507bc421a2,627bbf69ab2788507bc421a2,NULL
1687413159,571958e192efc1e5a31fc2e504172fac,PennController,4,0,intro,NULL,PennController,1,_Header_,End,1687412796022,627bbf69ab2788507bc421a2,627bbf69ab2788507bc421a2,NULL
1687413159,571958e192efc1e5a31fc2e504172fac,PennController,4,0,intro,NULL,PennController,1,_Trial_,End,1687412804497,627bbf69ab2788507bc421a2,627bbf69ab2788507bc421a2,NULL
# Columns below this comment are as follows:
# 15. item_number.
# 16. item.
# 17. type.
# 18. Group.
# 19. prog.
# 20. prev_image.
# 21. next_image.
# 22. height.
# 23. Comments.
1687413159,571958e192efc1e5a31fc2e504172fac,PennController,20,0,experiment,NULL,PennController,18,_Trial_,Start,1687412804501,627bbf69ab2788507bc421a2,627bbf69ab2788507bc421a2,16,blinds,critical,B,50,blinds42.jpg,blinds60.jpg,low,NULL
1687413159,571958e192efc1e5a31fc2e504172fac,PennController,20,0,experiment,NULL,PennController,18,_Header_,Start,1687412804501,627bbf69ab2788507bc421a2,627bbf69ab2788507bc421a2,16,blinds,critical,B,50,blinds42.jpg,blinds60.jpg,low,NULL
1687413159,571958e192efc1e5a31fc2e504172fac,PennController,20,0,experiment,NULL,PennController,18,_Header_,End,1687412804501,627bbf69ab2788507bc421a2,627bbf69ab2788507bc421a2,16,blinds,critical,B,50,blinds42.jpg,blinds60.jpg,low,NULL
1687413159,571958e192efc1e5a31fc2e504172fac,PennController,20,0,experiment,NULL,Canvas,canvas6,Print,NA,1687412812631,627bbf69ab2788507bc421a2,627bbf69ab2788507bc421a2,16,blinds,critical,B,50,blinds42.jpg,blinds60.jpg,low,NULL
1687413159,571958e192efc1e5a31fc2e504172fac,PennController,20,0,experiment,NULL,Video,progression,buffer,0.008615,1687412808057,627bbf69ab2788507bc421a2,627bbf69ab2788507bc421a2,16,blinds,critical,B,50,blinds42.jpg,blinds60.jpg,low,NULL
1687413159,571958e192efc1e5a31fc2e504172fac,PennController,20,0,experiment,NULL,Selector,choice,Selection,option2,1687412822130,627bbf69ab2788507bc421a2,627bbf69ab2788507bc421a2,16,blinds,critical,B,50,blinds42.jpg,blinds60.jpg,low,option2;option1
1687413159,571958e192efc1e5a31fc2e504172fac,PennController,20,0,experiment,NULL,PennController,18,_Trial_,End,1687412822133,627bbf69ab2788507bc421a2,627bbf69ab2788507bc421a2,16,blinds,critical,B,50,blinds42.jpg,blinds60.jpg,low,NULL
1687413159,571958e192efc1e5a31fc2e504172fac,PennController,15,0,experiment,NULL,PennController,13,_Trial_,Start,1687412822136,627bbf69ab2788507bc421a2,627bbf69ab2788507bc421a2,11,beads,critical,B,75,beads65.jpg,beads85.jpg,low,NULL
1687413159,571958e192efc1e5a31fc2e504172fac,PennController,15,0,experiment,NULL,PennController,13,_Header_,Start,1687412822136,627bbf69ab2788507bc421a2,627bbf69ab2788507bc421a2,11,beads,critical,B,75,beads65.jpg,beads85.jpg,low,NULL
1687413159,571958e192efc1e5a31fc2e504172fac,PennController,15,0,experiment,NULL,PennController,13,_Header_,End,1687412822136,627bbf69ab2788507bc421a2,627bbf69ab2788507bc421a2,11,beads,critical,B,75,beads65.jpg,beads85.jpg,low,NULL
1687413159,571958e192efc1e5a31fc2e504172fac,PennController,15,0,experiment,NULL,Canvas,canvas6,Print,NA,1687412829876,627bbf69ab2788507bc421a2,627bbf69ab2788507bc421a2,11,beads,critical,B,75,beads65.jpg,beads85.jpg,low,NULL
1687413159,571958e192efc1e5a31fc2e504172fac,PennController,15,0,experiment,NULL,Video,progression,buffer,0.007844,1687412825701,627bbf69ab2788507bc421a2,627bbf69ab2788507bc421a2,11,beads,critical,B,75,beads65.jpg,beads85.jpg,low,NULL
1687413159,571958e192efc1e5a31fc2e504172fac,PennController,15,0,experiment,NULL,Selector,choice,Selection,option2,1687412848352,627bbf69ab2788507bc421a2,627bbf69ab2788507bc421a2,11,beads,critical,B,75,beads65.jpg,beads85.jpg,low,option2;option1
1687413159,571958e192efc1e5a31fc2e504172fac,PennController,15,0,experiment,NULL,PennController,13,_Trial_,End,1687412848354,627bbf69ab2788507bc421a2,627bbf69ab2788507bc421a2,11,beads,critical,B,75,beads65.jpg,beads85.jpg,low,NULL
1687413159,571958e192efc1e5a31fc2e504172fac,PennController,6,0,experiment,NULL,PennController,4,_Trial_,Start,1687412848356,627bbf69ab2788507bc421a2,627bbf69ab2788507bc421a2,2,door,critical,B,75,door65.jpg,door85.jpg,low,NULL
1687413159,571958e192efc1e5a31fc2e504172fac,PennController,6,0,experiment,NULL,PennController,4,_Header_,Start,1687412848356,627bbf69ab2788507bc421a2,627bbf69ab2788507bc421a2,2,door,critical,B,75,door65.jpg,door85.jpg,low,NULL
1687413159,571958e192efc1e5a31fc2e504172fac,PennController,6,0,experiment,NULL,PennController,4,_Header_,End,1687412848356,627bbf69ab2788507bc421a2,627bbf69ab2788507bc421a2,2,door,critical,B,75,door65.jpg,door85.jpg,low,NULL
1687413159,571958e192efc1e5a31fc2e504172fac,PennController,6,0,experiment,NULL,Canvas,canvas6,Print,NA,1687412856107,627bbf69ab2788507bc421a2,627bbf69ab2788507bc421a2,2,door,critical,B,75,door65.jpg,door85.jpg,low,NULL
1687413159,571958e192efc1e5a31fc2e504172fac,PennController,6,0,experiment,NULL,Video,progression,buffer,0,1687412851892,627bbf69ab2788507bc421a2,627bbf69ab2788507bc421a2,2,door,critical,B,75,door65.jpg,door85.jpg,low,NULL
1687413159,571958e192efc1e5a31fc2e504172fac,PennController,6,0,experiment,NULL,Selector,choice,Selection,option2,1687412859311,627bbf69ab2788507bc421a2,627bbf69ab2788507bc421a2,2,door,critical,B,75,door65.jpg,door85.jpg,low,option1;option2
1687413159,571958e192efc1e5a31fc2e504172fac,PennController,6,0,experiment,NULL,PennController,4,_Trial_,End,1687412859312,627bbf69ab2788507bc421a2,627bbf69ab2788507bc421a2,2,door,critical,B,75,door65.jpg,door85.jpg,low,NULL
1687413159,571958e192efc1e5a31fc2e504172fac,PennController,29,0,experiment,NULL,PennController,27,_Trial_,Start,1687412859314,627bbf69ab2788507bc421a2,627bbf69ab2788507bc421a2,25,house,filler,B,50,house40.jpg,house60.jpg,GoalA,NULL
1687413159,571958e192efc1e5a31fc2e504172fac,PennController,29,0,experiment,NULL,PennController,27,_Header_,Start,1687412859314,627bbf69ab2788507bc421a2,627bbf69ab2788507bc421a2,25,house,filler,B,50,house40.jpg,house60.jpg,GoalA,NULL
1687413159,571958e192efc1e5a31fc2e504172fac,PennController,29,0,experiment,NULL,PennController,27,_Header_,End,1687412859314,627bbf69ab2788507bc421a2,627bbf69ab2788507bc421a2,25,house,filler,B,50,house40.jpg,house60.jpg,GoalA,NULL
1687413159,571958e192efc1e5a31fc2e504172fac,PennController,29,0,experiment,NULL,Canvas,canvas6,Print,NA,1687412866011,627bbf69ab2788507bc421a2,627bbf69ab2788507bc421a2,25,house,filler,B,50,house40.jpg,house60.jpg,GoalA,NULL
1687413159,571958e192efc1e5a31fc2e504172fac,PennController,29,0,experiment,NULL,Video,progression,buffer,0.00576,1687412862845,627bbf69ab2788507bc421a2,627bbf69ab2788507bc421a2,25,house,filler,B,50,house40.jpg,house60.jpg,GoalA,NULL
1687413159,571958e192efc1e5a31fc2e504172fac,PennController,29,0,experiment,NULL,Selector,choice,Selection,option1,1687412867831,627bbf69ab2788507bc421a2,627bbf69ab2788507bc421a2,25,house,filler,B,50,house40.jpg,house60.jpg,GoalA,option1;option2
1687413159,571958e192efc1e5a31fc2e504172fac,PennController,29,0,experiment,NULL,PennController,27,_Trial_,End,1687412867833,627bbf69ab2788507bc421a2,627bbf69ab2788507bc421a2,25,house,filler,B,50,house40.jpg,house60.jpg,GoalA,NULL
1687413159,571958e192efc1e5a31fc2e504172fac,PennController,27,0,experiment,NULL,PennController,25,_Trial_,Start,1687412867834,627bbf69ab2788507bc421a2,627bbf69ab2788507bc421a2,23,color,filler,B,75,color65.jpg,color85.jpg,GoalA,NULL
1687413159,571958e192efc1e5a31fc2e504172fac,PennController,27,0,experiment,NULL,PennController,25,_Header_,Start,1687412867834,627bbf69ab2788507bc421a2,627bbf69ab2788507bc421a2,23,color,filler,B,75,color65.jpg,color85.jpg,GoalA,NULL
1687413159,571958e192efc1e5a31fc2e504172fac,PennController,27,0,experiment,NULL,PennController,25,_Header_,End,1687412867835,627bbf69ab2788507bc421a2,627bbf69ab2788507bc421a2,23,color,filler,B,75,color65.jpg,color85.jpg,GoalA,NULL
1687413159,571958e192efc1e5a31fc2e504172fac,PennController,27,0,experiment,NULL,Canvas,canvas6,Print,NA,1687412875540,627bbf69ab2788507bc421a2,627bbf69ab2788507bc421a2,23,color,filler,B,75,color65.jpg,color85.jpg,GoalA,NULL
1687413159,571958e192efc1e5a31fc2e504172fac,PennController,27,0,experiment,NULL,Video,progression,buffer,0.005333,1687412871373,627bbf69ab2788507bc421a2,627bbf69ab2788507bc421a2,23,color,filler,B,75,color65.jpg,color85.jpg,GoalA,NULL
1687413159,571958e192efc1e5a31fc2e504172fac,PennController,27,0,experiment,NULL,Selector,choice,Selection,option1,1687412878670,627bbf69ab2788507bc421a2,627bbf69ab2788507bc421a2,23,color,filler,B,75,color65.jpg,color85.jpg,GoalA,option2;option1
1687413159,571958e192efc1e5a31fc2e504172fac,PennController,27,0,experiment,NULL,PennController,25,_Trial_,End,1687412878679,627bbf69ab2788507bc421a2,627bbf69ab2788507bc421a2,23,color,filler,B,75,color65.jpg,color85.jpg,GoalA,NULL
1687413159,571958e192efc1e5a31fc2e504172fac,PennController,33,0,experiment,NULL,PennController,31,_Trial_,Start,1687412878684,627bbf69ab2788507bc421a2,627bbf69ab2788507bc421a2,29,frog,filler,B,75,frog65.jpg,frog85.jpg,GoalA,NULL
1687413159,571958e192efc1e5a31fc2e504172fac,PennController,33,0,experiment,NULL,PennController,31,_Header_,Start,1687412878684,627bbf69ab2788507bc421a2,627bbf69ab2788507bc421a2,29,frog,filler,B,75,frog65.jpg,frog85.jpg,GoalA,NULL
1687413159,571958e192efc1e5a31fc2e504172fac,PennController,33,0,experiment,NULL,PennController,31,_Header_,End,1687412878684,627bbf69ab2788507bc421a2,627bbf69ab2788507bc421a2,29,frog,filler,B,75,frog65.jpg,frog85.jpg,GoalA,NULL
1687413159,571958e192efc1e5a31fc2e504172fac,PennController,33,0,experiment,NULL,Canvas,canvas6,Print,NA,1687412886375,627bbf69ab2788507bc421a2,627bbf69ab2788507bc421a2,29,frog,filler,B,75,frog65.jpg,frog85.jpg,GoalA,NULL
1687413159,571958e192efc1e5a31fc2e504172fac,PennController,33,0,experiment,NULL,Video,progression,buffer,0.005544,1687412882212,627bbf69ab2788507bc421a2,627bbf69ab2788507bc421a2,29,frog,filler,B,75,frog65.jpg,frog85.jpg,GoalA,NULL
1687413159,571958e192efc1e5a31fc2e504172fac,PennController,33,0,experiment,NULL,Selector,choice,Selection,option2,1687412892622,627bbf69ab2788507bc421a2,627bbf69ab2788507bc421a2,29,frog,filler,B,75,frog65.jpg,frog85.jpg,GoalA,option2;option1
1687413159,571958e192efc1e5a31fc2e504172fac,PennController,33,0,experiment,NULL,PennController,31,_Trial_,End,1687412892624,627bbf69ab2788507bc421a2,627bbf69ab2788507bc421a2,29,frog,filler,B,75,frog65.jpg,frog85.jpg,GoalA,NULL
1687413159,571958e192efc1e5a31fc2e504172fac,PennController,25,0,experiment,NULL,PennController,23,_Trial_,Start,1687412892625,627bbf69ab2788507bc421a2,627bbf69ab2788507bc421a2,21,visit,filler,B,25,visit15.jpg,visit35.jpg,GoalA,NULL
1687413159,571958e192efc1e5a31fc2e504172fac,PennController,25,0,experiment,NULL,PennController,23,_Header_,Start,1687412892625,627bbf69ab2788507bc421a2,627bbf69ab2788507bc421a2,21,visit,filler,B,25,visit15.jpg,visit35.jpg,GoalA,NULL
1687413159,571958e192efc1e5a31fc2e504172fac,PennController,25,0,experiment,NULL,PennController,23,_Header_,End,1687412892625,627bbf69ab2788507bc421a2,627bbf69ab2788507bc421a2,21,visit,filler,B,25,visit15.jpg,visit35.jpg,GoalA,NULL
1687413159,571958e192efc1e5a31fc2e504172fac,PennController,25,0,experiment,NULL,Canvas,canvas6,Print,NA,1687412898327,627bbf69ab2788507bc421a2,627bbf69ab2788507bc421a2,21,visit,filler,B,25,visit15.jpg,visit35.jpg,GoalA,NULL
1687413159,571958e192efc1e5a31fc2e504172fac,PennController,25,0,experiment,NULL,Video,progression,buffer,0.003378,1687412896152,627bbf69ab2788507bc421a2,627bbf69ab2788507bc421a2,21,visit,filler,B,25,visit15.jpg,visit35.jpg,GoalA,NULL
1687413159,571958e192efc1e5a31fc2e504172fac,PennController,25,0,experiment,NULL,Selector,choice,Selection,option1,1687412906293,627bbf69ab2788507bc421a2,627bbf69ab2788507bc421a2,21,visit,filler,B,25,visit15.jpg,visit35.jpg,GoalA,option1;option2
1687413159,571958e192efc1e5a31fc2e504172fac,PennController,25,0,experiment,NULL,PennController,23,_Trial_,End,1687412906295,627bbf69ab2788507bc421a2,627bbf69ab2788507bc421a2,21,visit,filler,B,25,visit15.jpg,visit35.jpg,GoalA,NULL
1687413159,571958e192efc1e5a31fc2e504172fac,PennController,16,0,experiment,NULL,PennController,14,_Trial_,Start,1687412906297,627bbf69ab2788507bc421a2,627bbf69ab2788507bc421a2,12,erase,critical,B,25,erase15.jpg,erase33.jpg,low,NULL
1687413159,571958e192efc1e5a31fc2e504172fac,PennController,16,0,experiment,NULL,PennController,14,_Header_,Start,1687412906297,627bbf69ab2788507bc421a2,627bbf69ab2788507bc421a2,12,erase,critical,B,25,erase15.jpg,erase33.jpg,low,NULL
1687413159,571958e192efc1e5a31fc2e504172fac,PennController,16,0,experiment,NULL,PennController,14,_Header_,End,1687412906297,627bbf69ab2788507bc421a2,627bbf69ab2788507bc421a2,12,erase,critical,B,25,erase15.jpg,erase33.jpg,low,NULL
1687413159,571958e192efc1e5a31fc2e504172fac,PennController,16,0,experiment,NULL,Canvas,canvas6,Print,NA,1687412912641,627bbf69ab2788507bc421a2,627bbf69ab2788507bc421a2,12,erase,critical,B,25,erase15.jpg,erase33.jpg,low,NULL
1687413159,571958e192efc1e5a31fc2e504172fac,PennController,16,0,experiment,NULL,Video,progression,buffer,0,1687412909820,627bbf69ab2788507bc421a2,627bbf69ab2788507bc421a2,12,erase,critical,B,25,erase15.jpg,erase33.jpg,low,NULL
1687413159,571958e192efc1e5a31fc2e504172fac,PennController,16,0,experiment,NULL,Selector,choice,Selection,option1,1687412916773,627bbf69ab2788507bc421a2,627bbf69ab2788507bc421a2,12,erase,critical,B,25,erase15.jpg,erase33.jpg,low,option2;option1
1687413159,571958e192efc1e5a31fc2e504172fac,PennController,16,0,experiment,NULL,PennController,14,_Trial_,End,1687412916775,627bbf69ab2788507bc421a2,627bbf69ab2788507bc421a2,12,erase,critical,B,25,erase15.jpg,erase33.jpg,low,NULL
1687413159,571958e192efc1e5a31fc2e504172fac,PennController,23,0,experiment,NULL,PennController,21,_Trial_,Start,1687412916776,627bbf69ab2788507bc421a2,627bbf69ab2788507bc421a2,19,cup,filler,B,50,cup40.jpg,cup60.jpg,GoalA,NULL
1687413159,571958e192efc1e5a31fc2e504172fac,PennController,23,0,experiment,NULL,PennController,21,_Header_,Start,1687412916776,627bbf69ab2788507bc421a2,627bbf69ab2788507bc421a2,19,cup,filler,B,50,cup40.jpg,cup60.jpg,GoalA,NULL
1687413159,571958e192efc1e5a31fc2e504172fac,PennController,23,0,experiment,NULL,PennController,21,_Header_,End,1687412916776,627bbf69ab2788507bc421a2,627bbf69ab2788507bc421a2,19,cup,filler,B,50,cup40.jpg,cup60.jpg,GoalA,NULL
1687413159,571958e192efc1e5a31fc2e504172fac,PennController,23,0,experiment,NULL,Canvas,canvas6,Print,NA,1687412923474,627bbf69ab2788507bc421a2,627bbf69ab2788507bc421a2,19,cup,filler,B,50,cup40.jpg,cup60.jpg,GoalA,NULL
1687413159,571958e192efc1e5a31fc2e504172fac,PennController,23,0,experiment,NULL,Video,progression,buffer,0.008139,1687412920307,627bbf69ab2788507bc421a2,627bbf69ab2788507bc421a2,19,cup,filler,B,50,cup40.jpg,cup60.jpg,GoalA,NULL
1687413159,571958e192efc1e5a31fc2e504172fac,PennController,23,0,experiment,NULL,Selector,choice,Selection,option2,1687412927916,627bbf69ab2788507bc421a2,627bbf69ab2788507bc421a2,19,cup,filler,B,50,cup40.jpg,cup60.jpg,GoalA,option1;option2
1687413159,571958e192efc1e5a31fc2e504172fac,PennController,23,0,experiment,NULL,PennController,21,_Trial_,End,1687412927917,627bbf69ab2788507bc421a2,627bbf69ab2788507bc421a2,19,cup,filler,B,50,cup40.jpg,cup60.jpg,GoalA,NULL
1687413159,571958e192efc1e5a31fc2e504172fac,PennController,18,0,experiment,NULL,PennController,16,_Trial_,Start,1687412927919,627bbf69ab2788507bc421a2,627bbf69ab2788507bc421a2,14,cover,critical,B,75,cover66.jpg,cover84.jpg,low,NULL
1687413159,571958e192efc1e5a31fc2e504172fac,PennController,18,0,experiment,NULL,PennController,16,_Header_,Start,1687412927919,627bbf69ab2788507bc421a2,627bbf69ab2788507bc421a2,14,cover,critical,B,75,cover66.jpg,cover84.jpg,low,NULL
1687413159,571958e192efc1e5a31fc2e504172fac,PennController,18,0,experiment,NULL,PennController,16,_Header_,End,1687412927919,627bbf69ab2788507bc421a2,627bbf69ab2788507bc421a2,14,cover,critical,B,75,cover66.jpg,cover84.jpg,low,NULL
1687413159,571958e192efc1e5a31fc2e504172fac,PennController,18,0,experiment,NULL,Canvas,canvas6,Print,NA,1687412937624,627bbf69ab2788507bc421a2,627bbf69ab2788507bc421a2,14,cover,critical,B,75,cover66.jpg,cover84.jpg,low,NULL
1687413159,571958e192efc1e5a31fc2e504172fac,PennController,18,0,experiment,NULL,Video,progression,buffer,0.004243,1687412931450,627bbf69ab2788507bc421a2,627bbf69ab2788507bc421a2,14,cover,critical,B,75,cover66.jpg,cover84.jpg,low,NULL
1687413159,571958e192efc1e5a31fc2e504172fac,PennController,18,0,experiment,NULL,Selector,choice,Selection,option1,1687412941317,627bbf69ab2788507bc421a2,627bbf69ab2788507bc421a2,14,cover,critical,B,75,cover66.jpg,cover84.jpg,low,option1;option2
1687413159,571958e192efc1e5a31fc2e504172fac,PennController,18,0,experiment,NULL,PennController,16,_Trial_,End,1687412941318,627bbf69ab2788507bc421a2,627bbf69ab2788507bc421a2,14,cover,critical,B,75,cover66.jpg,cover84.jpg,low,NULL
1687413159,571958e192efc1e5a31fc2e504172fac,PennController,28,0,experiment,NULL,PennController,26,_Trial_,Start,1687412941320,627bbf69ab2788507bc421a2,627bbf69ab2788507bc421a2,24,match,filler,B,25,match15.jpg,match35.jpg,GoalB,NULL
1687413159,571958e192efc1e5a31fc2e504172fac,PennController,28,0,experiment,NULL,PennController,26,_Header_,Start,1687412941320,627bbf69ab2788507bc421a2,627bbf69ab2788507bc421a2,24,match,filler,B,25,match15.jpg,match35.jpg,GoalB,NULL
1687413159,571958e192efc1e5a31fc2e504172fac,PennController,28,0,experiment,NULL,PennController,26,_Header_,End,1687412941320,627bbf69ab2788507bc421a2,627bbf69ab2788507bc421a2,24,match,filler,B,25,match15.jpg,match35.jpg,GoalB,NULL
1687413159,571958e192efc1e5a31fc2e504172fac,PennController,28,0,experiment,NULL,Canvas,canvas6,Print,NA,1687412947020,627bbf69ab2788507bc421a2,627bbf69ab2788507bc421a2,24,match,filler,B,25,match15.jpg,match35.jpg,GoalB,NULL
1687413159,571958e192efc1e5a31fc2e504172fac,PennController,28,0,experiment,NULL,Video,progression,buffer,0.001328,1687412944845,627bbf69ab2788507bc421a2,627bbf69ab2788507bc421a2,24,match,filler,B,25,match15.jpg,match35.jpg,GoalB,NULL
1687413159,571958e192efc1e5a31fc2e504172fac,PennController,28,0,experiment,NULL,Selector,choice,Selection,option2,1687412951708,627bbf69ab2788507bc421a2,627bbf69ab2788507bc421a2,24,match,filler,B,25,match15.jpg,match35.jpg,GoalB,option2;option1
1687413159,571958e192efc1e5a31fc2e504172fac,PennController,28,0,experiment,NULL,PennController,26,_Trial_,End,1687412951710,627bbf69ab2788507bc421a2,627bbf69ab2788507bc421a2,24,match,filler,B,25,match15.jpg,match35.jpg,GoalB,NULL
1687413159,571958e192efc1e5a31fc2e504172fac,PennController,7,0,experiment,NULL,PennController,5,_Trial_,Start,1687412951712,627bbf69ab2788507bc421a2,627bbf69ab2788507bc421a2,3,clean,critical,B,25,clean15.jpg,clean35.jpg,low,NULL
1687413159,571958e192efc1e5a31fc2e504172fac,PennController,7,0,experiment,NULL,PennController,5,_Header_,Start,1687412951712,627bbf69ab2788507bc421a2,627bbf69ab2788507bc421a2,3,clean,critical,B,25,clean15.jpg,clean35.jpg,low,NULL
1687413159,571958e192efc1e5a31fc2e504172fac,PennController,7,0,experiment,NULL,PennController,5,_Header_,End,1687412951712,627bbf69ab2788507bc421a2,627bbf69ab2788507bc421a2,3,clean,critical,B,25,clean15.jpg,clean35.jpg,low,NULL
1687413159,571958e192efc1e5a31fc2e504172fac,PennController,7,0,experiment,NULL,Canvas,canvas6,Print,NA,1687412957407,627bbf69ab2788507bc421a2,627bbf69ab2788507bc421a2,3,clean,critical,B,25,clean15.jpg,clean35.jpg,low,NULL
1687413159,571958e192efc1e5a31fc2e504172fac,PennController,7,0,experiment,NULL,Video,progression,buffer,0.003641,1687412955238,627bbf69ab2788507bc421a2,627bbf69ab2788507bc421a2,3,clean,critical,B,25,clean15.jpg,clean35.jpg,low,NULL
1687413159,571958e192efc1e5a31fc2e504172fac,PennController,7,0,experiment,NULL,Selector,choice,Selection,option1,1687412977695,627bbf69ab2788507bc421a2,627bbf69ab2788507bc421a2,3,clean,critical,B,25,clean15.jpg,clean35.jpg,low,option2;option1
1687413159,571958e192efc1e5a31fc2e504172fac,PennController,7,0,experiment,NULL,PennController,5,_Trial_,End,1687412977697,627bbf69ab2788507bc421a2,627bbf69ab2788507bc421a2,3,clean,critical,B,25,clean15.jpg,clean35.jpg,low,NULL
1687413159,571958e192efc1e5a31fc2e504172fac,PennController,32,0,experiment,NULL,PennController,30,_Trial_,Start,1687412977698,627bbf69ab2788507bc421a2,627bbf69ab2788507bc421a2,28,sort,filler,B,50,sort40.jpg,sort60.jpg,GoalB,NULL
1687413159,571958e192efc1e5a31fc2e504172fac,PennController,32,0,experiment,NULL,PennController,30,_Header_,Start,1687412977698,627bbf69ab2788507bc421a2,627bbf69ab2788507bc421a2,28,sort,filler,B,50,sort40.jpg,sort60.jpg,GoalB,NULL
1687413159,571958e192efc1e5a31fc2e504172fac,PennController,32,0,experiment,NULL,PennController,30,_Header_,End,1687412977698,627bbf69ab2788507bc421a2,627bbf69ab2788507bc421a2,28,sort,filler,B,50,sort40.jpg,sort60.jpg,GoalB,NULL
1687413159,571958e192efc1e5a31fc2e504172fac,PennController,32,0,experiment,NULL,Canvas,canvas6,Print,NA,1687412984388,627bbf69ab2788507bc421a2,627bbf69ab2788507bc421a2,28,sort,filler,B,50,sort40.jpg,sort60.jpg,GoalB,NULL
1687413159,571958e192efc1e5a31fc2e504172fac,PennController,32,0,experiment,NULL,Video,progression,buffer,0.004507,1687412981224,627bbf69ab2788507bc421a2,627bbf69ab2788507bc421a2,28,sort,filler,B,50,sort40.jpg,sort60.jpg,GoalB,NULL
1687413159,571958e192efc1e5a31fc2e504172fac,PennController,32,0,experiment,NULL,Selector,choice,Selection,option1,1687412987075,627bbf69ab2788507bc421a2,627bbf69ab2788507bc421a2,28,sort,filler,B,50,sort40.jpg,sort60.jpg,GoalB,option1;option2
1687413159,571958e192efc1e5a31fc2e504172fac,PennController,32,0,experiment,NULL,PennController,30,_Trial_,End,1687412987077,627bbf69ab2788507bc421a2,627bbf69ab2788507bc421a2,28,sort,filler,B,50,sort40.jpg,sort60.jpg,GoalB,NULL
1687413159,571958e192efc1e5a31fc2e504172fac,PennController,22,0,experiment,NULL,PennController,20,_Trial_,Start,1687412987079,627bbf69ab2788507bc421a2,627bbf69ab2788507bc421a2,18,ball,critical,B,25,ball15.jpg,ball35.jpg,low,NULL
1687413159,571958e192efc1e5a31fc2e504172fac,PennController,22,0,experiment,NULL,PennController,20,_Header_,Start,1687412987079,627bbf69ab2788507bc421a2,627bbf69ab2788507bc421a2,18,ball,critical,B,25,ball15.jpg,ball35.jpg,low,NULL
1687413159,571958e192efc1e5a31fc2e504172fac,PennController,22,0,experiment,NULL,PennController,20,_Header_,End,1687412987079,627bbf69ab2788507bc421a2,627bbf69ab2788507bc421a2,18,ball,critical,B,25,ball15.jpg,ball35.jpg,low,NULL
1687413159,571958e192efc1e5a31fc2e504172fac,PennController,22,0,experiment,NULL,Canvas,canvas6,Print,NA,1687412992778,627bbf69ab2788507bc421a2,627bbf69ab2788507bc421a2,18,ball,critical,B,25,ball15.jpg,ball35.jpg,low,NULL
1687413159,571958e192efc1e5a31fc2e504172fac,PennController,22,0,experiment,NULL,Video,progression,buffer,0.005383,1687412990606,627bbf69ab2788507bc421a2,627bbf69ab2788507bc421a2,18,ball,critical,B,25,ball15.jpg,ball35.jpg,low,NULL
1687413159,571958e192efc1e5a31fc2e504172fac,PennController,22,0,experiment,NULL,Selector,choice,Selection,option2,1687412994652,627bbf69ab2788507bc421a2,627bbf69ab2788507bc421a2,18,ball,critical,B,25,ball15.jpg,ball35.jpg,low,option1;option2
1687413159,571958e192efc1e5a31fc2e504172fac,PennController,22,0,experiment,NULL,PennController,20,_Trial_,End,1687412994654,627bbf69ab2788507bc421a2,627bbf69ab2788507bc421a2,18,ball,critical,B,25,ball15.jpg,ball35.jpg,low,NULL
1687413159,571958e192efc1e5a31fc2e504172fac,PennController,9,0,experiment,NULL,PennController,7,_Trial_,Start,1687412994655,627bbf69ab2788507bc421a2,627bbf69ab2788507bc421a2,5,book,critical,B,75,book65.jpg,book85.jpg,low,NULL
1687413159,571958e192efc1e5a31fc2e504172fac,PennController,9,0,experiment,NULL,PennController,7,_Header_,Start,1687412994655,627bbf69ab2788507bc421a2,627bbf69ab2788507bc421a2,5,book,critical,B,75,book65.jpg,book85.jpg,low,NULL
1687413159,571958e192efc1e5a31fc2e504172fac,PennController,9,0,experiment,NULL,PennController,7,_Header_,End,1687412994655,627bbf69ab2788507bc421a2,627bbf69ab2788507bc421a2,5,book,critical,B,75,book65.jpg,book85.jpg,low,NULL
1687413159,571958e192efc1e5a31fc2e504172fac,PennController,9,0,experiment,NULL,Canvas,canvas6,Print,NA,1687413002378,627bbf69ab2788507bc421a2,627bbf69ab2788507bc421a2,5,book,critical,B,75,book65.jpg,book85.jpg,low,NULL
1687413159,571958e192efc1e5a31fc2e504172fac,PennController,9,0,experiment,NULL,Video,progression,buffer,0.007304,1687412998187,627bbf69ab2788507bc421a2,627bbf69ab2788507bc421a2,5,book,critical,B,75,book65.jpg,book85.jpg,low,NULL
1687413159,571958e192efc1e5a31fc2e504172fac,PennController,9,0,experiment,NULL,Selector,choice,Selection,option1,1687413009515,627bbf69ab2788507bc421a2,627bbf69ab2788507bc421a2,5,book,critical,B,75,book65.jpg,book85.jpg,low,option1;option2
1687413159,571958e192efc1e5a31fc2e504172fac,PennController,9,0,experiment,NULL,PennController,7,_Trial_,End,1687413009517,627bbf69ab2788507bc421a2,627bbf69ab2788507bc421a2,5,book,critical,B,75,book65.jpg,book85.jpg,low,NULL
1687413159,571958e192efc1e5a31fc2e504172fac,PennController,17,0,experiment,NULL,PennController,15,_Trial_,Start,1687413009519,627bbf69ab2788507bc421a2,627bbf69ab2788507bc421a2,13,mix,critical,B,50,mix40.jpg,mix60.jpg,low,NULL
1687413159,571958e192efc1e5a31fc2e504172fac,PennController,17,0,experiment,NULL,PennController,15,_Header_,Start,1687413009519,627bbf69ab2788507bc421a2,627bbf69ab2788507bc421a2,13,mix,critical,B,50,mix40.jpg,mix60.jpg,low,NULL
1687413159,571958e192efc1e5a31fc2e504172fac,PennController,17,0,experiment,NULL,PennController,15,_Header_,End,1687413009519,627bbf69ab2788507bc421a2,627bbf69ab2788507bc421a2,13,mix,critical,B,50,mix40.jpg,mix60.jpg,low,NULL
1687413159,571958e192efc1e5a31fc2e504172fac,PennController,17,0,experiment,NULL,Canvas,canvas6,Print,NA,1687413016218,627bbf69ab2788507bc421a2,627bbf69ab2788507bc421a2,13,mix,critical,B,50,mix40.jpg,mix60.jpg,low,NULL
1687413159,571958e192efc1e5a31fc2e504172fac,PennController,17,0,experiment,NULL,Video,progression,buffer,0.0086,1687413013058,627bbf69ab2788507bc421a2,627bbf69ab2788507bc421a2,13,mix,critical,B,50,mix40.jpg,mix60.jpg,low,NULL
1687413159,571958e192efc1e5a31fc2e504172fac,PennController,17,0,experiment,NULL,Selector,choice,Selection,option2,1687413023403,627bbf69ab2788507bc421a2,627bbf69ab2788507bc421a2,13,mix,critical,B,50,mix40.jpg,mix60.jpg,low,option2;option1
1687413159,571958e192efc1e5a31fc2e504172fac,PennController,17,0,experiment,NULL,PennController,15,_Trial_,End,1687413023405,627bbf69ab2788507bc421a2,627bbf69ab2788507bc421a2,13,mix,critical,B,50,mix40.jpg,mix60.jpg,low,NULL
1687413159,571958e192efc1e5a31fc2e504172fac,PennController,11,0,experiment,NULL,PennController,9,_Trial_,Start,1687413023406,627bbf69ab2788507bc421a2,627bbf69ab2788507bc421a2,7,stack,critical,B,50,stack40.jpg,stack60.jpg,low,NULL
1687413159,571958e192efc1e5a31fc2e504172fac,PennController,11,0,experiment,NULL,PennController,9,_Header_,Start,1687413023406,627bbf69ab2788507bc421a2,627bbf69ab2788507bc421a2,7,stack,critical,B,50,stack40.jpg,stack60.jpg,low,NULL
1687413159,571958e192efc1e5a31fc2e504172fac,PennController,11,0,experiment,NULL,PennController,9,_Header_,End,1687413023406,627bbf69ab2788507bc421a2,627bbf69ab2788507bc421a2,7,stack,critical,B,50,stack40.jpg,stack60.jpg,low,NULL
1687413159,571958e192efc1e5a31fc2e504172fac,PennController,11,0,experiment,NULL,Canvas,canvas6,Print,NA,1687413030111,627bbf69ab2788507bc421a2,627bbf69ab2788507bc421a2,7,stack,critical,B,50,stack40.jpg,stack60.jpg,low,NULL
1687413159,571958e192efc1e5a31fc2e504172fac,PennController,11,0,experiment,NULL,Video,progression,buffer,0.003836,1687413026942,627bbf69ab2788507bc421a2,627bbf69ab2788507bc421a2,7,stack,critical,B,50,stack40.jpg,stack60.jpg,low,NULL
1687413159,571958e192efc1e5a31fc2e504172fac,PennController,11,0,experiment,NULL,Selector,choice,Selection,option1,1687413038123,627bbf69ab2788507bc421a2,627bbf69ab2788507bc421a2,7,stack,critical,B,50,stack40.jpg,stack60.jpg,low,option1;option2
1687413159,571958e192efc1e5a31fc2e504172fac,PennController,11,0,experiment,NULL,PennController,9,_Trial_,End,1687413038125,627bbf69ab2788507bc421a2,627bbf69ab2788507bc421a2,7,stack,critical,B,50,stack40.jpg,stack60.jpg,low,NULL
1687413159,571958e192efc1e5a31fc2e504172fac,PennController,12,0,experiment,NULL,PennController,10,_Trial_,Start,1687413038126,627bbf69ab2788507bc421a2,627bbf69ab2788507bc421a2,8,cucumber,critical,B,75,cucumber66.jpg,cucumber84.jpg,low,NULL
1687413159,571958e192efc1e5a31fc2e504172fac,PennController,12,0,experiment,NULL,PennController,10,_Header_,Start,1687413038126,627bbf69ab2788507bc421a2,627bbf69ab2788507bc421a2,8,cucumber,critical,B,75,cucumber66.jpg,cucumber84.jpg,low,NULL
1687413159,571958e192efc1e5a31fc2e504172fac,PennController,12,0,experiment,NULL,PennController,10,_Header_,End,1687413038126,627bbf69ab2788507bc421a2,627bbf69ab2788507bc421a2,8,cucumber,critical,B,75,cucumber66.jpg,cucumber84.jpg,low,NULL
1687413159,571958e192efc1e5a31fc2e504172fac,PennController,12,0,experiment,NULL,Canvas,canvas6,Print,NA,1687413047842,627bbf69ab2788507bc421a2,627bbf69ab2788507bc421a2,8,cucumber,critical,B,75,cucumber66.jpg,cucumber84.jpg,low,NULL
1687413159,571958e192efc1e5a31fc2e504172fac,PennController,12,0,experiment,NULL,Video,progression,buffer,0.006586,1687413041657,627bbf69ab2788507bc421a2,627bbf69ab2788507bc421a2,8,cucumber,critical,B,75,cucumber66.jpg,cucumber84.jpg,low,NULL
1687413159,571958e192efc1e5a31fc2e504172fac,PennController,12,0,experiment,NULL,Selector,choice,Selection,option2,1687413050203,627bbf69ab2788507bc421a2,627bbf69ab2788507bc421a2,8,cucumber,critical,B,75,cucumber66.jpg,cucumber84.jpg,low,option1;option2
1687413159,571958e192efc1e5a31fc2e504172fac,PennController,12,0,experiment,NULL,PennController,10,_Trial_,End,1687413050204,627bbf69ab2788507bc421a2,627bbf69ab2788507bc421a2,8,cucumber,critical,B,75,cucumber66.jpg,cucumber84.jpg,low,NULL
1687413159,571958e192efc1e5a31fc2e504172fac,PennController,30,0,experiment,NULL,PennController,28,_Trial_,Start,1687413050206,627bbf69ab2788507bc421a2,627bbf69ab2788507bc421a2,26,sandwich,filler,B,75,sandwich65.jpg,sandwich85.jpg,GoalB,NULL
1687413159,571958e192efc1e5a31fc2e504172fac,PennController,30,0,experiment,NULL,PennController,28,_Header_,Start,1687413050206,627bbf69ab2788507bc421a2,627bbf69ab2788507bc421a2,26,sandwich,filler,B,75,sandwich65.jpg,sandwich85.jpg,GoalB,NULL
1687413159,571958e192efc1e5a31fc2e504172fac,PennController,30,0,experiment,NULL,PennController,28,_Header_,End,1687413050206,627bbf69ab2788507bc421a2,627bbf69ab2788507bc421a2,26,sandwich,filler,B,75,sandwich65.jpg,sandwich85.jpg,GoalB,NULL
1687413159,571958e192efc1e5a31fc2e504172fac,PennController,30,0,experiment,NULL,Canvas,canvas6,Print,NA,1687413057909,627bbf69ab2788507bc421a2,627bbf69ab2788507bc421a2,26,sandwich,filler,B,75,sandwich65.jpg,sandwich85.jpg,GoalB,NULL
1687413159,571958e192efc1e5a31fc2e504172fac,PennController,30,0,experiment,NULL,Video,progression,buffer,0.006476,1687413053733,627bbf69ab2788507bc421a2,627bbf69ab2788507bc421a2,26,sandwich,filler,B,75,sandwich65.jpg,sandwich85.jpg,GoalB,NULL
1687413159,571958e192efc1e5a31fc2e504172fac,PennController,30,0,experiment,NULL,Selector,choice,Selection,option2,1687413059979,627bbf69ab2788507bc421a2,627bbf69ab2788507bc421a2,26,sandwich,filler,B,75,sandwich65.jpg,sandwich85.jpg,GoalB,option2;option1
1687413159,571958e192efc1e5a31fc2e504172fac,PennController,30,0,experiment,NULL,PennController,28,_Trial_,End,1687413059980,627bbf69ab2788507bc421a2,627bbf69ab2788507bc421a2,26,sandwich,filler,B,75,sandwich65.jpg,sandwich85.jpg,GoalB,NULL
1687413159,571958e192efc1e5a31fc2e504172fac,PennController,13,0,experiment,NULL,PennController,11,_Trial_,Start,1687413059982,627bbf69ab2788507bc421a2,627bbf69ab2788507bc421a2,9,cake,critical,B,25,cake15.jpg,cake33.jpg,low,NULL
1687413159,571958e192efc1e5a31fc2e504172fac,PennController,13,0,experiment,NULL,PennController,11,_Header_,Start,1687413059982,627bbf69ab2788507bc421a2,627bbf69ab2788507bc421a2,9,cake,critical,B,25,cake15.jpg,cake33.jpg,low,NULL
1687413159,571958e192efc1e5a31fc2e504172fac,PennController,13,0,experiment,NULL,PennController,11,_Header_,End,1687413059982,627bbf69ab2788507bc421a2,627bbf69ab2788507bc421a2,9,cake,critical,B,25,cake15.jpg,cake33.jpg,low,NULL
1687413159,571958e192efc1e5a31fc2e504172fac,PennController,13,0,experiment,NULL,Canvas,canvas6,Print,NA,1687413066283,627bbf69ab2788507bc421a2,627bbf69ab2788507bc421a2,9,cake,critical,B,25,cake15.jpg,cake33.jpg,low,NULL
1687413159,571958e192efc1e5a31fc2e504172fac,PennController,13,0,experiment,NULL,Video,progression,buffer,0.004986,1687413063521,627bbf69ab2788507bc421a2,627bbf69ab2788507bc421a2,9,cake,critical,B,25,cake15.jpg,cake33.jpg,low,NULL
1687413159,571958e192efc1e5a31fc2e504172fac,PennController,13,0,experiment,NULL,Selector,choice,Selection,option1,1687413068946,627bbf69ab2788507bc421a2,627bbf69ab2788507bc421a2,9,cake,critical,B,25,cake15.jpg,cake33.jpg,low,option2;option1
1687413159,571958e192efc1e5a31fc2e504172fac,PennController,13,0,experiment,NULL,PennController,11,_Trial_,End,1687413068948,627bbf69ab2788507bc421a2,627bbf69ab2788507bc421a2,9,cake,critical,B,25,cake15.jpg,cake33.jpg,low,NULL
1687413159,571958e192efc1e5a31fc2e504172fac,PennController,19,0,experiment,NULL,PennController,17,_Trial_,Start,1687413068950,627bbf69ab2788507bc421a2,627bbf69ab2788507bc421a2,15,zip,critical,B,25,zip15.jpg,zip35.jpg,low,NULL
1687413159,571958e192efc1e5a31fc2e504172fac,PennController,19,0,experiment,NULL,PennController,17,_Header_,Start,1687413068950,627bbf69ab2788507bc421a2,627bbf69ab2788507bc421a2,15,zip,critical,B,25,zip15.jpg,zip35.jpg,low,NULL
1687413159,571958e192efc1e5a31fc2e504172fac,PennController,19,0,experiment,NULL,PennController,17,_Header_,End,1687413068950,627bbf69ab2788507bc421a2,627bbf69ab2788507bc421a2,15,zip,critical,B,25,zip15.jpg,zip35.jpg,low,NULL
1687413159,571958e192efc1e5a31fc2e504172fac,PennController,19,0,experiment,NULL,Canvas,canvas6,Print,NA,1687413074633,627bbf69ab2788507bc421a2,627bbf69ab2788507bc421a2,15,zip,critical,B,25,zip15.jpg,zip35.jpg,low,NULL
1687413159,571958e192efc1e5a31fc2e504172fac,PennController,19,0,experiment,NULL,Video,progression,buffer,0.005853,1687413072474,627bbf69ab2788507bc421a2,627bbf69ab2788507bc421a2,15,zip,critical,B,25,zip15.jpg,zip35.jpg,low,NULL
1687413159,571958e192efc1e5a31fc2e504172fac,PennController,19,0,experiment,NULL,Selector,choice,Selection,option1,1687413083986,627bbf69ab2788507bc421a2,627bbf69ab2788507bc421a2,15,zip,critical,B,25,zip15.jpg,zip35.jpg,low,option2;option1
1687413159,571958e192efc1e5a31fc2e504172fac,PennController,19,0,experiment,NULL,PennController,17,_Trial_,End,1687413083988,627bbf69ab2788507bc421a2,627bbf69ab2788507bc421a2,15,zip,critical,B,25,zip15.jpg,zip35.jpg,low,NULL
1687413159,571958e192efc1e5a31fc2e504172fac,PennController,8,0,experiment,NULL,PennController,6,_Trial_,Start,1687413083990,627bbf69ab2788507bc421a2,627bbf69ab2788507bc421a2,4,candy,critical,B,50,candy40.jpg,candy60.jpg,low,NULL
1687413159,571958e192efc1e5a31fc2e504172fac,PennController,8,0,experiment,NULL,PennController,6,_Header_,Start,1687413083990,627bbf69ab2788507bc421a2,627bbf69ab2788507bc421a2,4,candy,critical,B,50,candy40.jpg,candy60.jpg,low,NULL
1687413159,571958e192efc1e5a31fc2e504172fac,PennController,8,0,experiment,NULL,PennController,6,_Header_,End,1687413083990,627bbf69ab2788507bc421a2,627bbf69ab2788507bc421a2,4,candy,critical,B,50,candy40.jpg,candy60.jpg,low,NULL
1687413159,571958e192efc1e5a31fc2e504172fac,PennController,8,0,experiment,NULL,Canvas,canvas6,Print,NA,1687413090687,627bbf69ab2788507bc421a2,627bbf69ab2788507bc421a2,4,candy,critical,B,50,candy40.jpg,candy60.jpg,low,NULL
1687413159,571958e192efc1e5a31fc2e504172fac,PennController,8,0,experiment,NULL,Video,progression,buffer,0.006132,1687413087518,627bbf69ab2788507bc421a2,627bbf69ab2788507bc421a2,4,candy,critical,B,50,candy40.jpg,candy60.jpg,low,NULL
1687413159,571958e192efc1e5a31fc2e504172fac,PennController,8,0,experiment,NULL,Selector,choice,Selection,option2,1687413093267,627bbf69ab2788507bc421a2,627bbf69ab2788507bc421a2,4,candy,critical,B,50,candy40.jpg,candy60.jpg,low,option2;option1
1687413159,571958e192efc1e5a31fc2e504172fac,PennController,8,0,experiment,NULL,PennController,6,_Trial_,End,1687413093269,627bbf69ab2788507bc421a2,627bbf69ab2788507bc421a2,4,candy,critical,B,50,candy40.jpg,candy60.jpg,low,NULL
1687413159,571958e192efc1e5a31fc2e504172fac,PennController,24,0,experiment,NULL,PennController,22,_Trial_,Start,1687413093276,627bbf69ab2788507bc421a2,627bbf69ab2788507bc421a2,20,cat,filler,B,75,cat65.jpg,cat85.jpg,GoalB,NULL
1687413159,571958e192efc1e5a31fc2e504172fac,PennController,24,0,experiment,NULL,PennController,22,_Header_,Start,1687413093276,627bbf69ab2788507bc421a2,627bbf69ab2788507bc421a2,20,cat,filler,B,75,cat65.jpg,cat85.jpg,GoalB,NULL
1687413159,571958e192efc1e5a31fc2e504172fac,PennController,24,0,experiment,NULL,PennController,22,_Header_,End,1687413093276,627bbf69ab2788507bc421a2,627bbf69ab2788507bc421a2,20,cat,filler,B,75,cat65.jpg,cat85.jpg,GoalB,NULL
1687413159,571958e192efc1e5a31fc2e504172fac,PennController,24,0,experiment,NULL,Canvas,canvas6,Print,NA,1687413100968,627bbf69ab2788507bc421a2,627bbf69ab2788507bc421a2,20,cat,filler,B,75,cat65.jpg,cat85.jpg,GoalB,NULL
1687413159,571958e192efc1e5a31fc2e504172fac,PennController,24,0,experiment,NULL,Video,progression,buffer,0.006404,1687413096803,627bbf69ab2788507bc421a2,627bbf69ab2788507bc421a2,20,cat,filler,B,75,cat65.jpg,cat85.jpg,GoalB,NULL
1687413159,571958e192efc1e5a31fc2e504172fac,PennController,24,0,experiment,NULL,Selector,choice,Selection,option2,1687413104130,627bbf69ab2788507bc421a2,627bbf69ab2788507bc421a2,20,cat,filler,B,75,cat65.jpg,cat85.jpg,GoalB,option2;option1
1687413159,571958e192efc1e5a31fc2e504172fac,PennController,24,0,experiment,NULL,PennController,22,_Trial_,End,1687413104132,627bbf69ab2788507bc421a2,627bbf69ab2788507bc421a2,20,cat,filler,B,75,cat65.jpg,cat85.jpg,GoalB,NULL
1687413159,571958e192efc1e5a31fc2e504172fac,PennController,31,0,experiment,NULL,PennController,29,_Trial_,Start,1687413104133,627bbf69ab2788507bc421a2,627bbf69ab2788507bc421a2,27,square,filler,B,25,square15.jpg,square35.jpg,GoalA,NULL
1687413159,571958e192efc1e5a31fc2e504172fac,PennController,31,0,experiment,NULL,PennController,29,_Header_,Start,1687413104133,627bbf69ab2788507bc421a2,627bbf69ab2788507bc421a2,27,square,filler,B,25,square15.jpg,square35.jpg,GoalA,NULL
1687413159,571958e192efc1e5a31fc2e504172fac,PennController,31,0,experiment,NULL,PennController,29,_Header_,End,1687413104133,627bbf69ab2788507bc421a2,627bbf69ab2788507bc421a2,27,square,filler,B,25,square15.jpg,square35.jpg,GoalA,NULL
1687413159,571958e192efc1e5a31fc2e504172fac,PennController,31,0,experiment,NULL,Canvas,canvas6,Print,NA,1687413109816,627bbf69ab2788507bc421a2,627bbf69ab2788507bc421a2,27,square,filler,B,25,square15.jpg,square35.jpg,GoalA,NULL
1687413159,571958e192efc1e5a31fc2e504172fac,PennController,31,0,experiment,NULL,Video,progression,buffer,0.003726,1687413107654,627bbf69ab2788507bc421a2,627bbf69ab2788507bc421a2,27,square,filler,B,25,square15.jpg,square35.jpg,GoalA,NULL
1687413159,571958e192efc1e5a31fc2e504172fac,PennController,31,0,experiment,NULL,Selector,choice,Selection,option2,1687413112649,627bbf69ab2788507bc421a2,627bbf69ab2788507bc421a2,27,square,filler,B,25,square15.jpg,square35.jpg,GoalA,option1;option2
1687413159,571958e192efc1e5a31fc2e504172fac,PennController,31,0,experiment,NULL,PennController,29,_Trial_,End,1687413112651,627bbf69ab2788507bc421a2,627bbf69ab2788507bc421a2,27,square,filler,B,25,square15.jpg,square35.jpg,GoalA,NULL
1687413159,571958e192efc1e5a31fc2e504172fac,PennController,26,0,experiment,NULL,PennController,24,_Trial_,Start,1687413112652,627bbf69ab2788507bc421a2,627bbf69ab2788507bc421a2,22,wall,filler,B,50,wall40.jpg,wall60.jpg,GoalB,NULL
1687413159,571958e192efc1e5a31fc2e504172fac,PennController,26,0,experiment,NULL,PennController,24,_Header_,Start,1687413112652,627bbf69ab2788507bc421a2,627bbf69ab2788507bc421a2,22,wall,filler,B,50,wall40.jpg,wall60.jpg,GoalB,NULL
1687413159,571958e192efc1e5a31fc2e504172fac,PennController,26,0,experiment,NULL,PennController,24,_Header_,End,1687413112652,627bbf69ab2788507bc421a2,627bbf69ab2788507bc421a2,22,wall,filler,B,50,wall40.jpg,wall60.jpg,GoalB,NULL
1687413159,571958e192efc1e5a31fc2e504172fac,PennController,26,0,experiment,NULL,Canvas,canvas6,Print,NA,1687413119371,627bbf69ab2788507bc421a2,627bbf69ab2788507bc421a2,22,wall,filler,B,50,wall40.jpg,wall60.jpg,GoalB,NULL
1687413159,571958e192efc1e5a31fc2e504172fac,PennController,26,0,experiment,NULL,Video,progression,buffer,0.004178,1687413116188,627bbf69ab2788507bc421a2,627bbf69ab2788507bc421a2,22,wall,filler,B,50,wall40.jpg,wall60.jpg,GoalB,NULL
1687413159,571958e192efc1e5a31fc2e504172fac,PennController,26,0,experiment,NULL,Selector,choice,Selection,option2,1687413121377,627bbf69ab2788507bc421a2,627bbf69ab2788507bc421a2,22,wall,filler,B,50,wall40.jpg,wall60.jpg,GoalB,option2;option1
1687413159,571958e192efc1e5a31fc2e504172fac,PennController,26,0,experiment,NULL,PennController,24,_Trial_,End,1687413121379,627bbf69ab2788507bc421a2,627bbf69ab2788507bc421a2,22,wall,filler,B,50,wall40.jpg,wall60.jpg,GoalB,NULL
1687413159,571958e192efc1e5a31fc2e504172fac,PennController,21,0,experiment,NULL,PennController,19,_Trial_,Start,1687413121380,627bbf69ab2788507bc421a2,627bbf69ab2788507bc421a2,17,roll,critical,B,75,roll65.jpg,roll85.jpg,low,NULL
1687413159,571958e192efc1e5a31fc2e504172fac,PennController,21,0,experiment,NULL,PennController,19,_Header_,Start,1687413121381,627bbf69ab2788507bc421a2,627bbf69ab2788507bc421a2,17,roll,critical,B,75,roll65.jpg,roll85.jpg,low,NULL
1687413159,571958e192efc1e5a31fc2e504172fac,PennController,21,0,experiment,NULL,PennController,19,_Header_,End,1687413121381,627bbf69ab2788507bc421a2,627bbf69ab2788507bc421a2,17,roll,critical,B,75,roll65.jpg,roll85.jpg,low,NULL
1687413159,571958e192efc1e5a31fc2e504172fac,PennController,21,0,experiment,NULL,Canvas,canvas6,Print,NA,1687413129094,627bbf69ab2788507bc421a2,627bbf69ab2788507bc421a2,17,roll,critical,B,75,roll65.jpg,roll85.jpg,low,NULL
1687413159,571958e192efc1e5a31fc2e504172fac,PennController,21,0,experiment,NULL,Video,progression,buffer,0.003851,1687413124928,627bbf69ab2788507bc421a2,627bbf69ab2788507bc421a2,17,roll,critical,B,75,roll65.jpg,roll85.jpg,low,NULL
1687413159,571958e192efc1e5a31fc2e504172fac,PennController,21,0,experiment,NULL,Selector,choice,Selection,option1,1687413134168,627bbf69ab2788507bc421a2,627bbf69ab2788507bc421a2,17,roll,critical,B,75,roll65.jpg,roll85.jpg,low,option1;option2
1687413159,571958e192efc1e5a31fc2e504172fac,PennController,21,0,experiment,NULL,PennController,19,_Trial_,End,1687413134170,627bbf69ab2788507bc421a2,627bbf69ab2788507bc421a2,17,roll,critical,B,75,roll65.jpg,roll85.jpg,low,NULL
1687413159,571958e192efc1e5a31fc2e504172fac,PennController,10,0,experiment,NULL,PennController,8,_Trial_,Start,1687413134171,627bbf69ab2788507bc421a2,627bbf69ab2788507bc421a2,6,flower,critical,B,25,flower15.jpg,flower35.jpg,low,NULL
1687413159,571958e192efc1e5a31fc2e504172fac,PennController,10,0,experiment,NULL,PennController,8,_Header_,Start,1687413134171,627bbf69ab2788507bc421a2,627bbf69ab2788507bc421a2,6,flower,critical,B,25,flower15.jpg,flower35.jpg,low,NULL
1687413159,571958e192efc1e5a31fc2e504172fac,PennController,10,0,experiment,NULL,PennController,8,_Header_,End,1687413134171,627bbf69ab2788507bc421a2,627bbf69ab2788507bc421a2,6,flower,critical,B,25,flower15.jpg,flower35.jpg,low,NULL
1687413159,571958e192efc1e5a31fc2e504172fac,PennController,10,0,experiment,NULL,Canvas,canvas6,Print,NA,1687413139881,627bbf69ab2788507bc421a2,627bbf69ab2788507bc421a2,6,flower,critical,B,25,flower15.jpg,flower35.jpg,low,NULL
1687413159,571958e192efc1e5a31fc2e504172fac,PennController,10,0,experiment,NULL,Video,progression,buffer,0.005411,1687413137701,627bbf69ab2788507bc421a2,627bbf69ab2788507bc421a2,6,flower,critical,B,25,flower15.jpg,flower35.jpg,low,NULL
1687413159,571958e192efc1e5a31fc2e504172fac,PennController,10,0,experiment,NULL,Selector,choice,Selection,option2,1687413141242,627bbf69ab2788507bc421a2,627bbf69ab2788507bc421a2,6,flower,critical,B,25,flower15.jpg,flower35.jpg,low,option1;option2
1687413159,571958e192efc1e5a31fc2e504172fac,PennController,10,0,experiment,NULL,PennController,8,_Trial_,End,1687413141245,627bbf69ab2788507bc421a2,627bbf69ab2788507bc421a2,6,flower,critical,B,25,flower15.jpg,flower35.jpg,low,NULL
1687413159,571958e192efc1e5a31fc2e504172fac,PennController,5,0,experiment,NULL,PennController,3,_Trial_,Start,1687413141246,627bbf69ab2788507bc421a2,627bbf69ab2788507bc421a2,1,vase,critical,B,50,vase40.jpg,vase60.jpg,low,NULL
1687413159,571958e192efc1e5a31fc2e504172fac,PennController,5,0,experiment,NULL,PennController,3,_Header_,Start,1687413141246,627bbf69ab2788507bc421a2,627bbf69ab2788507bc421a2,1,vase,critical,B,50,vase40.jpg,vase60.jpg,low,NULL
1687413159,571958e192efc1e5a31fc2e504172fac,PennController,5,0,experiment,NULL,PennController,3,_Header_,End,1687413141246,627bbf69ab2788507bc421a2,627bbf69ab2788507bc421a2,1,vase,critical,B,50,vase40.jpg,vase60.jpg,low,NULL
1687413159,571958e192efc1e5a31fc2e504172fac,PennController,5,0,experiment,NULL,Canvas,canvas6,Print,NA,1687413147943,627bbf69ab2788507bc421a2,627bbf69ab2788507bc421a2,1,vase,critical,B,50,vase40.jpg,vase60.jpg,low,NULL
1687413159,571958e192efc1e5a31fc2e504172fac,PennController,5,0,experiment,NULL,Video,progression,buffer,0.006401,1687413144774,627bbf69ab2788507bc421a2,627bbf69ab2788507bc421a2,1,vase,critical,B,50,vase40.jpg,vase60.jpg,low,NULL
1687413159,571958e192efc1e5a31fc2e504172fac,PennController,5,0,experiment,NULL,Selector,choice,Selection,option2,1687413150365,627bbf69ab2788507bc421a2,627bbf69ab2788507bc421a2,1,vase,critical,B,50,vase40.jpg,vase60.jpg,low,option1;option2
1687413159,571958e192efc1e5a31fc2e504172fac,PennController,5,0,experiment,NULL,PennController,3,_Trial_,End,1687413150366,627bbf69ab2788507bc421a2,627bbf69ab2788507bc421a2,1,vase,critical,B,50,vase40.jpg,vase60.jpg,low,NULL
1687413159,571958e192efc1e5a31fc2e504172fac,PennController,14,0,experiment,NULL,PennController,12,_Trial_,Start,1687413150368,627bbf69ab2788507bc421a2,627bbf69ab2788507bc421a2,10,train,critical,B,50,train40.jpg,train60.jpg,low,NULL
1687413159,571958e192efc1e5a31fc2e504172fac,PennController,14,0,experiment,NULL,PennController,12,_Header_,Start,1687413150368,627bbf69ab2788507bc421a2,627bbf69ab2788507bc421a2,10,train,critical,B,50,train40.jpg,train60.jpg,low,NULL
1687413159,571958e192efc1e5a31fc2e504172fac,PennController,14,0,experiment,NULL,PennController,12,_Header_,End,1687413150368,627bbf69ab2788507bc421a2,627bbf69ab2788507bc421a2,10,train,critical,B,50,train40.jpg,train60.jpg,low,NULL
1687413159,571958e192efc1e5a31fc2e504172fac,PennController,14,0,experiment,NULL,Canvas,canvas6,Print,NA,1687413157068,627bbf69ab2788507bc421a2,627bbf69ab2788507bc421a2,10,train,critical,B,50,train40.jpg,train60.jpg,low,NULL
1687413159,571958e192efc1e5a31fc2e504172fac,PennController,14,0,experiment,NULL,Video,progression,buffer,0,1687413153893,627bbf69ab2788507bc421a2,627bbf69ab2788507bc421a2,10,train,critical,B,50,train40.jpg,train60.jpg,low,NULL
1687413159,571958e192efc1e5a31fc2e504172fac,PennController,14,0,experiment,NULL,Selector,choice,Selection,option2,1687413159272,627bbf69ab2788507bc421a2,627bbf69ab2788507bc421a2,10,train,critical,B,50,train40.jpg,train60.jpg,low,option2;option1
1687413159,571958e192efc1e5a31fc2e504172fac,PennController,14,0,experiment,NULL,PennController,12,_Trial_,End,1687413159273,627bbf69ab2788507bc421a2,627bbf69ab2788507bc421a2,10,train,critical,B,50,train40.jpg,train60.jpg,low,NULL
