#
# Results on Tuesday June 20 2023 18:54:32 UTC
# USER AGENT: Mozilla/5.0 (Windows NT 10.0; Win64; x64) AppleWebKit/537.36 (KHTML, like Gecko) Chrome/114.0.0.0 Safari/537.36
# Design number was non-random = 3
#
# Columns below this comment are as follows:
# 1. Results reception time.
# 2. MD5 hash of participant's IP address.
# 3. Controller name.
# 4. Order number of item.
# 5. Inner element number.
# 6. Label.
# 7. Latin Square Group.
# 8. PennElementType.
# 9. PennElementName.
# 10. Parameter.
# 11. Value.
# 12. EventTime.
# 13. PROLIFIC_ID.
# 14. Comments.
1687287272,8aaf58e225bee5e078413f7fb2238e47,PennController,2,0,consent,NULL,PennController,0,_Trial_,Start,1687286960614,6105c2e67b9f7c2a313a66eb,NULL
1687287272,8aaf58e225bee5e078413f7fb2238e47,PennController,2,0,consent,NULL,PennController,0,_Header_,Start,1687286960614,6105c2e67b9f7c2a313a66eb,NULL
1687287272,8aaf58e225bee5e078413f7fb2238e47,PennController,2,0,consent,NULL,PennController,0,_Header_,End,1687286960615,6105c2e67b9f7c2a313a66eb,NULL
1687287272,8aaf58e225bee5e078413f7fb2238e47,PennController,2,0,consent,NULL,PennController,0,_Trial_,End,1687286981694,6105c2e67b9f7c2a313a66eb,NULL
# Columns below this comment are as follows:
# 14. ID.
# 15. Comments.
1687287272,8aaf58e225bee5e078413f7fb2238e47,PennController,3,0,intro,NULL,PennController,1,_Trial_,Start,1687286981701,6105c2e67b9f7c2a313a66eb,6105c2e67b9f7c2a313a66eb,NULL
1687287272,8aaf58e225bee5e078413f7fb2238e47,PennController,3,0,intro,NULL,PennController,1,_Header_,Start,1687286981701,6105c2e67b9f7c2a313a66eb,6105c2e67b9f7c2a313a66eb,NULL
1687287272,8aaf58e225bee5e078413f7fb2238e47,PennController,3,0,intro,NULL,PennController,1,_Header_,End,1687286981701,6105c2e67b9f7c2a313a66eb,6105c2e67b9f7c2a313a66eb,NULL
1687287272,8aaf58e225bee5e078413f7fb2238e47,PennController,3,0,intro,NULL,PennController,1,_Trial_,End,1687286994454,6105c2e67b9f7c2a313a66eb,6105c2e67b9f7c2a313a66eb,NULL
# Columns below this comment are as follows:
# 15. item_number.
# 16. item.
# 17. type.
# 18. Group.
# 19. prog.
# 20. prev_image.
# 21. next_image.
# 22. height.
# 23. Comments.
1687287272,8aaf58e225bee5e078413f7fb2238e47,PennController,21,0,experiment,NULL,PennController,20,_Trial_,Start,1687286994456,6105c2e67b9f7c2a313a66eb,6105c2e67b9f7c2a313a66eb,18,ball,critical,D,75,ball65.jpg,ball85.jpg,high,NULL
1687287272,8aaf58e225bee5e078413f7fb2238e47,PennController,21,0,experiment,NULL,PennController,20,_Header_,Start,1687286994456,6105c2e67b9f7c2a313a66eb,6105c2e67b9f7c2a313a66eb,18,ball,critical,D,75,ball65.jpg,ball85.jpg,high,NULL
1687287272,8aaf58e225bee5e078413f7fb2238e47,PennController,21,0,experiment,NULL,PennController,20,_Header_,End,1687286994456,6105c2e67b9f7c2a313a66eb,6105c2e67b9f7c2a313a66eb,18,ball,critical,D,75,ball65.jpg,ball85.jpg,high,NULL
1687287272,8aaf58e225bee5e078413f7fb2238e47,PennController,21,0,experiment,NULL,Canvas,canvas6,Print,NA,1687287002171,6105c2e67b9f7c2a313a66eb,6105c2e67b9f7c2a313a66eb,18,ball,critical,D,75,ball65.jpg,ball85.jpg,high,NULL
1687287272,8aaf58e225bee5e078413f7fb2238e47,PennController,21,0,experiment,NULL,Video,progression,buffer,0.0078,1687286998009,6105c2e67b9f7c2a313a66eb,6105c2e67b9f7c2a313a66eb,18,ball,critical,D,75,ball65.jpg,ball85.jpg,high,NULL
1687287272,8aaf58e225bee5e078413f7fb2238e47,PennController,21,0,experiment,NULL,Selector,choice,Selection,option2,1687287006702,6105c2e67b9f7c2a313a66eb,6105c2e67b9f7c2a313a66eb,18,ball,critical,D,75,ball65.jpg,ball85.jpg,high,option2;option1
1687287272,8aaf58e225bee5e078413f7fb2238e47,PennController,21,0,experiment,NULL,PennController,20,_Trial_,End,1687287006704,6105c2e67b9f7c2a313a66eb,6105c2e67b9f7c2a313a66eb,18,ball,critical,D,75,ball65.jpg,ball85.jpg,high,NULL
1687287272,8aaf58e225bee5e078413f7fb2238e47,PennController,5,0,experiment,NULL,PennController,4,_Trial_,Start,1687287006707,6105c2e67b9f7c2a313a66eb,6105c2e67b9f7c2a313a66eb,2,door,critical,D,50,door40.jpg,door60.jpg,high,NULL
1687287272,8aaf58e225bee5e078413f7fb2238e47,PennController,5,0,experiment,NULL,PennController,4,_Header_,Start,1687287006707,6105c2e67b9f7c2a313a66eb,6105c2e67b9f7c2a313a66eb,2,door,critical,D,50,door40.jpg,door60.jpg,high,NULL
1687287272,8aaf58e225bee5e078413f7fb2238e47,PennController,5,0,experiment,NULL,PennController,4,_Header_,End,1687287006707,6105c2e67b9f7c2a313a66eb,6105c2e67b9f7c2a313a66eb,2,door,critical,D,50,door40.jpg,door60.jpg,high,NULL
1687287272,8aaf58e225bee5e078413f7fb2238e47,PennController,5,0,experiment,NULL,Canvas,canvas6,Print,NA,1687287013456,6105c2e67b9f7c2a313a66eb,6105c2e67b9f7c2a313a66eb,2,door,critical,D,50,door40.jpg,door60.jpg,high,NULL
1687287272,8aaf58e225bee5e078413f7fb2238e47,PennController,5,0,experiment,NULL,Video,progression,buffer,0,1687287010242,6105c2e67b9f7c2a313a66eb,6105c2e67b9f7c2a313a66eb,2,door,critical,D,50,door40.jpg,door60.jpg,high,NULL
1687287272,8aaf58e225bee5e078413f7fb2238e47,PennController,5,0,experiment,NULL,Selector,choice,Selection,option1,1687287016612,6105c2e67b9f7c2a313a66eb,6105c2e67b9f7c2a313a66eb,2,door,critical,D,50,door40.jpg,door60.jpg,high,option1;option2
1687287272,8aaf58e225bee5e078413f7fb2238e47,PennController,5,0,experiment,NULL,PennController,4,_Trial_,End,1687287016614,6105c2e67b9f7c2a313a66eb,6105c2e67b9f7c2a313a66eb,2,door,critical,D,50,door40.jpg,door60.jpg,high,NULL
1687287272,8aaf58e225bee5e078413f7fb2238e47,PennController,28,0,experiment,NULL,PennController,27,_Trial_,Start,1687287016620,6105c2e67b9f7c2a313a66eb,6105c2e67b9f7c2a313a66eb,25,house,filler,D,25,house15.jpg,house35.jpg,GoalB,NULL
1687287272,8aaf58e225bee5e078413f7fb2238e47,PennController,28,0,experiment,NULL,PennController,27,_Header_,Start,1687287016620,6105c2e67b9f7c2a313a66eb,6105c2e67b9f7c2a313a66eb,25,house,filler,D,25,house15.jpg,house35.jpg,GoalB,NULL
1687287272,8aaf58e225bee5e078413f7fb2238e47,PennController,28,0,experiment,NULL,PennController,27,_Header_,End,1687287016620,6105c2e67b9f7c2a313a66eb,6105c2e67b9f7c2a313a66eb,25,house,filler,D,25,house15.jpg,house35.jpg,GoalB,NULL
1687287272,8aaf58e225bee5e078413f7fb2238e47,PennController,28,0,experiment,NULL,Canvas,canvas6,Print,NA,1687287022332,6105c2e67b9f7c2a313a66eb,6105c2e67b9f7c2a313a66eb,25,house,filler,D,25,house15.jpg,house35.jpg,GoalB,NULL
1687287272,8aaf58e225bee5e078413f7fb2238e47,PennController,28,0,experiment,NULL,Video,progression,buffer,0.006265,1687287020159,6105c2e67b9f7c2a313a66eb,6105c2e67b9f7c2a313a66eb,25,house,filler,D,25,house15.jpg,house35.jpg,GoalB,NULL
1687287272,8aaf58e225bee5e078413f7fb2238e47,PennController,28,0,experiment,NULL,Selector,choice,Selection,option2,1687287024214,6105c2e67b9f7c2a313a66eb,6105c2e67b9f7c2a313a66eb,25,house,filler,D,25,house15.jpg,house35.jpg,GoalB,option2;option1
1687287272,8aaf58e225bee5e078413f7fb2238e47,PennController,28,0,experiment,NULL,PennController,27,_Trial_,End,1687287024216,6105c2e67b9f7c2a313a66eb,6105c2e67b9f7c2a313a66eb,25,house,filler,D,25,house15.jpg,house35.jpg,GoalB,NULL
1687287272,8aaf58e225bee5e078413f7fb2238e47,PennController,24,0,experiment,NULL,PennController,23,_Trial_,Start,1687287024219,6105c2e67b9f7c2a313a66eb,6105c2e67b9f7c2a313a66eb,21,visit,filler,D,75,visit65.jpg,visit85.jpg,GoalB,NULL
1687287272,8aaf58e225bee5e078413f7fb2238e47,PennController,24,0,experiment,NULL,PennController,23,_Header_,Start,1687287024219,6105c2e67b9f7c2a313a66eb,6105c2e67b9f7c2a313a66eb,21,visit,filler,D,75,visit65.jpg,visit85.jpg,GoalB,NULL
1687287272,8aaf58e225bee5e078413f7fb2238e47,PennController,24,0,experiment,NULL,PennController,23,_Header_,End,1687287024219,6105c2e67b9f7c2a313a66eb,6105c2e67b9f7c2a313a66eb,21,visit,filler,D,75,visit65.jpg,visit85.jpg,GoalB,NULL
1687287272,8aaf58e225bee5e078413f7fb2238e47,PennController,24,0,experiment,NULL,Canvas,canvas6,Print,NA,1687287031926,6105c2e67b9f7c2a313a66eb,6105c2e67b9f7c2a313a66eb,21,visit,filler,D,75,visit65.jpg,visit85.jpg,GoalB,NULL
1687287272,8aaf58e225bee5e078413f7fb2238e47,PennController,24,0,experiment,NULL,Video,progression,buffer,0.004027,1687287027753,6105c2e67b9f7c2a313a66eb,6105c2e67b9f7c2a313a66eb,21,visit,filler,D,75,visit65.jpg,visit85.jpg,GoalB,NULL
1687287272,8aaf58e225bee5e078413f7fb2238e47,PennController,24,0,experiment,NULL,Selector,choice,Selection,option2,1687287034239,6105c2e67b9f7c2a313a66eb,6105c2e67b9f7c2a313a66eb,21,visit,filler,D,75,visit65.jpg,visit85.jpg,GoalB,option1;option2
1687287272,8aaf58e225bee5e078413f7fb2238e47,PennController,24,0,experiment,NULL,PennController,23,_Trial_,End,1687287034241,6105c2e67b9f7c2a313a66eb,6105c2e67b9f7c2a313a66eb,21,visit,filler,D,75,visit65.jpg,visit85.jpg,GoalB,NULL
1687287272,8aaf58e225bee5e078413f7fb2238e47,PennController,12,0,experiment,NULL,PennController,11,_Trial_,Start,1687287034243,6105c2e67b9f7c2a313a66eb,6105c2e67b9f7c2a313a66eb,9,cake,critical,D,75,cake66.jpg,cake84.jpg,high,NULL
1687287272,8aaf58e225bee5e078413f7fb2238e47,PennController,12,0,experiment,NULL,PennController,11,_Header_,Start,1687287034243,6105c2e67b9f7c2a313a66eb,6105c2e67b9f7c2a313a66eb,9,cake,critical,D,75,cake66.jpg,cake84.jpg,high,NULL
1687287272,8aaf58e225bee5e078413f7fb2238e47,PennController,12,0,experiment,NULL,PennController,11,_Header_,End,1687287034243,6105c2e67b9f7c2a313a66eb,6105c2e67b9f7c2a313a66eb,9,cake,critical,D,75,cake66.jpg,cake84.jpg,high,NULL
1687287272,8aaf58e225bee5e078413f7fb2238e47,PennController,12,0,experiment,NULL,Canvas,canvas6,Print,NA,1687287043945,6105c2e67b9f7c2a313a66eb,6105c2e67b9f7c2a313a66eb,9,cake,critical,D,75,cake66.jpg,cake84.jpg,high,NULL
1687287272,8aaf58e225bee5e078413f7fb2238e47,PennController,12,0,experiment,NULL,Video,progression,buffer,0.003657,1687287037776,6105c2e67b9f7c2a313a66eb,6105c2e67b9f7c2a313a66eb,9,cake,critical,D,75,cake66.jpg,cake84.jpg,high,NULL
1687287272,8aaf58e225bee5e078413f7fb2238e47,PennController,12,0,experiment,NULL,Selector,choice,Selection,option2,1687287045590,6105c2e67b9f7c2a313a66eb,6105c2e67b9f7c2a313a66eb,9,cake,critical,D,75,cake66.jpg,cake84.jpg,high,option2;option1
1687287272,8aaf58e225bee5e078413f7fb2238e47,PennController,12,0,experiment,NULL,PennController,11,_Trial_,End,1687287045591,6105c2e67b9f7c2a313a66eb,6105c2e67b9f7c2a313a66eb,9,cake,critical,D,75,cake66.jpg,cake84.jpg,high,NULL
1687287272,8aaf58e225bee5e078413f7fb2238e47,PennController,27,0,experiment,NULL,PennController,26,_Trial_,Start,1687287045593,6105c2e67b9f7c2a313a66eb,6105c2e67b9f7c2a313a66eb,24,match,filler,D,75,match65.jpg,match85.jpg,GoalA,NULL
1687287272,8aaf58e225bee5e078413f7fb2238e47,PennController,27,0,experiment,NULL,PennController,26,_Header_,Start,1687287045593,6105c2e67b9f7c2a313a66eb,6105c2e67b9f7c2a313a66eb,24,match,filler,D,75,match65.jpg,match85.jpg,GoalA,NULL
1687287272,8aaf58e225bee5e078413f7fb2238e47,PennController,27,0,experiment,NULL,PennController,26,_Header_,End,1687287045593,6105c2e67b9f7c2a313a66eb,6105c2e67b9f7c2a313a66eb,24,match,filler,D,75,match65.jpg,match85.jpg,GoalA,NULL
1687287272,8aaf58e225bee5e078413f7fb2238e47,PennController,27,0,experiment,NULL,Canvas,canvas6,Print,NA,1687287053288,6105c2e67b9f7c2a313a66eb,6105c2e67b9f7c2a313a66eb,24,match,filler,D,75,match65.jpg,match85.jpg,GoalA,NULL
1687287272,8aaf58e225bee5e078413f7fb2238e47,PennController,27,0,experiment,NULL,Video,progression,buffer,0.007885,1687287049133,6105c2e67b9f7c2a313a66eb,6105c2e67b9f7c2a313a66eb,24,match,filler,D,75,match65.jpg,match85.jpg,GoalA,NULL
1687287272,8aaf58e225bee5e078413f7fb2238e47,PennController,27,0,experiment,NULL,Selector,choice,Selection,option1,1687287062378,6105c2e67b9f7c2a313a66eb,6105c2e67b9f7c2a313a66eb,24,match,filler,D,75,match65.jpg,match85.jpg,GoalA,option1;option2
1687287272,8aaf58e225bee5e078413f7fb2238e47,PennController,27,0,experiment,NULL,PennController,26,_Trial_,End,1687287062382,6105c2e67b9f7c2a313a66eb,6105c2e67b9f7c2a313a66eb,24,match,filler,D,75,match65.jpg,match85.jpg,GoalA,NULL
1687287272,8aaf58e225bee5e078413f7fb2238e47,PennController,29,0,experiment,NULL,PennController,28,_Trial_,Start,1687287062385,6105c2e67b9f7c2a313a66eb,6105c2e67b9f7c2a313a66eb,26,sandwich,filler,D,50,sandwich40.jpg,sandwich60.jpg,GoalA,NULL
1687287272,8aaf58e225bee5e078413f7fb2238e47,PennController,29,0,experiment,NULL,PennController,28,_Header_,Start,1687287062385,6105c2e67b9f7c2a313a66eb,6105c2e67b9f7c2a313a66eb,26,sandwich,filler,D,50,sandwich40.jpg,sandwich60.jpg,GoalA,NULL
1687287272,8aaf58e225bee5e078413f7fb2238e47,PennController,29,0,experiment,NULL,PennController,28,_Header_,End,1687287062385,6105c2e67b9f7c2a313a66eb,6105c2e67b9f7c2a313a66eb,26,sandwich,filler,D,50,sandwich40.jpg,sandwich60.jpg,GoalA,NULL
1687287272,8aaf58e225bee5e078413f7fb2238e47,PennController,29,0,experiment,NULL,Canvas,canvas6,Print,NA,1687287069078,6105c2e67b9f7c2a313a66eb,6105c2e67b9f7c2a313a66eb,26,sandwich,filler,D,50,sandwich40.jpg,sandwich60.jpg,GoalA,NULL
1687287272,8aaf58e225bee5e078413f7fb2238e47,PennController,29,0,experiment,NULL,Video,progression,buffer,0.004658,1687287065918,6105c2e67b9f7c2a313a66eb,6105c2e67b9f7c2a313a66eb,26,sandwich,filler,D,50,sandwich40.jpg,sandwich60.jpg,GoalA,NULL
1687287272,8aaf58e225bee5e078413f7fb2238e47,PennController,29,0,experiment,NULL,Selector,choice,Selection,option1,1687287070817,6105c2e67b9f7c2a313a66eb,6105c2e67b9f7c2a313a66eb,26,sandwich,filler,D,50,sandwich40.jpg,sandwich60.jpg,GoalA,option2;option1
1687287272,8aaf58e225bee5e078413f7fb2238e47,PennController,29,0,experiment,NULL,PennController,28,_Trial_,End,1687287070818,6105c2e67b9f7c2a313a66eb,6105c2e67b9f7c2a313a66eb,26,sandwich,filler,D,50,sandwich40.jpg,sandwich60.jpg,GoalA,NULL
1687287272,8aaf58e225bee5e078413f7fb2238e47,PennController,13,0,experiment,NULL,PennController,12,_Trial_,Start,1687287070820,6105c2e67b9f7c2a313a66eb,6105c2e67b9f7c2a313a66eb,10,train,critical,D,25,train15.jpg,train35.jpg,high,NULL
1687287272,8aaf58e225bee5e078413f7fb2238e47,PennController,13,0,experiment,NULL,PennController,12,_Header_,Start,1687287070820,6105c2e67b9f7c2a313a66eb,6105c2e67b9f7c2a313a66eb,10,train,critical,D,25,train15.jpg,train35.jpg,high,NULL
1687287272,8aaf58e225bee5e078413f7fb2238e47,PennController,13,0,experiment,NULL,PennController,12,_Header_,End,1687287070820,6105c2e67b9f7c2a313a66eb,6105c2e67b9f7c2a313a66eb,10,train,critical,D,25,train15.jpg,train35.jpg,high,NULL
1687287272,8aaf58e225bee5e078413f7fb2238e47,PennController,13,0,experiment,NULL,Canvas,canvas6,Print,NA,1687287076525,6105c2e67b9f7c2a313a66eb,6105c2e67b9f7c2a313a66eb,10,train,critical,D,25,train15.jpg,train35.jpg,high,NULL
1687287272,8aaf58e225bee5e078413f7fb2238e47,PennController,13,0,experiment,NULL,Video,progression,buffer,0.006745,1687287074356,6105c2e67b9f7c2a313a66eb,6105c2e67b9f7c2a313a66eb,10,train,critical,D,25,train15.jpg,train35.jpg,high,NULL
1687287272,8aaf58e225bee5e078413f7fb2238e47,PennController,13,0,experiment,NULL,Selector,choice,Selection,option2,1687287081327,6105c2e67b9f7c2a313a66eb,6105c2e67b9f7c2a313a66eb,10,train,critical,D,25,train15.jpg,train35.jpg,high,option1;option2
1687287272,8aaf58e225bee5e078413f7fb2238e47,PennController,13,0,experiment,NULL,PennController,12,_Trial_,End,1687287081329,6105c2e67b9f7c2a313a66eb,6105c2e67b9f7c2a313a66eb,10,train,critical,D,25,train15.jpg,train35.jpg,high,NULL
1687287272,8aaf58e225bee5e078413f7fb2238e47,PennController,7,0,experiment,NULL,PennController,6,_Trial_,Start,1687287081330,6105c2e67b9f7c2a313a66eb,6105c2e67b9f7c2a313a66eb,4,candy,critical,D,25,candy15.jpg,candy35.jpg,high,NULL
1687287272,8aaf58e225bee5e078413f7fb2238e47,PennController,7,0,experiment,NULL,PennController,6,_Header_,Start,1687287081330,6105c2e67b9f7c2a313a66eb,6105c2e67b9f7c2a313a66eb,4,candy,critical,D,25,candy15.jpg,candy35.jpg,high,NULL
1687287272,8aaf58e225bee5e078413f7fb2238e47,PennController,7,0,experiment,NULL,PennController,6,_Header_,End,1687287081330,6105c2e67b9f7c2a313a66eb,6105c2e67b9f7c2a313a66eb,4,candy,critical,D,25,candy15.jpg,candy35.jpg,high,NULL
1687287272,8aaf58e225bee5e078413f7fb2238e47,PennController,7,0,experiment,NULL,Canvas,canvas6,Print,NA,1687287087035,6105c2e67b9f7c2a313a66eb,6105c2e67b9f7c2a313a66eb,4,candy,critical,D,25,candy15.jpg,candy35.jpg,high,NULL
1687287272,8aaf58e225bee5e078413f7fb2238e47,PennController,7,0,experiment,NULL,Video,progression,buffer,0.006625,1687287084863,6105c2e67b9f7c2a313a66eb,6105c2e67b9f7c2a313a66eb,4,candy,critical,D,25,candy15.jpg,candy35.jpg,high,NULL
1687287272,8aaf58e225bee5e078413f7fb2238e47,PennController,7,0,experiment,NULL,Selector,choice,Selection,option2,1687287089001,6105c2e67b9f7c2a313a66eb,6105c2e67b9f7c2a313a66eb,4,candy,critical,D,25,candy15.jpg,candy35.jpg,high,option2;option1
1687287272,8aaf58e225bee5e078413f7fb2238e47,PennController,7,0,experiment,NULL,PennController,6,_Trial_,End,1687287089003,6105c2e67b9f7c2a313a66eb,6105c2e67b9f7c2a313a66eb,4,candy,critical,D,25,candy15.jpg,candy35.jpg,high,NULL
1687287272,8aaf58e225bee5e078413f7fb2238e47,PennController,6,0,experiment,NULL,PennController,5,_Trial_,Start,1687287089006,6105c2e67b9f7c2a313a66eb,6105c2e67b9f7c2a313a66eb,3,clean,critical,D,75,clean65.jpg,clean85.jpg,high,NULL
1687287272,8aaf58e225bee5e078413f7fb2238e47,PennController,6,0,experiment,NULL,PennController,5,_Header_,Start,1687287089007,6105c2e67b9f7c2a313a66eb,6105c2e67b9f7c2a313a66eb,3,clean,critical,D,75,clean65.jpg,clean85.jpg,high,NULL
1687287272,8aaf58e225bee5e078413f7fb2238e47,PennController,6,0,experiment,NULL,PennController,5,_Header_,End,1687287089007,6105c2e67b9f7c2a313a66eb,6105c2e67b9f7c2a313a66eb,3,clean,critical,D,75,clean65.jpg,clean85.jpg,high,NULL
1687287272,8aaf58e225bee5e078413f7fb2238e47,PennController,6,0,experiment,NULL,Canvas,canvas6,Print,NA,1687287096723,6105c2e67b9f7c2a313a66eb,6105c2e67b9f7c2a313a66eb,3,clean,critical,D,75,clean65.jpg,clean85.jpg,high,NULL
1687287272,8aaf58e225bee5e078413f7fb2238e47,PennController,6,0,experiment,NULL,Video,progression,buffer,0.007451,1687287092555,6105c2e67b9f7c2a313a66eb,6105c2e67b9f7c2a313a66eb,3,clean,critical,D,75,clean65.jpg,clean85.jpg,high,NULL
1687287272,8aaf58e225bee5e078413f7fb2238e47,PennController,6,0,experiment,NULL,Selector,choice,Selection,option2,1687287098322,6105c2e67b9f7c2a313a66eb,6105c2e67b9f7c2a313a66eb,3,clean,critical,D,75,clean65.jpg,clean85.jpg,high,option1;option2
1687287272,8aaf58e225bee5e078413f7fb2238e47,PennController,6,0,experiment,NULL,PennController,5,_Trial_,End,1687287098325,6105c2e67b9f7c2a313a66eb,6105c2e67b9f7c2a313a66eb,3,clean,critical,D,75,clean65.jpg,clean85.jpg,high,NULL
1687287272,8aaf58e225bee5e078413f7fb2238e47,PennController,22,0,experiment,NULL,PennController,21,_Trial_,Start,1687287098326,6105c2e67b9f7c2a313a66eb,6105c2e67b9f7c2a313a66eb,19,cup,filler,D,25,cup15.jpg,cup35.jpg,GoalB,NULL
1687287272,8aaf58e225bee5e078413f7fb2238e47,PennController,22,0,experiment,NULL,PennController,21,_Header_,Start,1687287098326,6105c2e67b9f7c2a313a66eb,6105c2e67b9f7c2a313a66eb,19,cup,filler,D,25,cup15.jpg,cup35.jpg,GoalB,NULL
1687287272,8aaf58e225bee5e078413f7fb2238e47,PennController,22,0,experiment,NULL,PennController,21,_Header_,End,1687287098326,6105c2e67b9f7c2a313a66eb,6105c2e67b9f7c2a313a66eb,19,cup,filler,D,25,cup15.jpg,cup35.jpg,GoalB,NULL
1687287272,8aaf58e225bee5e078413f7fb2238e47,PennController,22,0,experiment,NULL,Canvas,canvas6,Print,NA,1687287104020,6105c2e67b9f7c2a313a66eb,6105c2e67b9f7c2a313a66eb,19,cup,filler,D,25,cup15.jpg,cup35.jpg,GoalB,NULL
1687287272,8aaf58e225bee5e078413f7fb2238e47,PennController,22,0,experiment,NULL,Video,progression,buffer,0.005137,1687287101857,6105c2e67b9f7c2a313a66eb,6105c2e67b9f7c2a313a66eb,19,cup,filler,D,25,cup15.jpg,cup35.jpg,GoalB,NULL
1687287272,8aaf58e225bee5e078413f7fb2238e47,PennController,22,0,experiment,NULL,Selector,choice,Selection,option2,1687287107391,6105c2e67b9f7c2a313a66eb,6105c2e67b9f7c2a313a66eb,19,cup,filler,D,25,cup15.jpg,cup35.jpg,GoalB,option1;option2
1687287272,8aaf58e225bee5e078413f7fb2238e47,PennController,22,0,experiment,NULL,PennController,21,_Trial_,End,1687287107393,6105c2e67b9f7c2a313a66eb,6105c2e67b9f7c2a313a66eb,19,cup,filler,D,25,cup15.jpg,cup35.jpg,GoalB,NULL
1687287272,8aaf58e225bee5e078413f7fb2238e47,PennController,30,0,experiment,NULL,PennController,29,_Trial_,Start,1687287107395,6105c2e67b9f7c2a313a66eb,6105c2e67b9f7c2a313a66eb,27,square,filler,D,75,square65.jpg,square85.jpg,GoalB,NULL
1687287272,8aaf58e225bee5e078413f7fb2238e47,PennController,30,0,experiment,NULL,PennController,29,_Header_,Start,1687287107395,6105c2e67b9f7c2a313a66eb,6105c2e67b9f7c2a313a66eb,27,square,filler,D,75,square65.jpg,square85.jpg,GoalB,NULL
1687287272,8aaf58e225bee5e078413f7fb2238e47,PennController,30,0,experiment,NULL,PennController,29,_Header_,End,1687287107395,6105c2e67b9f7c2a313a66eb,6105c2e67b9f7c2a313a66eb,27,square,filler,D,75,square65.jpg,square85.jpg,GoalB,NULL
1687287272,8aaf58e225bee5e078413f7fb2238e47,PennController,30,0,experiment,NULL,Canvas,canvas6,Print,NA,1687287115091,6105c2e67b9f7c2a313a66eb,6105c2e67b9f7c2a313a66eb,27,square,filler,D,75,square65.jpg,square85.jpg,GoalB,NULL
1687287272,8aaf58e225bee5e078413f7fb2238e47,PennController,30,0,experiment,NULL,Video,progression,buffer,0.006181,1687287110931,6105c2e67b9f7c2a313a66eb,6105c2e67b9f7c2a313a66eb,27,square,filler,D,75,square65.jpg,square85.jpg,GoalB,NULL
1687287272,8aaf58e225bee5e078413f7fb2238e47,PennController,30,0,experiment,NULL,Selector,choice,Selection,option1,1687287116945,6105c2e67b9f7c2a313a66eb,6105c2e67b9f7c2a313a66eb,27,square,filler,D,75,square65.jpg,square85.jpg,GoalB,option1;option2
1687287272,8aaf58e225bee5e078413f7fb2238e47,PennController,30,0,experiment,NULL,PennController,29,_Trial_,End,1687287116947,6105c2e67b9f7c2a313a66eb,6105c2e67b9f7c2a313a66eb,27,square,filler,D,75,square65.jpg,square85.jpg,GoalB,NULL
1687287272,8aaf58e225bee5e078413f7fb2238e47,PennController,25,0,experiment,NULL,PennController,24,_Trial_,Start,1687287116949,6105c2e67b9f7c2a313a66eb,6105c2e67b9f7c2a313a66eb,22,wall,filler,D,25,wall15.jpg,wall35.jpg,GoalA,NULL
1687287272,8aaf58e225bee5e078413f7fb2238e47,PennController,25,0,experiment,NULL,PennController,24,_Header_,Start,1687287116949,6105c2e67b9f7c2a313a66eb,6105c2e67b9f7c2a313a66eb,22,wall,filler,D,25,wall15.jpg,wall35.jpg,GoalA,NULL
1687287272,8aaf58e225bee5e078413f7fb2238e47,PennController,25,0,experiment,NULL,PennController,24,_Header_,End,1687287116949,6105c2e67b9f7c2a313a66eb,6105c2e67b9f7c2a313a66eb,22,wall,filler,D,25,wall15.jpg,wall35.jpg,GoalA,NULL
1687287272,8aaf58e225bee5e078413f7fb2238e47,PennController,25,0,experiment,NULL,Canvas,canvas6,Print,NA,1687287122647,6105c2e67b9f7c2a313a66eb,6105c2e67b9f7c2a313a66eb,22,wall,filler,D,25,wall15.jpg,wall35.jpg,GoalA,NULL
1687287272,8aaf58e225bee5e078413f7fb2238e47,PennController,25,0,experiment,NULL,Video,progression,buffer,0.004095,1687287120484,6105c2e67b9f7c2a313a66eb,6105c2e67b9f7c2a313a66eb,22,wall,filler,D,25,wall15.jpg,wall35.jpg,GoalA,NULL
1687287272,8aaf58e225bee5e078413f7fb2238e47,PennController,25,0,experiment,NULL,Selector,choice,Selection,option1,1687287123944,6105c2e67b9f7c2a313a66eb,6105c2e67b9f7c2a313a66eb,22,wall,filler,D,25,wall15.jpg,wall35.jpg,GoalA,option1;option2
1687287272,8aaf58e225bee5e078413f7fb2238e47,PennController,25,0,experiment,NULL,PennController,24,_Trial_,End,1687287123946,6105c2e67b9f7c2a313a66eb,6105c2e67b9f7c2a313a66eb,22,wall,filler,D,25,wall15.jpg,wall35.jpg,GoalA,NULL
1687287272,8aaf58e225bee5e078413f7fb2238e47,PennController,4,0,experiment,NULL,PennController,3,_Trial_,Start,1687287123947,6105c2e67b9f7c2a313a66eb,6105c2e67b9f7c2a313a66eb,1,vase,critical,D,25,vase15.jpg,vase35.jpg,high,NULL
1687287272,8aaf58e225bee5e078413f7fb2238e47,PennController,4,0,experiment,NULL,PennController,3,_Header_,Start,1687287123947,6105c2e67b9f7c2a313a66eb,6105c2e67b9f7c2a313a66eb,1,vase,critical,D,25,vase15.jpg,vase35.jpg,high,NULL
1687287272,8aaf58e225bee5e078413f7fb2238e47,PennController,4,0,experiment,NULL,PennController,3,_Header_,End,1687287123948,6105c2e67b9f7c2a313a66eb,6105c2e67b9f7c2a313a66eb,1,vase,critical,D,25,vase15.jpg,vase35.jpg,high,NULL
1687287272,8aaf58e225bee5e078413f7fb2238e47,PennController,4,0,experiment,NULL,Canvas,canvas6,Print,NA,1687287129643,6105c2e67b9f7c2a313a66eb,6105c2e67b9f7c2a313a66eb,1,vase,critical,D,25,vase15.jpg,vase35.jpg,high,NULL
1687287272,8aaf58e225bee5e078413f7fb2238e47,PennController,4,0,experiment,NULL,Video,progression,buffer,0.004966,1687287127482,6105c2e67b9f7c2a313a66eb,6105c2e67b9f7c2a313a66eb,1,vase,critical,D,25,vase15.jpg,vase35.jpg,high,NULL
1687287272,8aaf58e225bee5e078413f7fb2238e47,PennController,4,0,experiment,NULL,Selector,choice,Selection,option2,1687287131029,6105c2e67b9f7c2a313a66eb,6105c2e67b9f7c2a313a66eb,1,vase,critical,D,25,vase15.jpg,vase35.jpg,high,option2;option1
1687287272,8aaf58e225bee5e078413f7fb2238e47,PennController,4,0,experiment,NULL,PennController,3,_Trial_,End,1687287131031,6105c2e67b9f7c2a313a66eb,6105c2e67b9f7c2a313a66eb,1,vase,critical,D,25,vase15.jpg,vase35.jpg,high,NULL
1687287272,8aaf58e225bee5e078413f7fb2238e47,PennController,14,0,experiment,NULL,PennController,13,_Trial_,Start,1687287131033,6105c2e67b9f7c2a313a66eb,6105c2e67b9f7c2a313a66eb,11,beads,critical,D,50,beads40.jpg,beads60.jpg,high,NULL
1687287272,8aaf58e225bee5e078413f7fb2238e47,PennController,14,0,experiment,NULL,PennController,13,_Header_,Start,1687287131033,6105c2e67b9f7c2a313a66eb,6105c2e67b9f7c2a313a66eb,11,beads,critical,D,50,beads40.jpg,beads60.jpg,high,NULL
1687287272,8aaf58e225bee5e078413f7fb2238e47,PennController,14,0,experiment,NULL,PennController,13,_Header_,End,1687287131033,6105c2e67b9f7c2a313a66eb,6105c2e67b9f7c2a313a66eb,11,beads,critical,D,50,beads40.jpg,beads60.jpg,high,NULL
1687287272,8aaf58e225bee5e078413f7fb2238e47,PennController,14,0,experiment,NULL,Canvas,canvas6,Print,NA,1687287137732,6105c2e67b9f7c2a313a66eb,6105c2e67b9f7c2a313a66eb,11,beads,critical,D,50,beads40.jpg,beads60.jpg,high,NULL
1687287272,8aaf58e225bee5e078413f7fb2238e47,PennController,14,0,experiment,NULL,Video,progression,buffer,0.004574,1687287134574,6105c2e67b9f7c2a313a66eb,6105c2e67b9f7c2a313a66eb,11,beads,critical,D,50,beads40.jpg,beads60.jpg,high,NULL
1687287272,8aaf58e225bee5e078413f7fb2238e47,PennController,14,0,experiment,NULL,Selector,choice,Selection,option2,1687287139679,6105c2e67b9f7c2a313a66eb,6105c2e67b9f7c2a313a66eb,11,beads,critical,D,50,beads40.jpg,beads60.jpg,high,option1;option2
1687287272,8aaf58e225bee5e078413f7fb2238e47,PennController,14,0,experiment,NULL,PennController,13,_Trial_,End,1687287139680,6105c2e67b9f7c2a313a66eb,6105c2e67b9f7c2a313a66eb,11,beads,critical,D,50,beads40.jpg,beads60.jpg,high,NULL
1687287272,8aaf58e225bee5e078413f7fb2238e47,PennController,17,0,experiment,NULL,PennController,16,_Trial_,Start,1687287139682,6105c2e67b9f7c2a313a66eb,6105c2e67b9f7c2a313a66eb,14,cover,critical,D,50,cover42.jpg,cover60.jpg,high,NULL
1687287272,8aaf58e225bee5e078413f7fb2238e47,PennController,17,0,experiment,NULL,PennController,16,_Header_,Start,1687287139682,6105c2e67b9f7c2a313a66eb,6105c2e67b9f7c2a313a66eb,14,cover,critical,D,50,cover42.jpg,cover60.jpg,high,NULL
1687287272,8aaf58e225bee5e078413f7fb2238e47,PennController,17,0,experiment,NULL,PennController,16,_Header_,End,1687287139682,6105c2e67b9f7c2a313a66eb,6105c2e67b9f7c2a313a66eb,14,cover,critical,D,50,cover42.jpg,cover60.jpg,high,NULL
1687287272,8aaf58e225bee5e078413f7fb2238e47,PennController,17,0,experiment,NULL,Canvas,canvas6,Print,NA,1687287147780,6105c2e67b9f7c2a313a66eb,6105c2e67b9f7c2a313a66eb,14,cover,critical,D,50,cover42.jpg,cover60.jpg,high,NULL
1687287272,8aaf58e225bee5e078413f7fb2238e47,PennController,17,0,experiment,NULL,Video,progression,buffer,0.004744,1687287143218,6105c2e67b9f7c2a313a66eb,6105c2e67b9f7c2a313a66eb,14,cover,critical,D,50,cover42.jpg,cover60.jpg,high,NULL
1687287272,8aaf58e225bee5e078413f7fb2238e47,PennController,17,0,experiment,NULL,Selector,choice,Selection,option1,1687287150039,6105c2e67b9f7c2a313a66eb,6105c2e67b9f7c2a313a66eb,14,cover,critical,D,50,cover42.jpg,cover60.jpg,high,option1;option2
1687287272,8aaf58e225bee5e078413f7fb2238e47,PennController,17,0,experiment,NULL,PennController,16,_Trial_,End,1687287150040,6105c2e67b9f7c2a313a66eb,6105c2e67b9f7c2a313a66eb,14,cover,critical,D,50,cover42.jpg,cover60.jpg,high,NULL
1687287272,8aaf58e225bee5e078413f7fb2238e47,PennController,8,0,experiment,NULL,PennController,7,_Trial_,Start,1687287150041,6105c2e67b9f7c2a313a66eb,6105c2e67b9f7c2a313a66eb,5,book,critical,D,50,book40.jpg,book60.jpg,high,NULL
1687287272,8aaf58e225bee5e078413f7fb2238e47,PennController,8,0,experiment,NULL,PennController,7,_Header_,Start,1687287150041,6105c2e67b9f7c2a313a66eb,6105c2e67b9f7c2a313a66eb,5,book,critical,D,50,book40.jpg,book60.jpg,high,NULL
1687287272,8aaf58e225bee5e078413f7fb2238e47,PennController,8,0,experiment,NULL,PennController,7,_Header_,End,1687287150041,6105c2e67b9f7c2a313a66eb,6105c2e67b9f7c2a313a66eb,5,book,critical,D,50,book40.jpg,book60.jpg,high,NULL
1687287272,8aaf58e225bee5e078413f7fb2238e47,PennController,8,0,experiment,NULL,Canvas,canvas6,Print,NA,1687287156739,6105c2e67b9f7c2a313a66eb,6105c2e67b9f7c2a313a66eb,5,book,critical,D,50,book40.jpg,book60.jpg,high,NULL
1687287272,8aaf58e225bee5e078413f7fb2238e47,PennController,8,0,experiment,NULL,Video,progression,buffer,0.00507,1687287153576,6105c2e67b9f7c2a313a66eb,6105c2e67b9f7c2a313a66eb,5,book,critical,D,50,book40.jpg,book60.jpg,high,NULL
1687287272,8aaf58e225bee5e078413f7fb2238e47,PennController,8,0,experiment,NULL,Selector,choice,Selection,option2,1687287158369,6105c2e67b9f7c2a313a66eb,6105c2e67b9f7c2a313a66eb,5,book,critical,D,50,book40.jpg,book60.jpg,high,option2;option1
1687287272,8aaf58e225bee5e078413f7fb2238e47,PennController,8,0,experiment,NULL,PennController,7,_Trial_,End,1687287158372,6105c2e67b9f7c2a313a66eb,6105c2e67b9f7c2a313a66eb,5,book,critical,D,50,book40.jpg,book60.jpg,high,NULL
1687287272,8aaf58e225bee5e078413f7fb2238e47,PennController,9,0,experiment,NULL,PennController,8,_Trial_,Start,1687287158374,6105c2e67b9f7c2a313a66eb,6105c2e67b9f7c2a313a66eb,6,flower,critical,D,75,flower65.jpg,flower85.jpg,high,NULL
1687287272,8aaf58e225bee5e078413f7fb2238e47,PennController,9,0,experiment,NULL,PennController,8,_Header_,Start,1687287158374,6105c2e67b9f7c2a313a66eb,6105c2e67b9f7c2a313a66eb,6,flower,critical,D,75,flower65.jpg,flower85.jpg,high,NULL
1687287272,8aaf58e225bee5e078413f7fb2238e47,PennController,9,0,experiment,NULL,PennController,8,_Header_,End,1687287158374,6105c2e67b9f7c2a313a66eb,6105c2e67b9f7c2a313a66eb,6,flower,critical,D,75,flower65.jpg,flower85.jpg,high,NULL
1687287272,8aaf58e225bee5e078413f7fb2238e47,PennController,9,0,experiment,NULL,Canvas,canvas6,Print,NA,1687287166066,6105c2e67b9f7c2a313a66eb,6105c2e67b9f7c2a313a66eb,6,flower,critical,D,75,flower65.jpg,flower85.jpg,high,NULL
1687287272,8aaf58e225bee5e078413f7fb2238e47,PennController,9,0,experiment,NULL,Video,progression,buffer,0.004505,1687287161904,6105c2e67b9f7c2a313a66eb,6105c2e67b9f7c2a313a66eb,6,flower,critical,D,75,flower65.jpg,flower85.jpg,high,NULL
1687287272,8aaf58e225bee5e078413f7fb2238e47,PennController,9,0,experiment,NULL,Selector,choice,Selection,option2,1687287167481,6105c2e67b9f7c2a313a66eb,6105c2e67b9f7c2a313a66eb,6,flower,critical,D,75,flower65.jpg,flower85.jpg,high,option1;option2
1687287272,8aaf58e225bee5e078413f7fb2238e47,PennController,9,0,experiment,NULL,PennController,8,_Trial_,End,1687287167482,6105c2e67b9f7c2a313a66eb,6105c2e67b9f7c2a313a66eb,6,flower,critical,D,75,flower65.jpg,flower85.jpg,high,NULL
1687287272,8aaf58e225bee5e078413f7fb2238e47,PennController,23,0,experiment,NULL,PennController,22,_Trial_,Start,1687287167484,6105c2e67b9f7c2a313a66eb,6105c2e67b9f7c2a313a66eb,20,cat,filler,D,50,cat40.jpg,cat60.jpg,GoalA,NULL
1687287272,8aaf58e225bee5e078413f7fb2238e47,PennController,23,0,experiment,NULL,PennController,22,_Header_,Start,1687287167484,6105c2e67b9f7c2a313a66eb,6105c2e67b9f7c2a313a66eb,20,cat,filler,D,50,cat40.jpg,cat60.jpg,GoalA,NULL
1687287272,8aaf58e225bee5e078413f7fb2238e47,PennController,23,0,experiment,NULL,PennController,22,_Header_,End,1687287167484,6105c2e67b9f7c2a313a66eb,6105c2e67b9f7c2a313a66eb,20,cat,filler,D,50,cat40.jpg,cat60.jpg,GoalA,NULL
1687287272,8aaf58e225bee5e078413f7fb2238e47,PennController,23,0,experiment,NULL,Canvas,canvas6,Print,NA,1687287174174,6105c2e67b9f7c2a313a66eb,6105c2e67b9f7c2a313a66eb,20,cat,filler,D,50,cat40.jpg,cat60.jpg,GoalA,NULL
1687287272,8aaf58e225bee5e078413f7fb2238e47,PennController,23,0,experiment,NULL,Video,progression,buffer,0.004779,1687287171013,6105c2e67b9f7c2a313a66eb,6105c2e67b9f7c2a313a66eb,20,cat,filler,D,50,cat40.jpg,cat60.jpg,GoalA,NULL
1687287272,8aaf58e225bee5e078413f7fb2238e47,PennController,23,0,experiment,NULL,Selector,choice,Selection,option2,1687287175212,6105c2e67b9f7c2a313a66eb,6105c2e67b9f7c2a313a66eb,20,cat,filler,D,50,cat40.jpg,cat60.jpg,GoalA,option2;option1
1687287272,8aaf58e225bee5e078413f7fb2238e47,PennController,23,0,experiment,NULL,PennController,22,_Trial_,End,1687287175214,6105c2e67b9f7c2a313a66eb,6105c2e67b9f7c2a313a66eb,20,cat,filler,D,50,cat40.jpg,cat60.jpg,GoalA,NULL
1687287272,8aaf58e225bee5e078413f7fb2238e47,PennController,15,0,experiment,NULL,PennController,14,_Trial_,Start,1687287175216,6105c2e67b9f7c2a313a66eb,6105c2e67b9f7c2a313a66eb,12,erase,critical,D,75,erase66.jpg,erase84.jpg,high,NULL
1687287272,8aaf58e225bee5e078413f7fb2238e47,PennController,15,0,experiment,NULL,PennController,14,_Header_,Start,1687287175216,6105c2e67b9f7c2a313a66eb,6105c2e67b9f7c2a313a66eb,12,erase,critical,D,75,erase66.jpg,erase84.jpg,high,NULL
1687287272,8aaf58e225bee5e078413f7fb2238e47,PennController,15,0,experiment,NULL,PennController,14,_Header_,End,1687287175216,6105c2e67b9f7c2a313a66eb,6105c2e67b9f7c2a313a66eb,12,erase,critical,D,75,erase66.jpg,erase84.jpg,high,NULL
1687287272,8aaf58e225bee5e078413f7fb2238e47,PennController,15,0,experiment,NULL,Canvas,canvas6,Print,NA,1687287184918,6105c2e67b9f7c2a313a66eb,6105c2e67b9f7c2a313a66eb,12,erase,critical,D,75,erase66.jpg,erase84.jpg,high,NULL
1687287272,8aaf58e225bee5e078413f7fb2238e47,PennController,15,0,experiment,NULL,Video,progression,buffer,0.005463,1687287178748,6105c2e67b9f7c2a313a66eb,6105c2e67b9f7c2a313a66eb,12,erase,critical,D,75,erase66.jpg,erase84.jpg,high,NULL
1687287272,8aaf58e225bee5e078413f7fb2238e47,PennController,15,0,experiment,NULL,Selector,choice,Selection,option2,1687287186585,6105c2e67b9f7c2a313a66eb,6105c2e67b9f7c2a313a66eb,12,erase,critical,D,75,erase66.jpg,erase84.jpg,high,option1;option2
1687287272,8aaf58e225bee5e078413f7fb2238e47,PennController,15,0,experiment,NULL,PennController,14,_Trial_,End,1687287186586,6105c2e67b9f7c2a313a66eb,6105c2e67b9f7c2a313a66eb,12,erase,critical,D,75,erase66.jpg,erase84.jpg,high,NULL
1687287272,8aaf58e225bee5e078413f7fb2238e47,PennController,16,0,experiment,NULL,PennController,15,_Trial_,Start,1687287186588,6105c2e67b9f7c2a313a66eb,6105c2e67b9f7c2a313a66eb,13,mix,critical,D,25,mix15.jpg,mix35.jpg,high,NULL
1687287272,8aaf58e225bee5e078413f7fb2238e47,PennController,16,0,experiment,NULL,PennController,15,_Header_,Start,1687287186589,6105c2e67b9f7c2a313a66eb,6105c2e67b9f7c2a313a66eb,13,mix,critical,D,25,mix15.jpg,mix35.jpg,high,NULL
1687287272,8aaf58e225bee5e078413f7fb2238e47,PennController,16,0,experiment,NULL,PennController,15,_Header_,End,1687287186589,6105c2e67b9f7c2a313a66eb,6105c2e67b9f7c2a313a66eb,13,mix,critical,D,25,mix15.jpg,mix35.jpg,high,NULL
1687287272,8aaf58e225bee5e078413f7fb2238e47,PennController,16,0,experiment,NULL,Canvas,canvas6,Print,NA,1687287192295,6105c2e67b9f7c2a313a66eb,6105c2e67b9f7c2a313a66eb,13,mix,critical,D,25,mix15.jpg,mix35.jpg,high,NULL
1687287272,8aaf58e225bee5e078413f7fb2238e47,PennController,16,0,experiment,NULL,Video,progression,buffer,0.006187,1687287190121,6105c2e67b9f7c2a313a66eb,6105c2e67b9f7c2a313a66eb,13,mix,critical,D,25,mix15.jpg,mix35.jpg,high,NULL
1687287272,8aaf58e225bee5e078413f7fb2238e47,PennController,16,0,experiment,NULL,Selector,choice,Selection,option1,1687287194201,6105c2e67b9f7c2a313a66eb,6105c2e67b9f7c2a313a66eb,13,mix,critical,D,25,mix15.jpg,mix35.jpg,high,option1;option2
1687287272,8aaf58e225bee5e078413f7fb2238e47,PennController,16,0,experiment,NULL,PennController,15,_Trial_,End,1687287194203,6105c2e67b9f7c2a313a66eb,6105c2e67b9f7c2a313a66eb,13,mix,critical,D,25,mix15.jpg,mix35.jpg,high,NULL
1687287272,8aaf58e225bee5e078413f7fb2238e47,PennController,26,0,experiment,NULL,PennController,25,_Trial_,Start,1687287194205,6105c2e67b9f7c2a313a66eb,6105c2e67b9f7c2a313a66eb,23,color,filler,D,50,color40.jpg,color60.jpg,GoalB,NULL
1687287272,8aaf58e225bee5e078413f7fb2238e47,PennController,26,0,experiment,NULL,PennController,25,_Header_,Start,1687287194205,6105c2e67b9f7c2a313a66eb,6105c2e67b9f7c2a313a66eb,23,color,filler,D,50,color40.jpg,color60.jpg,GoalB,NULL
1687287272,8aaf58e225bee5e078413f7fb2238e47,PennController,26,0,experiment,NULL,PennController,25,_Header_,End,1687287194205,6105c2e67b9f7c2a313a66eb,6105c2e67b9f7c2a313a66eb,23,color,filler,D,50,color40.jpg,color60.jpg,GoalB,NULL
1687287272,8aaf58e225bee5e078413f7fb2238e47,PennController,26,0,experiment,NULL,Canvas,canvas6,Print,NA,1687287200900,6105c2e67b9f7c2a313a66eb,6105c2e67b9f7c2a313a66eb,23,color,filler,D,50,color40.jpg,color60.jpg,GoalB,NULL
1687287272,8aaf58e225bee5e078413f7fb2238e47,PennController,26,0,experiment,NULL,Video,progression,buffer,0.00437,1687287197737,6105c2e67b9f7c2a313a66eb,6105c2e67b9f7c2a313a66eb,23,color,filler,D,50,color40.jpg,color60.jpg,GoalB,NULL
1687287272,8aaf58e225bee5e078413f7fb2238e47,PennController,26,0,experiment,NULL,Selector,choice,Selection,option2,1687287204644,6105c2e67b9f7c2a313a66eb,6105c2e67b9f7c2a313a66eb,23,color,filler,D,50,color40.jpg,color60.jpg,GoalB,option1;option2
1687287272,8aaf58e225bee5e078413f7fb2238e47,PennController,26,0,experiment,NULL,PennController,25,_Trial_,End,1687287204645,6105c2e67b9f7c2a313a66eb,6105c2e67b9f7c2a313a66eb,23,color,filler,D,50,color40.jpg,color60.jpg,GoalB,NULL
1687287272,8aaf58e225bee5e078413f7fb2238e47,PennController,10,0,experiment,NULL,PennController,9,_Trial_,Start,1687287204647,6105c2e67b9f7c2a313a66eb,6105c2e67b9f7c2a313a66eb,7,stack,critical,D,25,stack15.jpg,stack35.jpg,high,NULL
1687287272,8aaf58e225bee5e078413f7fb2238e47,PennController,10,0,experiment,NULL,PennController,9,_Header_,Start,1687287204647,6105c2e67b9f7c2a313a66eb,6105c2e67b9f7c2a313a66eb,7,stack,critical,D,25,stack15.jpg,stack35.jpg,high,NULL
1687287272,8aaf58e225bee5e078413f7fb2238e47,PennController,10,0,experiment,NULL,PennController,9,_Header_,End,1687287204647,6105c2e67b9f7c2a313a66eb,6105c2e67b9f7c2a313a66eb,7,stack,critical,D,25,stack15.jpg,stack35.jpg,high,NULL
1687287272,8aaf58e225bee5e078413f7fb2238e47,PennController,10,0,experiment,NULL,Canvas,canvas6,Print,NA,1687287210347,6105c2e67b9f7c2a313a66eb,6105c2e67b9f7c2a313a66eb,7,stack,critical,D,25,stack15.jpg,stack35.jpg,high,NULL
1687287272,8aaf58e225bee5e078413f7fb2238e47,PennController,10,0,experiment,NULL,Video,progression,buffer,0.006711,1687287208176,6105c2e67b9f7c2a313a66eb,6105c2e67b9f7c2a313a66eb,7,stack,critical,D,25,stack15.jpg,stack35.jpg,high,NULL
1687287272,8aaf58e225bee5e078413f7fb2238e47,PennController,10,0,experiment,NULL,Selector,choice,Selection,option1,1687287220612,6105c2e67b9f7c2a313a66eb,6105c2e67b9f7c2a313a66eb,7,stack,critical,D,25,stack15.jpg,stack35.jpg,high,option1;option2
1687287272,8aaf58e225bee5e078413f7fb2238e47,PennController,10,0,experiment,NULL,PennController,9,_Trial_,End,1687287220613,6105c2e67b9f7c2a313a66eb,6105c2e67b9f7c2a313a66eb,7,stack,critical,D,25,stack15.jpg,stack35.jpg,high,NULL
1687287272,8aaf58e225bee5e078413f7fb2238e47,PennController,19,0,experiment,NULL,PennController,18,_Trial_,Start,1687287220615,6105c2e67b9f7c2a313a66eb,6105c2e67b9f7c2a313a66eb,16,blinds,critical,D,25,blinds15.jpg,blinds33.jpg,high,NULL
1687287272,8aaf58e225bee5e078413f7fb2238e47,PennController,19,0,experiment,NULL,PennController,18,_Header_,Start,1687287220615,6105c2e67b9f7c2a313a66eb,6105c2e67b9f7c2a313a66eb,16,blinds,critical,D,25,blinds15.jpg,blinds33.jpg,high,NULL
1687287272,8aaf58e225bee5e078413f7fb2238e47,PennController,19,0,experiment,NULL,PennController,18,_Header_,End,1687287220615,6105c2e67b9f7c2a313a66eb,6105c2e67b9f7c2a313a66eb,16,blinds,critical,D,25,blinds15.jpg,blinds33.jpg,high,NULL
1687287272,8aaf58e225bee5e078413f7fb2238e47,PennController,19,0,experiment,NULL,Canvas,canvas6,Print,NA,1687287226918,6105c2e67b9f7c2a313a66eb,6105c2e67b9f7c2a313a66eb,16,blinds,critical,D,25,blinds15.jpg,blinds33.jpg,high,NULL
1687287272,8aaf58e225bee5e078413f7fb2238e47,PennController,19,0,experiment,NULL,Video,progression,buffer,0.004426,1687287224142,6105c2e67b9f7c2a313a66eb,6105c2e67b9f7c2a313a66eb,16,blinds,critical,D,25,blinds15.jpg,blinds33.jpg,high,NULL
1687287272,8aaf58e225bee5e078413f7fb2238e47,PennController,19,0,experiment,NULL,Selector,choice,Selection,option1,1687287228112,6105c2e67b9f7c2a313a66eb,6105c2e67b9f7c2a313a66eb,16,blinds,critical,D,25,blinds15.jpg,blinds33.jpg,high,option1;option2
1687287272,8aaf58e225bee5e078413f7fb2238e47,PennController,19,0,experiment,NULL,PennController,18,_Trial_,End,1687287228114,6105c2e67b9f7c2a313a66eb,6105c2e67b9f7c2a313a66eb,16,blinds,critical,D,25,blinds15.jpg,blinds33.jpg,high,NULL
1687287272,8aaf58e225bee5e078413f7fb2238e47,PennController,18,0,experiment,NULL,PennController,17,_Trial_,Start,1687287228116,6105c2e67b9f7c2a313a66eb,6105c2e67b9f7c2a313a66eb,15,zip,critical,D,75,zip65.jpg,zip85.jpg,high,NULL
1687287272,8aaf58e225bee5e078413f7fb2238e47,PennController,18,0,experiment,NULL,PennController,17,_Header_,Start,1687287228116,6105c2e67b9f7c2a313a66eb,6105c2e67b9f7c2a313a66eb,15,zip,critical,D,75,zip65.jpg,zip85.jpg,high,NULL
1687287272,8aaf58e225bee5e078413f7fb2238e47,PennController,18,0,experiment,NULL,PennController,17,_Header_,End,1687287228116,6105c2e67b9f7c2a313a66eb,6105c2e67b9f7c2a313a66eb,15,zip,critical,D,75,zip65.jpg,zip85.jpg,high,NULL
1687287272,8aaf58e225bee5e078413f7fb2238e47,PennController,18,0,experiment,NULL,Canvas,canvas6,Print,NA,1687287235027,6105c2e67b9f7c2a313a66eb,6105c2e67b9f7c2a313a66eb,15,zip,critical,D,75,zip65.jpg,zip85.jpg,high,NULL
1687287272,8aaf58e225bee5e078413f7fb2238e47,PennController,18,0,experiment,NULL,Video,progression,buffer,0.005475,1687287231656,6105c2e67b9f7c2a313a66eb,6105c2e67b9f7c2a313a66eb,15,zip,critical,D,75,zip65.jpg,zip85.jpg,high,NULL
1687287272,8aaf58e225bee5e078413f7fb2238e47,PennController,18,0,experiment,NULL,Selector,choice,Selection,option1,1687287236741,6105c2e67b9f7c2a313a66eb,6105c2e67b9f7c2a313a66eb,15,zip,critical,D,75,zip65.jpg,zip85.jpg,high,option1;option2
1687287272,8aaf58e225bee5e078413f7fb2238e47,PennController,18,0,experiment,NULL,PennController,17,_Trial_,End,1687287236743,6105c2e67b9f7c2a313a66eb,6105c2e67b9f7c2a313a66eb,15,zip,critical,D,75,zip65.jpg,zip85.jpg,high,NULL
1687287272,8aaf58e225bee5e078413f7fb2238e47,PennController,20,0,experiment,NULL,PennController,19,_Trial_,Start,1687287236746,6105c2e67b9f7c2a313a66eb,6105c2e67b9f7c2a313a66eb,17,roll,critical,D,50,roll40.jpg,roll60.jpg,high,NULL
1687287272,8aaf58e225bee5e078413f7fb2238e47,PennController,20,0,experiment,NULL,PennController,19,_Header_,Start,1687287236746,6105c2e67b9f7c2a313a66eb,6105c2e67b9f7c2a313a66eb,17,roll,critical,D,50,roll40.jpg,roll60.jpg,high,NULL
1687287272,8aaf58e225bee5e078413f7fb2238e47,PennController,20,0,experiment,NULL,PennController,19,_Header_,End,1687287236746,6105c2e67b9f7c2a313a66eb,6105c2e67b9f7c2a313a66eb,17,roll,critical,D,50,roll40.jpg,roll60.jpg,high,NULL
1687287272,8aaf58e225bee5e078413f7fb2238e47,PennController,20,0,experiment,NULL,Canvas,canvas6,Print,NA,1687287243503,6105c2e67b9f7c2a313a66eb,6105c2e67b9f7c2a313a66eb,17,roll,critical,D,50,roll40.jpg,roll60.jpg,high,NULL
1687287272,8aaf58e225bee5e078413f7fb2238e47,PennController,20,0,experiment,NULL,Video,progression,buffer,0,1687287240281,6105c2e67b9f7c2a313a66eb,6105c2e67b9f7c2a313a66eb,17,roll,critical,D,50,roll40.jpg,roll60.jpg,high,NULL
1687287272,8aaf58e225bee5e078413f7fb2238e47,PennController,20,0,experiment,NULL,Selector,choice,Selection,option1,1687287245546,6105c2e67b9f7c2a313a66eb,6105c2e67b9f7c2a313a66eb,17,roll,critical,D,50,roll40.jpg,roll60.jpg,high,option2;option1
1687287272,8aaf58e225bee5e078413f7fb2238e47,PennController,20,0,experiment,NULL,PennController,19,_Trial_,End,1687287245547,6105c2e67b9f7c2a313a66eb,6105c2e67b9f7c2a313a66eb,17,roll,critical,D,50,roll40.jpg,roll60.jpg,high,NULL
1687287272,8aaf58e225bee5e078413f7fb2238e47,PennController,11,0,experiment,NULL,PennController,10,_Trial_,Start,1687287245549,6105c2e67b9f7c2a313a66eb,6105c2e67b9f7c2a313a66eb,8,cucumber,critical,D,50,cucumber42.jpg,cucumber60.jpg,high,NULL
1687287272,8aaf58e225bee5e078413f7fb2238e47,PennController,11,0,experiment,NULL,PennController,10,_Header_,Start,1687287245549,6105c2e67b9f7c2a313a66eb,6105c2e67b9f7c2a313a66eb,8,cucumber,critical,D,50,cucumber42.jpg,cucumber60.jpg,high,NULL
1687287272,8aaf58e225bee5e078413f7fb2238e47,PennController,11,0,experiment,NULL,PennController,10,_Header_,End,1687287245549,6105c2e67b9f7c2a313a66eb,6105c2e67b9f7c2a313a66eb,8,cucumber,critical,D,50,cucumber42.jpg,cucumber60.jpg,high,NULL
1687287272,8aaf58e225bee5e078413f7fb2238e47,PennController,11,0,experiment,NULL,Canvas,canvas6,Print,NA,1687287253649,6105c2e67b9f7c2a313a66eb,6105c2e67b9f7c2a313a66eb,8,cucumber,critical,D,50,cucumber42.jpg,cucumber60.jpg,high,NULL
1687287272,8aaf58e225bee5e078413f7fb2238e47,PennController,11,0,experiment,NULL,Video,progression,buffer,0.004496,1687287249075,6105c2e67b9f7c2a313a66eb,6105c2e67b9f7c2a313a66eb,8,cucumber,critical,D,50,cucumber42.jpg,cucumber60.jpg,high,NULL
1687287272,8aaf58e225bee5e078413f7fb2238e47,PennController,11,0,experiment,NULL,Selector,choice,Selection,option2,1687287255598,6105c2e67b9f7c2a313a66eb,6105c2e67b9f7c2a313a66eb,8,cucumber,critical,D,50,cucumber42.jpg,cucumber60.jpg,high,option1;option2
1687287272,8aaf58e225bee5e078413f7fb2238e47,PennController,11,0,experiment,NULL,PennController,10,_Trial_,End,1687287255600,6105c2e67b9f7c2a313a66eb,6105c2e67b9f7c2a313a66eb,8,cucumber,critical,D,50,cucumber42.jpg,cucumber60.jpg,high,NULL
1687287272,8aaf58e225bee5e078413f7fb2238e47,PennController,32,0,experiment,NULL,PennController,31,_Trial_,Start,1687287255602,6105c2e67b9f7c2a313a66eb,6105c2e67b9f7c2a313a66eb,29,frog,filler,D,50,frog40.jpg,frog60.jpg,GoalB,NULL
1687287272,8aaf58e225bee5e078413f7fb2238e47,PennController,32,0,experiment,NULL,PennController,31,_Header_,Start,1687287255602,6105c2e67b9f7c2a313a66eb,6105c2e67b9f7c2a313a66eb,29,frog,filler,D,50,frog40.jpg,frog60.jpg,GoalB,NULL
1687287272,8aaf58e225bee5e078413f7fb2238e47,PennController,32,0,experiment,NULL,PennController,31,_Header_,End,1687287255602,6105c2e67b9f7c2a313a66eb,6105c2e67b9f7c2a313a66eb,29,frog,filler,D,50,frog40.jpg,frog60.jpg,GoalB,NULL
1687287272,8aaf58e225bee5e078413f7fb2238e47,PennController,32,0,experiment,NULL,Canvas,canvas6,Print,NA,1687287262305,6105c2e67b9f7c2a313a66eb,6105c2e67b9f7c2a313a66eb,29,frog,filler,D,50,frog40.jpg,frog60.jpg,GoalB,NULL
1687287272,8aaf58e225bee5e078413f7fb2238e47,PennController,32,0,experiment,NULL,Video,progression,buffer,0.006318,1687287259138,6105c2e67b9f7c2a313a66eb,6105c2e67b9f7c2a313a66eb,29,frog,filler,D,50,frog40.jpg,frog60.jpg,GoalB,NULL
1687287272,8aaf58e225bee5e078413f7fb2238e47,PennController,32,0,experiment,NULL,Selector,choice,Selection,option2,1687287263971,6105c2e67b9f7c2a313a66eb,6105c2e67b9f7c2a313a66eb,29,frog,filler,D,50,frog40.jpg,frog60.jpg,GoalB,option1;option2
1687287272,8aaf58e225bee5e078413f7fb2238e47,PennController,32,0,experiment,NULL,PennController,31,_Trial_,End,1687287263974,6105c2e67b9f7c2a313a66eb,6105c2e67b9f7c2a313a66eb,29,frog,filler,D,50,frog40.jpg,frog60.jpg,GoalB,NULL
1687287272,8aaf58e225bee5e078413f7fb2238e47,PennController,31,0,experiment,NULL,PennController,30,_Trial_,Start,1687287263975,6105c2e67b9f7c2a313a66eb,6105c2e67b9f7c2a313a66eb,28,sort,filler,D,25,sort15.jpg,sort35.jpg,GoalA,NULL
1687287272,8aaf58e225bee5e078413f7fb2238e47,PennController,31,0,experiment,NULL,PennController,30,_Header_,Start,1687287263975,6105c2e67b9f7c2a313a66eb,6105c2e67b9f7c2a313a66eb,28,sort,filler,D,25,sort15.jpg,sort35.jpg,GoalA,NULL
1687287272,8aaf58e225bee5e078413f7fb2238e47,PennController,31,0,experiment,NULL,PennController,30,_Header_,End,1687287263975,6105c2e67b9f7c2a313a66eb,6105c2e67b9f7c2a313a66eb,28,sort,filler,D,25,sort15.jpg,sort35.jpg,GoalA,NULL
1687287272,8aaf58e225bee5e078413f7fb2238e47,PennController,31,0,experiment,NULL,Canvas,canvas6,Print,NA,1687287269685,6105c2e67b9f7c2a313a66eb,6105c2e67b9f7c2a313a66eb,28,sort,filler,D,25,sort15.jpg,sort35.jpg,GoalA,NULL
1687287272,8aaf58e225bee5e078413f7fb2238e47,PennController,31,0,experiment,NULL,Video,progression,buffer,0.004187,1687287267513,6105c2e67b9f7c2a313a66eb,6105c2e67b9f7c2a313a66eb,28,sort,filler,D,25,sort15.jpg,sort35.jpg,GoalA,NULL
1687287272,8aaf58e225bee5e078413f7fb2238e47,PennController,31,0,experiment,NULL,Selector,choice,Selection,option2,1687287272858,6105c2e67b9f7c2a313a66eb,6105c2e67b9f7c2a313a66eb,28,sort,filler,D,25,sort15.jpg,sort35.jpg,GoalA,option1;option2
1687287272,8aaf58e225bee5e078413f7fb2238e47,PennController,31,0,experiment,NULL,PennController,30,_Trial_,End,1687287272859,6105c2e67b9f7c2a313a66eb,6105c2e67b9f7c2a313a66eb,28,sort,filler,D,25,sort15.jpg,sort35.jpg,GoalA,NULL
