#
# Results on Tuesday June 20 2023 18:56:34 UTC
# USER AGENT: Mozilla/5.0 (Windows NT 10.0; Win64; x64) AppleWebKit/537.36 (KHTML, like Gecko) Chrome/114.0.0.0 Safari/537.36
# Design number was non-random = 3
#
# Columns below this comment are as follows:
# 1. Results reception time.
# 2. MD5 hash of participant's IP address.
# 3. Controller name.
# 4. Order number of item.
# 5. Inner element number.
# 6. Label.
# 7. Latin Square Group.
# 8. PennElementType.
# 9. PennElementName.
# 10. Parameter.
# 11. Value.
# 12. EventTime.
# 13. PROLIFIC_ID.
# 14. Comments.
1687287394,09abb57f801d5a93b87db3bcaa409031,PennController,2,0,consent,NULL,PennController,0,_Trial_,Start,1687287020699,610e6453d7702c7894acf66d,NULL
1687287394,09abb57f801d5a93b87db3bcaa409031,PennController,2,0,consent,NULL,PennController,0,_Header_,Start,1687287020699,610e6453d7702c7894acf66d,NULL
1687287394,09abb57f801d5a93b87db3bcaa409031,PennController,2,0,consent,NULL,PennController,0,_Header_,End,1687287020699,610e6453d7702c7894acf66d,NULL
1687287394,09abb57f801d5a93b87db3bcaa409031,PennController,2,0,consent,NULL,PennController,0,_Trial_,End,1687287025512,610e6453d7702c7894acf66d,NULL
# Columns below this comment are as follows:
# 14. ID.
# 15. Comments.
1687287394,09abb57f801d5a93b87db3bcaa409031,PennController,3,0,intro,NULL,PennController,1,_Trial_,Start,1687287025631,610e6453d7702c7894acf66d,610e6453d7702c7894acf66d,NULL
1687287394,09abb57f801d5a93b87db3bcaa409031,PennController,3,0,intro,NULL,PennController,1,_Header_,Start,1687287025631,610e6453d7702c7894acf66d,610e6453d7702c7894acf66d,NULL
1687287394,09abb57f801d5a93b87db3bcaa409031,PennController,3,0,intro,NULL,PennController,1,_Header_,End,1687287025631,610e6453d7702c7894acf66d,610e6453d7702c7894acf66d,NULL
1687287394,09abb57f801d5a93b87db3bcaa409031,PennController,3,0,intro,NULL,PennController,1,_Trial_,End,1687287080647,610e6453d7702c7894acf66d,610e6453d7702c7894acf66d,NULL
# Columns below this comment are as follows:
# 15. item_number.
# 16. item.
# 17. type.
# 18. Group.
# 19. prog.
# 20. prev_image.
# 21. next_image.
# 22. height.
# 23. Comments.
1687287394,09abb57f801d5a93b87db3bcaa409031,PennController,28,0,experiment,NULL,PennController,27,_Trial_,Start,1687287080650,610e6453d7702c7894acf66d,610e6453d7702c7894acf66d,25,house,filler,D,25,house15.jpg,house35.jpg,GoalB,NULL
1687287394,09abb57f801d5a93b87db3bcaa409031,PennController,28,0,experiment,NULL,PennController,27,_Header_,Start,1687287080650,610e6453d7702c7894acf66d,610e6453d7702c7894acf66d,25,house,filler,D,25,house15.jpg,house35.jpg,GoalB,NULL
1687287394,09abb57f801d5a93b87db3bcaa409031,PennController,28,0,experiment,NULL,PennController,27,_Header_,End,1687287080651,610e6453d7702c7894acf66d,610e6453d7702c7894acf66d,25,house,filler,D,25,house15.jpg,house35.jpg,GoalB,NULL
1687287394,09abb57f801d5a93b87db3bcaa409031,PennController,28,0,experiment,NULL,Canvas,canvas6,Print,NA,1687287086487,610e6453d7702c7894acf66d,610e6453d7702c7894acf66d,25,house,filler,D,25,house15.jpg,house35.jpg,GoalB,NULL
1687287394,09abb57f801d5a93b87db3bcaa409031,PennController,28,0,experiment,NULL,Video,progression,buffer,0.02115,1687287084321,610e6453d7702c7894acf66d,610e6453d7702c7894acf66d,25,house,filler,D,25,house15.jpg,house35.jpg,GoalB,NULL
1687287394,09abb57f801d5a93b87db3bcaa409031,PennController,28,0,experiment,NULL,Selector,choice,Selection,option2,1687287091780,610e6453d7702c7894acf66d,610e6453d7702c7894acf66d,25,house,filler,D,25,house15.jpg,house35.jpg,GoalB,option1;option2
1687287394,09abb57f801d5a93b87db3bcaa409031,PennController,28,0,experiment,NULL,PennController,27,_Trial_,End,1687287091784,610e6453d7702c7894acf66d,610e6453d7702c7894acf66d,25,house,filler,D,25,house15.jpg,house35.jpg,GoalB,NULL
1687287394,09abb57f801d5a93b87db3bcaa409031,PennController,19,0,experiment,NULL,PennController,18,_Trial_,Start,1687287091787,610e6453d7702c7894acf66d,610e6453d7702c7894acf66d,16,blinds,critical,D,25,blinds15.jpg,blinds33.jpg,high,NULL
1687287394,09abb57f801d5a93b87db3bcaa409031,PennController,19,0,experiment,NULL,PennController,18,_Header_,Start,1687287091787,610e6453d7702c7894acf66d,610e6453d7702c7894acf66d,16,blinds,critical,D,25,blinds15.jpg,blinds33.jpg,high,NULL
1687287394,09abb57f801d5a93b87db3bcaa409031,PennController,19,0,experiment,NULL,PennController,18,_Header_,End,1687287091787,610e6453d7702c7894acf66d,610e6453d7702c7894acf66d,16,blinds,critical,D,25,blinds15.jpg,blinds33.jpg,high,NULL
1687287394,09abb57f801d5a93b87db3bcaa409031,PennController,19,0,experiment,NULL,Canvas,canvas6,Print,NA,1687287098100,610e6453d7702c7894acf66d,610e6453d7702c7894acf66d,16,blinds,critical,D,25,blinds15.jpg,blinds33.jpg,high,NULL
1687287394,09abb57f801d5a93b87db3bcaa409031,PennController,19,0,experiment,NULL,Video,progression,buffer,0.016123,1687287095345,610e6453d7702c7894acf66d,610e6453d7702c7894acf66d,16,blinds,critical,D,25,blinds15.jpg,blinds33.jpg,high,NULL
1687287394,09abb57f801d5a93b87db3bcaa409031,PennController,19,0,experiment,NULL,Selector,choice,Selection,option2,1687287100355,610e6453d7702c7894acf66d,610e6453d7702c7894acf66d,16,blinds,critical,D,25,blinds15.jpg,blinds33.jpg,high,option2;option1
1687287394,09abb57f801d5a93b87db3bcaa409031,PennController,19,0,experiment,NULL,PennController,18,_Trial_,End,1687287100357,610e6453d7702c7894acf66d,610e6453d7702c7894acf66d,16,blinds,critical,D,25,blinds15.jpg,blinds33.jpg,high,NULL
1687287394,09abb57f801d5a93b87db3bcaa409031,PennController,5,0,experiment,NULL,PennController,4,_Trial_,Start,1687287100359,610e6453d7702c7894acf66d,610e6453d7702c7894acf66d,2,door,critical,D,50,door40.jpg,door60.jpg,high,NULL
1687287394,09abb57f801d5a93b87db3bcaa409031,PennController,5,0,experiment,NULL,PennController,4,_Header_,Start,1687287100359,610e6453d7702c7894acf66d,610e6453d7702c7894acf66d,2,door,critical,D,50,door40.jpg,door60.jpg,high,NULL
1687287394,09abb57f801d5a93b87db3bcaa409031,PennController,5,0,experiment,NULL,PennController,4,_Header_,End,1687287100359,610e6453d7702c7894acf66d,610e6453d7702c7894acf66d,2,door,critical,D,50,door40.jpg,door60.jpg,high,NULL
1687287394,09abb57f801d5a93b87db3bcaa409031,PennController,5,0,experiment,NULL,Canvas,canvas6,Print,NA,1687287107138,610e6453d7702c7894acf66d,610e6453d7702c7894acf66d,2,door,critical,D,50,door40.jpg,door60.jpg,high,NULL
1687287394,09abb57f801d5a93b87db3bcaa409031,PennController,5,0,experiment,NULL,Video,progression,buffer,0,1687287103924,610e6453d7702c7894acf66d,610e6453d7702c7894acf66d,2,door,critical,D,50,door40.jpg,door60.jpg,high,NULL
1687287394,09abb57f801d5a93b87db3bcaa409031,PennController,5,0,experiment,NULL,Selector,choice,Selection,option2,1687287111479,610e6453d7702c7894acf66d,610e6453d7702c7894acf66d,2,door,critical,D,50,door40.jpg,door60.jpg,high,option2;option1
1687287394,09abb57f801d5a93b87db3bcaa409031,PennController,5,0,experiment,NULL,PennController,4,_Trial_,End,1687287111481,610e6453d7702c7894acf66d,610e6453d7702c7894acf66d,2,door,critical,D,50,door40.jpg,door60.jpg,high,NULL
1687287394,09abb57f801d5a93b87db3bcaa409031,PennController,9,0,experiment,NULL,PennController,8,_Trial_,Start,1687287111485,610e6453d7702c7894acf66d,610e6453d7702c7894acf66d,6,flower,critical,D,75,flower65.jpg,flower85.jpg,high,NULL
1687287394,09abb57f801d5a93b87db3bcaa409031,PennController,9,0,experiment,NULL,PennController,8,_Header_,Start,1687287111485,610e6453d7702c7894acf66d,610e6453d7702c7894acf66d,6,flower,critical,D,75,flower65.jpg,flower85.jpg,high,NULL
1687287394,09abb57f801d5a93b87db3bcaa409031,PennController,9,0,experiment,NULL,PennController,8,_Header_,End,1687287111486,610e6453d7702c7894acf66d,610e6453d7702c7894acf66d,6,flower,critical,D,75,flower65.jpg,flower85.jpg,high,NULL
1687287394,09abb57f801d5a93b87db3bcaa409031,PennController,9,0,experiment,NULL,Canvas,canvas6,Print,NA,1687287119217,610e6453d7702c7894acf66d,610e6453d7702c7894acf66d,6,flower,critical,D,75,flower65.jpg,flower85.jpg,high,NULL
1687287394,09abb57f801d5a93b87db3bcaa409031,PennController,9,0,experiment,NULL,Video,progression,buffer,0.003729,1687287115025,610e6453d7702c7894acf66d,610e6453d7702c7894acf66d,6,flower,critical,D,75,flower65.jpg,flower85.jpg,high,NULL
1687287394,09abb57f801d5a93b87db3bcaa409031,PennController,9,0,experiment,NULL,Selector,choice,Selection,option2,1687287121753,610e6453d7702c7894acf66d,610e6453d7702c7894acf66d,6,flower,critical,D,75,flower65.jpg,flower85.jpg,high,option1;option2
1687287394,09abb57f801d5a93b87db3bcaa409031,PennController,9,0,experiment,NULL,PennController,8,_Trial_,End,1687287121755,610e6453d7702c7894acf66d,610e6453d7702c7894acf66d,6,flower,critical,D,75,flower65.jpg,flower85.jpg,high,NULL
1687287394,09abb57f801d5a93b87db3bcaa409031,PennController,29,0,experiment,NULL,PennController,28,_Trial_,Start,1687287121757,610e6453d7702c7894acf66d,610e6453d7702c7894acf66d,26,sandwich,filler,D,50,sandwich40.jpg,sandwich60.jpg,GoalA,NULL
1687287394,09abb57f801d5a93b87db3bcaa409031,PennController,29,0,experiment,NULL,PennController,28,_Header_,Start,1687287121757,610e6453d7702c7894acf66d,610e6453d7702c7894acf66d,26,sandwich,filler,D,50,sandwich40.jpg,sandwich60.jpg,GoalA,NULL
1687287394,09abb57f801d5a93b87db3bcaa409031,PennController,29,0,experiment,NULL,PennController,28,_Header_,End,1687287121758,610e6453d7702c7894acf66d,610e6453d7702c7894acf66d,26,sandwich,filler,D,50,sandwich40.jpg,sandwich60.jpg,GoalA,NULL
1687287394,09abb57f801d5a93b87db3bcaa409031,PennController,29,0,experiment,NULL,Canvas,canvas6,Print,NA,1687287128461,610e6453d7702c7894acf66d,610e6453d7702c7894acf66d,26,sandwich,filler,D,50,sandwich40.jpg,sandwich60.jpg,GoalA,NULL
1687287394,09abb57f801d5a93b87db3bcaa409031,PennController,29,0,experiment,NULL,Video,progression,buffer,0.017608,1687287125321,610e6453d7702c7894acf66d,610e6453d7702c7894acf66d,26,sandwich,filler,D,50,sandwich40.jpg,sandwich60.jpg,GoalA,NULL
1687287394,09abb57f801d5a93b87db3bcaa409031,PennController,29,0,experiment,NULL,Selector,choice,Selection,option1,1687287129852,610e6453d7702c7894acf66d,610e6453d7702c7894acf66d,26,sandwich,filler,D,50,sandwich40.jpg,sandwich60.jpg,GoalA,option1;option2
1687287394,09abb57f801d5a93b87db3bcaa409031,PennController,29,0,experiment,NULL,PennController,28,_Trial_,End,1687287129855,610e6453d7702c7894acf66d,610e6453d7702c7894acf66d,26,sandwich,filler,D,50,sandwich40.jpg,sandwich60.jpg,GoalA,NULL
1687287394,09abb57f801d5a93b87db3bcaa409031,PennController,22,0,experiment,NULL,PennController,21,_Trial_,Start,1687287129858,610e6453d7702c7894acf66d,610e6453d7702c7894acf66d,19,cup,filler,D,25,cup15.jpg,cup35.jpg,GoalB,NULL
1687287394,09abb57f801d5a93b87db3bcaa409031,PennController,22,0,experiment,NULL,PennController,21,_Header_,Start,1687287129858,610e6453d7702c7894acf66d,610e6453d7702c7894acf66d,19,cup,filler,D,25,cup15.jpg,cup35.jpg,GoalB,NULL
1687287394,09abb57f801d5a93b87db3bcaa409031,PennController,22,0,experiment,NULL,PennController,21,_Header_,End,1687287129858,610e6453d7702c7894acf66d,610e6453d7702c7894acf66d,19,cup,filler,D,25,cup15.jpg,cup35.jpg,GoalB,NULL
1687287394,09abb57f801d5a93b87db3bcaa409031,PennController,22,0,experiment,NULL,Canvas,canvas6,Print,NA,1687287135598,610e6453d7702c7894acf66d,610e6453d7702c7894acf66d,19,cup,filler,D,25,cup15.jpg,cup35.jpg,GoalB,NULL
1687287394,09abb57f801d5a93b87db3bcaa409031,PennController,22,0,experiment,NULL,Video,progression,buffer,0.013414,1687287133421,610e6453d7702c7894acf66d,610e6453d7702c7894acf66d,19,cup,filler,D,25,cup15.jpg,cup35.jpg,GoalB,NULL
1687287394,09abb57f801d5a93b87db3bcaa409031,PennController,22,0,experiment,NULL,Selector,choice,Selection,option2,1687287136898,610e6453d7702c7894acf66d,610e6453d7702c7894acf66d,19,cup,filler,D,25,cup15.jpg,cup35.jpg,GoalB,option2;option1
1687287394,09abb57f801d5a93b87db3bcaa409031,PennController,22,0,experiment,NULL,PennController,21,_Trial_,End,1687287136902,610e6453d7702c7894acf66d,610e6453d7702c7894acf66d,19,cup,filler,D,25,cup15.jpg,cup35.jpg,GoalB,NULL
1687287394,09abb57f801d5a93b87db3bcaa409031,PennController,26,0,experiment,NULL,PennController,25,_Trial_,Start,1687287136903,610e6453d7702c7894acf66d,610e6453d7702c7894acf66d,23,color,filler,D,50,color40.jpg,color60.jpg,GoalB,NULL
1687287394,09abb57f801d5a93b87db3bcaa409031,PennController,26,0,experiment,NULL,PennController,25,_Header_,Start,1687287136903,610e6453d7702c7894acf66d,610e6453d7702c7894acf66d,23,color,filler,D,50,color40.jpg,color60.jpg,GoalB,NULL
1687287394,09abb57f801d5a93b87db3bcaa409031,PennController,26,0,experiment,NULL,PennController,25,_Header_,End,1687287136904,610e6453d7702c7894acf66d,610e6453d7702c7894acf66d,23,color,filler,D,50,color40.jpg,color60.jpg,GoalB,NULL
1687287394,09abb57f801d5a93b87db3bcaa409031,PennController,26,0,experiment,NULL,Canvas,canvas6,Print,NA,1687287143605,610e6453d7702c7894acf66d,610e6453d7702c7894acf66d,23,color,filler,D,50,color40.jpg,color60.jpg,GoalB,NULL
1687287394,09abb57f801d5a93b87db3bcaa409031,PennController,26,0,experiment,NULL,Video,progression,buffer,0.019702,1687287140458,610e6453d7702c7894acf66d,610e6453d7702c7894acf66d,23,color,filler,D,50,color40.jpg,color60.jpg,GoalB,NULL
1687287394,09abb57f801d5a93b87db3bcaa409031,PennController,26,0,experiment,NULL,Selector,choice,Selection,option1,1687287146311,610e6453d7702c7894acf66d,610e6453d7702c7894acf66d,23,color,filler,D,50,color40.jpg,color60.jpg,GoalB,option2;option1
1687287394,09abb57f801d5a93b87db3bcaa409031,PennController,26,0,experiment,NULL,PennController,25,_Trial_,End,1687287146314,610e6453d7702c7894acf66d,610e6453d7702c7894acf66d,23,color,filler,D,50,color40.jpg,color60.jpg,GoalB,NULL
1687287394,09abb57f801d5a93b87db3bcaa409031,PennController,8,0,experiment,NULL,PennController,7,_Trial_,Start,1687287146316,610e6453d7702c7894acf66d,610e6453d7702c7894acf66d,5,book,critical,D,50,book40.jpg,book60.jpg,high,NULL
1687287394,09abb57f801d5a93b87db3bcaa409031,PennController,8,0,experiment,NULL,PennController,7,_Header_,Start,1687287146316,610e6453d7702c7894acf66d,610e6453d7702c7894acf66d,5,book,critical,D,50,book40.jpg,book60.jpg,high,NULL
1687287394,09abb57f801d5a93b87db3bcaa409031,PennController,8,0,experiment,NULL,PennController,7,_Header_,End,1687287146317,610e6453d7702c7894acf66d,610e6453d7702c7894acf66d,5,book,critical,D,50,book40.jpg,book60.jpg,high,NULL
1687287394,09abb57f801d5a93b87db3bcaa409031,PennController,8,0,experiment,NULL,Canvas,canvas6,Print,NA,1687287153015,610e6453d7702c7894acf66d,610e6453d7702c7894acf66d,5,book,critical,D,50,book40.jpg,book60.jpg,high,NULL
1687287394,09abb57f801d5a93b87db3bcaa409031,PennController,8,0,experiment,NULL,Video,progression,buffer,0.013222,1687287149866,610e6453d7702c7894acf66d,610e6453d7702c7894acf66d,5,book,critical,D,50,book40.jpg,book60.jpg,high,NULL
1687287394,09abb57f801d5a93b87db3bcaa409031,PennController,8,0,experiment,NULL,Selector,choice,Selection,option1,1687287155224,610e6453d7702c7894acf66d,610e6453d7702c7894acf66d,5,book,critical,D,50,book40.jpg,book60.jpg,high,option1;option2
1687287394,09abb57f801d5a93b87db3bcaa409031,PennController,8,0,experiment,NULL,PennController,7,_Trial_,End,1687287155226,610e6453d7702c7894acf66d,610e6453d7702c7894acf66d,5,book,critical,D,50,book40.jpg,book60.jpg,high,NULL
1687287394,09abb57f801d5a93b87db3bcaa409031,PennController,13,0,experiment,NULL,PennController,12,_Trial_,Start,1687287155228,610e6453d7702c7894acf66d,610e6453d7702c7894acf66d,10,train,critical,D,25,train15.jpg,train35.jpg,high,NULL
1687287394,09abb57f801d5a93b87db3bcaa409031,PennController,13,0,experiment,NULL,PennController,12,_Header_,Start,1687287155228,610e6453d7702c7894acf66d,610e6453d7702c7894acf66d,10,train,critical,D,25,train15.jpg,train35.jpg,high,NULL
1687287394,09abb57f801d5a93b87db3bcaa409031,PennController,13,0,experiment,NULL,PennController,12,_Header_,End,1687287155228,610e6453d7702c7894acf66d,610e6453d7702c7894acf66d,10,train,critical,D,25,train15.jpg,train35.jpg,high,NULL
1687287394,09abb57f801d5a93b87db3bcaa409031,PennController,13,0,experiment,NULL,Canvas,canvas6,Print,NA,1687287160945,610e6453d7702c7894acf66d,610e6453d7702c7894acf66d,10,train,critical,D,25,train15.jpg,train35.jpg,high,NULL
1687287394,09abb57f801d5a93b87db3bcaa409031,PennController,13,0,experiment,NULL,Video,progression,buffer,0.018902,1687287158795,610e6453d7702c7894acf66d,610e6453d7702c7894acf66d,10,train,critical,D,25,train15.jpg,train35.jpg,high,NULL
1687287394,09abb57f801d5a93b87db3bcaa409031,PennController,13,0,experiment,NULL,Selector,choice,Selection,option2,1687287171644,610e6453d7702c7894acf66d,610e6453d7702c7894acf66d,10,train,critical,D,25,train15.jpg,train35.jpg,high,option1;option2
1687287394,09abb57f801d5a93b87db3bcaa409031,PennController,13,0,experiment,NULL,PennController,12,_Trial_,End,1687287171646,610e6453d7702c7894acf66d,610e6453d7702c7894acf66d,10,train,critical,D,25,train15.jpg,train35.jpg,high,NULL
1687287394,09abb57f801d5a93b87db3bcaa409031,PennController,32,0,experiment,NULL,PennController,31,_Trial_,Start,1687287171648,610e6453d7702c7894acf66d,610e6453d7702c7894acf66d,29,frog,filler,D,50,frog40.jpg,frog60.jpg,GoalB,NULL
1687287394,09abb57f801d5a93b87db3bcaa409031,PennController,32,0,experiment,NULL,PennController,31,_Header_,Start,1687287171648,610e6453d7702c7894acf66d,610e6453d7702c7894acf66d,29,frog,filler,D,50,frog40.jpg,frog60.jpg,GoalB,NULL
1687287394,09abb57f801d5a93b87db3bcaa409031,PennController,32,0,experiment,NULL,PennController,31,_Header_,End,1687287171648,610e6453d7702c7894acf66d,610e6453d7702c7894acf66d,29,frog,filler,D,50,frog40.jpg,frog60.jpg,GoalB,NULL
1687287394,09abb57f801d5a93b87db3bcaa409031,PennController,32,0,experiment,NULL,Canvas,canvas6,Print,NA,1687287178348,610e6453d7702c7894acf66d,610e6453d7702c7894acf66d,29,frog,filler,D,50,frog40.jpg,frog60.jpg,GoalB,NULL
1687287394,09abb57f801d5a93b87db3bcaa409031,PennController,32,0,experiment,NULL,Video,progression,buffer,0.008623,1687287175204,610e6453d7702c7894acf66d,610e6453d7702c7894acf66d,29,frog,filler,D,50,frog40.jpg,frog60.jpg,GoalB,NULL
1687287394,09abb57f801d5a93b87db3bcaa409031,PennController,32,0,experiment,NULL,Selector,choice,Selection,option2,1687287185588,610e6453d7702c7894acf66d,610e6453d7702c7894acf66d,29,frog,filler,D,50,frog40.jpg,frog60.jpg,GoalB,option1;option2
1687287394,09abb57f801d5a93b87db3bcaa409031,PennController,32,0,experiment,NULL,PennController,31,_Trial_,End,1687287185591,610e6453d7702c7894acf66d,610e6453d7702c7894acf66d,29,frog,filler,D,50,frog40.jpg,frog60.jpg,GoalB,NULL
1687287394,09abb57f801d5a93b87db3bcaa409031,PennController,15,0,experiment,NULL,PennController,14,_Trial_,Start,1687287185593,610e6453d7702c7894acf66d,610e6453d7702c7894acf66d,12,erase,critical,D,75,erase66.jpg,erase84.jpg,high,NULL
1687287394,09abb57f801d5a93b87db3bcaa409031,PennController,15,0,experiment,NULL,PennController,14,_Header_,Start,1687287185593,610e6453d7702c7894acf66d,610e6453d7702c7894acf66d,12,erase,critical,D,75,erase66.jpg,erase84.jpg,high,NULL
1687287394,09abb57f801d5a93b87db3bcaa409031,PennController,15,0,experiment,NULL,PennController,14,_Header_,End,1687287185594,610e6453d7702c7894acf66d,610e6453d7702c7894acf66d,12,erase,critical,D,75,erase66.jpg,erase84.jpg,high,NULL
1687287394,09abb57f801d5a93b87db3bcaa409031,PennController,15,0,experiment,NULL,Canvas,canvas6,Print,NA,1687287195262,610e6453d7702c7894acf66d,610e6453d7702c7894acf66d,12,erase,critical,D,75,erase66.jpg,erase84.jpg,high,NULL
1687287394,09abb57f801d5a93b87db3bcaa409031,PennController,15,0,experiment,NULL,Video,progression,buffer,0.015245,1687287189147,610e6453d7702c7894acf66d,610e6453d7702c7894acf66d,12,erase,critical,D,75,erase66.jpg,erase84.jpg,high,NULL
1687287394,09abb57f801d5a93b87db3bcaa409031,PennController,15,0,experiment,NULL,Selector,choice,Selection,option1,1687287199152,610e6453d7702c7894acf66d,610e6453d7702c7894acf66d,12,erase,critical,D,75,erase66.jpg,erase84.jpg,high,option1;option2
1687287394,09abb57f801d5a93b87db3bcaa409031,PennController,15,0,experiment,NULL,PennController,14,_Trial_,End,1687287199155,610e6453d7702c7894acf66d,610e6453d7702c7894acf66d,12,erase,critical,D,75,erase66.jpg,erase84.jpg,high,NULL
1687287394,09abb57f801d5a93b87db3bcaa409031,PennController,31,0,experiment,NULL,PennController,30,_Trial_,Start,1687287199157,610e6453d7702c7894acf66d,610e6453d7702c7894acf66d,28,sort,filler,D,25,sort15.jpg,sort35.jpg,GoalA,NULL
1687287394,09abb57f801d5a93b87db3bcaa409031,PennController,31,0,experiment,NULL,PennController,30,_Header_,Start,1687287199157,610e6453d7702c7894acf66d,610e6453d7702c7894acf66d,28,sort,filler,D,25,sort15.jpg,sort35.jpg,GoalA,NULL
1687287394,09abb57f801d5a93b87db3bcaa409031,PennController,31,0,experiment,NULL,PennController,30,_Header_,End,1687287199157,610e6453d7702c7894acf66d,610e6453d7702c7894acf66d,28,sort,filler,D,25,sort15.jpg,sort35.jpg,GoalA,NULL
1687287394,09abb57f801d5a93b87db3bcaa409031,PennController,31,0,experiment,NULL,Canvas,canvas6,Print,NA,1687287204867,610e6453d7702c7894acf66d,610e6453d7702c7894acf66d,28,sort,filler,D,25,sort15.jpg,sort35.jpg,GoalA,NULL
1687287394,09abb57f801d5a93b87db3bcaa409031,PennController,31,0,experiment,NULL,Video,progression,buffer,0.014256,1687287202715,610e6453d7702c7894acf66d,610e6453d7702c7894acf66d,28,sort,filler,D,25,sort15.jpg,sort35.jpg,GoalA,NULL
1687287394,09abb57f801d5a93b87db3bcaa409031,PennController,31,0,experiment,NULL,Selector,choice,Selection,option1,1687287207893,610e6453d7702c7894acf66d,610e6453d7702c7894acf66d,28,sort,filler,D,25,sort15.jpg,sort35.jpg,GoalA,option1;option2
1687287394,09abb57f801d5a93b87db3bcaa409031,PennController,31,0,experiment,NULL,PennController,30,_Trial_,End,1687287207895,610e6453d7702c7894acf66d,610e6453d7702c7894acf66d,28,sort,filler,D,25,sort15.jpg,sort35.jpg,GoalA,NULL
1687287394,09abb57f801d5a93b87db3bcaa409031,PennController,7,0,experiment,NULL,PennController,6,_Trial_,Start,1687287207898,610e6453d7702c7894acf66d,610e6453d7702c7894acf66d,4,candy,critical,D,25,candy15.jpg,candy35.jpg,high,NULL
1687287394,09abb57f801d5a93b87db3bcaa409031,PennController,7,0,experiment,NULL,PennController,6,_Header_,Start,1687287207898,610e6453d7702c7894acf66d,610e6453d7702c7894acf66d,4,candy,critical,D,25,candy15.jpg,candy35.jpg,high,NULL
1687287394,09abb57f801d5a93b87db3bcaa409031,PennController,7,0,experiment,NULL,PennController,6,_Header_,End,1687287207898,610e6453d7702c7894acf66d,610e6453d7702c7894acf66d,4,candy,critical,D,25,candy15.jpg,candy35.jpg,high,NULL
1687287394,09abb57f801d5a93b87db3bcaa409031,PennController,7,0,experiment,NULL,Canvas,canvas6,Print,NA,1687287213613,610e6453d7702c7894acf66d,610e6453d7702c7894acf66d,4,candy,critical,D,25,candy15.jpg,candy35.jpg,high,NULL
1687287394,09abb57f801d5a93b87db3bcaa409031,PennController,7,0,experiment,NULL,Video,progression,buffer,0.016926,1687287211452,610e6453d7702c7894acf66d,610e6453d7702c7894acf66d,4,candy,critical,D,25,candy15.jpg,candy35.jpg,high,NULL
1687287394,09abb57f801d5a93b87db3bcaa409031,PennController,7,0,experiment,NULL,Selector,choice,Selection,option2,1687287218612,610e6453d7702c7894acf66d,610e6453d7702c7894acf66d,4,candy,critical,D,25,candy15.jpg,candy35.jpg,high,option1;option2
1687287394,09abb57f801d5a93b87db3bcaa409031,PennController,7,0,experiment,NULL,PennController,6,_Trial_,End,1687287218614,610e6453d7702c7894acf66d,610e6453d7702c7894acf66d,4,candy,critical,D,25,candy15.jpg,candy35.jpg,high,NULL
1687287394,09abb57f801d5a93b87db3bcaa409031,PennController,6,0,experiment,NULL,PennController,5,_Trial_,Start,1687287218616,610e6453d7702c7894acf66d,610e6453d7702c7894acf66d,3,clean,critical,D,75,clean65.jpg,clean85.jpg,high,NULL
1687287394,09abb57f801d5a93b87db3bcaa409031,PennController,6,0,experiment,NULL,PennController,5,_Header_,Start,1687287218616,610e6453d7702c7894acf66d,610e6453d7702c7894acf66d,3,clean,critical,D,75,clean65.jpg,clean85.jpg,high,NULL
1687287394,09abb57f801d5a93b87db3bcaa409031,PennController,6,0,experiment,NULL,PennController,5,_Header_,End,1687287218616,610e6453d7702c7894acf66d,610e6453d7702c7894acf66d,3,clean,critical,D,75,clean65.jpg,clean85.jpg,high,NULL
1687287394,09abb57f801d5a93b87db3bcaa409031,PennController,6,0,experiment,NULL,Canvas,canvas6,Print,NA,1687287226312,610e6453d7702c7894acf66d,610e6453d7702c7894acf66d,3,clean,critical,D,75,clean65.jpg,clean85.jpg,high,NULL
1687287394,09abb57f801d5a93b87db3bcaa409031,PennController,6,0,experiment,NULL,Video,progression,buffer,0.0192,1687287222176,610e6453d7702c7894acf66d,610e6453d7702c7894acf66d,3,clean,critical,D,75,clean65.jpg,clean85.jpg,high,NULL
1687287394,09abb57f801d5a93b87db3bcaa409031,PennController,6,0,experiment,NULL,Selector,choice,Selection,option1,1687287227636,610e6453d7702c7894acf66d,610e6453d7702c7894acf66d,3,clean,critical,D,75,clean65.jpg,clean85.jpg,high,option1;option2
1687287394,09abb57f801d5a93b87db3bcaa409031,PennController,6,0,experiment,NULL,PennController,5,_Trial_,End,1687287227638,610e6453d7702c7894acf66d,610e6453d7702c7894acf66d,3,clean,critical,D,75,clean65.jpg,clean85.jpg,high,NULL
1687287394,09abb57f801d5a93b87db3bcaa409031,PennController,16,0,experiment,NULL,PennController,15,_Trial_,Start,1687287227639,610e6453d7702c7894acf66d,610e6453d7702c7894acf66d,13,mix,critical,D,25,mix15.jpg,mix35.jpg,high,NULL
1687287394,09abb57f801d5a93b87db3bcaa409031,PennController,16,0,experiment,NULL,PennController,15,_Header_,Start,1687287227639,610e6453d7702c7894acf66d,610e6453d7702c7894acf66d,13,mix,critical,D,25,mix15.jpg,mix35.jpg,high,NULL
1687287394,09abb57f801d5a93b87db3bcaa409031,PennController,16,0,experiment,NULL,PennController,15,_Header_,End,1687287227639,610e6453d7702c7894acf66d,610e6453d7702c7894acf66d,13,mix,critical,D,25,mix15.jpg,mix35.jpg,high,NULL
1687287394,09abb57f801d5a93b87db3bcaa409031,PennController,16,0,experiment,NULL,Canvas,canvas6,Print,NA,1687287233351,610e6453d7702c7894acf66d,610e6453d7702c7894acf66d,13,mix,critical,D,25,mix15.jpg,mix35.jpg,high,NULL
1687287394,09abb57f801d5a93b87db3bcaa409031,PennController,16,0,experiment,NULL,Video,progression,buffer,0.015042,1687287231197,610e6453d7702c7894acf66d,610e6453d7702c7894acf66d,13,mix,critical,D,25,mix15.jpg,mix35.jpg,high,NULL
1687287394,09abb57f801d5a93b87db3bcaa409031,PennController,16,0,experiment,NULL,Selector,choice,Selection,option1,1687287235662,610e6453d7702c7894acf66d,610e6453d7702c7894acf66d,13,mix,critical,D,25,mix15.jpg,mix35.jpg,high,option2;option1
1687287394,09abb57f801d5a93b87db3bcaa409031,PennController,16,0,experiment,NULL,PennController,15,_Trial_,End,1687287235663,610e6453d7702c7894acf66d,610e6453d7702c7894acf66d,13,mix,critical,D,25,mix15.jpg,mix35.jpg,high,NULL
1687287394,09abb57f801d5a93b87db3bcaa409031,PennController,11,0,experiment,NULL,PennController,10,_Trial_,Start,1687287235665,610e6453d7702c7894acf66d,610e6453d7702c7894acf66d,8,cucumber,critical,D,50,cucumber42.jpg,cucumber60.jpg,high,NULL
1687287394,09abb57f801d5a93b87db3bcaa409031,PennController,11,0,experiment,NULL,PennController,10,_Header_,Start,1687287235665,610e6453d7702c7894acf66d,610e6453d7702c7894acf66d,8,cucumber,critical,D,50,cucumber42.jpg,cucumber60.jpg,high,NULL
1687287394,09abb57f801d5a93b87db3bcaa409031,PennController,11,0,experiment,NULL,PennController,10,_Header_,End,1687287235665,610e6453d7702c7894acf66d,610e6453d7702c7894acf66d,8,cucumber,critical,D,50,cucumber42.jpg,cucumber60.jpg,high,NULL
1687287394,09abb57f801d5a93b87db3bcaa409031,PennController,11,0,experiment,NULL,Canvas,canvas6,Print,NA,1687287243744,610e6453d7702c7894acf66d,610e6453d7702c7894acf66d,8,cucumber,critical,D,50,cucumber42.jpg,cucumber60.jpg,high,NULL
1687287394,09abb57f801d5a93b87db3bcaa409031,PennController,11,0,experiment,NULL,Video,progression,buffer,0.011871,1687287239209,610e6453d7702c7894acf66d,610e6453d7702c7894acf66d,8,cucumber,critical,D,50,cucumber42.jpg,cucumber60.jpg,high,NULL
1687287394,09abb57f801d5a93b87db3bcaa409031,PennController,11,0,experiment,NULL,Selector,choice,Selection,option1,1687287246400,610e6453d7702c7894acf66d,610e6453d7702c7894acf66d,8,cucumber,critical,D,50,cucumber42.jpg,cucumber60.jpg,high,option1;option2
1687287394,09abb57f801d5a93b87db3bcaa409031,PennController,11,0,experiment,NULL,PennController,10,_Trial_,End,1687287246403,610e6453d7702c7894acf66d,610e6453d7702c7894acf66d,8,cucumber,critical,D,50,cucumber42.jpg,cucumber60.jpg,high,NULL
1687287394,09abb57f801d5a93b87db3bcaa409031,PennController,17,0,experiment,NULL,PennController,16,_Trial_,Start,1687287246405,610e6453d7702c7894acf66d,610e6453d7702c7894acf66d,14,cover,critical,D,50,cover42.jpg,cover60.jpg,high,NULL
1687287394,09abb57f801d5a93b87db3bcaa409031,PennController,17,0,experiment,NULL,PennController,16,_Header_,Start,1687287246405,610e6453d7702c7894acf66d,610e6453d7702c7894acf66d,14,cover,critical,D,50,cover42.jpg,cover60.jpg,high,NULL
1687287394,09abb57f801d5a93b87db3bcaa409031,PennController,17,0,experiment,NULL,PennController,16,_Header_,End,1687287246405,610e6453d7702c7894acf66d,610e6453d7702c7894acf66d,14,cover,critical,D,50,cover42.jpg,cover60.jpg,high,NULL
1687287394,09abb57f801d5a93b87db3bcaa409031,PennController,17,0,experiment,NULL,Canvas,canvas6,Print,NA,1687287254500,610e6453d7702c7894acf66d,610e6453d7702c7894acf66d,14,cover,critical,D,50,cover42.jpg,cover60.jpg,high,NULL
1687287394,09abb57f801d5a93b87db3bcaa409031,PennController,17,0,experiment,NULL,Video,progression,buffer,0.015333,1687287249959,610e6453d7702c7894acf66d,610e6453d7702c7894acf66d,14,cover,critical,D,50,cover42.jpg,cover60.jpg,high,NULL
1687287394,09abb57f801d5a93b87db3bcaa409031,PennController,17,0,experiment,NULL,Selector,choice,Selection,option1,1687287255801,610e6453d7702c7894acf66d,610e6453d7702c7894acf66d,14,cover,critical,D,50,cover42.jpg,cover60.jpg,high,option2;option1
1687287394,09abb57f801d5a93b87db3bcaa409031,PennController,17,0,experiment,NULL,PennController,16,_Trial_,End,1687287255803,610e6453d7702c7894acf66d,610e6453d7702c7894acf66d,14,cover,critical,D,50,cover42.jpg,cover60.jpg,high,NULL
1687287394,09abb57f801d5a93b87db3bcaa409031,PennController,23,0,experiment,NULL,PennController,22,_Trial_,Start,1687287255804,610e6453d7702c7894acf66d,610e6453d7702c7894acf66d,20,cat,filler,D,50,cat40.jpg,cat60.jpg,GoalA,NULL
1687287394,09abb57f801d5a93b87db3bcaa409031,PennController,23,0,experiment,NULL,PennController,22,_Header_,Start,1687287255804,610e6453d7702c7894acf66d,610e6453d7702c7894acf66d,20,cat,filler,D,50,cat40.jpg,cat60.jpg,GoalA,NULL
1687287394,09abb57f801d5a93b87db3bcaa409031,PennController,23,0,experiment,NULL,PennController,22,_Header_,End,1687287255805,610e6453d7702c7894acf66d,610e6453d7702c7894acf66d,20,cat,filler,D,50,cat40.jpg,cat60.jpg,GoalA,NULL
1687287394,09abb57f801d5a93b87db3bcaa409031,PennController,23,0,experiment,NULL,Canvas,canvas6,Print,NA,1687287262489,610e6453d7702c7894acf66d,610e6453d7702c7894acf66d,20,cat,filler,D,50,cat40.jpg,cat60.jpg,GoalA,NULL
1687287394,09abb57f801d5a93b87db3bcaa409031,PennController,23,0,experiment,NULL,Video,progression,buffer,0.018922,1687287259356,610e6453d7702c7894acf66d,610e6453d7702c7894acf66d,20,cat,filler,D,50,cat40.jpg,cat60.jpg,GoalA,NULL
1687287394,09abb57f801d5a93b87db3bcaa409031,PennController,23,0,experiment,NULL,Selector,choice,Selection,option2,1687287263427,610e6453d7702c7894acf66d,610e6453d7702c7894acf66d,20,cat,filler,D,50,cat40.jpg,cat60.jpg,GoalA,option2;option1
1687287394,09abb57f801d5a93b87db3bcaa409031,PennController,23,0,experiment,NULL,PennController,22,_Trial_,End,1687287263429,610e6453d7702c7894acf66d,610e6453d7702c7894acf66d,20,cat,filler,D,50,cat40.jpg,cat60.jpg,GoalA,NULL
1687287394,09abb57f801d5a93b87db3bcaa409031,PennController,24,0,experiment,NULL,PennController,23,_Trial_,Start,1687287263431,610e6453d7702c7894acf66d,610e6453d7702c7894acf66d,21,visit,filler,D,75,visit65.jpg,visit85.jpg,GoalB,NULL
1687287394,09abb57f801d5a93b87db3bcaa409031,PennController,24,0,experiment,NULL,PennController,23,_Header_,Start,1687287263431,610e6453d7702c7894acf66d,610e6453d7702c7894acf66d,21,visit,filler,D,75,visit65.jpg,visit85.jpg,GoalB,NULL
1687287394,09abb57f801d5a93b87db3bcaa409031,PennController,24,0,experiment,NULL,PennController,23,_Header_,End,1687287263431,610e6453d7702c7894acf66d,610e6453d7702c7894acf66d,21,visit,filler,D,75,visit65.jpg,visit85.jpg,GoalB,NULL
1687287394,09abb57f801d5a93b87db3bcaa409031,PennController,24,0,experiment,NULL,Canvas,canvas6,Print,NA,1687287271086,610e6453d7702c7894acf66d,610e6453d7702c7894acf66d,21,visit,filler,D,75,visit65.jpg,visit85.jpg,GoalB,NULL
1687287394,09abb57f801d5a93b87db3bcaa409031,PennController,24,0,experiment,NULL,Video,progression,buffer,0.016461,1687287266991,610e6453d7702c7894acf66d,610e6453d7702c7894acf66d,21,visit,filler,D,75,visit65.jpg,visit85.jpg,GoalB,NULL
1687287394,09abb57f801d5a93b87db3bcaa409031,PennController,24,0,experiment,NULL,Selector,choice,Selection,option2,1687287275839,610e6453d7702c7894acf66d,610e6453d7702c7894acf66d,21,visit,filler,D,75,visit65.jpg,visit85.jpg,GoalB,option1;option2
1687287394,09abb57f801d5a93b87db3bcaa409031,PennController,24,0,experiment,NULL,PennController,23,_Trial_,End,1687287275841,610e6453d7702c7894acf66d,610e6453d7702c7894acf66d,21,visit,filler,D,75,visit65.jpg,visit85.jpg,GoalB,NULL
1687287394,09abb57f801d5a93b87db3bcaa409031,PennController,20,0,experiment,NULL,PennController,19,_Trial_,Start,1687287275843,610e6453d7702c7894acf66d,610e6453d7702c7894acf66d,17,roll,critical,D,50,roll40.jpg,roll60.jpg,high,NULL
1687287394,09abb57f801d5a93b87db3bcaa409031,PennController,20,0,experiment,NULL,PennController,19,_Header_,Start,1687287275843,610e6453d7702c7894acf66d,610e6453d7702c7894acf66d,17,roll,critical,D,50,roll40.jpg,roll60.jpg,high,NULL
1687287394,09abb57f801d5a93b87db3bcaa409031,PennController,20,0,experiment,NULL,PennController,19,_Header_,End,1687287275843,610e6453d7702c7894acf66d,610e6453d7702c7894acf66d,17,roll,critical,D,50,roll40.jpg,roll60.jpg,high,NULL
1687287394,09abb57f801d5a93b87db3bcaa409031,PennController,20,0,experiment,NULL,Canvas,canvas6,Print,NA,1687287282577,610e6453d7702c7894acf66d,610e6453d7702c7894acf66d,17,roll,critical,D,50,roll40.jpg,roll60.jpg,high,NULL
1687287394,09abb57f801d5a93b87db3bcaa409031,PennController,20,0,experiment,NULL,Video,progression,buffer,0.017808,1687287279428,610e6453d7702c7894acf66d,610e6453d7702c7894acf66d,17,roll,critical,D,50,roll40.jpg,roll60.jpg,high,NULL
1687287394,09abb57f801d5a93b87db3bcaa409031,PennController,20,0,experiment,NULL,Selector,choice,Selection,option1,1687287284309,610e6453d7702c7894acf66d,610e6453d7702c7894acf66d,17,roll,critical,D,50,roll40.jpg,roll60.jpg,high,option2;option1
1687287394,09abb57f801d5a93b87db3bcaa409031,PennController,20,0,experiment,NULL,PennController,19,_Trial_,End,1687287284310,610e6453d7702c7894acf66d,610e6453d7702c7894acf66d,17,roll,critical,D,50,roll40.jpg,roll60.jpg,high,NULL
1687287394,09abb57f801d5a93b87db3bcaa409031,PennController,27,0,experiment,NULL,PennController,26,_Trial_,Start,1687287284313,610e6453d7702c7894acf66d,610e6453d7702c7894acf66d,24,match,filler,D,75,match65.jpg,match85.jpg,GoalA,NULL
1687287394,09abb57f801d5a93b87db3bcaa409031,PennController,27,0,experiment,NULL,PennController,26,_Header_,Start,1687287284313,610e6453d7702c7894acf66d,610e6453d7702c7894acf66d,24,match,filler,D,75,match65.jpg,match85.jpg,GoalA,NULL
1687287394,09abb57f801d5a93b87db3bcaa409031,PennController,27,0,experiment,NULL,PennController,26,_Header_,End,1687287284313,610e6453d7702c7894acf66d,610e6453d7702c7894acf66d,24,match,filler,D,75,match65.jpg,match85.jpg,GoalA,NULL
1687287394,09abb57f801d5a93b87db3bcaa409031,PennController,27,0,experiment,NULL,Canvas,canvas6,Print,NA,1687287292011,610e6453d7702c7894acf66d,610e6453d7702c7894acf66d,24,match,filler,D,75,match65.jpg,match85.jpg,GoalA,NULL
1687287394,09abb57f801d5a93b87db3bcaa409031,PennController,27,0,experiment,NULL,Video,progression,buffer,0.007087,1687287287849,610e6453d7702c7894acf66d,610e6453d7702c7894acf66d,24,match,filler,D,75,match65.jpg,match85.jpg,GoalA,NULL
1687287394,09abb57f801d5a93b87db3bcaa409031,PennController,27,0,experiment,NULL,Selector,choice,Selection,option1,1687287296801,610e6453d7702c7894acf66d,610e6453d7702c7894acf66d,24,match,filler,D,75,match65.jpg,match85.jpg,GoalA,option1;option2
1687287394,09abb57f801d5a93b87db3bcaa409031,PennController,27,0,experiment,NULL,PennController,26,_Trial_,End,1687287296803,610e6453d7702c7894acf66d,610e6453d7702c7894acf66d,24,match,filler,D,75,match65.jpg,match85.jpg,GoalA,NULL
1687287394,09abb57f801d5a93b87db3bcaa409031,PennController,4,0,experiment,NULL,PennController,3,_Trial_,Start,1687287296805,610e6453d7702c7894acf66d,610e6453d7702c7894acf66d,1,vase,critical,D,25,vase15.jpg,vase35.jpg,high,NULL
1687287394,09abb57f801d5a93b87db3bcaa409031,PennController,4,0,experiment,NULL,PennController,3,_Header_,Start,1687287296805,610e6453d7702c7894acf66d,610e6453d7702c7894acf66d,1,vase,critical,D,25,vase15.jpg,vase35.jpg,high,NULL
1687287394,09abb57f801d5a93b87db3bcaa409031,PennController,4,0,experiment,NULL,PennController,3,_Header_,End,1687287296805,610e6453d7702c7894acf66d,610e6453d7702c7894acf66d,1,vase,critical,D,25,vase15.jpg,vase35.jpg,high,NULL
1687287394,09abb57f801d5a93b87db3bcaa409031,PennController,4,0,experiment,NULL,Canvas,canvas6,Print,NA,1687287302531,610e6453d7702c7894acf66d,610e6453d7702c7894acf66d,1,vase,critical,D,25,vase15.jpg,vase35.jpg,high,NULL
1687287394,09abb57f801d5a93b87db3bcaa409031,PennController,4,0,experiment,NULL,Video,progression,buffer,0.021055,1687287300365,610e6453d7702c7894acf66d,610e6453d7702c7894acf66d,1,vase,critical,D,25,vase15.jpg,vase35.jpg,high,NULL
1687287394,09abb57f801d5a93b87db3bcaa409031,PennController,4,0,experiment,NULL,Selector,choice,Selection,option2,1687287307733,610e6453d7702c7894acf66d,610e6453d7702c7894acf66d,1,vase,critical,D,25,vase15.jpg,vase35.jpg,high,option2;option1
1687287394,09abb57f801d5a93b87db3bcaa409031,PennController,4,0,experiment,NULL,PennController,3,_Trial_,End,1687287307734,610e6453d7702c7894acf66d,610e6453d7702c7894acf66d,1,vase,critical,D,25,vase15.jpg,vase35.jpg,high,NULL
1687287394,09abb57f801d5a93b87db3bcaa409031,PennController,25,0,experiment,NULL,PennController,24,_Trial_,Start,1687287307736,610e6453d7702c7894acf66d,610e6453d7702c7894acf66d,22,wall,filler,D,25,wall15.jpg,wall35.jpg,GoalA,NULL
1687287394,09abb57f801d5a93b87db3bcaa409031,PennController,25,0,experiment,NULL,PennController,24,_Header_,Start,1687287307736,610e6453d7702c7894acf66d,610e6453d7702c7894acf66d,22,wall,filler,D,25,wall15.jpg,wall35.jpg,GoalA,NULL
1687287394,09abb57f801d5a93b87db3bcaa409031,PennController,25,0,experiment,NULL,PennController,24,_Header_,End,1687287307736,610e6453d7702c7894acf66d,610e6453d7702c7894acf66d,22,wall,filler,D,25,wall15.jpg,wall35.jpg,GoalA,NULL
1687287394,09abb57f801d5a93b87db3bcaa409031,PennController,25,0,experiment,NULL,Canvas,canvas6,Print,NA,1687287313433,610e6453d7702c7894acf66d,610e6453d7702c7894acf66d,22,wall,filler,D,25,wall15.jpg,wall35.jpg,GoalA,NULL
1687287394,09abb57f801d5a93b87db3bcaa409031,PennController,25,0,experiment,NULL,Video,progression,buffer,0.024053,1687287311301,610e6453d7702c7894acf66d,610e6453d7702c7894acf66d,22,wall,filler,D,25,wall15.jpg,wall35.jpg,GoalA,NULL
1687287394,09abb57f801d5a93b87db3bcaa409031,PennController,25,0,experiment,NULL,Selector,choice,Selection,option1,1687287316391,610e6453d7702c7894acf66d,610e6453d7702c7894acf66d,22,wall,filler,D,25,wall15.jpg,wall35.jpg,GoalA,option1;option2
1687287394,09abb57f801d5a93b87db3bcaa409031,PennController,25,0,experiment,NULL,PennController,24,_Trial_,End,1687287316393,610e6453d7702c7894acf66d,610e6453d7702c7894acf66d,22,wall,filler,D,25,wall15.jpg,wall35.jpg,GoalA,NULL
1687287394,09abb57f801d5a93b87db3bcaa409031,PennController,12,0,experiment,NULL,PennController,11,_Trial_,Start,1687287316395,610e6453d7702c7894acf66d,610e6453d7702c7894acf66d,9,cake,critical,D,75,cake66.jpg,cake84.jpg,high,NULL
1687287394,09abb57f801d5a93b87db3bcaa409031,PennController,12,0,experiment,NULL,PennController,11,_Header_,Start,1687287316395,610e6453d7702c7894acf66d,610e6453d7702c7894acf66d,9,cake,critical,D,75,cake66.jpg,cake84.jpg,high,NULL
1687287394,09abb57f801d5a93b87db3bcaa409031,PennController,12,0,experiment,NULL,PennController,11,_Header_,End,1687287316395,610e6453d7702c7894acf66d,610e6453d7702c7894acf66d,9,cake,critical,D,75,cake66.jpg,cake84.jpg,high,NULL
1687287394,09abb57f801d5a93b87db3bcaa409031,PennController,12,0,experiment,NULL,Canvas,canvas6,Print,NA,1687287326124,610e6453d7702c7894acf66d,610e6453d7702c7894acf66d,9,cake,critical,D,75,cake66.jpg,cake84.jpg,high,NULL
1687287394,09abb57f801d5a93b87db3bcaa409031,PennController,12,0,experiment,NULL,Video,progression,buffer,0.000203,1687287319951,610e6453d7702c7894acf66d,610e6453d7702c7894acf66d,9,cake,critical,D,75,cake66.jpg,cake84.jpg,high,NULL
1687287394,09abb57f801d5a93b87db3bcaa409031,PennController,12,0,experiment,NULL,Selector,choice,Selection,option2,1687287327626,610e6453d7702c7894acf66d,610e6453d7702c7894acf66d,9,cake,critical,D,75,cake66.jpg,cake84.jpg,high,option2;option1
1687287394,09abb57f801d5a93b87db3bcaa409031,PennController,12,0,experiment,NULL,PennController,11,_Trial_,End,1687287327627,610e6453d7702c7894acf66d,610e6453d7702c7894acf66d,9,cake,critical,D,75,cake66.jpg,cake84.jpg,high,NULL
1687287394,09abb57f801d5a93b87db3bcaa409031,PennController,21,0,experiment,NULL,PennController,20,_Trial_,Start,1687287327628,610e6453d7702c7894acf66d,610e6453d7702c7894acf66d,18,ball,critical,D,75,ball65.jpg,ball85.jpg,high,NULL
1687287394,09abb57f801d5a93b87db3bcaa409031,PennController,21,0,experiment,NULL,PennController,20,_Header_,Start,1687287327628,610e6453d7702c7894acf66d,610e6453d7702c7894acf66d,18,ball,critical,D,75,ball65.jpg,ball85.jpg,high,NULL
1687287394,09abb57f801d5a93b87db3bcaa409031,PennController,21,0,experiment,NULL,PennController,20,_Header_,End,1687287327629,610e6453d7702c7894acf66d,610e6453d7702c7894acf66d,18,ball,critical,D,75,ball65.jpg,ball85.jpg,high,NULL
1687287394,09abb57f801d5a93b87db3bcaa409031,PennController,21,0,experiment,NULL,Canvas,canvas6,Print,NA,1687287335314,610e6453d7702c7894acf66d,610e6453d7702c7894acf66d,18,ball,critical,D,75,ball65.jpg,ball85.jpg,high,NULL
1687287394,09abb57f801d5a93b87db3bcaa409031,PennController,21,0,experiment,NULL,Video,progression,buffer,0.012687,1687287331176,610e6453d7702c7894acf66d,610e6453d7702c7894acf66d,18,ball,critical,D,75,ball65.jpg,ball85.jpg,high,NULL
1687287394,09abb57f801d5a93b87db3bcaa409031,PennController,21,0,experiment,NULL,Selector,choice,Selection,option2,1687287337873,610e6453d7702c7894acf66d,610e6453d7702c7894acf66d,18,ball,critical,D,75,ball65.jpg,ball85.jpg,high,option1;option2
1687287394,09abb57f801d5a93b87db3bcaa409031,PennController,21,0,experiment,NULL,PennController,20,_Trial_,End,1687287337877,610e6453d7702c7894acf66d,610e6453d7702c7894acf66d,18,ball,critical,D,75,ball65.jpg,ball85.jpg,high,NULL
1687287394,09abb57f801d5a93b87db3bcaa409031,PennController,10,0,experiment,NULL,PennController,9,_Trial_,Start,1687287337879,610e6453d7702c7894acf66d,610e6453d7702c7894acf66d,7,stack,critical,D,25,stack15.jpg,stack35.jpg,high,NULL
1687287394,09abb57f801d5a93b87db3bcaa409031,PennController,10,0,experiment,NULL,PennController,9,_Header_,Start,1687287337879,610e6453d7702c7894acf66d,610e6453d7702c7894acf66d,7,stack,critical,D,25,stack15.jpg,stack35.jpg,high,NULL
1687287394,09abb57f801d5a93b87db3bcaa409031,PennController,10,0,experiment,NULL,PennController,9,_Header_,End,1687287337879,610e6453d7702c7894acf66d,610e6453d7702c7894acf66d,7,stack,critical,D,25,stack15.jpg,stack35.jpg,high,NULL
1687287394,09abb57f801d5a93b87db3bcaa409031,PennController,10,0,experiment,NULL,Canvas,canvas6,Print,NA,1687287343586,610e6453d7702c7894acf66d,610e6453d7702c7894acf66d,7,stack,critical,D,25,stack15.jpg,stack35.jpg,high,NULL
1687287394,09abb57f801d5a93b87db3bcaa409031,PennController,10,0,experiment,NULL,Video,progression,buffer,0.016085,1687287341430,610e6453d7702c7894acf66d,610e6453d7702c7894acf66d,7,stack,critical,D,25,stack15.jpg,stack35.jpg,high,NULL
1687287394,09abb57f801d5a93b87db3bcaa409031,PennController,10,0,experiment,NULL,Selector,choice,Selection,option2,1687287345307,610e6453d7702c7894acf66d,610e6453d7702c7894acf66d,7,stack,critical,D,25,stack15.jpg,stack35.jpg,high,option2;option1
1687287394,09abb57f801d5a93b87db3bcaa409031,PennController,10,0,experiment,NULL,PennController,9,_Trial_,End,1687287345309,610e6453d7702c7894acf66d,610e6453d7702c7894acf66d,7,stack,critical,D,25,stack15.jpg,stack35.jpg,high,NULL
1687287394,09abb57f801d5a93b87db3bcaa409031,PennController,30,0,experiment,NULL,PennController,29,_Trial_,Start,1687287345314,610e6453d7702c7894acf66d,610e6453d7702c7894acf66d,27,square,filler,D,75,square65.jpg,square85.jpg,GoalB,NULL
1687287394,09abb57f801d5a93b87db3bcaa409031,PennController,30,0,experiment,NULL,PennController,29,_Header_,Start,1687287345314,610e6453d7702c7894acf66d,610e6453d7702c7894acf66d,27,square,filler,D,75,square65.jpg,square85.jpg,GoalB,NULL
1687287394,09abb57f801d5a93b87db3bcaa409031,PennController,30,0,experiment,NULL,PennController,29,_Header_,End,1687287345314,610e6453d7702c7894acf66d,610e6453d7702c7894acf66d,27,square,filler,D,75,square65.jpg,square85.jpg,GoalB,NULL
1687287394,09abb57f801d5a93b87db3bcaa409031,PennController,30,0,experiment,NULL,Canvas,canvas6,Print,NA,1687287353008,610e6453d7702c7894acf66d,610e6453d7702c7894acf66d,27,square,filler,D,75,square65.jpg,square85.jpg,GoalB,NULL
1687287394,09abb57f801d5a93b87db3bcaa409031,PennController,30,0,experiment,NULL,Video,progression,buffer,0.021969,1687287348867,610e6453d7702c7894acf66d,610e6453d7702c7894acf66d,27,square,filler,D,75,square65.jpg,square85.jpg,GoalB,NULL
1687287394,09abb57f801d5a93b87db3bcaa409031,PennController,30,0,experiment,NULL,Selector,choice,Selection,option1,1687287360368,610e6453d7702c7894acf66d,610e6453d7702c7894acf66d,27,square,filler,D,75,square65.jpg,square85.jpg,GoalB,option1;option2
1687287394,09abb57f801d5a93b87db3bcaa409031,PennController,30,0,experiment,NULL,PennController,29,_Trial_,End,1687287360370,610e6453d7702c7894acf66d,610e6453d7702c7894acf66d,27,square,filler,D,75,square65.jpg,square85.jpg,GoalB,NULL
1687287394,09abb57f801d5a93b87db3bcaa409031,PennController,18,0,experiment,NULL,PennController,17,_Trial_,Start,1687287360371,610e6453d7702c7894acf66d,610e6453d7702c7894acf66d,15,zip,critical,D,75,zip65.jpg,zip85.jpg,high,NULL
1687287394,09abb57f801d5a93b87db3bcaa409031,PennController,18,0,experiment,NULL,PennController,17,_Header_,Start,1687287360371,610e6453d7702c7894acf66d,610e6453d7702c7894acf66d,15,zip,critical,D,75,zip65.jpg,zip85.jpg,high,NULL
1687287394,09abb57f801d5a93b87db3bcaa409031,PennController,18,0,experiment,NULL,PennController,17,_Header_,End,1687287360372,610e6453d7702c7894acf66d,610e6453d7702c7894acf66d,15,zip,critical,D,75,zip65.jpg,zip85.jpg,high,NULL
1687287394,09abb57f801d5a93b87db3bcaa409031,PennController,18,0,experiment,NULL,Canvas,canvas6,Print,NA,1687287367278,610e6453d7702c7894acf66d,610e6453d7702c7894acf66d,15,zip,critical,D,75,zip65.jpg,zip85.jpg,high,NULL
1687287394,09abb57f801d5a93b87db3bcaa409031,PennController,18,0,experiment,NULL,Video,progression,buffer,0.015267,1687287363924,610e6453d7702c7894acf66d,610e6453d7702c7894acf66d,15,zip,critical,D,75,zip65.jpg,zip85.jpg,high,NULL
1687287394,09abb57f801d5a93b87db3bcaa409031,PennController,18,0,experiment,NULL,Selector,choice,Selection,option1,1687287370585,610e6453d7702c7894acf66d,610e6453d7702c7894acf66d,15,zip,critical,D,75,zip65.jpg,zip85.jpg,high,option1;option2
1687287394,09abb57f801d5a93b87db3bcaa409031,PennController,18,0,experiment,NULL,PennController,17,_Trial_,End,1687287370587,610e6453d7702c7894acf66d,610e6453d7702c7894acf66d,15,zip,critical,D,75,zip65.jpg,zip85.jpg,high,NULL
1687287394,09abb57f801d5a93b87db3bcaa409031,PennController,14,0,experiment,NULL,PennController,13,_Trial_,Start,1687287370588,610e6453d7702c7894acf66d,610e6453d7702c7894acf66d,11,beads,critical,D,50,beads40.jpg,beads60.jpg,high,NULL
1687287394,09abb57f801d5a93b87db3bcaa409031,PennController,14,0,experiment,NULL,PennController,13,_Header_,Start,1687287370588,610e6453d7702c7894acf66d,610e6453d7702c7894acf66d,11,beads,critical,D,50,beads40.jpg,beads60.jpg,high,NULL
1687287394,09abb57f801d5a93b87db3bcaa409031,PennController,14,0,experiment,NULL,PennController,13,_Header_,End,1687287370588,610e6453d7702c7894acf66d,610e6453d7702c7894acf66d,11,beads,critical,D,50,beads40.jpg,beads60.jpg,high,NULL
1687287394,09abb57f801d5a93b87db3bcaa409031,PennController,14,0,experiment,NULL,Canvas,canvas6,Print,NA,1687287377273,610e6453d7702c7894acf66d,610e6453d7702c7894acf66d,11,beads,critical,D,50,beads40.jpg,beads60.jpg,high,NULL
1687287394,09abb57f801d5a93b87db3bcaa409031,PennController,14,0,experiment,NULL,Video,progression,buffer,0.014096,1687287374137,610e6453d7702c7894acf66d,610e6453d7702c7894acf66d,11,beads,critical,D,50,beads40.jpg,beads60.jpg,high,NULL
1687287394,09abb57f801d5a93b87db3bcaa409031,PennController,14,0,experiment,NULL,Selector,choice,Selection,option1,1687287381681,610e6453d7702c7894acf66d,610e6453d7702c7894acf66d,11,beads,critical,D,50,beads40.jpg,beads60.jpg,high,option1;option2
1687287394,09abb57f801d5a93b87db3bcaa409031,PennController,14,0,experiment,NULL,PennController,13,_Trial_,End,1687287381683,610e6453d7702c7894acf66d,610e6453d7702c7894acf66d,11,beads,critical,D,50,beads40.jpg,beads60.jpg,high,NULL
