#
# Results on Tuesday June 20 2023 18:53:44 UTC
# USER AGENT: Mozilla/5.0 (Windows NT 6.1; Win64; x64; rv:109.0) Gecko/20100101 Firefox/114.0
# Design number was non-random = 3
#
# Columns below this comment are as follows:
# 1. Results reception time.
# 2. MD5 hash of participant's IP address.
# 3. Controller name.
# 4. Order number of item.
# 5. Inner element number.
# 6. Label.
# 7. Latin Square Group.
# 8. PennElementType.
# 9. PennElementName.
# 10. Parameter.
# 11. Value.
# 12. EventTime.
# 13. PROLIFIC_ID.
# 14. Comments.
1687287224,f0ecef8ffd529eb53cb7a6cb68e75263,PennController,2,0,consent,NULL,PennController,0,_Trial_,Start,1687286919890,5fb570ad64809807fa926ccd,NULL
1687287224,f0ecef8ffd529eb53cb7a6cb68e75263,PennController,2,0,consent,NULL,PennController,0,_Header_,Start,1687286919890,5fb570ad64809807fa926ccd,NULL
1687287224,f0ecef8ffd529eb53cb7a6cb68e75263,PennController,2,0,consent,NULL,PennController,0,_Header_,End,1687286919890,5fb570ad64809807fa926ccd,NULL
1687287224,f0ecef8ffd529eb53cb7a6cb68e75263,PennController,2,0,consent,NULL,PennController,0,_Trial_,End,1687286924321,5fb570ad64809807fa926ccd,NULL
# Columns below this comment are as follows:
# 14. ID.
# 15. Comments.
1687287224,f0ecef8ffd529eb53cb7a6cb68e75263,PennController,3,0,intro,NULL,PennController,1,_Trial_,Start,1687286924331,5fb570ad64809807fa926ccd,5fb570ad64809807fa926ccd,NULL
1687287224,f0ecef8ffd529eb53cb7a6cb68e75263,PennController,3,0,intro,NULL,PennController,1,_Header_,Start,1687286924331,5fb570ad64809807fa926ccd,5fb570ad64809807fa926ccd,NULL
1687287224,f0ecef8ffd529eb53cb7a6cb68e75263,PennController,3,0,intro,NULL,PennController,1,_Header_,End,1687286924332,5fb570ad64809807fa926ccd,5fb570ad64809807fa926ccd,NULL
1687287224,f0ecef8ffd529eb53cb7a6cb68e75263,PennController,3,0,intro,NULL,PennController,1,_Trial_,End,1687286929627,5fb570ad64809807fa926ccd,5fb570ad64809807fa926ccd,NULL
# Columns below this comment are as follows:
# 15. item_number.
# 16. item.
# 17. type.
# 18. Group.
# 19. prog.
# 20. prev_image.
# 21. next_image.
# 22. height.
# 23. Comments.
1687287224,f0ecef8ffd529eb53cb7a6cb68e75263,PennController,26,0,experiment,NULL,PennController,25,_Trial_,Start,1687286929637,5fb570ad64809807fa926ccd,5fb570ad64809807fa926ccd,23,color,filler,D,50,color40.jpg,color60.jpg,GoalB,NULL
1687287224,f0ecef8ffd529eb53cb7a6cb68e75263,PennController,26,0,experiment,NULL,PennController,25,_Header_,Start,1687286929637,5fb570ad64809807fa926ccd,5fb570ad64809807fa926ccd,23,color,filler,D,50,color40.jpg,color60.jpg,GoalB,NULL
1687287224,f0ecef8ffd529eb53cb7a6cb68e75263,PennController,26,0,experiment,NULL,PennController,25,_Header_,End,1687286929637,5fb570ad64809807fa926ccd,5fb570ad64809807fa926ccd,23,color,filler,D,50,color40.jpg,color60.jpg,GoalB,NULL
1687287224,f0ecef8ffd529eb53cb7a6cb68e75263,PennController,26,0,experiment,NULL,Video,progression,buffer,0,1687286933237,5fb570ad64809807fa926ccd,5fb570ad64809807fa926ccd,23,color,filler,D,50,color40.jpg,color60.jpg,GoalB,NULL
1687287224,f0ecef8ffd529eb53cb7a6cb68e75263,PennController,26,0,experiment,NULL,Canvas,canvas6,Print,NA,1687286936542,5fb570ad64809807fa926ccd,5fb570ad64809807fa926ccd,23,color,filler,D,50,color40.jpg,color60.jpg,GoalB,NULL
1687287224,f0ecef8ffd529eb53cb7a6cb68e75263,PennController,26,0,experiment,NULL,Selector,choice,Selection,option1,1687286946193,5fb570ad64809807fa926ccd,5fb570ad64809807fa926ccd,23,color,filler,D,50,color40.jpg,color60.jpg,GoalB,option2;option1
1687287224,f0ecef8ffd529eb53cb7a6cb68e75263,PennController,26,0,experiment,NULL,PennController,25,_Trial_,End,1687286946203,5fb570ad64809807fa926ccd,5fb570ad64809807fa926ccd,23,color,filler,D,50,color40.jpg,color60.jpg,GoalB,NULL
1687287224,f0ecef8ffd529eb53cb7a6cb68e75263,PennController,11,0,experiment,NULL,PennController,10,_Trial_,Start,1687286946209,5fb570ad64809807fa926ccd,5fb570ad64809807fa926ccd,8,cucumber,critical,D,50,cucumber42.jpg,cucumber60.jpg,high,NULL
1687287224,f0ecef8ffd529eb53cb7a6cb68e75263,PennController,11,0,experiment,NULL,PennController,10,_Header_,Start,1687286946209,5fb570ad64809807fa926ccd,5fb570ad64809807fa926ccd,8,cucumber,critical,D,50,cucumber42.jpg,cucumber60.jpg,high,NULL
1687287224,f0ecef8ffd529eb53cb7a6cb68e75263,PennController,11,0,experiment,NULL,PennController,10,_Header_,End,1687286946209,5fb570ad64809807fa926ccd,5fb570ad64809807fa926ccd,8,cucumber,critical,D,50,cucumber42.jpg,cucumber60.jpg,high,NULL
1687287224,f0ecef8ffd529eb53cb7a6cb68e75263,PennController,11,0,experiment,NULL,Video,progression,buffer,0,1687286949792,5fb570ad64809807fa926ccd,5fb570ad64809807fa926ccd,8,cucumber,critical,D,50,cucumber42.jpg,cucumber60.jpg,high,NULL
1687287224,f0ecef8ffd529eb53cb7a6cb68e75263,PennController,11,0,experiment,NULL,Canvas,canvas6,Print,NA,1687286954501,5fb570ad64809807fa926ccd,5fb570ad64809807fa926ccd,8,cucumber,critical,D,50,cucumber42.jpg,cucumber60.jpg,high,NULL
1687287224,f0ecef8ffd529eb53cb7a6cb68e75263,PennController,11,0,experiment,NULL,Selector,choice,Selection,option1,1687286956497,5fb570ad64809807fa926ccd,5fb570ad64809807fa926ccd,8,cucumber,critical,D,50,cucumber42.jpg,cucumber60.jpg,high,option1;option2
1687287224,f0ecef8ffd529eb53cb7a6cb68e75263,PennController,11,0,experiment,NULL,PennController,10,_Trial_,End,1687286956506,5fb570ad64809807fa926ccd,5fb570ad64809807fa926ccd,8,cucumber,critical,D,50,cucumber42.jpg,cucumber60.jpg,high,NULL
1687287224,f0ecef8ffd529eb53cb7a6cb68e75263,PennController,30,0,experiment,NULL,PennController,29,_Trial_,Start,1687286956511,5fb570ad64809807fa926ccd,5fb570ad64809807fa926ccd,27,square,filler,D,75,square65.jpg,square85.jpg,GoalB,NULL
1687287224,f0ecef8ffd529eb53cb7a6cb68e75263,PennController,30,0,experiment,NULL,PennController,29,_Header_,Start,1687286956511,5fb570ad64809807fa926ccd,5fb570ad64809807fa926ccd,27,square,filler,D,75,square65.jpg,square85.jpg,GoalB,NULL
1687287224,f0ecef8ffd529eb53cb7a6cb68e75263,PennController,30,0,experiment,NULL,PennController,29,_Header_,End,1687286956511,5fb570ad64809807fa926ccd,5fb570ad64809807fa926ccd,27,square,filler,D,75,square65.jpg,square85.jpg,GoalB,NULL
1687287224,f0ecef8ffd529eb53cb7a6cb68e75263,PennController,30,0,experiment,NULL,Video,progression,buffer,0,1687286960081,5fb570ad64809807fa926ccd,5fb570ad64809807fa926ccd,27,square,filler,D,75,square65.jpg,square85.jpg,GoalB,NULL
1687287224,f0ecef8ffd529eb53cb7a6cb68e75263,PennController,30,0,experiment,NULL,Canvas,canvas6,Print,NA,1687286964384,5fb570ad64809807fa926ccd,5fb570ad64809807fa926ccd,27,square,filler,D,75,square65.jpg,square85.jpg,GoalB,NULL
1687287224,f0ecef8ffd529eb53cb7a6cb68e75263,PennController,30,0,experiment,NULL,Selector,choice,Selection,option1,1687286967009,5fb570ad64809807fa926ccd,5fb570ad64809807fa926ccd,27,square,filler,D,75,square65.jpg,square85.jpg,GoalB,option1;option2
1687287224,f0ecef8ffd529eb53cb7a6cb68e75263,PennController,30,0,experiment,NULL,PennController,29,_Trial_,End,1687286967018,5fb570ad64809807fa926ccd,5fb570ad64809807fa926ccd,27,square,filler,D,75,square65.jpg,square85.jpg,GoalB,NULL
1687287224,f0ecef8ffd529eb53cb7a6cb68e75263,PennController,10,0,experiment,NULL,PennController,9,_Trial_,Start,1687286967024,5fb570ad64809807fa926ccd,5fb570ad64809807fa926ccd,7,stack,critical,D,25,stack15.jpg,stack35.jpg,high,NULL
1687287224,f0ecef8ffd529eb53cb7a6cb68e75263,PennController,10,0,experiment,NULL,PennController,9,_Header_,Start,1687286967024,5fb570ad64809807fa926ccd,5fb570ad64809807fa926ccd,7,stack,critical,D,25,stack15.jpg,stack35.jpg,high,NULL
1687287224,f0ecef8ffd529eb53cb7a6cb68e75263,PennController,10,0,experiment,NULL,PennController,9,_Header_,End,1687286967025,5fb570ad64809807fa926ccd,5fb570ad64809807fa926ccd,7,stack,critical,D,25,stack15.jpg,stack35.jpg,high,NULL
1687287224,f0ecef8ffd529eb53cb7a6cb68e75263,PennController,10,0,experiment,NULL,Video,progression,buffer,0,1687286970595,5fb570ad64809807fa926ccd,5fb570ad64809807fa926ccd,7,stack,critical,D,25,stack15.jpg,stack35.jpg,high,NULL
1687287224,f0ecef8ffd529eb53cb7a6cb68e75263,PennController,10,0,experiment,NULL,Canvas,canvas6,Print,NA,1687286972883,5fb570ad64809807fa926ccd,5fb570ad64809807fa926ccd,7,stack,critical,D,25,stack15.jpg,stack35.jpg,high,NULL
1687287224,f0ecef8ffd529eb53cb7a6cb68e75263,PennController,10,0,experiment,NULL,Selector,choice,Selection,option1,1687286975689,5fb570ad64809807fa926ccd,5fb570ad64809807fa926ccd,7,stack,critical,D,25,stack15.jpg,stack35.jpg,high,option2;option1
1687287224,f0ecef8ffd529eb53cb7a6cb68e75263,PennController,10,0,experiment,NULL,PennController,9,_Trial_,End,1687286975696,5fb570ad64809807fa926ccd,5fb570ad64809807fa926ccd,7,stack,critical,D,25,stack15.jpg,stack35.jpg,high,NULL
1687287224,f0ecef8ffd529eb53cb7a6cb68e75263,PennController,28,0,experiment,NULL,PennController,27,_Trial_,Start,1687286975703,5fb570ad64809807fa926ccd,5fb570ad64809807fa926ccd,25,house,filler,D,25,house15.jpg,house35.jpg,GoalB,NULL
1687287224,f0ecef8ffd529eb53cb7a6cb68e75263,PennController,28,0,experiment,NULL,PennController,27,_Header_,Start,1687286975703,5fb570ad64809807fa926ccd,5fb570ad64809807fa926ccd,25,house,filler,D,25,house15.jpg,house35.jpg,GoalB,NULL
1687287224,f0ecef8ffd529eb53cb7a6cb68e75263,PennController,28,0,experiment,NULL,PennController,27,_Header_,End,1687286975703,5fb570ad64809807fa926ccd,5fb570ad64809807fa926ccd,25,house,filler,D,25,house15.jpg,house35.jpg,GoalB,NULL
1687287224,f0ecef8ffd529eb53cb7a6cb68e75263,PennController,28,0,experiment,NULL,Video,progression,buffer,0,1687286979277,5fb570ad64809807fa926ccd,5fb570ad64809807fa926ccd,25,house,filler,D,25,house15.jpg,house35.jpg,GoalB,NULL
1687287224,f0ecef8ffd529eb53cb7a6cb68e75263,PennController,28,0,experiment,NULL,Canvas,canvas6,Print,NA,1687286981560,5fb570ad64809807fa926ccd,5fb570ad64809807fa926ccd,25,house,filler,D,25,house15.jpg,house35.jpg,GoalB,NULL
1687287224,f0ecef8ffd529eb53cb7a6cb68e75263,PennController,28,0,experiment,NULL,Selector,choice,Selection,option2,1687286983753,5fb570ad64809807fa926ccd,5fb570ad64809807fa926ccd,25,house,filler,D,25,house15.jpg,house35.jpg,GoalB,option2;option1
1687287224,f0ecef8ffd529eb53cb7a6cb68e75263,PennController,28,0,experiment,NULL,PennController,27,_Trial_,End,1687286983759,5fb570ad64809807fa926ccd,5fb570ad64809807fa926ccd,25,house,filler,D,25,house15.jpg,house35.jpg,GoalB,NULL
1687287224,f0ecef8ffd529eb53cb7a6cb68e75263,PennController,31,0,experiment,NULL,PennController,30,_Trial_,Start,1687286983765,5fb570ad64809807fa926ccd,5fb570ad64809807fa926ccd,28,sort,filler,D,25,sort15.jpg,sort35.jpg,GoalA,NULL
1687287224,f0ecef8ffd529eb53cb7a6cb68e75263,PennController,31,0,experiment,NULL,PennController,30,_Header_,Start,1687286983765,5fb570ad64809807fa926ccd,5fb570ad64809807fa926ccd,28,sort,filler,D,25,sort15.jpg,sort35.jpg,GoalA,NULL
1687287224,f0ecef8ffd529eb53cb7a6cb68e75263,PennController,31,0,experiment,NULL,PennController,30,_Header_,End,1687286983765,5fb570ad64809807fa926ccd,5fb570ad64809807fa926ccd,28,sort,filler,D,25,sort15.jpg,sort35.jpg,GoalA,NULL
1687287224,f0ecef8ffd529eb53cb7a6cb68e75263,PennController,31,0,experiment,NULL,Video,progression,buffer,0,1687286987370,5fb570ad64809807fa926ccd,5fb570ad64809807fa926ccd,28,sort,filler,D,25,sort15.jpg,sort35.jpg,GoalA,NULL
1687287224,f0ecef8ffd529eb53cb7a6cb68e75263,PennController,31,0,experiment,NULL,Canvas,canvas6,Print,NA,1687286989660,5fb570ad64809807fa926ccd,5fb570ad64809807fa926ccd,28,sort,filler,D,25,sort15.jpg,sort35.jpg,GoalA,NULL
1687287224,f0ecef8ffd529eb53cb7a6cb68e75263,PennController,31,0,experiment,NULL,Selector,choice,Selection,option1,1687286993610,5fb570ad64809807fa926ccd,5fb570ad64809807fa926ccd,28,sort,filler,D,25,sort15.jpg,sort35.jpg,GoalA,option1;option2
1687287224,f0ecef8ffd529eb53cb7a6cb68e75263,PennController,31,0,experiment,NULL,PennController,30,_Trial_,End,1687286993620,5fb570ad64809807fa926ccd,5fb570ad64809807fa926ccd,28,sort,filler,D,25,sort15.jpg,sort35.jpg,GoalA,NULL
1687287224,f0ecef8ffd529eb53cb7a6cb68e75263,PennController,15,0,experiment,NULL,PennController,14,_Trial_,Start,1687286993631,5fb570ad64809807fa926ccd,5fb570ad64809807fa926ccd,12,erase,critical,D,75,erase66.jpg,erase84.jpg,high,NULL
1687287224,f0ecef8ffd529eb53cb7a6cb68e75263,PennController,15,0,experiment,NULL,PennController,14,_Header_,Start,1687286993631,5fb570ad64809807fa926ccd,5fb570ad64809807fa926ccd,12,erase,critical,D,75,erase66.jpg,erase84.jpg,high,NULL
1687287224,f0ecef8ffd529eb53cb7a6cb68e75263,PennController,15,0,experiment,NULL,PennController,14,_Header_,End,1687286993632,5fb570ad64809807fa926ccd,5fb570ad64809807fa926ccd,12,erase,critical,D,75,erase66.jpg,erase84.jpg,high,NULL
1687287224,f0ecef8ffd529eb53cb7a6cb68e75263,PennController,15,0,experiment,NULL,Video,progression,buffer,0,1687286997217,5fb570ad64809807fa926ccd,5fb570ad64809807fa926ccd,12,erase,critical,D,75,erase66.jpg,erase84.jpg,high,NULL
1687287224,f0ecef8ffd529eb53cb7a6cb68e75263,PennController,15,0,experiment,NULL,Canvas,canvas6,Print,NA,1687287003509,5fb570ad64809807fa926ccd,5fb570ad64809807fa926ccd,12,erase,critical,D,75,erase66.jpg,erase84.jpg,high,NULL
1687287224,f0ecef8ffd529eb53cb7a6cb68e75263,PennController,15,0,experiment,NULL,Selector,choice,Selection,option2,1687287005456,5fb570ad64809807fa926ccd,5fb570ad64809807fa926ccd,12,erase,critical,D,75,erase66.jpg,erase84.jpg,high,option1;option2
1687287224,f0ecef8ffd529eb53cb7a6cb68e75263,PennController,15,0,experiment,NULL,PennController,14,_Trial_,End,1687287005464,5fb570ad64809807fa926ccd,5fb570ad64809807fa926ccd,12,erase,critical,D,75,erase66.jpg,erase84.jpg,high,NULL
1687287224,f0ecef8ffd529eb53cb7a6cb68e75263,PennController,29,0,experiment,NULL,PennController,28,_Trial_,Start,1687287005470,5fb570ad64809807fa926ccd,5fb570ad64809807fa926ccd,26,sandwich,filler,D,50,sandwich40.jpg,sandwich60.jpg,GoalA,NULL
1687287224,f0ecef8ffd529eb53cb7a6cb68e75263,PennController,29,0,experiment,NULL,PennController,28,_Header_,Start,1687287005470,5fb570ad64809807fa926ccd,5fb570ad64809807fa926ccd,26,sandwich,filler,D,50,sandwich40.jpg,sandwich60.jpg,GoalA,NULL
1687287224,f0ecef8ffd529eb53cb7a6cb68e75263,PennController,29,0,experiment,NULL,PennController,28,_Header_,End,1687287005471,5fb570ad64809807fa926ccd,5fb570ad64809807fa926ccd,26,sandwich,filler,D,50,sandwich40.jpg,sandwich60.jpg,GoalA,NULL
1687287224,f0ecef8ffd529eb53cb7a6cb68e75263,PennController,29,0,experiment,NULL,Video,progression,buffer,0,1687287009057,5fb570ad64809807fa926ccd,5fb570ad64809807fa926ccd,26,sandwich,filler,D,50,sandwich40.jpg,sandwich60.jpg,GoalA,NULL
1687287224,f0ecef8ffd529eb53cb7a6cb68e75263,PennController,29,0,experiment,NULL,Canvas,canvas6,Print,NA,1687287012343,5fb570ad64809807fa926ccd,5fb570ad64809807fa926ccd,26,sandwich,filler,D,50,sandwich40.jpg,sandwich60.jpg,GoalA,NULL
1687287224,f0ecef8ffd529eb53cb7a6cb68e75263,PennController,29,0,experiment,NULL,Selector,choice,Selection,option1,1687287014000,5fb570ad64809807fa926ccd,5fb570ad64809807fa926ccd,26,sandwich,filler,D,50,sandwich40.jpg,sandwich60.jpg,GoalA,option2;option1
1687287224,f0ecef8ffd529eb53cb7a6cb68e75263,PennController,29,0,experiment,NULL,PennController,28,_Trial_,End,1687287014008,5fb570ad64809807fa926ccd,5fb570ad64809807fa926ccd,26,sandwich,filler,D,50,sandwich40.jpg,sandwich60.jpg,GoalA,NULL
1687287224,f0ecef8ffd529eb53cb7a6cb68e75263,PennController,23,0,experiment,NULL,PennController,22,_Trial_,Start,1687287014013,5fb570ad64809807fa926ccd,5fb570ad64809807fa926ccd,20,cat,filler,D,50,cat40.jpg,cat60.jpg,GoalA,NULL
1687287224,f0ecef8ffd529eb53cb7a6cb68e75263,PennController,23,0,experiment,NULL,PennController,22,_Header_,Start,1687287014013,5fb570ad64809807fa926ccd,5fb570ad64809807fa926ccd,20,cat,filler,D,50,cat40.jpg,cat60.jpg,GoalA,NULL
1687287224,f0ecef8ffd529eb53cb7a6cb68e75263,PennController,23,0,experiment,NULL,PennController,22,_Header_,End,1687287014014,5fb570ad64809807fa926ccd,5fb570ad64809807fa926ccd,20,cat,filler,D,50,cat40.jpg,cat60.jpg,GoalA,NULL
1687287224,f0ecef8ffd529eb53cb7a6cb68e75263,PennController,23,0,experiment,NULL,Video,progression,buffer,0,1687287017593,5fb570ad64809807fa926ccd,5fb570ad64809807fa926ccd,20,cat,filler,D,50,cat40.jpg,cat60.jpg,GoalA,NULL
1687287224,f0ecef8ffd529eb53cb7a6cb68e75263,PennController,23,0,experiment,NULL,Canvas,canvas6,Print,NA,1687287020889,5fb570ad64809807fa926ccd,5fb570ad64809807fa926ccd,20,cat,filler,D,50,cat40.jpg,cat60.jpg,GoalA,NULL
1687287224,f0ecef8ffd529eb53cb7a6cb68e75263,PennController,23,0,experiment,NULL,Selector,choice,Selection,option2,1687287022447,5fb570ad64809807fa926ccd,5fb570ad64809807fa926ccd,20,cat,filler,D,50,cat40.jpg,cat60.jpg,GoalA,option1;option2
1687287224,f0ecef8ffd529eb53cb7a6cb68e75263,PennController,23,0,experiment,NULL,PennController,22,_Trial_,End,1687287022454,5fb570ad64809807fa926ccd,5fb570ad64809807fa926ccd,20,cat,filler,D,50,cat40.jpg,cat60.jpg,GoalA,NULL
1687287224,f0ecef8ffd529eb53cb7a6cb68e75263,PennController,24,0,experiment,NULL,PennController,23,_Trial_,Start,1687287022459,5fb570ad64809807fa926ccd,5fb570ad64809807fa926ccd,21,visit,filler,D,75,visit65.jpg,visit85.jpg,GoalB,NULL
1687287224,f0ecef8ffd529eb53cb7a6cb68e75263,PennController,24,0,experiment,NULL,PennController,23,_Header_,Start,1687287022459,5fb570ad64809807fa926ccd,5fb570ad64809807fa926ccd,21,visit,filler,D,75,visit65.jpg,visit85.jpg,GoalB,NULL
1687287224,f0ecef8ffd529eb53cb7a6cb68e75263,PennController,24,0,experiment,NULL,PennController,23,_Header_,End,1687287022460,5fb570ad64809807fa926ccd,5fb570ad64809807fa926ccd,21,visit,filler,D,75,visit65.jpg,visit85.jpg,GoalB,NULL
1687287224,f0ecef8ffd529eb53cb7a6cb68e75263,PennController,24,0,experiment,NULL,Video,progression,buffer,0,1687287026048,5fb570ad64809807fa926ccd,5fb570ad64809807fa926ccd,21,visit,filler,D,75,visit65.jpg,visit85.jpg,GoalB,NULL
1687287224,f0ecef8ffd529eb53cb7a6cb68e75263,PennController,24,0,experiment,NULL,Canvas,canvas6,Print,NA,1687287030353,5fb570ad64809807fa926ccd,5fb570ad64809807fa926ccd,21,visit,filler,D,75,visit65.jpg,visit85.jpg,GoalB,NULL
1687287224,f0ecef8ffd529eb53cb7a6cb68e75263,PennController,24,0,experiment,NULL,Selector,choice,Selection,option1,1687287033334,5fb570ad64809807fa926ccd,5fb570ad64809807fa926ccd,21,visit,filler,D,75,visit65.jpg,visit85.jpg,GoalB,option1;option2
1687287224,f0ecef8ffd529eb53cb7a6cb68e75263,PennController,24,0,experiment,NULL,PennController,23,_Trial_,End,1687287033342,5fb570ad64809807fa926ccd,5fb570ad64809807fa926ccd,21,visit,filler,D,75,visit65.jpg,visit85.jpg,GoalB,NULL
1687287224,f0ecef8ffd529eb53cb7a6cb68e75263,PennController,4,0,experiment,NULL,PennController,3,_Trial_,Start,1687287033348,5fb570ad64809807fa926ccd,5fb570ad64809807fa926ccd,1,vase,critical,D,25,vase15.jpg,vase35.jpg,high,NULL
1687287224,f0ecef8ffd529eb53cb7a6cb68e75263,PennController,4,0,experiment,NULL,PennController,3,_Header_,Start,1687287033348,5fb570ad64809807fa926ccd,5fb570ad64809807fa926ccd,1,vase,critical,D,25,vase15.jpg,vase35.jpg,high,NULL
1687287224,f0ecef8ffd529eb53cb7a6cb68e75263,PennController,4,0,experiment,NULL,PennController,3,_Header_,End,1687287033348,5fb570ad64809807fa926ccd,5fb570ad64809807fa926ccd,1,vase,critical,D,25,vase15.jpg,vase35.jpg,high,NULL
1687287224,f0ecef8ffd529eb53cb7a6cb68e75263,PennController,4,0,experiment,NULL,Video,progression,buffer,0,1687287036920,5fb570ad64809807fa926ccd,5fb570ad64809807fa926ccd,1,vase,critical,D,25,vase15.jpg,vase35.jpg,high,NULL
1687287224,f0ecef8ffd529eb53cb7a6cb68e75263,PennController,4,0,experiment,NULL,Canvas,canvas6,Print,NA,1687287039205,5fb570ad64809807fa926ccd,5fb570ad64809807fa926ccd,1,vase,critical,D,25,vase15.jpg,vase35.jpg,high,NULL
1687287224,f0ecef8ffd529eb53cb7a6cb68e75263,PennController,4,0,experiment,NULL,Selector,choice,Selection,option2,1687287042072,5fb570ad64809807fa926ccd,5fb570ad64809807fa926ccd,1,vase,critical,D,25,vase15.jpg,vase35.jpg,high,option2;option1
1687287224,f0ecef8ffd529eb53cb7a6cb68e75263,PennController,4,0,experiment,NULL,PennController,3,_Trial_,End,1687287042080,5fb570ad64809807fa926ccd,5fb570ad64809807fa926ccd,1,vase,critical,D,25,vase15.jpg,vase35.jpg,high,NULL
1687287224,f0ecef8ffd529eb53cb7a6cb68e75263,PennController,12,0,experiment,NULL,PennController,11,_Trial_,Start,1687287042084,5fb570ad64809807fa926ccd,5fb570ad64809807fa926ccd,9,cake,critical,D,75,cake66.jpg,cake84.jpg,high,NULL
1687287224,f0ecef8ffd529eb53cb7a6cb68e75263,PennController,12,0,experiment,NULL,PennController,11,_Header_,Start,1687287042084,5fb570ad64809807fa926ccd,5fb570ad64809807fa926ccd,9,cake,critical,D,75,cake66.jpg,cake84.jpg,high,NULL
1687287224,f0ecef8ffd529eb53cb7a6cb68e75263,PennController,12,0,experiment,NULL,PennController,11,_Header_,End,1687287042085,5fb570ad64809807fa926ccd,5fb570ad64809807fa926ccd,9,cake,critical,D,75,cake66.jpg,cake84.jpg,high,NULL
1687287224,f0ecef8ffd529eb53cb7a6cb68e75263,PennController,12,0,experiment,NULL,Video,progression,buffer,0,1687287045664,5fb570ad64809807fa926ccd,5fb570ad64809807fa926ccd,9,cake,critical,D,75,cake66.jpg,cake84.jpg,high,NULL
1687287224,f0ecef8ffd529eb53cb7a6cb68e75263,PennController,12,0,experiment,NULL,Canvas,canvas6,Print,NA,1687287052003,5fb570ad64809807fa926ccd,5fb570ad64809807fa926ccd,9,cake,critical,D,75,cake66.jpg,cake84.jpg,high,NULL
1687287224,f0ecef8ffd529eb53cb7a6cb68e75263,PennController,12,0,experiment,NULL,Selector,choice,Selection,option2,1687287053734,5fb570ad64809807fa926ccd,5fb570ad64809807fa926ccd,9,cake,critical,D,75,cake66.jpg,cake84.jpg,high,option1;option2
1687287224,f0ecef8ffd529eb53cb7a6cb68e75263,PennController,12,0,experiment,NULL,PennController,11,_Trial_,End,1687287053743,5fb570ad64809807fa926ccd,5fb570ad64809807fa926ccd,9,cake,critical,D,75,cake66.jpg,cake84.jpg,high,NULL
1687287224,f0ecef8ffd529eb53cb7a6cb68e75263,PennController,8,0,experiment,NULL,PennController,7,_Trial_,Start,1687287053757,5fb570ad64809807fa926ccd,5fb570ad64809807fa926ccd,5,book,critical,D,50,book40.jpg,book60.jpg,high,NULL
1687287224,f0ecef8ffd529eb53cb7a6cb68e75263,PennController,8,0,experiment,NULL,PennController,7,_Header_,Start,1687287053757,5fb570ad64809807fa926ccd,5fb570ad64809807fa926ccd,5,book,critical,D,50,book40.jpg,book60.jpg,high,NULL
1687287224,f0ecef8ffd529eb53cb7a6cb68e75263,PennController,8,0,experiment,NULL,PennController,7,_Header_,End,1687287053757,5fb570ad64809807fa926ccd,5fb570ad64809807fa926ccd,5,book,critical,D,50,book40.jpg,book60.jpg,high,NULL
1687287224,f0ecef8ffd529eb53cb7a6cb68e75263,PennController,8,0,experiment,NULL,Video,progression,buffer,0,1687287057342,5fb570ad64809807fa926ccd,5fb570ad64809807fa926ccd,5,book,critical,D,50,book40.jpg,book60.jpg,high,NULL
1687287224,f0ecef8ffd529eb53cb7a6cb68e75263,PennController,8,0,experiment,NULL,Canvas,canvas6,Print,NA,1687287060630,5fb570ad64809807fa926ccd,5fb570ad64809807fa926ccd,5,book,critical,D,50,book40.jpg,book60.jpg,high,NULL
1687287224,f0ecef8ffd529eb53cb7a6cb68e75263,PennController,8,0,experiment,NULL,Selector,choice,Selection,option1,1687287063957,5fb570ad64809807fa926ccd,5fb570ad64809807fa926ccd,5,book,critical,D,50,book40.jpg,book60.jpg,high,option1;option2
1687287224,f0ecef8ffd529eb53cb7a6cb68e75263,PennController,8,0,experiment,NULL,PennController,7,_Trial_,End,1687287063965,5fb570ad64809807fa926ccd,5fb570ad64809807fa926ccd,5,book,critical,D,50,book40.jpg,book60.jpg,high,NULL
1687287224,f0ecef8ffd529eb53cb7a6cb68e75263,PennController,6,0,experiment,NULL,PennController,5,_Trial_,Start,1687287063972,5fb570ad64809807fa926ccd,5fb570ad64809807fa926ccd,3,clean,critical,D,75,clean65.jpg,clean85.jpg,high,NULL
1687287224,f0ecef8ffd529eb53cb7a6cb68e75263,PennController,6,0,experiment,NULL,PennController,5,_Header_,Start,1687287063972,5fb570ad64809807fa926ccd,5fb570ad64809807fa926ccd,3,clean,critical,D,75,clean65.jpg,clean85.jpg,high,NULL
1687287224,f0ecef8ffd529eb53cb7a6cb68e75263,PennController,6,0,experiment,NULL,PennController,5,_Header_,End,1687287063972,5fb570ad64809807fa926ccd,5fb570ad64809807fa926ccd,3,clean,critical,D,75,clean65.jpg,clean85.jpg,high,NULL
1687287224,f0ecef8ffd529eb53cb7a6cb68e75263,PennController,6,0,experiment,NULL,Video,progression,buffer,0,1687287067570,5fb570ad64809807fa926ccd,5fb570ad64809807fa926ccd,3,clean,critical,D,75,clean65.jpg,clean85.jpg,high,NULL
1687287224,f0ecef8ffd529eb53cb7a6cb68e75263,PennController,6,0,experiment,NULL,Canvas,canvas6,Print,NA,1687287071866,5fb570ad64809807fa926ccd,5fb570ad64809807fa926ccd,3,clean,critical,D,75,clean65.jpg,clean85.jpg,high,NULL
1687287224,f0ecef8ffd529eb53cb7a6cb68e75263,PennController,6,0,experiment,NULL,Selector,choice,Selection,option1,1687287074588,5fb570ad64809807fa926ccd,5fb570ad64809807fa926ccd,3,clean,critical,D,75,clean65.jpg,clean85.jpg,high,option1;option2
1687287224,f0ecef8ffd529eb53cb7a6cb68e75263,PennController,6,0,experiment,NULL,PennController,5,_Trial_,End,1687287074594,5fb570ad64809807fa926ccd,5fb570ad64809807fa926ccd,3,clean,critical,D,75,clean65.jpg,clean85.jpg,high,NULL
1687287224,f0ecef8ffd529eb53cb7a6cb68e75263,PennController,25,0,experiment,NULL,PennController,24,_Trial_,Start,1687287074598,5fb570ad64809807fa926ccd,5fb570ad64809807fa926ccd,22,wall,filler,D,25,wall15.jpg,wall35.jpg,GoalA,NULL
1687287224,f0ecef8ffd529eb53cb7a6cb68e75263,PennController,25,0,experiment,NULL,PennController,24,_Header_,Start,1687287074598,5fb570ad64809807fa926ccd,5fb570ad64809807fa926ccd,22,wall,filler,D,25,wall15.jpg,wall35.jpg,GoalA,NULL
1687287224,f0ecef8ffd529eb53cb7a6cb68e75263,PennController,25,0,experiment,NULL,PennController,24,_Header_,End,1687287074599,5fb570ad64809807fa926ccd,5fb570ad64809807fa926ccd,22,wall,filler,D,25,wall15.jpg,wall35.jpg,GoalA,NULL
1687287224,f0ecef8ffd529eb53cb7a6cb68e75263,PennController,25,0,experiment,NULL,Video,progression,buffer,0,1687287078165,5fb570ad64809807fa926ccd,5fb570ad64809807fa926ccd,22,wall,filler,D,25,wall15.jpg,wall35.jpg,GoalA,NULL
1687287224,f0ecef8ffd529eb53cb7a6cb68e75263,PennController,25,0,experiment,NULL,Canvas,canvas6,Print,NA,1687287080456,5fb570ad64809807fa926ccd,5fb570ad64809807fa926ccd,22,wall,filler,D,25,wall15.jpg,wall35.jpg,GoalA,NULL
1687287224,f0ecef8ffd529eb53cb7a6cb68e75263,PennController,25,0,experiment,NULL,Selector,choice,Selection,option2,1687287082837,5fb570ad64809807fa926ccd,5fb570ad64809807fa926ccd,22,wall,filler,D,25,wall15.jpg,wall35.jpg,GoalA,option1;option2
1687287224,f0ecef8ffd529eb53cb7a6cb68e75263,PennController,25,0,experiment,NULL,PennController,24,_Trial_,End,1687287082844,5fb570ad64809807fa926ccd,5fb570ad64809807fa926ccd,22,wall,filler,D,25,wall15.jpg,wall35.jpg,GoalA,NULL
1687287224,f0ecef8ffd529eb53cb7a6cb68e75263,PennController,27,0,experiment,NULL,PennController,26,_Trial_,Start,1687287082850,5fb570ad64809807fa926ccd,5fb570ad64809807fa926ccd,24,match,filler,D,75,match65.jpg,match85.jpg,GoalA,NULL
1687287224,f0ecef8ffd529eb53cb7a6cb68e75263,PennController,27,0,experiment,NULL,PennController,26,_Header_,Start,1687287082850,5fb570ad64809807fa926ccd,5fb570ad64809807fa926ccd,24,match,filler,D,75,match65.jpg,match85.jpg,GoalA,NULL
1687287224,f0ecef8ffd529eb53cb7a6cb68e75263,PennController,27,0,experiment,NULL,PennController,26,_Header_,End,1687287082851,5fb570ad64809807fa926ccd,5fb570ad64809807fa926ccd,24,match,filler,D,75,match65.jpg,match85.jpg,GoalA,NULL
1687287224,f0ecef8ffd529eb53cb7a6cb68e75263,PennController,27,0,experiment,NULL,Video,progression,buffer,0,1687287086431,5fb570ad64809807fa926ccd,5fb570ad64809807fa926ccd,24,match,filler,D,75,match65.jpg,match85.jpg,GoalA,NULL
1687287224,f0ecef8ffd529eb53cb7a6cb68e75263,PennController,27,0,experiment,NULL,Canvas,canvas6,Print,NA,1687287090748,5fb570ad64809807fa926ccd,5fb570ad64809807fa926ccd,24,match,filler,D,75,match65.jpg,match85.jpg,GoalA,NULL
1687287224,f0ecef8ffd529eb53cb7a6cb68e75263,PennController,27,0,experiment,NULL,Selector,choice,Selection,option1,1687287094389,5fb570ad64809807fa926ccd,5fb570ad64809807fa926ccd,24,match,filler,D,75,match65.jpg,match85.jpg,GoalA,option1;option2
1687287224,f0ecef8ffd529eb53cb7a6cb68e75263,PennController,27,0,experiment,NULL,PennController,26,_Trial_,End,1687287094399,5fb570ad64809807fa926ccd,5fb570ad64809807fa926ccd,24,match,filler,D,75,match65.jpg,match85.jpg,GoalA,NULL
1687287224,f0ecef8ffd529eb53cb7a6cb68e75263,PennController,5,0,experiment,NULL,PennController,4,_Trial_,Start,1687287094404,5fb570ad64809807fa926ccd,5fb570ad64809807fa926ccd,2,door,critical,D,50,door40.jpg,door60.jpg,high,NULL
1687287224,f0ecef8ffd529eb53cb7a6cb68e75263,PennController,5,0,experiment,NULL,PennController,4,_Header_,Start,1687287094404,5fb570ad64809807fa926ccd,5fb570ad64809807fa926ccd,2,door,critical,D,50,door40.jpg,door60.jpg,high,NULL
1687287224,f0ecef8ffd529eb53cb7a6cb68e75263,PennController,5,0,experiment,NULL,PennController,4,_Header_,End,1687287094404,5fb570ad64809807fa926ccd,5fb570ad64809807fa926ccd,2,door,critical,D,50,door40.jpg,door60.jpg,high,NULL
1687287224,f0ecef8ffd529eb53cb7a6cb68e75263,PennController,5,0,experiment,NULL,Video,progression,buffer,0,1687287097981,5fb570ad64809807fa926ccd,5fb570ad64809807fa926ccd,2,door,critical,D,50,door40.jpg,door60.jpg,high,NULL
1687287224,f0ecef8ffd529eb53cb7a6cb68e75263,PennController,5,0,experiment,NULL,Canvas,canvas6,Print,NA,1687287101283,5fb570ad64809807fa926ccd,5fb570ad64809807fa926ccd,2,door,critical,D,50,door40.jpg,door60.jpg,high,NULL
1687287224,f0ecef8ffd529eb53cb7a6cb68e75263,PennController,5,0,experiment,NULL,Selector,choice,Selection,option1,1687287103325,5fb570ad64809807fa926ccd,5fb570ad64809807fa926ccd,2,door,critical,D,50,door40.jpg,door60.jpg,high,option1;option2
1687287224,f0ecef8ffd529eb53cb7a6cb68e75263,PennController,5,0,experiment,NULL,PennController,4,_Trial_,End,1687287103333,5fb570ad64809807fa926ccd,5fb570ad64809807fa926ccd,2,door,critical,D,50,door40.jpg,door60.jpg,high,NULL
1687287224,f0ecef8ffd529eb53cb7a6cb68e75263,PennController,7,0,experiment,NULL,PennController,6,_Trial_,Start,1687287103339,5fb570ad64809807fa926ccd,5fb570ad64809807fa926ccd,4,candy,critical,D,25,candy15.jpg,candy35.jpg,high,NULL
1687287224,f0ecef8ffd529eb53cb7a6cb68e75263,PennController,7,0,experiment,NULL,PennController,6,_Header_,Start,1687287103339,5fb570ad64809807fa926ccd,5fb570ad64809807fa926ccd,4,candy,critical,D,25,candy15.jpg,candy35.jpg,high,NULL
1687287224,f0ecef8ffd529eb53cb7a6cb68e75263,PennController,7,0,experiment,NULL,PennController,6,_Header_,End,1687287103340,5fb570ad64809807fa926ccd,5fb570ad64809807fa926ccd,4,candy,critical,D,25,candy15.jpg,candy35.jpg,high,NULL
1687287224,f0ecef8ffd529eb53cb7a6cb68e75263,PennController,7,0,experiment,NULL,Video,progression,buffer,0,1687287106912,5fb570ad64809807fa926ccd,5fb570ad64809807fa926ccd,4,candy,critical,D,25,candy15.jpg,candy35.jpg,high,NULL
1687287224,f0ecef8ffd529eb53cb7a6cb68e75263,PennController,7,0,experiment,NULL,Canvas,canvas6,Print,NA,1687287109211,5fb570ad64809807fa926ccd,5fb570ad64809807fa926ccd,4,candy,critical,D,25,candy15.jpg,candy35.jpg,high,NULL
1687287224,f0ecef8ffd529eb53cb7a6cb68e75263,PennController,7,0,experiment,NULL,Selector,choice,Selection,option2,1687287111444,5fb570ad64809807fa926ccd,5fb570ad64809807fa926ccd,4,candy,critical,D,25,candy15.jpg,candy35.jpg,high,option2;option1
1687287224,f0ecef8ffd529eb53cb7a6cb68e75263,PennController,7,0,experiment,NULL,PennController,6,_Trial_,End,1687287111452,5fb570ad64809807fa926ccd,5fb570ad64809807fa926ccd,4,candy,critical,D,25,candy15.jpg,candy35.jpg,high,NULL
1687287224,f0ecef8ffd529eb53cb7a6cb68e75263,PennController,9,0,experiment,NULL,PennController,8,_Trial_,Start,1687287111458,5fb570ad64809807fa926ccd,5fb570ad64809807fa926ccd,6,flower,critical,D,75,flower65.jpg,flower85.jpg,high,NULL
1687287224,f0ecef8ffd529eb53cb7a6cb68e75263,PennController,9,0,experiment,NULL,PennController,8,_Header_,Start,1687287111458,5fb570ad64809807fa926ccd,5fb570ad64809807fa926ccd,6,flower,critical,D,75,flower65.jpg,flower85.jpg,high,NULL
1687287224,f0ecef8ffd529eb53cb7a6cb68e75263,PennController,9,0,experiment,NULL,PennController,8,_Header_,End,1687287111458,5fb570ad64809807fa926ccd,5fb570ad64809807fa926ccd,6,flower,critical,D,75,flower65.jpg,flower85.jpg,high,NULL
1687287224,f0ecef8ffd529eb53cb7a6cb68e75263,PennController,9,0,experiment,NULL,Video,progression,buffer,0,1687287115026,5fb570ad64809807fa926ccd,5fb570ad64809807fa926ccd,6,flower,critical,D,75,flower65.jpg,flower85.jpg,high,NULL
1687287224,f0ecef8ffd529eb53cb7a6cb68e75263,PennController,9,0,experiment,NULL,Canvas,canvas6,Print,NA,1687287119326,5fb570ad64809807fa926ccd,5fb570ad64809807fa926ccd,6,flower,critical,D,75,flower65.jpg,flower85.jpg,high,NULL
1687287224,f0ecef8ffd529eb53cb7a6cb68e75263,PennController,9,0,experiment,NULL,Selector,choice,Selection,option1,1687287121285,5fb570ad64809807fa926ccd,5fb570ad64809807fa926ccd,6,flower,critical,D,75,flower65.jpg,flower85.jpg,high,option1;option2
1687287224,f0ecef8ffd529eb53cb7a6cb68e75263,PennController,9,0,experiment,NULL,PennController,8,_Trial_,End,1687287121290,5fb570ad64809807fa926ccd,5fb570ad64809807fa926ccd,6,flower,critical,D,75,flower65.jpg,flower85.jpg,high,NULL
1687287224,f0ecef8ffd529eb53cb7a6cb68e75263,PennController,19,0,experiment,NULL,PennController,18,_Trial_,Start,1687287121296,5fb570ad64809807fa926ccd,5fb570ad64809807fa926ccd,16,blinds,critical,D,25,blinds15.jpg,blinds33.jpg,high,NULL
1687287224,f0ecef8ffd529eb53cb7a6cb68e75263,PennController,19,0,experiment,NULL,PennController,18,_Header_,Start,1687287121296,5fb570ad64809807fa926ccd,5fb570ad64809807fa926ccd,16,blinds,critical,D,25,blinds15.jpg,blinds33.jpg,high,NULL
1687287224,f0ecef8ffd529eb53cb7a6cb68e75263,PennController,19,0,experiment,NULL,PennController,18,_Header_,End,1687287121296,5fb570ad64809807fa926ccd,5fb570ad64809807fa926ccd,16,blinds,critical,D,25,blinds15.jpg,blinds33.jpg,high,NULL
1687287224,f0ecef8ffd529eb53cb7a6cb68e75263,PennController,19,0,experiment,NULL,Video,progression,buffer,0,1687287124888,5fb570ad64809807fa926ccd,5fb570ad64809807fa926ccd,16,blinds,critical,D,25,blinds15.jpg,blinds33.jpg,high,NULL
1687287224,f0ecef8ffd529eb53cb7a6cb68e75263,PennController,19,0,experiment,NULL,Canvas,canvas6,Print,NA,1687287127798,5fb570ad64809807fa926ccd,5fb570ad64809807fa926ccd,16,blinds,critical,D,25,blinds15.jpg,blinds33.jpg,high,NULL
1687287224,f0ecef8ffd529eb53cb7a6cb68e75263,PennController,19,0,experiment,NULL,Selector,choice,Selection,option2,1687287130332,5fb570ad64809807fa926ccd,5fb570ad64809807fa926ccd,16,blinds,critical,D,25,blinds15.jpg,blinds33.jpg,high,option2;option1
1687287224,f0ecef8ffd529eb53cb7a6cb68e75263,PennController,19,0,experiment,NULL,PennController,18,_Trial_,End,1687287130339,5fb570ad64809807fa926ccd,5fb570ad64809807fa926ccd,16,blinds,critical,D,25,blinds15.jpg,blinds33.jpg,high,NULL
1687287224,f0ecef8ffd529eb53cb7a6cb68e75263,PennController,22,0,experiment,NULL,PennController,21,_Trial_,Start,1687287130343,5fb570ad64809807fa926ccd,5fb570ad64809807fa926ccd,19,cup,filler,D,25,cup15.jpg,cup35.jpg,GoalB,NULL
1687287224,f0ecef8ffd529eb53cb7a6cb68e75263,PennController,22,0,experiment,NULL,PennController,21,_Header_,Start,1687287130343,5fb570ad64809807fa926ccd,5fb570ad64809807fa926ccd,19,cup,filler,D,25,cup15.jpg,cup35.jpg,GoalB,NULL
1687287224,f0ecef8ffd529eb53cb7a6cb68e75263,PennController,22,0,experiment,NULL,PennController,21,_Header_,End,1687287130344,5fb570ad64809807fa926ccd,5fb570ad64809807fa926ccd,19,cup,filler,D,25,cup15.jpg,cup35.jpg,GoalB,NULL
1687287224,f0ecef8ffd529eb53cb7a6cb68e75263,PennController,22,0,experiment,NULL,Video,progression,buffer,0,1687287133921,5fb570ad64809807fa926ccd,5fb570ad64809807fa926ccd,19,cup,filler,D,25,cup15.jpg,cup35.jpg,GoalB,NULL
1687287224,f0ecef8ffd529eb53cb7a6cb68e75263,PennController,22,0,experiment,NULL,Canvas,canvas6,Print,NA,1687287136251,5fb570ad64809807fa926ccd,5fb570ad64809807fa926ccd,19,cup,filler,D,25,cup15.jpg,cup35.jpg,GoalB,NULL
1687287224,f0ecef8ffd529eb53cb7a6cb68e75263,PennController,22,0,experiment,NULL,Selector,choice,Selection,option1,1687287138731,5fb570ad64809807fa926ccd,5fb570ad64809807fa926ccd,19,cup,filler,D,25,cup15.jpg,cup35.jpg,GoalB,option1;option2
1687287224,f0ecef8ffd529eb53cb7a6cb68e75263,PennController,22,0,experiment,NULL,PennController,21,_Trial_,End,1687287138739,5fb570ad64809807fa926ccd,5fb570ad64809807fa926ccd,19,cup,filler,D,25,cup15.jpg,cup35.jpg,GoalB,NULL
1687287224,f0ecef8ffd529eb53cb7a6cb68e75263,PennController,21,0,experiment,NULL,PennController,20,_Trial_,Start,1687287138744,5fb570ad64809807fa926ccd,5fb570ad64809807fa926ccd,18,ball,critical,D,75,ball65.jpg,ball85.jpg,high,NULL
1687287224,f0ecef8ffd529eb53cb7a6cb68e75263,PennController,21,0,experiment,NULL,PennController,20,_Header_,Start,1687287138744,5fb570ad64809807fa926ccd,5fb570ad64809807fa926ccd,18,ball,critical,D,75,ball65.jpg,ball85.jpg,high,NULL
1687287224,f0ecef8ffd529eb53cb7a6cb68e75263,PennController,21,0,experiment,NULL,PennController,20,_Header_,End,1687287138745,5fb570ad64809807fa926ccd,5fb570ad64809807fa926ccd,18,ball,critical,D,75,ball65.jpg,ball85.jpg,high,NULL
1687287224,f0ecef8ffd529eb53cb7a6cb68e75263,PennController,21,0,experiment,NULL,Video,progression,buffer,0,1687287142322,5fb570ad64809807fa926ccd,5fb570ad64809807fa926ccd,18,ball,critical,D,75,ball65.jpg,ball85.jpg,high,NULL
1687287224,f0ecef8ffd529eb53cb7a6cb68e75263,PennController,21,0,experiment,NULL,Canvas,canvas6,Print,NA,1687287146638,5fb570ad64809807fa926ccd,5fb570ad64809807fa926ccd,18,ball,critical,D,75,ball65.jpg,ball85.jpg,high,NULL
1687287224,f0ecef8ffd529eb53cb7a6cb68e75263,PennController,21,0,experiment,NULL,Selector,choice,Selection,option1,1687287148820,5fb570ad64809807fa926ccd,5fb570ad64809807fa926ccd,18,ball,critical,D,75,ball65.jpg,ball85.jpg,high,option1;option2
1687287224,f0ecef8ffd529eb53cb7a6cb68e75263,PennController,21,0,experiment,NULL,PennController,20,_Trial_,End,1687287148826,5fb570ad64809807fa926ccd,5fb570ad64809807fa926ccd,18,ball,critical,D,75,ball65.jpg,ball85.jpg,high,NULL
1687287224,f0ecef8ffd529eb53cb7a6cb68e75263,PennController,32,0,experiment,NULL,PennController,31,_Trial_,Start,1687287148831,5fb570ad64809807fa926ccd,5fb570ad64809807fa926ccd,29,frog,filler,D,50,frog40.jpg,frog60.jpg,GoalB,NULL
1687287224,f0ecef8ffd529eb53cb7a6cb68e75263,PennController,32,0,experiment,NULL,PennController,31,_Header_,Start,1687287148831,5fb570ad64809807fa926ccd,5fb570ad64809807fa926ccd,29,frog,filler,D,50,frog40.jpg,frog60.jpg,GoalB,NULL
1687287224,f0ecef8ffd529eb53cb7a6cb68e75263,PennController,32,0,experiment,NULL,PennController,31,_Header_,End,1687287148832,5fb570ad64809807fa926ccd,5fb570ad64809807fa926ccd,29,frog,filler,D,50,frog40.jpg,frog60.jpg,GoalB,NULL
1687287224,f0ecef8ffd529eb53cb7a6cb68e75263,PennController,32,0,experiment,NULL,Video,progression,buffer,0,1687287152417,5fb570ad64809807fa926ccd,5fb570ad64809807fa926ccd,29,frog,filler,D,50,frog40.jpg,frog60.jpg,GoalB,NULL
1687287224,f0ecef8ffd529eb53cb7a6cb68e75263,PennController,32,0,experiment,NULL,Canvas,canvas6,Print,NA,1687287155707,5fb570ad64809807fa926ccd,5fb570ad64809807fa926ccd,29,frog,filler,D,50,frog40.jpg,frog60.jpg,GoalB,NULL
1687287224,f0ecef8ffd529eb53cb7a6cb68e75263,PennController,32,0,experiment,NULL,Selector,choice,Selection,option2,1687287158444,5fb570ad64809807fa926ccd,5fb570ad64809807fa926ccd,29,frog,filler,D,50,frog40.jpg,frog60.jpg,GoalB,option2;option1
1687287224,f0ecef8ffd529eb53cb7a6cb68e75263,PennController,32,0,experiment,NULL,PennController,31,_Trial_,End,1687287158450,5fb570ad64809807fa926ccd,5fb570ad64809807fa926ccd,29,frog,filler,D,50,frog40.jpg,frog60.jpg,GoalB,NULL
1687287224,f0ecef8ffd529eb53cb7a6cb68e75263,PennController,18,0,experiment,NULL,PennController,17,_Trial_,Start,1687287158452,5fb570ad64809807fa926ccd,5fb570ad64809807fa926ccd,15,zip,critical,D,75,zip65.jpg,zip85.jpg,high,NULL
1687287224,f0ecef8ffd529eb53cb7a6cb68e75263,PennController,18,0,experiment,NULL,PennController,17,_Header_,Start,1687287158452,5fb570ad64809807fa926ccd,5fb570ad64809807fa926ccd,15,zip,critical,D,75,zip65.jpg,zip85.jpg,high,NULL
1687287224,f0ecef8ffd529eb53cb7a6cb68e75263,PennController,18,0,experiment,NULL,PennController,17,_Header_,End,1687287158452,5fb570ad64809807fa926ccd,5fb570ad64809807fa926ccd,15,zip,critical,D,75,zip65.jpg,zip85.jpg,high,NULL
1687287224,f0ecef8ffd529eb53cb7a6cb68e75263,PennController,18,0,experiment,NULL,Video,progression,buffer,0,1687287162024,5fb570ad64809807fa926ccd,5fb570ad64809807fa926ccd,15,zip,critical,D,75,zip65.jpg,zip85.jpg,high,NULL
1687287224,f0ecef8ffd529eb53cb7a6cb68e75263,PennController,18,0,experiment,NULL,Canvas,canvas6,Print,NA,1687287165519,5fb570ad64809807fa926ccd,5fb570ad64809807fa926ccd,15,zip,critical,D,75,zip65.jpg,zip85.jpg,high,NULL
1687287224,f0ecef8ffd529eb53cb7a6cb68e75263,PennController,18,0,experiment,NULL,Selector,choice,Selection,option1,1687287175426,5fb570ad64809807fa926ccd,5fb570ad64809807fa926ccd,15,zip,critical,D,75,zip65.jpg,zip85.jpg,high,option1;option2
1687287224,f0ecef8ffd529eb53cb7a6cb68e75263,PennController,18,0,experiment,NULL,PennController,17,_Trial_,End,1687287175432,5fb570ad64809807fa926ccd,5fb570ad64809807fa926ccd,15,zip,critical,D,75,zip65.jpg,zip85.jpg,high,NULL
1687287224,f0ecef8ffd529eb53cb7a6cb68e75263,PennController,13,0,experiment,NULL,PennController,12,_Trial_,Start,1687287175437,5fb570ad64809807fa926ccd,5fb570ad64809807fa926ccd,10,train,critical,D,25,train15.jpg,train35.jpg,high,NULL
1687287224,f0ecef8ffd529eb53cb7a6cb68e75263,PennController,13,0,experiment,NULL,PennController,12,_Header_,Start,1687287175437,5fb570ad64809807fa926ccd,5fb570ad64809807fa926ccd,10,train,critical,D,25,train15.jpg,train35.jpg,high,NULL
1687287224,f0ecef8ffd529eb53cb7a6cb68e75263,PennController,13,0,experiment,NULL,PennController,12,_Header_,End,1687287175438,5fb570ad64809807fa926ccd,5fb570ad64809807fa926ccd,10,train,critical,D,25,train15.jpg,train35.jpg,high,NULL
1687287224,f0ecef8ffd529eb53cb7a6cb68e75263,PennController,13,0,experiment,NULL,Video,progression,buffer,0,1687287179022,5fb570ad64809807fa926ccd,5fb570ad64809807fa926ccd,10,train,critical,D,25,train15.jpg,train35.jpg,high,NULL
1687287224,f0ecef8ffd529eb53cb7a6cb68e75263,PennController,13,0,experiment,NULL,Canvas,canvas6,Print,NA,1687287181322,5fb570ad64809807fa926ccd,5fb570ad64809807fa926ccd,10,train,critical,D,25,train15.jpg,train35.jpg,high,NULL
1687287224,f0ecef8ffd529eb53cb7a6cb68e75263,PennController,13,0,experiment,NULL,Selector,choice,Selection,option2,1687287184018,5fb570ad64809807fa926ccd,5fb570ad64809807fa926ccd,10,train,critical,D,25,train15.jpg,train35.jpg,high,option1;option2
1687287224,f0ecef8ffd529eb53cb7a6cb68e75263,PennController,13,0,experiment,NULL,PennController,12,_Trial_,End,1687287184025,5fb570ad64809807fa926ccd,5fb570ad64809807fa926ccd,10,train,critical,D,25,train15.jpg,train35.jpg,high,NULL
1687287224,f0ecef8ffd529eb53cb7a6cb68e75263,PennController,17,0,experiment,NULL,PennController,16,_Trial_,Start,1687287184028,5fb570ad64809807fa926ccd,5fb570ad64809807fa926ccd,14,cover,critical,D,50,cover42.jpg,cover60.jpg,high,NULL
1687287224,f0ecef8ffd529eb53cb7a6cb68e75263,PennController,17,0,experiment,NULL,PennController,16,_Header_,Start,1687287184028,5fb570ad64809807fa926ccd,5fb570ad64809807fa926ccd,14,cover,critical,D,50,cover42.jpg,cover60.jpg,high,NULL
1687287224,f0ecef8ffd529eb53cb7a6cb68e75263,PennController,17,0,experiment,NULL,PennController,16,_Header_,End,1687287184029,5fb570ad64809807fa926ccd,5fb570ad64809807fa926ccd,14,cover,critical,D,50,cover42.jpg,cover60.jpg,high,NULL
1687287224,f0ecef8ffd529eb53cb7a6cb68e75263,PennController,17,0,experiment,NULL,Video,progression,buffer,0,1687287187620,5fb570ad64809807fa926ccd,5fb570ad64809807fa926ccd,14,cover,critical,D,50,cover42.jpg,cover60.jpg,high,NULL
1687287224,f0ecef8ffd529eb53cb7a6cb68e75263,PennController,17,0,experiment,NULL,Canvas,canvas6,Print,NA,1687287192321,5fb570ad64809807fa926ccd,5fb570ad64809807fa926ccd,14,cover,critical,D,50,cover42.jpg,cover60.jpg,high,NULL
1687287224,f0ecef8ffd529eb53cb7a6cb68e75263,PennController,17,0,experiment,NULL,Selector,choice,Selection,option1,1687287197801,5fb570ad64809807fa926ccd,5fb570ad64809807fa926ccd,14,cover,critical,D,50,cover42.jpg,cover60.jpg,high,option1;option2
1687287224,f0ecef8ffd529eb53cb7a6cb68e75263,PennController,17,0,experiment,NULL,PennController,16,_Trial_,End,1687287197807,5fb570ad64809807fa926ccd,5fb570ad64809807fa926ccd,14,cover,critical,D,50,cover42.jpg,cover60.jpg,high,NULL
1687287224,f0ecef8ffd529eb53cb7a6cb68e75263,PennController,16,0,experiment,NULL,PennController,15,_Trial_,Start,1687287197810,5fb570ad64809807fa926ccd,5fb570ad64809807fa926ccd,13,mix,critical,D,25,mix15.jpg,mix35.jpg,high,NULL
1687287224,f0ecef8ffd529eb53cb7a6cb68e75263,PennController,16,0,experiment,NULL,PennController,15,_Header_,Start,1687287197810,5fb570ad64809807fa926ccd,5fb570ad64809807fa926ccd,13,mix,critical,D,25,mix15.jpg,mix35.jpg,high,NULL
1687287224,f0ecef8ffd529eb53cb7a6cb68e75263,PennController,16,0,experiment,NULL,PennController,15,_Header_,End,1687287197811,5fb570ad64809807fa926ccd,5fb570ad64809807fa926ccd,13,mix,critical,D,25,mix15.jpg,mix35.jpg,high,NULL
1687287224,f0ecef8ffd529eb53cb7a6cb68e75263,PennController,16,0,experiment,NULL,Video,progression,buffer,0,1687287201391,5fb570ad64809807fa926ccd,5fb570ad64809807fa926ccd,13,mix,critical,D,25,mix15.jpg,mix35.jpg,high,NULL
1687287224,f0ecef8ffd529eb53cb7a6cb68e75263,PennController,16,0,experiment,NULL,Canvas,canvas6,Print,NA,1687287203706,5fb570ad64809807fa926ccd,5fb570ad64809807fa926ccd,13,mix,critical,D,25,mix15.jpg,mix35.jpg,high,NULL
1687287224,f0ecef8ffd529eb53cb7a6cb68e75263,PennController,16,0,experiment,NULL,Selector,choice,Selection,option1,1687287206497,5fb570ad64809807fa926ccd,5fb570ad64809807fa926ccd,13,mix,critical,D,25,mix15.jpg,mix35.jpg,high,option2;option1
1687287224,f0ecef8ffd529eb53cb7a6cb68e75263,PennController,16,0,experiment,NULL,PennController,15,_Trial_,End,1687287206503,5fb570ad64809807fa926ccd,5fb570ad64809807fa926ccd,13,mix,critical,D,25,mix15.jpg,mix35.jpg,high,NULL
1687287224,f0ecef8ffd529eb53cb7a6cb68e75263,PennController,14,0,experiment,NULL,PennController,13,_Trial_,Start,1687287206507,5fb570ad64809807fa926ccd,5fb570ad64809807fa926ccd,11,beads,critical,D,50,beads40.jpg,beads60.jpg,high,NULL
1687287224,f0ecef8ffd529eb53cb7a6cb68e75263,PennController,14,0,experiment,NULL,PennController,13,_Header_,Start,1687287206507,5fb570ad64809807fa926ccd,5fb570ad64809807fa926ccd,11,beads,critical,D,50,beads40.jpg,beads60.jpg,high,NULL
1687287224,f0ecef8ffd529eb53cb7a6cb68e75263,PennController,14,0,experiment,NULL,PennController,13,_Header_,End,1687287206507,5fb570ad64809807fa926ccd,5fb570ad64809807fa926ccd,11,beads,critical,D,50,beads40.jpg,beads60.jpg,high,NULL
1687287224,f0ecef8ffd529eb53cb7a6cb68e75263,PennController,14,0,experiment,NULL,Video,progression,buffer,0,1687287210076,5fb570ad64809807fa926ccd,5fb570ad64809807fa926ccd,11,beads,critical,D,50,beads40.jpg,beads60.jpg,high,NULL
1687287224,f0ecef8ffd529eb53cb7a6cb68e75263,PennController,14,0,experiment,NULL,Canvas,canvas6,Print,NA,1687287213371,5fb570ad64809807fa926ccd,5fb570ad64809807fa926ccd,11,beads,critical,D,50,beads40.jpg,beads60.jpg,high,NULL
1687287224,f0ecef8ffd529eb53cb7a6cb68e75263,PennController,14,0,experiment,NULL,Selector,choice,Selection,option1,1687287215402,5fb570ad64809807fa926ccd,5fb570ad64809807fa926ccd,11,beads,critical,D,50,beads40.jpg,beads60.jpg,high,option1;option2
1687287224,f0ecef8ffd529eb53cb7a6cb68e75263,PennController,14,0,experiment,NULL,PennController,13,_Trial_,End,1687287215408,5fb570ad64809807fa926ccd,5fb570ad64809807fa926ccd,11,beads,critical,D,50,beads40.jpg,beads60.jpg,high,NULL
1687287224,f0ecef8ffd529eb53cb7a6cb68e75263,PennController,20,0,experiment,NULL,PennController,19,_Trial_,Start,1687287215412,5fb570ad64809807fa926ccd,5fb570ad64809807fa926ccd,17,roll,critical,D,50,roll40.jpg,roll60.jpg,high,NULL
1687287224,f0ecef8ffd529eb53cb7a6cb68e75263,PennController,20,0,experiment,NULL,PennController,19,_Header_,Start,1687287215412,5fb570ad64809807fa926ccd,5fb570ad64809807fa926ccd,17,roll,critical,D,50,roll40.jpg,roll60.jpg,high,NULL
1687287224,f0ecef8ffd529eb53cb7a6cb68e75263,PennController,20,0,experiment,NULL,PennController,19,_Header_,End,1687287215412,5fb570ad64809807fa926ccd,5fb570ad64809807fa926ccd,17,roll,critical,D,50,roll40.jpg,roll60.jpg,high,NULL
1687287224,f0ecef8ffd529eb53cb7a6cb68e75263,PennController,20,0,experiment,NULL,Video,progression,buffer,0,1687287218991,5fb570ad64809807fa926ccd,5fb570ad64809807fa926ccd,17,roll,critical,D,50,roll40.jpg,roll60.jpg,high,NULL
1687287224,f0ecef8ffd529eb53cb7a6cb68e75263,PennController,20,0,experiment,NULL,Canvas,canvas6,Print,NA,1687287222301,5fb570ad64809807fa926ccd,5fb570ad64809807fa926ccd,17,roll,critical,D,50,roll40.jpg,roll60.jpg,high,NULL
1687287224,f0ecef8ffd529eb53cb7a6cb68e75263,PennController,20,0,experiment,NULL,Selector,choice,Selection,option2,1687287225064,5fb570ad64809807fa926ccd,5fb570ad64809807fa926ccd,17,roll,critical,D,50,roll40.jpg,roll60.jpg,high,option2;option1
1687287224,f0ecef8ffd529eb53cb7a6cb68e75263,PennController,20,0,experiment,NULL,PennController,19,_Trial_,End,1687287225070,5fb570ad64809807fa926ccd,5fb570ad64809807fa926ccd,17,roll,critical,D,50,roll40.jpg,roll60.jpg,high,NULL
