#
# Results on Tuesday June 20 2023 18:57:41 UTC
# USER AGENT: Mozilla/5.0 (Windows NT 10.0; Win64; x64; rv:109.0) Gecko/20100101 Firefox/114.0
# Design number was non-random = 3
#
# Columns below this comment are as follows:
# 1. Results reception time.
# 2. MD5 hash of participant's IP address.
# 3. Controller name.
# 4. Order number of item.
# 5. Inner element number.
# 6. Label.
# 7. Latin Square Group.
# 8. PennElementType.
# 9. PennElementName.
# 10. Parameter.
# 11. Value.
# 12. EventTime.
# 13. PROLIFIC_ID.
# 14. Comments.
1687287461,baf8e6bf3cfaaa8424ea187a5126cbe3,PennController,2,0,consent,NULL,PennController,0,_Trial_,Start,1687287103901,5c9879aed87fc4000155f4ac,NULL
1687287461,baf8e6bf3cfaaa8424ea187a5126cbe3,PennController,2,0,consent,NULL,PennController,0,_Header_,Start,1687287103901,5c9879aed87fc4000155f4ac,NULL
1687287461,baf8e6bf3cfaaa8424ea187a5126cbe3,PennController,2,0,consent,NULL,PennController,0,_Header_,End,1687287103902,5c9879aed87fc4000155f4ac,NULL
1687287461,baf8e6bf3cfaaa8424ea187a5126cbe3,PennController,2,0,consent,NULL,PennController,0,_Trial_,End,1687287146976,5c9879aed87fc4000155f4ac,NULL
# Columns below this comment are as follows:
# 14. ID.
# 15. Comments.
1687287461,baf8e6bf3cfaaa8424ea187a5126cbe3,PennController,3,0,intro,NULL,PennController,1,_Trial_,Start,1687287146981,5c9879aed87fc4000155f4ac,5c9879aed87fc4000155f4ac,NULL
1687287461,baf8e6bf3cfaaa8424ea187a5126cbe3,PennController,3,0,intro,NULL,PennController,1,_Header_,Start,1687287146981,5c9879aed87fc4000155f4ac,5c9879aed87fc4000155f4ac,NULL
1687287461,baf8e6bf3cfaaa8424ea187a5126cbe3,PennController,3,0,intro,NULL,PennController,1,_Header_,End,1687287146981,5c9879aed87fc4000155f4ac,5c9879aed87fc4000155f4ac,NULL
1687287461,baf8e6bf3cfaaa8424ea187a5126cbe3,PennController,3,0,intro,NULL,PennController,1,_Trial_,End,1687287165151,5c9879aed87fc4000155f4ac,5c9879aed87fc4000155f4ac,NULL
# Columns below this comment are as follows:
# 15. item_number.
# 16. item.
# 17. type.
# 18. Group.
# 19. prog.
# 20. prev_image.
# 21. next_image.
# 22. height.
# 23. Comments.
1687287461,baf8e6bf3cfaaa8424ea187a5126cbe3,PennController,21,0,experiment,NULL,PennController,20,_Trial_,Start,1687287165153,5c9879aed87fc4000155f4ac,5c9879aed87fc4000155f4ac,18,ball,critical,D,75,ball65.jpg,ball85.jpg,high,NULL
1687287461,baf8e6bf3cfaaa8424ea187a5126cbe3,PennController,21,0,experiment,NULL,PennController,20,_Header_,Start,1687287165153,5c9879aed87fc4000155f4ac,5c9879aed87fc4000155f4ac,18,ball,critical,D,75,ball65.jpg,ball85.jpg,high,NULL
1687287461,baf8e6bf3cfaaa8424ea187a5126cbe3,PennController,21,0,experiment,NULL,PennController,20,_Header_,End,1687287165153,5c9879aed87fc4000155f4ac,5c9879aed87fc4000155f4ac,18,ball,critical,D,75,ball65.jpg,ball85.jpg,high,NULL
1687287461,baf8e6bf3cfaaa8424ea187a5126cbe3,PennController,21,0,experiment,NULL,Video,progression,buffer,0,1687287168716,5c9879aed87fc4000155f4ac,5c9879aed87fc4000155f4ac,18,ball,critical,D,75,ball65.jpg,ball85.jpg,high,NULL
1687287461,baf8e6bf3cfaaa8424ea187a5126cbe3,PennController,21,0,experiment,NULL,Canvas,canvas6,Print,NA,1687287172994,5c9879aed87fc4000155f4ac,5c9879aed87fc4000155f4ac,18,ball,critical,D,75,ball65.jpg,ball85.jpg,high,NULL
1687287461,baf8e6bf3cfaaa8424ea187a5126cbe3,PennController,21,0,experiment,NULL,Selector,choice,Selection,option2,1687287182130,5c9879aed87fc4000155f4ac,5c9879aed87fc4000155f4ac,18,ball,critical,D,75,ball65.jpg,ball85.jpg,high,option1;option2
1687287461,baf8e6bf3cfaaa8424ea187a5126cbe3,PennController,21,0,experiment,NULL,PennController,20,_Trial_,End,1687287182134,5c9879aed87fc4000155f4ac,5c9879aed87fc4000155f4ac,18,ball,critical,D,75,ball65.jpg,ball85.jpg,high,NULL
1687287461,baf8e6bf3cfaaa8424ea187a5126cbe3,PennController,26,0,experiment,NULL,PennController,25,_Trial_,Start,1687287182139,5c9879aed87fc4000155f4ac,5c9879aed87fc4000155f4ac,23,color,filler,D,50,color40.jpg,color60.jpg,GoalB,NULL
1687287461,baf8e6bf3cfaaa8424ea187a5126cbe3,PennController,26,0,experiment,NULL,PennController,25,_Header_,Start,1687287182139,5c9879aed87fc4000155f4ac,5c9879aed87fc4000155f4ac,23,color,filler,D,50,color40.jpg,color60.jpg,GoalB,NULL
1687287461,baf8e6bf3cfaaa8424ea187a5126cbe3,PennController,26,0,experiment,NULL,PennController,25,_Header_,End,1687287182139,5c9879aed87fc4000155f4ac,5c9879aed87fc4000155f4ac,23,color,filler,D,50,color40.jpg,color60.jpg,GoalB,NULL
1687287461,baf8e6bf3cfaaa8424ea187a5126cbe3,PennController,26,0,experiment,NULL,Video,progression,buffer,0,1687287185679,5c9879aed87fc4000155f4ac,5c9879aed87fc4000155f4ac,23,color,filler,D,50,color40.jpg,color60.jpg,GoalB,NULL
1687287461,baf8e6bf3cfaaa8424ea187a5126cbe3,PennController,26,0,experiment,NULL,Canvas,canvas6,Print,NA,1687287188937,5c9879aed87fc4000155f4ac,5c9879aed87fc4000155f4ac,23,color,filler,D,50,color40.jpg,color60.jpg,GoalB,NULL
1687287461,baf8e6bf3cfaaa8424ea187a5126cbe3,PennController,26,0,experiment,NULL,Selector,choice,Selection,option2,1687287191419,5c9879aed87fc4000155f4ac,5c9879aed87fc4000155f4ac,23,color,filler,D,50,color40.jpg,color60.jpg,GoalB,option2;option1
1687287461,baf8e6bf3cfaaa8424ea187a5126cbe3,PennController,26,0,experiment,NULL,PennController,25,_Trial_,End,1687287191422,5c9879aed87fc4000155f4ac,5c9879aed87fc4000155f4ac,23,color,filler,D,50,color40.jpg,color60.jpg,GoalB,NULL
1687287461,baf8e6bf3cfaaa8424ea187a5126cbe3,PennController,25,0,experiment,NULL,PennController,24,_Trial_,Start,1687287191424,5c9879aed87fc4000155f4ac,5c9879aed87fc4000155f4ac,22,wall,filler,D,25,wall15.jpg,wall35.jpg,GoalA,NULL
1687287461,baf8e6bf3cfaaa8424ea187a5126cbe3,PennController,25,0,experiment,NULL,PennController,24,_Header_,Start,1687287191424,5c9879aed87fc4000155f4ac,5c9879aed87fc4000155f4ac,22,wall,filler,D,25,wall15.jpg,wall35.jpg,GoalA,NULL
1687287461,baf8e6bf3cfaaa8424ea187a5126cbe3,PennController,25,0,experiment,NULL,PennController,24,_Header_,End,1687287191424,5c9879aed87fc4000155f4ac,5c9879aed87fc4000155f4ac,22,wall,filler,D,25,wall15.jpg,wall35.jpg,GoalA,NULL
1687287461,baf8e6bf3cfaaa8424ea187a5126cbe3,PennController,25,0,experiment,NULL,Video,progression,buffer,0,1687287194966,5c9879aed87fc4000155f4ac,5c9879aed87fc4000155f4ac,22,wall,filler,D,25,wall15.jpg,wall35.jpg,GoalA,NULL
1687287461,baf8e6bf3cfaaa8424ea187a5126cbe3,PennController,25,0,experiment,NULL,Canvas,canvas6,Print,NA,1687287197230,5c9879aed87fc4000155f4ac,5c9879aed87fc4000155f4ac,22,wall,filler,D,25,wall15.jpg,wall35.jpg,GoalA,NULL
1687287461,baf8e6bf3cfaaa8424ea187a5126cbe3,PennController,25,0,experiment,NULL,Selector,choice,Selection,option1,1687287200633,5c9879aed87fc4000155f4ac,5c9879aed87fc4000155f4ac,22,wall,filler,D,25,wall15.jpg,wall35.jpg,GoalA,option1;option2
1687287461,baf8e6bf3cfaaa8424ea187a5126cbe3,PennController,25,0,experiment,NULL,PennController,24,_Trial_,End,1687287200635,5c9879aed87fc4000155f4ac,5c9879aed87fc4000155f4ac,22,wall,filler,D,25,wall15.jpg,wall35.jpg,GoalA,NULL
1687287461,baf8e6bf3cfaaa8424ea187a5126cbe3,PennController,4,0,experiment,NULL,PennController,3,_Trial_,Start,1687287200637,5c9879aed87fc4000155f4ac,5c9879aed87fc4000155f4ac,1,vase,critical,D,25,vase15.jpg,vase35.jpg,high,NULL
1687287461,baf8e6bf3cfaaa8424ea187a5126cbe3,PennController,4,0,experiment,NULL,PennController,3,_Header_,Start,1687287200637,5c9879aed87fc4000155f4ac,5c9879aed87fc4000155f4ac,1,vase,critical,D,25,vase15.jpg,vase35.jpg,high,NULL
1687287461,baf8e6bf3cfaaa8424ea187a5126cbe3,PennController,4,0,experiment,NULL,PennController,3,_Header_,End,1687287200637,5c9879aed87fc4000155f4ac,5c9879aed87fc4000155f4ac,1,vase,critical,D,25,vase15.jpg,vase35.jpg,high,NULL
1687287461,baf8e6bf3cfaaa8424ea187a5126cbe3,PennController,4,0,experiment,NULL,Video,progression,buffer,0,1687287204179,5c9879aed87fc4000155f4ac,5c9879aed87fc4000155f4ac,1,vase,critical,D,25,vase15.jpg,vase35.jpg,high,NULL
1687287461,baf8e6bf3cfaaa8424ea187a5126cbe3,PennController,4,0,experiment,NULL,Canvas,canvas6,Print,NA,1687287206428,5c9879aed87fc4000155f4ac,5c9879aed87fc4000155f4ac,1,vase,critical,D,25,vase15.jpg,vase35.jpg,high,NULL
1687287461,baf8e6bf3cfaaa8424ea187a5126cbe3,PennController,4,0,experiment,NULL,Selector,choice,Selection,option2,1687287207978,5c9879aed87fc4000155f4ac,5c9879aed87fc4000155f4ac,1,vase,critical,D,25,vase15.jpg,vase35.jpg,high,option2;option1
1687287461,baf8e6bf3cfaaa8424ea187a5126cbe3,PennController,4,0,experiment,NULL,PennController,3,_Trial_,End,1687287207981,5c9879aed87fc4000155f4ac,5c9879aed87fc4000155f4ac,1,vase,critical,D,25,vase15.jpg,vase35.jpg,high,NULL
1687287461,baf8e6bf3cfaaa8424ea187a5126cbe3,PennController,28,0,experiment,NULL,PennController,27,_Trial_,Start,1687287207982,5c9879aed87fc4000155f4ac,5c9879aed87fc4000155f4ac,25,house,filler,D,25,house15.jpg,house35.jpg,GoalB,NULL
1687287461,baf8e6bf3cfaaa8424ea187a5126cbe3,PennController,28,0,experiment,NULL,PennController,27,_Header_,Start,1687287207982,5c9879aed87fc4000155f4ac,5c9879aed87fc4000155f4ac,25,house,filler,D,25,house15.jpg,house35.jpg,GoalB,NULL
1687287461,baf8e6bf3cfaaa8424ea187a5126cbe3,PennController,28,0,experiment,NULL,PennController,27,_Header_,End,1687287207982,5c9879aed87fc4000155f4ac,5c9879aed87fc4000155f4ac,25,house,filler,D,25,house15.jpg,house35.jpg,GoalB,NULL
1687287461,baf8e6bf3cfaaa8424ea187a5126cbe3,PennController,28,0,experiment,NULL,Video,progression,buffer,0,1687287211533,5c9879aed87fc4000155f4ac,5c9879aed87fc4000155f4ac,25,house,filler,D,25,house15.jpg,house35.jpg,GoalB,NULL
1687287461,baf8e6bf3cfaaa8424ea187a5126cbe3,PennController,28,0,experiment,NULL,Canvas,canvas6,Print,NA,1687287213793,5c9879aed87fc4000155f4ac,5c9879aed87fc4000155f4ac,25,house,filler,D,25,house15.jpg,house35.jpg,GoalB,NULL
1687287461,baf8e6bf3cfaaa8424ea187a5126cbe3,PennController,28,0,experiment,NULL,Selector,choice,Selection,option2,1687287215033,5c9879aed87fc4000155f4ac,5c9879aed87fc4000155f4ac,25,house,filler,D,25,house15.jpg,house35.jpg,GoalB,option1;option2
1687287461,baf8e6bf3cfaaa8424ea187a5126cbe3,PennController,28,0,experiment,NULL,PennController,27,_Trial_,End,1687287215036,5c9879aed87fc4000155f4ac,5c9879aed87fc4000155f4ac,25,house,filler,D,25,house15.jpg,house35.jpg,GoalB,NULL
1687287461,baf8e6bf3cfaaa8424ea187a5126cbe3,PennController,22,0,experiment,NULL,PennController,21,_Trial_,Start,1687287215038,5c9879aed87fc4000155f4ac,5c9879aed87fc4000155f4ac,19,cup,filler,D,25,cup15.jpg,cup35.jpg,GoalB,NULL
1687287461,baf8e6bf3cfaaa8424ea187a5126cbe3,PennController,22,0,experiment,NULL,PennController,21,_Header_,Start,1687287215038,5c9879aed87fc4000155f4ac,5c9879aed87fc4000155f4ac,19,cup,filler,D,25,cup15.jpg,cup35.jpg,GoalB,NULL
1687287461,baf8e6bf3cfaaa8424ea187a5126cbe3,PennController,22,0,experiment,NULL,PennController,21,_Header_,End,1687287215038,5c9879aed87fc4000155f4ac,5c9879aed87fc4000155f4ac,19,cup,filler,D,25,cup15.jpg,cup35.jpg,GoalB,NULL
1687287461,baf8e6bf3cfaaa8424ea187a5126cbe3,PennController,22,0,experiment,NULL,Video,progression,buffer,0,1687287218584,5c9879aed87fc4000155f4ac,5c9879aed87fc4000155f4ac,19,cup,filler,D,25,cup15.jpg,cup35.jpg,GoalB,NULL
1687287461,baf8e6bf3cfaaa8424ea187a5126cbe3,PennController,22,0,experiment,NULL,Canvas,canvas6,Print,NA,1687287220848,5c9879aed87fc4000155f4ac,5c9879aed87fc4000155f4ac,19,cup,filler,D,25,cup15.jpg,cup35.jpg,GoalB,NULL
1687287461,baf8e6bf3cfaaa8424ea187a5126cbe3,PennController,22,0,experiment,NULL,Selector,choice,Selection,option2,1687287222825,5c9879aed87fc4000155f4ac,5c9879aed87fc4000155f4ac,19,cup,filler,D,25,cup15.jpg,cup35.jpg,GoalB,option1;option2
1687287461,baf8e6bf3cfaaa8424ea187a5126cbe3,PennController,22,0,experiment,NULL,PennController,21,_Trial_,End,1687287222826,5c9879aed87fc4000155f4ac,5c9879aed87fc4000155f4ac,19,cup,filler,D,25,cup15.jpg,cup35.jpg,GoalB,NULL
1687287461,baf8e6bf3cfaaa8424ea187a5126cbe3,PennController,10,0,experiment,NULL,PennController,9,_Trial_,Start,1687287222827,5c9879aed87fc4000155f4ac,5c9879aed87fc4000155f4ac,7,stack,critical,D,25,stack15.jpg,stack35.jpg,high,NULL
1687287461,baf8e6bf3cfaaa8424ea187a5126cbe3,PennController,10,0,experiment,NULL,PennController,9,_Header_,Start,1687287222827,5c9879aed87fc4000155f4ac,5c9879aed87fc4000155f4ac,7,stack,critical,D,25,stack15.jpg,stack35.jpg,high,NULL
1687287461,baf8e6bf3cfaaa8424ea187a5126cbe3,PennController,10,0,experiment,NULL,PennController,9,_Header_,End,1687287222827,5c9879aed87fc4000155f4ac,5c9879aed87fc4000155f4ac,7,stack,critical,D,25,stack15.jpg,stack35.jpg,high,NULL
1687287461,baf8e6bf3cfaaa8424ea187a5126cbe3,PennController,10,0,experiment,NULL,Video,progression,buffer,0,1687287226360,5c9879aed87fc4000155f4ac,5c9879aed87fc4000155f4ac,7,stack,critical,D,25,stack15.jpg,stack35.jpg,high,NULL
1687287461,baf8e6bf3cfaaa8424ea187a5126cbe3,PennController,10,0,experiment,NULL,Canvas,canvas6,Print,NA,1687287228611,5c9879aed87fc4000155f4ac,5c9879aed87fc4000155f4ac,7,stack,critical,D,25,stack15.jpg,stack35.jpg,high,NULL
1687287461,baf8e6bf3cfaaa8424ea187a5126cbe3,PennController,10,0,experiment,NULL,Selector,choice,Selection,option1,1687287231233,5c9879aed87fc4000155f4ac,5c9879aed87fc4000155f4ac,7,stack,critical,D,25,stack15.jpg,stack35.jpg,high,option2;option1
1687287461,baf8e6bf3cfaaa8424ea187a5126cbe3,PennController,10,0,experiment,NULL,PennController,9,_Trial_,End,1687287231235,5c9879aed87fc4000155f4ac,5c9879aed87fc4000155f4ac,7,stack,critical,D,25,stack15.jpg,stack35.jpg,high,NULL
1687287461,baf8e6bf3cfaaa8424ea187a5126cbe3,PennController,7,0,experiment,NULL,PennController,6,_Trial_,Start,1687287231237,5c9879aed87fc4000155f4ac,5c9879aed87fc4000155f4ac,4,candy,critical,D,25,candy15.jpg,candy35.jpg,high,NULL
1687287461,baf8e6bf3cfaaa8424ea187a5126cbe3,PennController,7,0,experiment,NULL,PennController,6,_Header_,Start,1687287231237,5c9879aed87fc4000155f4ac,5c9879aed87fc4000155f4ac,4,candy,critical,D,25,candy15.jpg,candy35.jpg,high,NULL
1687287461,baf8e6bf3cfaaa8424ea187a5126cbe3,PennController,7,0,experiment,NULL,PennController,6,_Header_,End,1687287231237,5c9879aed87fc4000155f4ac,5c9879aed87fc4000155f4ac,4,candy,critical,D,25,candy15.jpg,candy35.jpg,high,NULL
1687287461,baf8e6bf3cfaaa8424ea187a5126cbe3,PennController,7,0,experiment,NULL,Video,progression,buffer,0,1687287234778,5c9879aed87fc4000155f4ac,5c9879aed87fc4000155f4ac,4,candy,critical,D,25,candy15.jpg,candy35.jpg,high,NULL
1687287461,baf8e6bf3cfaaa8424ea187a5126cbe3,PennController,7,0,experiment,NULL,Canvas,canvas6,Print,NA,1687287237041,5c9879aed87fc4000155f4ac,5c9879aed87fc4000155f4ac,4,candy,critical,D,25,candy15.jpg,candy35.jpg,high,NULL
1687287461,baf8e6bf3cfaaa8424ea187a5126cbe3,PennController,7,0,experiment,NULL,Selector,choice,Selection,option1,1687287239401,5c9879aed87fc4000155f4ac,5c9879aed87fc4000155f4ac,4,candy,critical,D,25,candy15.jpg,candy35.jpg,high,option2;option1
1687287461,baf8e6bf3cfaaa8424ea187a5126cbe3,PennController,7,0,experiment,NULL,PennController,6,_Trial_,End,1687287239403,5c9879aed87fc4000155f4ac,5c9879aed87fc4000155f4ac,4,candy,critical,D,25,candy15.jpg,candy35.jpg,high,NULL
1687287461,baf8e6bf3cfaaa8424ea187a5126cbe3,PennController,27,0,experiment,NULL,PennController,26,_Trial_,Start,1687287239405,5c9879aed87fc4000155f4ac,5c9879aed87fc4000155f4ac,24,match,filler,D,75,match65.jpg,match85.jpg,GoalA,NULL
1687287461,baf8e6bf3cfaaa8424ea187a5126cbe3,PennController,27,0,experiment,NULL,PennController,26,_Header_,Start,1687287239405,5c9879aed87fc4000155f4ac,5c9879aed87fc4000155f4ac,24,match,filler,D,75,match65.jpg,match85.jpg,GoalA,NULL
1687287461,baf8e6bf3cfaaa8424ea187a5126cbe3,PennController,27,0,experiment,NULL,PennController,26,_Header_,End,1687287239405,5c9879aed87fc4000155f4ac,5c9879aed87fc4000155f4ac,24,match,filler,D,75,match65.jpg,match85.jpg,GoalA,NULL
1687287461,baf8e6bf3cfaaa8424ea187a5126cbe3,PennController,27,0,experiment,NULL,Video,progression,buffer,0,1687287242952,5c9879aed87fc4000155f4ac,5c9879aed87fc4000155f4ac,24,match,filler,D,75,match65.jpg,match85.jpg,GoalA,NULL
1687287461,baf8e6bf3cfaaa8424ea187a5126cbe3,PennController,27,0,experiment,NULL,Canvas,canvas6,Print,NA,1687287247211,5c9879aed87fc4000155f4ac,5c9879aed87fc4000155f4ac,24,match,filler,D,75,match65.jpg,match85.jpg,GoalA,NULL
1687287461,baf8e6bf3cfaaa8424ea187a5126cbe3,PennController,27,0,experiment,NULL,Selector,choice,Selection,option1,1687287249169,5c9879aed87fc4000155f4ac,5c9879aed87fc4000155f4ac,24,match,filler,D,75,match65.jpg,match85.jpg,GoalA,option1;option2
1687287461,baf8e6bf3cfaaa8424ea187a5126cbe3,PennController,27,0,experiment,NULL,PennController,26,_Trial_,End,1687287249172,5c9879aed87fc4000155f4ac,5c9879aed87fc4000155f4ac,24,match,filler,D,75,match65.jpg,match85.jpg,GoalA,NULL
1687287461,baf8e6bf3cfaaa8424ea187a5126cbe3,PennController,29,0,experiment,NULL,PennController,28,_Trial_,Start,1687287249173,5c9879aed87fc4000155f4ac,5c9879aed87fc4000155f4ac,26,sandwich,filler,D,50,sandwich40.jpg,sandwich60.jpg,GoalA,NULL
1687287461,baf8e6bf3cfaaa8424ea187a5126cbe3,PennController,29,0,experiment,NULL,PennController,28,_Header_,Start,1687287249173,5c9879aed87fc4000155f4ac,5c9879aed87fc4000155f4ac,26,sandwich,filler,D,50,sandwich40.jpg,sandwich60.jpg,GoalA,NULL
1687287461,baf8e6bf3cfaaa8424ea187a5126cbe3,PennController,29,0,experiment,NULL,PennController,28,_Header_,End,1687287249174,5c9879aed87fc4000155f4ac,5c9879aed87fc4000155f4ac,26,sandwich,filler,D,50,sandwich40.jpg,sandwich60.jpg,GoalA,NULL
1687287461,baf8e6bf3cfaaa8424ea187a5126cbe3,PennController,29,0,experiment,NULL,Video,progression,buffer,0,1687287252717,5c9879aed87fc4000155f4ac,5c9879aed87fc4000155f4ac,26,sandwich,filler,D,50,sandwich40.jpg,sandwich60.jpg,GoalA,NULL
1687287461,baf8e6bf3cfaaa8424ea187a5126cbe3,PennController,29,0,experiment,NULL,Canvas,canvas6,Print,NA,1687287255988,5c9879aed87fc4000155f4ac,5c9879aed87fc4000155f4ac,26,sandwich,filler,D,50,sandwich40.jpg,sandwich60.jpg,GoalA,NULL
1687287461,baf8e6bf3cfaaa8424ea187a5126cbe3,PennController,29,0,experiment,NULL,Selector,choice,Selection,option1,1687287257714,5c9879aed87fc4000155f4ac,5c9879aed87fc4000155f4ac,26,sandwich,filler,D,50,sandwich40.jpg,sandwich60.jpg,GoalA,option2;option1
1687287461,baf8e6bf3cfaaa8424ea187a5126cbe3,PennController,29,0,experiment,NULL,PennController,28,_Trial_,End,1687287257715,5c9879aed87fc4000155f4ac,5c9879aed87fc4000155f4ac,26,sandwich,filler,D,50,sandwich40.jpg,sandwich60.jpg,GoalA,NULL
1687287461,baf8e6bf3cfaaa8424ea187a5126cbe3,PennController,15,0,experiment,NULL,PennController,14,_Trial_,Start,1687287257716,5c9879aed87fc4000155f4ac,5c9879aed87fc4000155f4ac,12,erase,critical,D,75,erase66.jpg,erase84.jpg,high,NULL
1687287461,baf8e6bf3cfaaa8424ea187a5126cbe3,PennController,15,0,experiment,NULL,PennController,14,_Header_,Start,1687287257716,5c9879aed87fc4000155f4ac,5c9879aed87fc4000155f4ac,12,erase,critical,D,75,erase66.jpg,erase84.jpg,high,NULL
1687287461,baf8e6bf3cfaaa8424ea187a5126cbe3,PennController,15,0,experiment,NULL,PennController,14,_Header_,End,1687287257716,5c9879aed87fc4000155f4ac,5c9879aed87fc4000155f4ac,12,erase,critical,D,75,erase66.jpg,erase84.jpg,high,NULL
1687287461,baf8e6bf3cfaaa8424ea187a5126cbe3,PennController,15,0,experiment,NULL,Video,progression,buffer,0,1687287261266,5c9879aed87fc4000155f4ac,5c9879aed87fc4000155f4ac,12,erase,critical,D,75,erase66.jpg,erase84.jpg,high,NULL
1687287461,baf8e6bf3cfaaa8424ea187a5126cbe3,PennController,15,0,experiment,NULL,Canvas,canvas6,Print,NA,1687287267515,5c9879aed87fc4000155f4ac,5c9879aed87fc4000155f4ac,12,erase,critical,D,75,erase66.jpg,erase84.jpg,high,NULL
1687287461,baf8e6bf3cfaaa8424ea187a5126cbe3,PennController,15,0,experiment,NULL,Selector,choice,Selection,option2,1687287276369,5c9879aed87fc4000155f4ac,5c9879aed87fc4000155f4ac,12,erase,critical,D,75,erase66.jpg,erase84.jpg,high,option1;option2
1687287461,baf8e6bf3cfaaa8424ea187a5126cbe3,PennController,15,0,experiment,NULL,PennController,14,_Trial_,End,1687287276371,5c9879aed87fc4000155f4ac,5c9879aed87fc4000155f4ac,12,erase,critical,D,75,erase66.jpg,erase84.jpg,high,NULL
1687287461,baf8e6bf3cfaaa8424ea187a5126cbe3,PennController,12,0,experiment,NULL,PennController,11,_Trial_,Start,1687287276372,5c9879aed87fc4000155f4ac,5c9879aed87fc4000155f4ac,9,cake,critical,D,75,cake66.jpg,cake84.jpg,high,NULL
1687287461,baf8e6bf3cfaaa8424ea187a5126cbe3,PennController,12,0,experiment,NULL,PennController,11,_Header_,Start,1687287276372,5c9879aed87fc4000155f4ac,5c9879aed87fc4000155f4ac,9,cake,critical,D,75,cake66.jpg,cake84.jpg,high,NULL
1687287461,baf8e6bf3cfaaa8424ea187a5126cbe3,PennController,12,0,experiment,NULL,PennController,11,_Header_,End,1687287276372,5c9879aed87fc4000155f4ac,5c9879aed87fc4000155f4ac,9,cake,critical,D,75,cake66.jpg,cake84.jpg,high,NULL
1687287461,baf8e6bf3cfaaa8424ea187a5126cbe3,PennController,12,0,experiment,NULL,Video,progression,buffer,0,1687287279908,5c9879aed87fc4000155f4ac,5c9879aed87fc4000155f4ac,9,cake,critical,D,75,cake66.jpg,cake84.jpg,high,NULL
1687287461,baf8e6bf3cfaaa8424ea187a5126cbe3,PennController,12,0,experiment,NULL,Canvas,canvas6,Print,NA,1687287286173,5c9879aed87fc4000155f4ac,5c9879aed87fc4000155f4ac,9,cake,critical,D,75,cake66.jpg,cake84.jpg,high,NULL
1687287461,baf8e6bf3cfaaa8424ea187a5126cbe3,PennController,12,0,experiment,NULL,Selector,choice,Selection,option1,1687287293041,5c9879aed87fc4000155f4ac,5c9879aed87fc4000155f4ac,9,cake,critical,D,75,cake66.jpg,cake84.jpg,high,option2;option1
1687287461,baf8e6bf3cfaaa8424ea187a5126cbe3,PennController,12,0,experiment,NULL,PennController,11,_Trial_,End,1687287293044,5c9879aed87fc4000155f4ac,5c9879aed87fc4000155f4ac,9,cake,critical,D,75,cake66.jpg,cake84.jpg,high,NULL
1687287461,baf8e6bf3cfaaa8424ea187a5126cbe3,PennController,14,0,experiment,NULL,PennController,13,_Trial_,Start,1687287293047,5c9879aed87fc4000155f4ac,5c9879aed87fc4000155f4ac,11,beads,critical,D,50,beads40.jpg,beads60.jpg,high,NULL
1687287461,baf8e6bf3cfaaa8424ea187a5126cbe3,PennController,14,0,experiment,NULL,PennController,13,_Header_,Start,1687287293047,5c9879aed87fc4000155f4ac,5c9879aed87fc4000155f4ac,11,beads,critical,D,50,beads40.jpg,beads60.jpg,high,NULL
1687287461,baf8e6bf3cfaaa8424ea187a5126cbe3,PennController,14,0,experiment,NULL,PennController,13,_Header_,End,1687287293047,5c9879aed87fc4000155f4ac,5c9879aed87fc4000155f4ac,11,beads,critical,D,50,beads40.jpg,beads60.jpg,high,NULL
1687287461,baf8e6bf3cfaaa8424ea187a5126cbe3,PennController,14,0,experiment,NULL,Video,progression,buffer,0,1687287296598,5c9879aed87fc4000155f4ac,5c9879aed87fc4000155f4ac,11,beads,critical,D,50,beads40.jpg,beads60.jpg,high,NULL
1687287461,baf8e6bf3cfaaa8424ea187a5126cbe3,PennController,14,0,experiment,NULL,Canvas,canvas6,Print,NA,1687287299891,5c9879aed87fc4000155f4ac,5c9879aed87fc4000155f4ac,11,beads,critical,D,50,beads40.jpg,beads60.jpg,high,NULL
1687287461,baf8e6bf3cfaaa8424ea187a5126cbe3,PennController,14,0,experiment,NULL,Selector,choice,Selection,option1,1687287302608,5c9879aed87fc4000155f4ac,5c9879aed87fc4000155f4ac,11,beads,critical,D,50,beads40.jpg,beads60.jpg,high,option2;option1
1687287461,baf8e6bf3cfaaa8424ea187a5126cbe3,PennController,14,0,experiment,NULL,PennController,13,_Trial_,End,1687287302610,5c9879aed87fc4000155f4ac,5c9879aed87fc4000155f4ac,11,beads,critical,D,50,beads40.jpg,beads60.jpg,high,NULL
1687287461,baf8e6bf3cfaaa8424ea187a5126cbe3,PennController,6,0,experiment,NULL,PennController,5,_Trial_,Start,1687287302612,5c9879aed87fc4000155f4ac,5c9879aed87fc4000155f4ac,3,clean,critical,D,75,clean65.jpg,clean85.jpg,high,NULL
1687287461,baf8e6bf3cfaaa8424ea187a5126cbe3,PennController,6,0,experiment,NULL,PennController,5,_Header_,Start,1687287302612,5c9879aed87fc4000155f4ac,5c9879aed87fc4000155f4ac,3,clean,critical,D,75,clean65.jpg,clean85.jpg,high,NULL
1687287461,baf8e6bf3cfaaa8424ea187a5126cbe3,PennController,6,0,experiment,NULL,PennController,5,_Header_,End,1687287302612,5c9879aed87fc4000155f4ac,5c9879aed87fc4000155f4ac,3,clean,critical,D,75,clean65.jpg,clean85.jpg,high,NULL
1687287461,baf8e6bf3cfaaa8424ea187a5126cbe3,PennController,6,0,experiment,NULL,Video,progression,buffer,0,1687287306150,5c9879aed87fc4000155f4ac,5c9879aed87fc4000155f4ac,3,clean,critical,D,75,clean65.jpg,clean85.jpg,high,NULL
1687287461,baf8e6bf3cfaaa8424ea187a5126cbe3,PennController,6,0,experiment,NULL,Canvas,canvas6,Print,NA,1687287310413,5c9879aed87fc4000155f4ac,5c9879aed87fc4000155f4ac,3,clean,critical,D,75,clean65.jpg,clean85.jpg,high,NULL
1687287461,baf8e6bf3cfaaa8424ea187a5126cbe3,PennController,6,0,experiment,NULL,Selector,choice,Selection,option2,1687287319121,5c9879aed87fc4000155f4ac,5c9879aed87fc4000155f4ac,3,clean,critical,D,75,clean65.jpg,clean85.jpg,high,option2;option1
1687287461,baf8e6bf3cfaaa8424ea187a5126cbe3,PennController,6,0,experiment,NULL,PennController,5,_Trial_,End,1687287319122,5c9879aed87fc4000155f4ac,5c9879aed87fc4000155f4ac,3,clean,critical,D,75,clean65.jpg,clean85.jpg,high,NULL
1687287461,baf8e6bf3cfaaa8424ea187a5126cbe3,PennController,24,0,experiment,NULL,PennController,23,_Trial_,Start,1687287319125,5c9879aed87fc4000155f4ac,5c9879aed87fc4000155f4ac,21,visit,filler,D,75,visit65.jpg,visit85.jpg,GoalB,NULL
1687287461,baf8e6bf3cfaaa8424ea187a5126cbe3,PennController,24,0,experiment,NULL,PennController,23,_Header_,Start,1687287319125,5c9879aed87fc4000155f4ac,5c9879aed87fc4000155f4ac,21,visit,filler,D,75,visit65.jpg,visit85.jpg,GoalB,NULL
1687287461,baf8e6bf3cfaaa8424ea187a5126cbe3,PennController,24,0,experiment,NULL,PennController,23,_Header_,End,1687287319125,5c9879aed87fc4000155f4ac,5c9879aed87fc4000155f4ac,21,visit,filler,D,75,visit65.jpg,visit85.jpg,GoalB,NULL
1687287461,baf8e6bf3cfaaa8424ea187a5126cbe3,PennController,24,0,experiment,NULL,Video,progression,buffer,0,1687287322660,5c9879aed87fc4000155f4ac,5c9879aed87fc4000155f4ac,21,visit,filler,D,75,visit65.jpg,visit85.jpg,GoalB,NULL
1687287461,baf8e6bf3cfaaa8424ea187a5126cbe3,PennController,24,0,experiment,NULL,Canvas,canvas6,Print,NA,1687287326916,5c9879aed87fc4000155f4ac,5c9879aed87fc4000155f4ac,21,visit,filler,D,75,visit65.jpg,visit85.jpg,GoalB,NULL
1687287461,baf8e6bf3cfaaa8424ea187a5126cbe3,PennController,24,0,experiment,NULL,Selector,choice,Selection,option2,1687287328714,5c9879aed87fc4000155f4ac,5c9879aed87fc4000155f4ac,21,visit,filler,D,75,visit65.jpg,visit85.jpg,GoalB,option1;option2
1687287461,baf8e6bf3cfaaa8424ea187a5126cbe3,PennController,24,0,experiment,NULL,PennController,23,_Trial_,End,1687287328715,5c9879aed87fc4000155f4ac,5c9879aed87fc4000155f4ac,21,visit,filler,D,75,visit65.jpg,visit85.jpg,GoalB,NULL
1687287461,baf8e6bf3cfaaa8424ea187a5126cbe3,PennController,13,0,experiment,NULL,PennController,12,_Trial_,Start,1687287328716,5c9879aed87fc4000155f4ac,5c9879aed87fc4000155f4ac,10,train,critical,D,25,train15.jpg,train35.jpg,high,NULL
1687287461,baf8e6bf3cfaaa8424ea187a5126cbe3,PennController,13,0,experiment,NULL,PennController,12,_Header_,Start,1687287328716,5c9879aed87fc4000155f4ac,5c9879aed87fc4000155f4ac,10,train,critical,D,25,train15.jpg,train35.jpg,high,NULL
1687287461,baf8e6bf3cfaaa8424ea187a5126cbe3,PennController,13,0,experiment,NULL,PennController,12,_Header_,End,1687287328716,5c9879aed87fc4000155f4ac,5c9879aed87fc4000155f4ac,10,train,critical,D,25,train15.jpg,train35.jpg,high,NULL
1687287461,baf8e6bf3cfaaa8424ea187a5126cbe3,PennController,13,0,experiment,NULL,Video,progression,buffer,0,1687287332246,5c9879aed87fc4000155f4ac,5c9879aed87fc4000155f4ac,10,train,critical,D,25,train15.jpg,train35.jpg,high,NULL
1687287461,baf8e6bf3cfaaa8424ea187a5126cbe3,PennController,13,0,experiment,NULL,Canvas,canvas6,Print,NA,1687287334511,5c9879aed87fc4000155f4ac,5c9879aed87fc4000155f4ac,10,train,critical,D,25,train15.jpg,train35.jpg,high,NULL
1687287461,baf8e6bf3cfaaa8424ea187a5126cbe3,PennController,13,0,experiment,NULL,Selector,choice,Selection,option1,1687287336465,5c9879aed87fc4000155f4ac,5c9879aed87fc4000155f4ac,10,train,critical,D,25,train15.jpg,train35.jpg,high,option2;option1
1687287461,baf8e6bf3cfaaa8424ea187a5126cbe3,PennController,13,0,experiment,NULL,PennController,12,_Trial_,End,1687287336466,5c9879aed87fc4000155f4ac,5c9879aed87fc4000155f4ac,10,train,critical,D,25,train15.jpg,train35.jpg,high,NULL
1687287461,baf8e6bf3cfaaa8424ea187a5126cbe3,PennController,16,0,experiment,NULL,PennController,15,_Trial_,Start,1687287336468,5c9879aed87fc4000155f4ac,5c9879aed87fc4000155f4ac,13,mix,critical,D,25,mix15.jpg,mix35.jpg,high,NULL
1687287461,baf8e6bf3cfaaa8424ea187a5126cbe3,PennController,16,0,experiment,NULL,PennController,15,_Header_,Start,1687287336468,5c9879aed87fc4000155f4ac,5c9879aed87fc4000155f4ac,13,mix,critical,D,25,mix15.jpg,mix35.jpg,high,NULL
1687287461,baf8e6bf3cfaaa8424ea187a5126cbe3,PennController,16,0,experiment,NULL,PennController,15,_Header_,End,1687287336468,5c9879aed87fc4000155f4ac,5c9879aed87fc4000155f4ac,13,mix,critical,D,25,mix15.jpg,mix35.jpg,high,NULL
1687287461,baf8e6bf3cfaaa8424ea187a5126cbe3,PennController,16,0,experiment,NULL,Video,progression,buffer,0,1687287340014,5c9879aed87fc4000155f4ac,5c9879aed87fc4000155f4ac,13,mix,critical,D,25,mix15.jpg,mix35.jpg,high,NULL
1687287461,baf8e6bf3cfaaa8424ea187a5126cbe3,PennController,16,0,experiment,NULL,Canvas,canvas6,Print,NA,1687287342265,5c9879aed87fc4000155f4ac,5c9879aed87fc4000155f4ac,13,mix,critical,D,25,mix15.jpg,mix35.jpg,high,NULL
1687287461,baf8e6bf3cfaaa8424ea187a5126cbe3,PennController,16,0,experiment,NULL,Selector,choice,Selection,option1,1687287344290,5c9879aed87fc4000155f4ac,5c9879aed87fc4000155f4ac,13,mix,critical,D,25,mix15.jpg,mix35.jpg,high,option2;option1
1687287461,baf8e6bf3cfaaa8424ea187a5126cbe3,PennController,16,0,experiment,NULL,PennController,15,_Trial_,End,1687287344291,5c9879aed87fc4000155f4ac,5c9879aed87fc4000155f4ac,13,mix,critical,D,25,mix15.jpg,mix35.jpg,high,NULL
1687287461,baf8e6bf3cfaaa8424ea187a5126cbe3,PennController,31,0,experiment,NULL,PennController,30,_Trial_,Start,1687287344292,5c9879aed87fc4000155f4ac,5c9879aed87fc4000155f4ac,28,sort,filler,D,25,sort15.jpg,sort35.jpg,GoalA,NULL
1687287461,baf8e6bf3cfaaa8424ea187a5126cbe3,PennController,31,0,experiment,NULL,PennController,30,_Header_,Start,1687287344292,5c9879aed87fc4000155f4ac,5c9879aed87fc4000155f4ac,28,sort,filler,D,25,sort15.jpg,sort35.jpg,GoalA,NULL
1687287461,baf8e6bf3cfaaa8424ea187a5126cbe3,PennController,31,0,experiment,NULL,PennController,30,_Header_,End,1687287344292,5c9879aed87fc4000155f4ac,5c9879aed87fc4000155f4ac,28,sort,filler,D,25,sort15.jpg,sort35.jpg,GoalA,NULL
1687287461,baf8e6bf3cfaaa8424ea187a5126cbe3,PennController,31,0,experiment,NULL,Video,progression,buffer,0,1687287347821,5c9879aed87fc4000155f4ac,5c9879aed87fc4000155f4ac,28,sort,filler,D,25,sort15.jpg,sort35.jpg,GoalA,NULL
1687287461,baf8e6bf3cfaaa8424ea187a5126cbe3,PennController,31,0,experiment,NULL,Canvas,canvas6,Print,NA,1687287350079,5c9879aed87fc4000155f4ac,5c9879aed87fc4000155f4ac,28,sort,filler,D,25,sort15.jpg,sort35.jpg,GoalA,NULL
1687287461,baf8e6bf3cfaaa8424ea187a5126cbe3,PennController,31,0,experiment,NULL,Selector,choice,Selection,option1,1687287352257,5c9879aed87fc4000155f4ac,5c9879aed87fc4000155f4ac,28,sort,filler,D,25,sort15.jpg,sort35.jpg,GoalA,option1;option2
1687287461,baf8e6bf3cfaaa8424ea187a5126cbe3,PennController,31,0,experiment,NULL,PennController,30,_Trial_,End,1687287352259,5c9879aed87fc4000155f4ac,5c9879aed87fc4000155f4ac,28,sort,filler,D,25,sort15.jpg,sort35.jpg,GoalA,NULL
1687287461,baf8e6bf3cfaaa8424ea187a5126cbe3,PennController,32,0,experiment,NULL,PennController,31,_Trial_,Start,1687287352260,5c9879aed87fc4000155f4ac,5c9879aed87fc4000155f4ac,29,frog,filler,D,50,frog40.jpg,frog60.jpg,GoalB,NULL
1687287461,baf8e6bf3cfaaa8424ea187a5126cbe3,PennController,32,0,experiment,NULL,PennController,31,_Header_,Start,1687287352260,5c9879aed87fc4000155f4ac,5c9879aed87fc4000155f4ac,29,frog,filler,D,50,frog40.jpg,frog60.jpg,GoalB,NULL
1687287461,baf8e6bf3cfaaa8424ea187a5126cbe3,PennController,32,0,experiment,NULL,PennController,31,_Header_,End,1687287352260,5c9879aed87fc4000155f4ac,5c9879aed87fc4000155f4ac,29,frog,filler,D,50,frog40.jpg,frog60.jpg,GoalB,NULL
1687287461,baf8e6bf3cfaaa8424ea187a5126cbe3,PennController,32,0,experiment,NULL,Video,progression,buffer,0,1687287355808,5c9879aed87fc4000155f4ac,5c9879aed87fc4000155f4ac,29,frog,filler,D,50,frog40.jpg,frog60.jpg,GoalB,NULL
1687287461,baf8e6bf3cfaaa8424ea187a5126cbe3,PennController,32,0,experiment,NULL,Canvas,canvas6,Print,NA,1687287359067,5c9879aed87fc4000155f4ac,5c9879aed87fc4000155f4ac,29,frog,filler,D,50,frog40.jpg,frog60.jpg,GoalB,NULL
1687287461,baf8e6bf3cfaaa8424ea187a5126cbe3,PennController,32,0,experiment,NULL,Selector,choice,Selection,option2,1687287360177,5c9879aed87fc4000155f4ac,5c9879aed87fc4000155f4ac,29,frog,filler,D,50,frog40.jpg,frog60.jpg,GoalB,option2;option1
1687287461,baf8e6bf3cfaaa8424ea187a5126cbe3,PennController,32,0,experiment,NULL,PennController,31,_Trial_,End,1687287360178,5c9879aed87fc4000155f4ac,5c9879aed87fc4000155f4ac,29,frog,filler,D,50,frog40.jpg,frog60.jpg,GoalB,NULL
1687287461,baf8e6bf3cfaaa8424ea187a5126cbe3,PennController,20,0,experiment,NULL,PennController,19,_Trial_,Start,1687287360179,5c9879aed87fc4000155f4ac,5c9879aed87fc4000155f4ac,17,roll,critical,D,50,roll40.jpg,roll60.jpg,high,NULL
1687287461,baf8e6bf3cfaaa8424ea187a5126cbe3,PennController,20,0,experiment,NULL,PennController,19,_Header_,Start,1687287360179,5c9879aed87fc4000155f4ac,5c9879aed87fc4000155f4ac,17,roll,critical,D,50,roll40.jpg,roll60.jpg,high,NULL
1687287461,baf8e6bf3cfaaa8424ea187a5126cbe3,PennController,20,0,experiment,NULL,PennController,19,_Header_,End,1687287360179,5c9879aed87fc4000155f4ac,5c9879aed87fc4000155f4ac,17,roll,critical,D,50,roll40.jpg,roll60.jpg,high,NULL
1687287461,baf8e6bf3cfaaa8424ea187a5126cbe3,PennController,20,0,experiment,NULL,Video,progression,buffer,0,1687287363715,5c9879aed87fc4000155f4ac,5c9879aed87fc4000155f4ac,17,roll,critical,D,50,roll40.jpg,roll60.jpg,high,NULL
1687287461,baf8e6bf3cfaaa8424ea187a5126cbe3,PennController,20,0,experiment,NULL,Canvas,canvas6,Print,NA,1687287366995,5c9879aed87fc4000155f4ac,5c9879aed87fc4000155f4ac,17,roll,critical,D,50,roll40.jpg,roll60.jpg,high,NULL
1687287461,baf8e6bf3cfaaa8424ea187a5126cbe3,PennController,20,0,experiment,NULL,Selector,choice,Selection,option2,1687287371458,5c9879aed87fc4000155f4ac,5c9879aed87fc4000155f4ac,17,roll,critical,D,50,roll40.jpg,roll60.jpg,high,option2;option1
1687287461,baf8e6bf3cfaaa8424ea187a5126cbe3,PennController,20,0,experiment,NULL,PennController,19,_Trial_,End,1687287371459,5c9879aed87fc4000155f4ac,5c9879aed87fc4000155f4ac,17,roll,critical,D,50,roll40.jpg,roll60.jpg,high,NULL
1687287461,baf8e6bf3cfaaa8424ea187a5126cbe3,PennController,9,0,experiment,NULL,PennController,8,_Trial_,Start,1687287371460,5c9879aed87fc4000155f4ac,5c9879aed87fc4000155f4ac,6,flower,critical,D,75,flower65.jpg,flower85.jpg,high,NULL
1687287461,baf8e6bf3cfaaa8424ea187a5126cbe3,PennController,9,0,experiment,NULL,PennController,8,_Header_,Start,1687287371460,5c9879aed87fc4000155f4ac,5c9879aed87fc4000155f4ac,6,flower,critical,D,75,flower65.jpg,flower85.jpg,high,NULL
1687287461,baf8e6bf3cfaaa8424ea187a5126cbe3,PennController,9,0,experiment,NULL,PennController,8,_Header_,End,1687287371460,5c9879aed87fc4000155f4ac,5c9879aed87fc4000155f4ac,6,flower,critical,D,75,flower65.jpg,flower85.jpg,high,NULL
1687287461,baf8e6bf3cfaaa8424ea187a5126cbe3,PennController,9,0,experiment,NULL,Video,progression,buffer,0,1687287374994,5c9879aed87fc4000155f4ac,5c9879aed87fc4000155f4ac,6,flower,critical,D,75,flower65.jpg,flower85.jpg,high,NULL
1687287461,baf8e6bf3cfaaa8424ea187a5126cbe3,PennController,9,0,experiment,NULL,Canvas,canvas6,Print,NA,1687287379245,5c9879aed87fc4000155f4ac,5c9879aed87fc4000155f4ac,6,flower,critical,D,75,flower65.jpg,flower85.jpg,high,NULL
1687287461,baf8e6bf3cfaaa8424ea187a5126cbe3,PennController,9,0,experiment,NULL,Selector,choice,Selection,option1,1687287380769,5c9879aed87fc4000155f4ac,5c9879aed87fc4000155f4ac,6,flower,critical,D,75,flower65.jpg,flower85.jpg,high,option2;option1
1687287461,baf8e6bf3cfaaa8424ea187a5126cbe3,PennController,9,0,experiment,NULL,PennController,8,_Trial_,End,1687287380770,5c9879aed87fc4000155f4ac,5c9879aed87fc4000155f4ac,6,flower,critical,D,75,flower65.jpg,flower85.jpg,high,NULL
1687287461,baf8e6bf3cfaaa8424ea187a5126cbe3,PennController,8,0,experiment,NULL,PennController,7,_Trial_,Start,1687287380772,5c9879aed87fc4000155f4ac,5c9879aed87fc4000155f4ac,5,book,critical,D,50,book40.jpg,book60.jpg,high,NULL
1687287461,baf8e6bf3cfaaa8424ea187a5126cbe3,PennController,8,0,experiment,NULL,PennController,7,_Header_,Start,1687287380772,5c9879aed87fc4000155f4ac,5c9879aed87fc4000155f4ac,5,book,critical,D,50,book40.jpg,book60.jpg,high,NULL
1687287461,baf8e6bf3cfaaa8424ea187a5126cbe3,PennController,8,0,experiment,NULL,PennController,7,_Header_,End,1687287380772,5c9879aed87fc4000155f4ac,5c9879aed87fc4000155f4ac,5,book,critical,D,50,book40.jpg,book60.jpg,high,NULL
1687287461,baf8e6bf3cfaaa8424ea187a5126cbe3,PennController,8,0,experiment,NULL,Video,progression,buffer,0,1687287384307,5c9879aed87fc4000155f4ac,5c9879aed87fc4000155f4ac,5,book,critical,D,50,book40.jpg,book60.jpg,high,NULL
1687287461,baf8e6bf3cfaaa8424ea187a5126cbe3,PennController,8,0,experiment,NULL,Canvas,canvas6,Print,NA,1687287387571,5c9879aed87fc4000155f4ac,5c9879aed87fc4000155f4ac,5,book,critical,D,50,book40.jpg,book60.jpg,high,NULL
1687287461,baf8e6bf3cfaaa8424ea187a5126cbe3,PennController,8,0,experiment,NULL,Selector,choice,Selection,option1,1687287390433,5c9879aed87fc4000155f4ac,5c9879aed87fc4000155f4ac,5,book,critical,D,50,book40.jpg,book60.jpg,high,option1;option2
1687287461,baf8e6bf3cfaaa8424ea187a5126cbe3,PennController,8,0,experiment,NULL,PennController,7,_Trial_,End,1687287390435,5c9879aed87fc4000155f4ac,5c9879aed87fc4000155f4ac,5,book,critical,D,50,book40.jpg,book60.jpg,high,NULL
1687287461,baf8e6bf3cfaaa8424ea187a5126cbe3,PennController,11,0,experiment,NULL,PennController,10,_Trial_,Start,1687287390435,5c9879aed87fc4000155f4ac,5c9879aed87fc4000155f4ac,8,cucumber,critical,D,50,cucumber42.jpg,cucumber60.jpg,high,NULL
1687287461,baf8e6bf3cfaaa8424ea187a5126cbe3,PennController,11,0,experiment,NULL,PennController,10,_Header_,Start,1687287390435,5c9879aed87fc4000155f4ac,5c9879aed87fc4000155f4ac,8,cucumber,critical,D,50,cucumber42.jpg,cucumber60.jpg,high,NULL
1687287461,baf8e6bf3cfaaa8424ea187a5126cbe3,PennController,11,0,experiment,NULL,PennController,10,_Header_,End,1687287390435,5c9879aed87fc4000155f4ac,5c9879aed87fc4000155f4ac,8,cucumber,critical,D,50,cucumber42.jpg,cucumber60.jpg,high,NULL
1687287461,baf8e6bf3cfaaa8424ea187a5126cbe3,PennController,11,0,experiment,NULL,Video,progression,buffer,0,1687287393985,5c9879aed87fc4000155f4ac,5c9879aed87fc4000155f4ac,8,cucumber,critical,D,50,cucumber42.jpg,cucumber60.jpg,high,NULL
1687287461,baf8e6bf3cfaaa8424ea187a5126cbe3,PennController,11,0,experiment,NULL,Canvas,canvas6,Print,NA,1687287398636,5c9879aed87fc4000155f4ac,5c9879aed87fc4000155f4ac,8,cucumber,critical,D,50,cucumber42.jpg,cucumber60.jpg,high,NULL
1687287461,baf8e6bf3cfaaa8424ea187a5126cbe3,PennController,11,0,experiment,NULL,Selector,choice,Selection,option2,1687287400954,5c9879aed87fc4000155f4ac,5c9879aed87fc4000155f4ac,8,cucumber,critical,D,50,cucumber42.jpg,cucumber60.jpg,high,option1;option2
1687287461,baf8e6bf3cfaaa8424ea187a5126cbe3,PennController,11,0,experiment,NULL,PennController,10,_Trial_,End,1687287400955,5c9879aed87fc4000155f4ac,5c9879aed87fc4000155f4ac,8,cucumber,critical,D,50,cucumber42.jpg,cucumber60.jpg,high,NULL
1687287461,baf8e6bf3cfaaa8424ea187a5126cbe3,PennController,5,0,experiment,NULL,PennController,4,_Trial_,Start,1687287400955,5c9879aed87fc4000155f4ac,5c9879aed87fc4000155f4ac,2,door,critical,D,50,door40.jpg,door60.jpg,high,NULL
1687287461,baf8e6bf3cfaaa8424ea187a5126cbe3,PennController,5,0,experiment,NULL,PennController,4,_Header_,Start,1687287400955,5c9879aed87fc4000155f4ac,5c9879aed87fc4000155f4ac,2,door,critical,D,50,door40.jpg,door60.jpg,high,NULL
1687287461,baf8e6bf3cfaaa8424ea187a5126cbe3,PennController,5,0,experiment,NULL,PennController,4,_Header_,End,1687287400955,5c9879aed87fc4000155f4ac,5c9879aed87fc4000155f4ac,2,door,critical,D,50,door40.jpg,door60.jpg,high,NULL
1687287461,baf8e6bf3cfaaa8424ea187a5126cbe3,PennController,5,0,experiment,NULL,Video,progression,buffer,0,1687287404498,5c9879aed87fc4000155f4ac,5c9879aed87fc4000155f4ac,2,door,critical,D,50,door40.jpg,door60.jpg,high,NULL
1687287461,baf8e6bf3cfaaa8424ea187a5126cbe3,PennController,5,0,experiment,NULL,Canvas,canvas6,Print,NA,1687287407760,5c9879aed87fc4000155f4ac,5c9879aed87fc4000155f4ac,2,door,critical,D,50,door40.jpg,door60.jpg,high,NULL
1687287461,baf8e6bf3cfaaa8424ea187a5126cbe3,PennController,5,0,experiment,NULL,Selector,choice,Selection,option1,1687287410505,5c9879aed87fc4000155f4ac,5c9879aed87fc4000155f4ac,2,door,critical,D,50,door40.jpg,door60.jpg,high,option2;option1
1687287461,baf8e6bf3cfaaa8424ea187a5126cbe3,PennController,5,0,experiment,NULL,PennController,4,_Trial_,End,1687287410507,5c9879aed87fc4000155f4ac,5c9879aed87fc4000155f4ac,2,door,critical,D,50,door40.jpg,door60.jpg,high,NULL
1687287461,baf8e6bf3cfaaa8424ea187a5126cbe3,PennController,18,0,experiment,NULL,PennController,17,_Trial_,Start,1687287410508,5c9879aed87fc4000155f4ac,5c9879aed87fc4000155f4ac,15,zip,critical,D,75,zip65.jpg,zip85.jpg,high,NULL
1687287461,baf8e6bf3cfaaa8424ea187a5126cbe3,PennController,18,0,experiment,NULL,PennController,17,_Header_,Start,1687287410508,5c9879aed87fc4000155f4ac,5c9879aed87fc4000155f4ac,15,zip,critical,D,75,zip65.jpg,zip85.jpg,high,NULL
1687287461,baf8e6bf3cfaaa8424ea187a5126cbe3,PennController,18,0,experiment,NULL,PennController,17,_Header_,End,1687287410508,5c9879aed87fc4000155f4ac,5c9879aed87fc4000155f4ac,15,zip,critical,D,75,zip65.jpg,zip85.jpg,high,NULL
1687287461,baf8e6bf3cfaaa8424ea187a5126cbe3,PennController,18,0,experiment,NULL,Video,progression,buffer,0,1687287414069,5c9879aed87fc4000155f4ac,5c9879aed87fc4000155f4ac,15,zip,critical,D,75,zip65.jpg,zip85.jpg,high,NULL
1687287461,baf8e6bf3cfaaa8424ea187a5126cbe3,PennController,18,0,experiment,NULL,Canvas,canvas6,Print,NA,1687287417530,5c9879aed87fc4000155f4ac,5c9879aed87fc4000155f4ac,15,zip,critical,D,75,zip65.jpg,zip85.jpg,high,NULL
1687287461,baf8e6bf3cfaaa8424ea187a5126cbe3,PennController,18,0,experiment,NULL,Selector,choice,Selection,option1,1687287419993,5c9879aed87fc4000155f4ac,5c9879aed87fc4000155f4ac,15,zip,critical,D,75,zip65.jpg,zip85.jpg,high,option1;option2
1687287461,baf8e6bf3cfaaa8424ea187a5126cbe3,PennController,18,0,experiment,NULL,PennController,17,_Trial_,End,1687287419994,5c9879aed87fc4000155f4ac,5c9879aed87fc4000155f4ac,15,zip,critical,D,75,zip65.jpg,zip85.jpg,high,NULL
1687287461,baf8e6bf3cfaaa8424ea187a5126cbe3,PennController,17,0,experiment,NULL,PennController,16,_Trial_,Start,1687287419995,5c9879aed87fc4000155f4ac,5c9879aed87fc4000155f4ac,14,cover,critical,D,50,cover42.jpg,cover60.jpg,high,NULL
1687287461,baf8e6bf3cfaaa8424ea187a5126cbe3,PennController,17,0,experiment,NULL,PennController,16,_Header_,Start,1687287419995,5c9879aed87fc4000155f4ac,5c9879aed87fc4000155f4ac,14,cover,critical,D,50,cover42.jpg,cover60.jpg,high,NULL
1687287461,baf8e6bf3cfaaa8424ea187a5126cbe3,PennController,17,0,experiment,NULL,PennController,16,_Header_,End,1687287419995,5c9879aed87fc4000155f4ac,5c9879aed87fc4000155f4ac,14,cover,critical,D,50,cover42.jpg,cover60.jpg,high,NULL
1687287461,baf8e6bf3cfaaa8424ea187a5126cbe3,PennController,17,0,experiment,NULL,Video,progression,buffer,0,1687287423547,5c9879aed87fc4000155f4ac,5c9879aed87fc4000155f4ac,14,cover,critical,D,50,cover42.jpg,cover60.jpg,high,NULL
1687287461,baf8e6bf3cfaaa8424ea187a5126cbe3,PennController,17,0,experiment,NULL,Canvas,canvas6,Print,NA,1687287428206,5c9879aed87fc4000155f4ac,5c9879aed87fc4000155f4ac,14,cover,critical,D,50,cover42.jpg,cover60.jpg,high,NULL
1687287461,baf8e6bf3cfaaa8424ea187a5126cbe3,PennController,17,0,experiment,NULL,Selector,choice,Selection,option1,1687287430273,5c9879aed87fc4000155f4ac,5c9879aed87fc4000155f4ac,14,cover,critical,D,50,cover42.jpg,cover60.jpg,high,option1;option2
1687287461,baf8e6bf3cfaaa8424ea187a5126cbe3,PennController,17,0,experiment,NULL,PennController,16,_Trial_,End,1687287430275,5c9879aed87fc4000155f4ac,5c9879aed87fc4000155f4ac,14,cover,critical,D,50,cover42.jpg,cover60.jpg,high,NULL
1687287461,baf8e6bf3cfaaa8424ea187a5126cbe3,PennController,30,0,experiment,NULL,PennController,29,_Trial_,Start,1687287430275,5c9879aed87fc4000155f4ac,5c9879aed87fc4000155f4ac,27,square,filler,D,75,square65.jpg,square85.jpg,GoalB,NULL
1687287461,baf8e6bf3cfaaa8424ea187a5126cbe3,PennController,30,0,experiment,NULL,PennController,29,_Header_,Start,1687287430275,5c9879aed87fc4000155f4ac,5c9879aed87fc4000155f4ac,27,square,filler,D,75,square65.jpg,square85.jpg,GoalB,NULL
1687287461,baf8e6bf3cfaaa8424ea187a5126cbe3,PennController,30,0,experiment,NULL,PennController,29,_Header_,End,1687287430276,5c9879aed87fc4000155f4ac,5c9879aed87fc4000155f4ac,27,square,filler,D,75,square65.jpg,square85.jpg,GoalB,NULL
1687287461,baf8e6bf3cfaaa8424ea187a5126cbe3,PennController,30,0,experiment,NULL,Video,progression,buffer,0,1687287433825,5c9879aed87fc4000155f4ac,5c9879aed87fc4000155f4ac,27,square,filler,D,75,square65.jpg,square85.jpg,GoalB,NULL
1687287461,baf8e6bf3cfaaa8424ea187a5126cbe3,PennController,30,0,experiment,NULL,Canvas,canvas6,Print,NA,1687287438077,5c9879aed87fc4000155f4ac,5c9879aed87fc4000155f4ac,27,square,filler,D,75,square65.jpg,square85.jpg,GoalB,NULL
1687287461,baf8e6bf3cfaaa8424ea187a5126cbe3,PennController,30,0,experiment,NULL,Selector,choice,Selection,option1,1687287441986,5c9879aed87fc4000155f4ac,5c9879aed87fc4000155f4ac,27,square,filler,D,75,square65.jpg,square85.jpg,GoalB,option2;option1
1687287461,baf8e6bf3cfaaa8424ea187a5126cbe3,PennController,30,0,experiment,NULL,PennController,29,_Trial_,End,1687287441988,5c9879aed87fc4000155f4ac,5c9879aed87fc4000155f4ac,27,square,filler,D,75,square65.jpg,square85.jpg,GoalB,NULL
1687287461,baf8e6bf3cfaaa8424ea187a5126cbe3,PennController,19,0,experiment,NULL,PennController,18,_Trial_,Start,1687287441989,5c9879aed87fc4000155f4ac,5c9879aed87fc4000155f4ac,16,blinds,critical,D,25,blinds15.jpg,blinds33.jpg,high,NULL
1687287461,baf8e6bf3cfaaa8424ea187a5126cbe3,PennController,19,0,experiment,NULL,PennController,18,_Header_,Start,1687287441989,5c9879aed87fc4000155f4ac,5c9879aed87fc4000155f4ac,16,blinds,critical,D,25,blinds15.jpg,blinds33.jpg,high,NULL
1687287461,baf8e6bf3cfaaa8424ea187a5126cbe3,PennController,19,0,experiment,NULL,PennController,18,_Header_,End,1687287441989,5c9879aed87fc4000155f4ac,5c9879aed87fc4000155f4ac,16,blinds,critical,D,25,blinds15.jpg,blinds33.jpg,high,NULL
1687287461,baf8e6bf3cfaaa8424ea187a5126cbe3,PennController,19,0,experiment,NULL,Video,progression,buffer,0,1687287445528,5c9879aed87fc4000155f4ac,5c9879aed87fc4000155f4ac,16,blinds,critical,D,25,blinds15.jpg,blinds33.jpg,high,NULL
1687287461,baf8e6bf3cfaaa8424ea187a5126cbe3,PennController,19,0,experiment,NULL,Canvas,canvas6,Print,NA,1687287448398,5c9879aed87fc4000155f4ac,5c9879aed87fc4000155f4ac,16,blinds,critical,D,25,blinds15.jpg,blinds33.jpg,high,NULL
1687287461,baf8e6bf3cfaaa8424ea187a5126cbe3,PennController,19,0,experiment,NULL,Selector,choice,Selection,option2,1687287452179,5c9879aed87fc4000155f4ac,5c9879aed87fc4000155f4ac,16,blinds,critical,D,25,blinds15.jpg,blinds33.jpg,high,option2;option1
1687287461,baf8e6bf3cfaaa8424ea187a5126cbe3,PennController,19,0,experiment,NULL,PennController,18,_Trial_,End,1687287452184,5c9879aed87fc4000155f4ac,5c9879aed87fc4000155f4ac,16,blinds,critical,D,25,blinds15.jpg,blinds33.jpg,high,NULL
1687287461,baf8e6bf3cfaaa8424ea187a5126cbe3,PennController,23,0,experiment,NULL,PennController,22,_Trial_,Start,1687287452190,5c9879aed87fc4000155f4ac,5c9879aed87fc4000155f4ac,20,cat,filler,D,50,cat40.jpg,cat60.jpg,GoalA,NULL
1687287461,baf8e6bf3cfaaa8424ea187a5126cbe3,PennController,23,0,experiment,NULL,PennController,22,_Header_,Start,1687287452190,5c9879aed87fc4000155f4ac,5c9879aed87fc4000155f4ac,20,cat,filler,D,50,cat40.jpg,cat60.jpg,GoalA,NULL
1687287461,baf8e6bf3cfaaa8424ea187a5126cbe3,PennController,23,0,experiment,NULL,PennController,22,_Header_,End,1687287452191,5c9879aed87fc4000155f4ac,5c9879aed87fc4000155f4ac,20,cat,filler,D,50,cat40.jpg,cat60.jpg,GoalA,NULL
1687287461,baf8e6bf3cfaaa8424ea187a5126cbe3,PennController,23,0,experiment,NULL,Video,progression,buffer,0,1687287455733,5c9879aed87fc4000155f4ac,5c9879aed87fc4000155f4ac,20,cat,filler,D,50,cat40.jpg,cat60.jpg,GoalA,NULL
1687287461,baf8e6bf3cfaaa8424ea187a5126cbe3,PennController,23,0,experiment,NULL,Canvas,canvas6,Print,NA,1687287458990,5c9879aed87fc4000155f4ac,5c9879aed87fc4000155f4ac,20,cat,filler,D,50,cat40.jpg,cat60.jpg,GoalA,NULL
1687287461,baf8e6bf3cfaaa8424ea187a5126cbe3,PennController,23,0,experiment,NULL,Selector,choice,Selection,option2,1687287460370,5c9879aed87fc4000155f4ac,5c9879aed87fc4000155f4ac,20,cat,filler,D,50,cat40.jpg,cat60.jpg,GoalA,option2;option1
1687287461,baf8e6bf3cfaaa8424ea187a5126cbe3,PennController,23,0,experiment,NULL,PennController,22,_Trial_,End,1687287460371,5c9879aed87fc4000155f4ac,5c9879aed87fc4000155f4ac,20,cat,filler,D,50,cat40.jpg,cat60.jpg,GoalA,NULL
