#
# Results on Thursday June 22 2023 04:39:02 UTC
# USER AGENT: Mozilla/5.0 (Windows NT 10.0; Win64; x64) AppleWebKit/537.36 (KHTML, like Gecko) Chrome/112.0.0.0 Safari/537.36
# Design number was non-random = 75
#
# Columns below this comment are as follows:
# 1. Results reception time.
# 2. MD5 hash of participant's IP address.
# 3. Controller name.
# 4. Order number of item.
# 5. Inner element number.
# 6. Label.
# 7. Latin Square Group.
# 8. PennElementType.
# 9. PennElementName.
# 10. Parameter.
# 11. Value.
# 12. EventTime.
# 13. PROLIFIC_ID.
# 14. Comments.
1687408742,b48001bacf7e274e820a696ada854fa2,PennController,3,0,consent,NULL,PennController,0,_Trial_,Start,1687408216475,5f573b18a6a8b51a94fdbd08,NULL
1687408742,b48001bacf7e274e820a696ada854fa2,PennController,3,0,consent,NULL,PennController,0,_Header_,Start,1687408216476,5f573b18a6a8b51a94fdbd08,NULL
1687408742,b48001bacf7e274e820a696ada854fa2,PennController,3,0,consent,NULL,PennController,0,_Header_,End,1687408216476,5f573b18a6a8b51a94fdbd08,NULL
1687408742,b48001bacf7e274e820a696ada854fa2,PennController,3,0,consent,NULL,PennController,0,_Trial_,End,1687408322742,5f573b18a6a8b51a94fdbd08,NULL
# Columns below this comment are as follows:
# 14. ID.
# 15. Comments.
1687408742,b48001bacf7e274e820a696ada854fa2,PennController,4,0,intro,NULL,PennController,1,_Trial_,Start,1687408322750,5f573b18a6a8b51a94fdbd08,5f573b18a6a8b51a94fdbd08,NULL
1687408742,b48001bacf7e274e820a696ada854fa2,PennController,4,0,intro,NULL,PennController,1,_Header_,Start,1687408322750,5f573b18a6a8b51a94fdbd08,5f573b18a6a8b51a94fdbd08,NULL
1687408742,b48001bacf7e274e820a696ada854fa2,PennController,4,0,intro,NULL,PennController,1,_Header_,End,1687408322750,5f573b18a6a8b51a94fdbd08,5f573b18a6a8b51a94fdbd08,NULL
1687408742,b48001bacf7e274e820a696ada854fa2,PennController,4,0,intro,NULL,PennController,1,_Trial_,End,1687408332140,5f573b18a6a8b51a94fdbd08,5f573b18a6a8b51a94fdbd08,NULL
# Columns below this comment are as follows:
# 15. item_number.
# 16. item.
# 17. type.
# 18. Group.
# 19. prog.
# 20. prev_image.
# 21. next_image.
# 22. height.
# 23. Comments.
1687408742,b48001bacf7e274e820a696ada854fa2,PennController,25,0,experiment,NULL,PennController,23,_Trial_,Start,1687408332141,5f573b18a6a8b51a94fdbd08,5f573b18a6a8b51a94fdbd08,21,visit,filler,F,50,visit40.jpg,visit60.jpg,GoalB,NULL
1687408742,b48001bacf7e274e820a696ada854fa2,PennController,25,0,experiment,NULL,PennController,23,_Header_,Start,1687408332141,5f573b18a6a8b51a94fdbd08,5f573b18a6a8b51a94fdbd08,21,visit,filler,F,50,visit40.jpg,visit60.jpg,GoalB,NULL
1687408742,b48001bacf7e274e820a696ada854fa2,PennController,25,0,experiment,NULL,PennController,23,_Header_,End,1687408332142,5f573b18a6a8b51a94fdbd08,5f573b18a6a8b51a94fdbd08,21,visit,filler,F,50,visit40.jpg,visit60.jpg,GoalB,NULL
1687408742,b48001bacf7e274e820a696ada854fa2,PennController,25,0,experiment,NULL,Canvas,canvas6,Print,NA,1687408338945,5f573b18a6a8b51a94fdbd08,5f573b18a6a8b51a94fdbd08,21,visit,filler,F,50,visit40.jpg,visit60.jpg,GoalB,NULL
1687408742,b48001bacf7e274e820a696ada854fa2,PennController,25,0,experiment,NULL,Video,progression,buffer,0.006934,1687408335736,5f573b18a6a8b51a94fdbd08,5f573b18a6a8b51a94fdbd08,21,visit,filler,F,50,visit40.jpg,visit60.jpg,GoalB,NULL
1687408742,b48001bacf7e274e820a696ada854fa2,PennController,25,0,experiment,NULL,Selector,choice,Selection,option1,1687408350087,5f573b18a6a8b51a94fdbd08,5f573b18a6a8b51a94fdbd08,21,visit,filler,F,50,visit40.jpg,visit60.jpg,GoalB,option2;option1
1687408742,b48001bacf7e274e820a696ada854fa2,PennController,25,0,experiment,NULL,PennController,23,_Trial_,End,1687408350090,5f573b18a6a8b51a94fdbd08,5f573b18a6a8b51a94fdbd08,21,visit,filler,F,50,visit40.jpg,visit60.jpg,GoalB,NULL
1687408742,b48001bacf7e274e820a696ada854fa2,PennController,32,0,experiment,NULL,PennController,30,_Trial_,Start,1687408350094,5f573b18a6a8b51a94fdbd08,5f573b18a6a8b51a94fdbd08,28,sort,filler,F,75,sort65.jpg,sort85.jpg,GoalA,NULL
1687408742,b48001bacf7e274e820a696ada854fa2,PennController,32,0,experiment,NULL,PennController,30,_Header_,Start,1687408350094,5f573b18a6a8b51a94fdbd08,5f573b18a6a8b51a94fdbd08,28,sort,filler,F,75,sort65.jpg,sort85.jpg,GoalA,NULL
1687408742,b48001bacf7e274e820a696ada854fa2,PennController,32,0,experiment,NULL,PennController,30,_Header_,End,1687408350094,5f573b18a6a8b51a94fdbd08,5f573b18a6a8b51a94fdbd08,28,sort,filler,F,75,sort65.jpg,sort85.jpg,GoalA,NULL
1687408742,b48001bacf7e274e820a696ada854fa2,PennController,32,0,experiment,NULL,Canvas,canvas6,Print,NA,1687408357817,5f573b18a6a8b51a94fdbd08,5f573b18a6a8b51a94fdbd08,28,sort,filler,F,75,sort65.jpg,sort85.jpg,GoalA,NULL
1687408742,b48001bacf7e274e820a696ada854fa2,PennController,32,0,experiment,NULL,Video,progression,buffer,0.004508,1687408353635,5f573b18a6a8b51a94fdbd08,5f573b18a6a8b51a94fdbd08,28,sort,filler,F,75,sort65.jpg,sort85.jpg,GoalA,NULL
1687408742,b48001bacf7e274e820a696ada854fa2,PennController,32,0,experiment,NULL,Selector,choice,Selection,option1,1687408363116,5f573b18a6a8b51a94fdbd08,5f573b18a6a8b51a94fdbd08,28,sort,filler,F,75,sort65.jpg,sort85.jpg,GoalA,option1;option2
1687408742,b48001bacf7e274e820a696ada854fa2,PennController,32,0,experiment,NULL,PennController,30,_Trial_,End,1687408363119,5f573b18a6a8b51a94fdbd08,5f573b18a6a8b51a94fdbd08,28,sort,filler,F,75,sort65.jpg,sort85.jpg,GoalA,NULL
1687408742,b48001bacf7e274e820a696ada854fa2,PennController,10,0,experiment,NULL,PennController,8,_Trial_,Start,1687408363122,5f573b18a6a8b51a94fdbd08,5f573b18a6a8b51a94fdbd08,6,flower,critical,F,50,flower40.jpg,flower60.jpg,high,NULL
1687408742,b48001bacf7e274e820a696ada854fa2,PennController,10,0,experiment,NULL,PennController,8,_Header_,Start,1687408363122,5f573b18a6a8b51a94fdbd08,5f573b18a6a8b51a94fdbd08,6,flower,critical,F,50,flower40.jpg,flower60.jpg,high,NULL
1687408742,b48001bacf7e274e820a696ada854fa2,PennController,10,0,experiment,NULL,PennController,8,_Header_,End,1687408363123,5f573b18a6a8b51a94fdbd08,5f573b18a6a8b51a94fdbd08,6,flower,critical,F,50,flower40.jpg,flower60.jpg,high,NULL
1687408742,b48001bacf7e274e820a696ada854fa2,PennController,10,0,experiment,NULL,Canvas,canvas6,Print,NA,1687408369867,5f573b18a6a8b51a94fdbd08,5f573b18a6a8b51a94fdbd08,6,flower,critical,F,50,flower40.jpg,flower60.jpg,high,NULL
1687408742,b48001bacf7e274e820a696ada854fa2,PennController,10,0,experiment,NULL,Video,progression,buffer,0.011523,1687408366693,5f573b18a6a8b51a94fdbd08,5f573b18a6a8b51a94fdbd08,6,flower,critical,F,50,flower40.jpg,flower60.jpg,high,NULL
1687408742,b48001bacf7e274e820a696ada854fa2,PennController,10,0,experiment,NULL,Selector,choice,Selection,option1,1687408377741,5f573b18a6a8b51a94fdbd08,5f573b18a6a8b51a94fdbd08,6,flower,critical,F,50,flower40.jpg,flower60.jpg,high,option2;option1
1687408742,b48001bacf7e274e820a696ada854fa2,PennController,10,0,experiment,NULL,PennController,8,_Trial_,End,1687408377744,5f573b18a6a8b51a94fdbd08,5f573b18a6a8b51a94fdbd08,6,flower,critical,F,50,flower40.jpg,flower60.jpg,high,NULL
1687408742,b48001bacf7e274e820a696ada854fa2,PennController,18,0,experiment,NULL,PennController,16,_Trial_,Start,1687408377749,5f573b18a6a8b51a94fdbd08,5f573b18a6a8b51a94fdbd08,14,cover,critical,F,25,cover15.jpg,cover33.jpg,high,NULL
1687408742,b48001bacf7e274e820a696ada854fa2,PennController,18,0,experiment,NULL,PennController,16,_Header_,Start,1687408377749,5f573b18a6a8b51a94fdbd08,5f573b18a6a8b51a94fdbd08,14,cover,critical,F,25,cover15.jpg,cover33.jpg,high,NULL
1687408742,b48001bacf7e274e820a696ada854fa2,PennController,18,0,experiment,NULL,PennController,16,_Header_,End,1687408377749,5f573b18a6a8b51a94fdbd08,5f573b18a6a8b51a94fdbd08,14,cover,critical,F,25,cover15.jpg,cover33.jpg,high,NULL
1687408742,b48001bacf7e274e820a696ada854fa2,PennController,18,0,experiment,NULL,Canvas,canvas6,Print,NA,1687408384079,5f573b18a6a8b51a94fdbd08,5f573b18a6a8b51a94fdbd08,14,cover,critical,F,25,cover15.jpg,cover33.jpg,high,NULL
1687408742,b48001bacf7e274e820a696ada854fa2,PennController,18,0,experiment,NULL,Video,progression,buffer,0.008841,1687408381309,5f573b18a6a8b51a94fdbd08,5f573b18a6a8b51a94fdbd08,14,cover,critical,F,25,cover15.jpg,cover33.jpg,high,NULL
1687408742,b48001bacf7e274e820a696ada854fa2,PennController,18,0,experiment,NULL,Selector,choice,Selection,option2,1687408388420,5f573b18a6a8b51a94fdbd08,5f573b18a6a8b51a94fdbd08,14,cover,critical,F,25,cover15.jpg,cover33.jpg,high,option2;option1
1687408742,b48001bacf7e274e820a696ada854fa2,PennController,18,0,experiment,NULL,PennController,16,_Trial_,End,1687408388424,5f573b18a6a8b51a94fdbd08,5f573b18a6a8b51a94fdbd08,14,cover,critical,F,25,cover15.jpg,cover33.jpg,high,NULL
1687408742,b48001bacf7e274e820a696ada854fa2,PennController,12,0,experiment,NULL,PennController,10,_Trial_,Start,1687408388428,5f573b18a6a8b51a94fdbd08,5f573b18a6a8b51a94fdbd08,8,cucumber,critical,F,25,cucumber15.jpg,cucumber33.jpg,high,NULL
1687408742,b48001bacf7e274e820a696ada854fa2,PennController,12,0,experiment,NULL,PennController,10,_Header_,Start,1687408388428,5f573b18a6a8b51a94fdbd08,5f573b18a6a8b51a94fdbd08,8,cucumber,critical,F,25,cucumber15.jpg,cucumber33.jpg,high,NULL
1687408742,b48001bacf7e274e820a696ada854fa2,PennController,12,0,experiment,NULL,PennController,10,_Header_,End,1687408388428,5f573b18a6a8b51a94fdbd08,5f573b18a6a8b51a94fdbd08,8,cucumber,critical,F,25,cucumber15.jpg,cucumber33.jpg,high,NULL
1687408742,b48001bacf7e274e820a696ada854fa2,PennController,12,0,experiment,NULL,Canvas,canvas6,Print,NA,1687408394754,5f573b18a6a8b51a94fdbd08,5f573b18a6a8b51a94fdbd08,8,cucumber,critical,F,25,cucumber15.jpg,cucumber33.jpg,high,NULL
1687408742,b48001bacf7e274e820a696ada854fa2,PennController,12,0,experiment,NULL,Video,progression,buffer,0.01014,1687408391985,5f573b18a6a8b51a94fdbd08,5f573b18a6a8b51a94fdbd08,8,cucumber,critical,F,25,cucumber15.jpg,cucumber33.jpg,high,NULL
1687408742,b48001bacf7e274e820a696ada854fa2,PennController,12,0,experiment,NULL,Selector,choice,Selection,option1,1687408402890,5f573b18a6a8b51a94fdbd08,5f573b18a6a8b51a94fdbd08,8,cucumber,critical,F,25,cucumber15.jpg,cucumber33.jpg,high,option1;option2
1687408742,b48001bacf7e274e820a696ada854fa2,PennController,12,0,experiment,NULL,PennController,10,_Trial_,End,1687408402894,5f573b18a6a8b51a94fdbd08,5f573b18a6a8b51a94fdbd08,8,cucumber,critical,F,25,cucumber15.jpg,cucumber33.jpg,high,NULL
1687408742,b48001bacf7e274e820a696ada854fa2,PennController,17,0,experiment,NULL,PennController,15,_Trial_,Start,1687408402898,5f573b18a6a8b51a94fdbd08,5f573b18a6a8b51a94fdbd08,13,mix,critical,F,75,mix65.jpg,mix85.jpg,high,NULL
1687408742,b48001bacf7e274e820a696ada854fa2,PennController,17,0,experiment,NULL,PennController,15,_Header_,Start,1687408402898,5f573b18a6a8b51a94fdbd08,5f573b18a6a8b51a94fdbd08,13,mix,critical,F,75,mix65.jpg,mix85.jpg,high,NULL
1687408742,b48001bacf7e274e820a696ada854fa2,PennController,17,0,experiment,NULL,PennController,15,_Header_,End,1687408402898,5f573b18a6a8b51a94fdbd08,5f573b18a6a8b51a94fdbd08,13,mix,critical,F,75,mix65.jpg,mix85.jpg,high,NULL
1687408742,b48001bacf7e274e820a696ada854fa2,PennController,17,0,experiment,NULL,Canvas,canvas6,Print,NA,1687408410588,5f573b18a6a8b51a94fdbd08,5f573b18a6a8b51a94fdbd08,13,mix,critical,F,75,mix65.jpg,mix85.jpg,high,NULL
1687408742,b48001bacf7e274e820a696ada854fa2,PennController,17,0,experiment,NULL,Video,progression,buffer,0.006795,1687408406449,5f573b18a6a8b51a94fdbd08,5f573b18a6a8b51a94fdbd08,13,mix,critical,F,75,mix65.jpg,mix85.jpg,high,NULL
1687408742,b48001bacf7e274e820a696ada854fa2,PennController,17,0,experiment,NULL,Selector,choice,Selection,option2,1687408415732,5f573b18a6a8b51a94fdbd08,5f573b18a6a8b51a94fdbd08,13,mix,critical,F,75,mix65.jpg,mix85.jpg,high,option1;option2
1687408742,b48001bacf7e274e820a696ada854fa2,PennController,17,0,experiment,NULL,PennController,15,_Trial_,End,1687408415735,5f573b18a6a8b51a94fdbd08,5f573b18a6a8b51a94fdbd08,13,mix,critical,F,75,mix65.jpg,mix85.jpg,high,NULL
1687408742,b48001bacf7e274e820a696ada854fa2,PennController,28,0,experiment,NULL,PennController,26,_Trial_,Start,1687408415738,5f573b18a6a8b51a94fdbd08,5f573b18a6a8b51a94fdbd08,24,match,filler,F,50,match40.jpg,match60.jpg,GoalA,NULL
1687408742,b48001bacf7e274e820a696ada854fa2,PennController,28,0,experiment,NULL,PennController,26,_Header_,Start,1687408415738,5f573b18a6a8b51a94fdbd08,5f573b18a6a8b51a94fdbd08,24,match,filler,F,50,match40.jpg,match60.jpg,GoalA,NULL
1687408742,b48001bacf7e274e820a696ada854fa2,PennController,28,0,experiment,NULL,PennController,26,_Header_,End,1687408415738,5f573b18a6a8b51a94fdbd08,5f573b18a6a8b51a94fdbd08,24,match,filler,F,50,match40.jpg,match60.jpg,GoalA,NULL
1687408742,b48001bacf7e274e820a696ada854fa2,PennController,28,0,experiment,NULL,Canvas,canvas6,Print,NA,1687408422462,5f573b18a6a8b51a94fdbd08,5f573b18a6a8b51a94fdbd08,24,match,filler,F,50,match40.jpg,match60.jpg,GoalA,NULL
1687408742,b48001bacf7e274e820a696ada854fa2,PennController,28,0,experiment,NULL,Video,progression,buffer,0.002918,1687408419283,5f573b18a6a8b51a94fdbd08,5f573b18a6a8b51a94fdbd08,24,match,filler,F,50,match40.jpg,match60.jpg,GoalA,NULL
1687408742,b48001bacf7e274e820a696ada854fa2,PennController,28,0,experiment,NULL,Selector,choice,Selection,option2,1687408433075,5f573b18a6a8b51a94fdbd08,5f573b18a6a8b51a94fdbd08,24,match,filler,F,50,match40.jpg,match60.jpg,GoalA,option2;option1
1687408742,b48001bacf7e274e820a696ada854fa2,PennController,28,0,experiment,NULL,PennController,26,_Trial_,End,1687408433079,5f573b18a6a8b51a94fdbd08,5f573b18a6a8b51a94fdbd08,24,match,filler,F,50,match40.jpg,match60.jpg,GoalA,NULL
1687408742,b48001bacf7e274e820a696ada854fa2,PennController,15,0,experiment,NULL,PennController,13,_Trial_,Start,1687408433083,5f573b18a6a8b51a94fdbd08,5f573b18a6a8b51a94fdbd08,11,beads,critical,F,25,beads15.jpg,beads35.jpg,high,NULL
1687408742,b48001bacf7e274e820a696ada854fa2,PennController,15,0,experiment,NULL,PennController,13,_Header_,Start,1687408433083,5f573b18a6a8b51a94fdbd08,5f573b18a6a8b51a94fdbd08,11,beads,critical,F,25,beads15.jpg,beads35.jpg,high,NULL
1687408742,b48001bacf7e274e820a696ada854fa2,PennController,15,0,experiment,NULL,PennController,13,_Header_,End,1687408433083,5f573b18a6a8b51a94fdbd08,5f573b18a6a8b51a94fdbd08,11,beads,critical,F,25,beads15.jpg,beads35.jpg,high,NULL
1687408742,b48001bacf7e274e820a696ada854fa2,PennController,15,0,experiment,NULL,Canvas,canvas6,Print,NA,1687408438807,5f573b18a6a8b51a94fdbd08,5f573b18a6a8b51a94fdbd08,11,beads,critical,F,25,beads15.jpg,beads35.jpg,high,NULL
1687408742,b48001bacf7e274e820a696ada854fa2,PennController,15,0,experiment,NULL,Video,progression,buffer,0.008469,1687408436636,5f573b18a6a8b51a94fdbd08,5f573b18a6a8b51a94fdbd08,11,beads,critical,F,25,beads15.jpg,beads35.jpg,high,NULL
1687408742,b48001bacf7e274e820a696ada854fa2,PennController,15,0,experiment,NULL,Selector,choice,Selection,option2,1687408444748,5f573b18a6a8b51a94fdbd08,5f573b18a6a8b51a94fdbd08,11,beads,critical,F,25,beads15.jpg,beads35.jpg,high,option1;option2
1687408742,b48001bacf7e274e820a696ada854fa2,PennController,15,0,experiment,NULL,PennController,13,_Trial_,End,1687408444752,5f573b18a6a8b51a94fdbd08,5f573b18a6a8b51a94fdbd08,11,beads,critical,F,25,beads15.jpg,beads35.jpg,high,NULL
1687408742,b48001bacf7e274e820a696ada854fa2,PennController,19,0,experiment,NULL,PennController,17,_Trial_,Start,1687408444755,5f573b18a6a8b51a94fdbd08,5f573b18a6a8b51a94fdbd08,15,zip,critical,F,50,zip40.jpg,zip60.jpg,high,NULL
1687408742,b48001bacf7e274e820a696ada854fa2,PennController,19,0,experiment,NULL,PennController,17,_Header_,Start,1687408444755,5f573b18a6a8b51a94fdbd08,5f573b18a6a8b51a94fdbd08,15,zip,critical,F,50,zip40.jpg,zip60.jpg,high,NULL
1687408742,b48001bacf7e274e820a696ada854fa2,PennController,19,0,experiment,NULL,PennController,17,_Header_,End,1687408444755,5f573b18a6a8b51a94fdbd08,5f573b18a6a8b51a94fdbd08,15,zip,critical,F,50,zip40.jpg,zip60.jpg,high,NULL
1687408742,b48001bacf7e274e820a696ada854fa2,PennController,19,0,experiment,NULL,Canvas,canvas6,Print,NA,1687408451474,5f573b18a6a8b51a94fdbd08,5f573b18a6a8b51a94fdbd08,15,zip,critical,F,50,zip40.jpg,zip60.jpg,high,NULL
1687408742,b48001bacf7e274e820a696ada854fa2,PennController,19,0,experiment,NULL,Video,progression,buffer,0.008183,1687408448304,5f573b18a6a8b51a94fdbd08,5f573b18a6a8b51a94fdbd08,15,zip,critical,F,50,zip40.jpg,zip60.jpg,high,NULL
1687408742,b48001bacf7e274e820a696ada854fa2,PennController,19,0,experiment,NULL,Selector,choice,Selection,option2,1687408458478,5f573b18a6a8b51a94fdbd08,5f573b18a6a8b51a94fdbd08,15,zip,critical,F,50,zip40.jpg,zip60.jpg,high,option2;option1
1687408742,b48001bacf7e274e820a696ada854fa2,PennController,19,0,experiment,NULL,PennController,17,_Trial_,End,1687408458481,5f573b18a6a8b51a94fdbd08,5f573b18a6a8b51a94fdbd08,15,zip,critical,F,50,zip40.jpg,zip60.jpg,high,NULL
1687408742,b48001bacf7e274e820a696ada854fa2,PennController,27,0,experiment,NULL,PennController,25,_Trial_,Start,1687408458484,5f573b18a6a8b51a94fdbd08,5f573b18a6a8b51a94fdbd08,23,color,filler,F,25,color15.jpg,color35.jpg,GoalB,NULL
1687408742,b48001bacf7e274e820a696ada854fa2,PennController,27,0,experiment,NULL,PennController,25,_Header_,Start,1687408458484,5f573b18a6a8b51a94fdbd08,5f573b18a6a8b51a94fdbd08,23,color,filler,F,25,color15.jpg,color35.jpg,GoalB,NULL
1687408742,b48001bacf7e274e820a696ada854fa2,PennController,27,0,experiment,NULL,PennController,25,_Header_,End,1687408458484,5f573b18a6a8b51a94fdbd08,5f573b18a6a8b51a94fdbd08,23,color,filler,F,25,color15.jpg,color35.jpg,GoalB,NULL
1687408742,b48001bacf7e274e820a696ada854fa2,PennController,27,0,experiment,NULL,Canvas,canvas6,Print,NA,1687408464193,5f573b18a6a8b51a94fdbd08,5f573b18a6a8b51a94fdbd08,23,color,filler,F,25,color15.jpg,color35.jpg,GoalB,NULL
1687408742,b48001bacf7e274e820a696ada854fa2,PennController,27,0,experiment,NULL,Video,progression,buffer,0.012469,1687408462034,5f573b18a6a8b51a94fdbd08,5f573b18a6a8b51a94fdbd08,23,color,filler,F,25,color15.jpg,color35.jpg,GoalB,NULL
1687408742,b48001bacf7e274e820a696ada854fa2,PennController,27,0,experiment,NULL,Selector,choice,Selection,option2,1687408467207,5f573b18a6a8b51a94fdbd08,5f573b18a6a8b51a94fdbd08,23,color,filler,F,25,color15.jpg,color35.jpg,GoalB,option1;option2
1687408742,b48001bacf7e274e820a696ada854fa2,PennController,27,0,experiment,NULL,PennController,25,_Trial_,End,1687408467210,5f573b18a6a8b51a94fdbd08,5f573b18a6a8b51a94fdbd08,23,color,filler,F,25,color15.jpg,color35.jpg,GoalB,NULL
1687408742,b48001bacf7e274e820a696ada854fa2,PennController,26,0,experiment,NULL,PennController,24,_Trial_,Start,1687408467213,5f573b18a6a8b51a94fdbd08,5f573b18a6a8b51a94fdbd08,22,wall,filler,F,75,wall65.jpg,wall85.jpg,GoalA,NULL
1687408742,b48001bacf7e274e820a696ada854fa2,PennController,26,0,experiment,NULL,PennController,24,_Header_,Start,1687408467213,5f573b18a6a8b51a94fdbd08,5f573b18a6a8b51a94fdbd08,22,wall,filler,F,75,wall65.jpg,wall85.jpg,GoalA,NULL
1687408742,b48001bacf7e274e820a696ada854fa2,PennController,26,0,experiment,NULL,PennController,24,_Header_,End,1687408467213,5f573b18a6a8b51a94fdbd08,5f573b18a6a8b51a94fdbd08,22,wall,filler,F,75,wall65.jpg,wall85.jpg,GoalA,NULL
1687408742,b48001bacf7e274e820a696ada854fa2,PennController,26,0,experiment,NULL,Canvas,canvas6,Print,NA,1687408474925,5f573b18a6a8b51a94fdbd08,5f573b18a6a8b51a94fdbd08,22,wall,filler,F,75,wall65.jpg,wall85.jpg,GoalA,NULL
1687408742,b48001bacf7e274e820a696ada854fa2,PennController,26,0,experiment,NULL,Video,progression,buffer,0.012014,1687408470762,5f573b18a6a8b51a94fdbd08,5f573b18a6a8b51a94fdbd08,22,wall,filler,F,75,wall65.jpg,wall85.jpg,GoalA,NULL
1687408742,b48001bacf7e274e820a696ada854fa2,PennController,26,0,experiment,NULL,Selector,choice,Selection,option2,1687408477444,5f573b18a6a8b51a94fdbd08,5f573b18a6a8b51a94fdbd08,22,wall,filler,F,75,wall65.jpg,wall85.jpg,GoalA,option2;option1
1687408742,b48001bacf7e274e820a696ada854fa2,PennController,26,0,experiment,NULL,PennController,24,_Trial_,End,1687408477447,5f573b18a6a8b51a94fdbd08,5f573b18a6a8b51a94fdbd08,22,wall,filler,F,75,wall65.jpg,wall85.jpg,GoalA,NULL
1687408742,b48001bacf7e274e820a696ada854fa2,PennController,9,0,experiment,NULL,PennController,7,_Trial_,Start,1687408477450,5f573b18a6a8b51a94fdbd08,5f573b18a6a8b51a94fdbd08,5,book,critical,F,25,book15.jpg,book35.jpg,high,NULL
1687408742,b48001bacf7e274e820a696ada854fa2,PennController,9,0,experiment,NULL,PennController,7,_Header_,Start,1687408477450,5f573b18a6a8b51a94fdbd08,5f573b18a6a8b51a94fdbd08,5,book,critical,F,25,book15.jpg,book35.jpg,high,NULL
1687408742,b48001bacf7e274e820a696ada854fa2,PennController,9,0,experiment,NULL,PennController,7,_Header_,End,1687408477450,5f573b18a6a8b51a94fdbd08,5f573b18a6a8b51a94fdbd08,5,book,critical,F,25,book15.jpg,book35.jpg,high,NULL
1687408742,b48001bacf7e274e820a696ada854fa2,PennController,9,0,experiment,NULL,Canvas,canvas6,Print,NA,1687408483159,5f573b18a6a8b51a94fdbd08,5f573b18a6a8b51a94fdbd08,5,book,critical,F,25,book15.jpg,book35.jpg,high,NULL
1687408742,b48001bacf7e274e820a696ada854fa2,PennController,9,0,experiment,NULL,Video,progression,buffer,0.009423,1687408480996,5f573b18a6a8b51a94fdbd08,5f573b18a6a8b51a94fdbd08,5,book,critical,F,25,book15.jpg,book35.jpg,high,NULL
1687408742,b48001bacf7e274e820a696ada854fa2,PennController,9,0,experiment,NULL,Selector,choice,Selection,option2,1687408490374,5f573b18a6a8b51a94fdbd08,5f573b18a6a8b51a94fdbd08,5,book,critical,F,25,book15.jpg,book35.jpg,high,option2;option1
1687408742,b48001bacf7e274e820a696ada854fa2,PennController,9,0,experiment,NULL,PennController,7,_Trial_,End,1687408490377,5f573b18a6a8b51a94fdbd08,5f573b18a6a8b51a94fdbd08,5,book,critical,F,25,book15.jpg,book35.jpg,high,NULL
1687408742,b48001bacf7e274e820a696ada854fa2,PennController,29,0,experiment,NULL,PennController,27,_Trial_,Start,1687408490380,5f573b18a6a8b51a94fdbd08,5f573b18a6a8b51a94fdbd08,25,house,filler,F,75,house65.jpg,house85.jpg,GoalB,NULL
1687408742,b48001bacf7e274e820a696ada854fa2,PennController,29,0,experiment,NULL,PennController,27,_Header_,Start,1687408490380,5f573b18a6a8b51a94fdbd08,5f573b18a6a8b51a94fdbd08,25,house,filler,F,75,house65.jpg,house85.jpg,GoalB,NULL
1687408742,b48001bacf7e274e820a696ada854fa2,PennController,29,0,experiment,NULL,PennController,27,_Header_,End,1687408490380,5f573b18a6a8b51a94fdbd08,5f573b18a6a8b51a94fdbd08,25,house,filler,F,75,house65.jpg,house85.jpg,GoalB,NULL
1687408742,b48001bacf7e274e820a696ada854fa2,PennController,29,0,experiment,NULL,Canvas,canvas6,Print,NA,1687408498091,5f573b18a6a8b51a94fdbd08,5f573b18a6a8b51a94fdbd08,25,house,filler,F,75,house65.jpg,house85.jpg,GoalB,NULL
1687408742,b48001bacf7e274e820a696ada854fa2,PennController,29,0,experiment,NULL,Video,progression,buffer,0.002743,1687408493921,5f573b18a6a8b51a94fdbd08,5f573b18a6a8b51a94fdbd08,25,house,filler,F,75,house65.jpg,house85.jpg,GoalB,NULL
1687408742,b48001bacf7e274e820a696ada854fa2,PennController,29,0,experiment,NULL,Selector,choice,Selection,option2,1687408501676,5f573b18a6a8b51a94fdbd08,5f573b18a6a8b51a94fdbd08,25,house,filler,F,75,house65.jpg,house85.jpg,GoalB,option1;option2
1687408742,b48001bacf7e274e820a696ada854fa2,PennController,29,0,experiment,NULL,PennController,27,_Trial_,End,1687408501679,5f573b18a6a8b51a94fdbd08,5f573b18a6a8b51a94fdbd08,25,house,filler,F,75,house65.jpg,house85.jpg,GoalB,NULL
1687408742,b48001bacf7e274e820a696ada854fa2,PennController,16,0,experiment,NULL,PennController,14,_Trial_,Start,1687408501681,5f573b18a6a8b51a94fdbd08,5f573b18a6a8b51a94fdbd08,12,erase,critical,F,50,erase42.jpg,erase60.jpg,high,NULL
1687408742,b48001bacf7e274e820a696ada854fa2,PennController,16,0,experiment,NULL,PennController,14,_Header_,Start,1687408501682,5f573b18a6a8b51a94fdbd08,5f573b18a6a8b51a94fdbd08,12,erase,critical,F,50,erase42.jpg,erase60.jpg,high,NULL
1687408742,b48001bacf7e274e820a696ada854fa2,PennController,16,0,experiment,NULL,PennController,14,_Header_,End,1687408501682,5f573b18a6a8b51a94fdbd08,5f573b18a6a8b51a94fdbd08,12,erase,critical,F,50,erase42.jpg,erase60.jpg,high,NULL
1687408742,b48001bacf7e274e820a696ada854fa2,PennController,16,0,experiment,NULL,Canvas,canvas6,Print,NA,1687408509795,5f573b18a6a8b51a94fdbd08,5f573b18a6a8b51a94fdbd08,12,erase,critical,F,50,erase42.jpg,erase60.jpg,high,NULL
1687408742,b48001bacf7e274e820a696ada854fa2,PennController,16,0,experiment,NULL,Video,progression,buffer,0.00691,1687408505222,5f573b18a6a8b51a94fdbd08,5f573b18a6a8b51a94fdbd08,12,erase,critical,F,50,erase42.jpg,erase60.jpg,high,NULL
1687408742,b48001bacf7e274e820a696ada854fa2,PennController,16,0,experiment,NULL,Selector,choice,Selection,option2,1687408516999,5f573b18a6a8b51a94fdbd08,5f573b18a6a8b51a94fdbd08,12,erase,critical,F,50,erase42.jpg,erase60.jpg,high,option2;option1
1687408742,b48001bacf7e274e820a696ada854fa2,PennController,16,0,experiment,NULL,PennController,14,_Trial_,End,1687408517002,5f573b18a6a8b51a94fdbd08,5f573b18a6a8b51a94fdbd08,12,erase,critical,F,50,erase42.jpg,erase60.jpg,high,NULL
1687408742,b48001bacf7e274e820a696ada854fa2,PennController,7,0,experiment,NULL,PennController,5,_Trial_,Start,1687408517005,5f573b18a6a8b51a94fdbd08,5f573b18a6a8b51a94fdbd08,3,clean,critical,F,50,clean40.jpg,clean60.jpg,high,NULL
1687408742,b48001bacf7e274e820a696ada854fa2,PennController,7,0,experiment,NULL,PennController,5,_Header_,Start,1687408517005,5f573b18a6a8b51a94fdbd08,5f573b18a6a8b51a94fdbd08,3,clean,critical,F,50,clean40.jpg,clean60.jpg,high,NULL
1687408742,b48001bacf7e274e820a696ada854fa2,PennController,7,0,experiment,NULL,PennController,5,_Header_,End,1687408517005,5f573b18a6a8b51a94fdbd08,5f573b18a6a8b51a94fdbd08,3,clean,critical,F,50,clean40.jpg,clean60.jpg,high,NULL
1687408742,b48001bacf7e274e820a696ada854fa2,PennController,7,0,experiment,NULL,Canvas,canvas6,Print,NA,1687408523736,5f573b18a6a8b51a94fdbd08,5f573b18a6a8b51a94fdbd08,3,clean,critical,F,50,clean40.jpg,clean60.jpg,high,NULL
1687408742,b48001bacf7e274e820a696ada854fa2,PennController,7,0,experiment,NULL,Video,progression,buffer,0.012542,1687408520564,5f573b18a6a8b51a94fdbd08,5f573b18a6a8b51a94fdbd08,3,clean,critical,F,50,clean40.jpg,clean60.jpg,high,NULL
1687408742,b48001bacf7e274e820a696ada854fa2,PennController,7,0,experiment,NULL,Selector,choice,Selection,option2,1687408539331,5f573b18a6a8b51a94fdbd08,5f573b18a6a8b51a94fdbd08,3,clean,critical,F,50,clean40.jpg,clean60.jpg,high,option1;option2
1687408742,b48001bacf7e274e820a696ada854fa2,PennController,7,0,experiment,NULL,PennController,5,_Trial_,End,1687408539334,5f573b18a6a8b51a94fdbd08,5f573b18a6a8b51a94fdbd08,3,clean,critical,F,50,clean40.jpg,clean60.jpg,high,NULL
1687408742,b48001bacf7e274e820a696ada854fa2,PennController,22,0,experiment,NULL,PennController,20,_Trial_,Start,1687408539338,5f573b18a6a8b51a94fdbd08,5f573b18a6a8b51a94fdbd08,18,ball,critical,F,50,ball40.jpg,ball60.jpg,high,NULL
1687408742,b48001bacf7e274e820a696ada854fa2,PennController,22,0,experiment,NULL,PennController,20,_Header_,Start,1687408539338,5f573b18a6a8b51a94fdbd08,5f573b18a6a8b51a94fdbd08,18,ball,critical,F,50,ball40.jpg,ball60.jpg,high,NULL
1687408742,b48001bacf7e274e820a696ada854fa2,PennController,22,0,experiment,NULL,PennController,20,_Header_,End,1687408539338,5f573b18a6a8b51a94fdbd08,5f573b18a6a8b51a94fdbd08,18,ball,critical,F,50,ball40.jpg,ball60.jpg,high,NULL
1687408742,b48001bacf7e274e820a696ada854fa2,PennController,22,0,experiment,NULL,Canvas,canvas6,Print,NA,1687408546047,5f573b18a6a8b51a94fdbd08,5f573b18a6a8b51a94fdbd08,18,ball,critical,F,50,ball40.jpg,ball60.jpg,high,NULL
1687408742,b48001bacf7e274e820a696ada854fa2,PennController,22,0,experiment,NULL,Video,progression,buffer,0.002888,1687408542873,5f573b18a6a8b51a94fdbd08,5f573b18a6a8b51a94fdbd08,18,ball,critical,F,50,ball40.jpg,ball60.jpg,high,NULL
1687408742,b48001bacf7e274e820a696ada854fa2,PennController,22,0,experiment,NULL,Selector,choice,Selection,option2,1687408553790,5f573b18a6a8b51a94fdbd08,5f573b18a6a8b51a94fdbd08,18,ball,critical,F,50,ball40.jpg,ball60.jpg,high,option2;option1
1687408742,b48001bacf7e274e820a696ada854fa2,PennController,22,0,experiment,NULL,PennController,20,_Trial_,End,1687408553793,5f573b18a6a8b51a94fdbd08,5f573b18a6a8b51a94fdbd08,18,ball,critical,F,50,ball40.jpg,ball60.jpg,high,NULL
1687408742,b48001bacf7e274e820a696ada854fa2,PennController,5,0,experiment,NULL,PennController,3,_Trial_,Start,1687408553796,5f573b18a6a8b51a94fdbd08,5f573b18a6a8b51a94fdbd08,1,vase,critical,F,75,vase65.jpg,vase85.jpg,high,NULL
1687408742,b48001bacf7e274e820a696ada854fa2,PennController,5,0,experiment,NULL,PennController,3,_Header_,Start,1687408553796,5f573b18a6a8b51a94fdbd08,5f573b18a6a8b51a94fdbd08,1,vase,critical,F,75,vase65.jpg,vase85.jpg,high,NULL
1687408742,b48001bacf7e274e820a696ada854fa2,PennController,5,0,experiment,NULL,PennController,3,_Header_,End,1687408553796,5f573b18a6a8b51a94fdbd08,5f573b18a6a8b51a94fdbd08,1,vase,critical,F,75,vase65.jpg,vase85.jpg,high,NULL
1687408742,b48001bacf7e274e820a696ada854fa2,PennController,5,0,experiment,NULL,Canvas,canvas6,Print,NA,1687408561526,5f573b18a6a8b51a94fdbd08,5f573b18a6a8b51a94fdbd08,1,vase,critical,F,75,vase65.jpg,vase85.jpg,high,NULL
1687408742,b48001bacf7e274e820a696ada854fa2,PennController,5,0,experiment,NULL,Video,progression,buffer,0.011856,1687408557362,5f573b18a6a8b51a94fdbd08,5f573b18a6a8b51a94fdbd08,1,vase,critical,F,75,vase65.jpg,vase85.jpg,high,NULL
1687408742,b48001bacf7e274e820a696ada854fa2,PennController,5,0,experiment,NULL,Selector,choice,Selection,option1,1687408575976,5f573b18a6a8b51a94fdbd08,5f573b18a6a8b51a94fdbd08,1,vase,critical,F,75,vase65.jpg,vase85.jpg,high,option2;option1
1687408742,b48001bacf7e274e820a696ada854fa2,PennController,5,0,experiment,NULL,PennController,3,_Trial_,End,1687408575978,5f573b18a6a8b51a94fdbd08,5f573b18a6a8b51a94fdbd08,1,vase,critical,F,75,vase65.jpg,vase85.jpg,high,NULL
1687408742,b48001bacf7e274e820a696ada854fa2,PennController,33,0,experiment,NULL,PennController,31,_Trial_,Start,1687408575981,5f573b18a6a8b51a94fdbd08,5f573b18a6a8b51a94fdbd08,29,frog,filler,F,25,frog15.jpg,frog35.jpg,GoalB,NULL
1687408742,b48001bacf7e274e820a696ada854fa2,PennController,33,0,experiment,NULL,PennController,31,_Header_,Start,1687408575981,5f573b18a6a8b51a94fdbd08,5f573b18a6a8b51a94fdbd08,29,frog,filler,F,25,frog15.jpg,frog35.jpg,GoalB,NULL
1687408742,b48001bacf7e274e820a696ada854fa2,PennController,33,0,experiment,NULL,PennController,31,_Header_,End,1687408575981,5f573b18a6a8b51a94fdbd08,5f573b18a6a8b51a94fdbd08,29,frog,filler,F,25,frog15.jpg,frog35.jpg,GoalB,NULL
1687408742,b48001bacf7e274e820a696ada854fa2,PennController,33,0,experiment,NULL,Canvas,canvas6,Print,NA,1687408581717,5f573b18a6a8b51a94fdbd08,5f573b18a6a8b51a94fdbd08,29,frog,filler,F,25,frog15.jpg,frog35.jpg,GoalB,NULL
1687408742,b48001bacf7e274e820a696ada854fa2,PennController,33,0,experiment,NULL,Video,progression,buffer,0.013533,1687408579551,5f573b18a6a8b51a94fdbd08,5f573b18a6a8b51a94fdbd08,29,frog,filler,F,25,frog15.jpg,frog35.jpg,GoalB,NULL
1687408742,b48001bacf7e274e820a696ada854fa2,PennController,33,0,experiment,NULL,Selector,choice,Selection,option1,1687408589241,5f573b18a6a8b51a94fdbd08,5f573b18a6a8b51a94fdbd08,29,frog,filler,F,25,frog15.jpg,frog35.jpg,GoalB,option1;option2
1687408742,b48001bacf7e274e820a696ada854fa2,PennController,33,0,experiment,NULL,PennController,31,_Trial_,End,1687408589243,5f573b18a6a8b51a94fdbd08,5f573b18a6a8b51a94fdbd08,29,frog,filler,F,25,frog15.jpg,frog35.jpg,GoalB,NULL
1687408742,b48001bacf7e274e820a696ada854fa2,PennController,30,0,experiment,NULL,PennController,28,_Trial_,Start,1687408589246,5f573b18a6a8b51a94fdbd08,5f573b18a6a8b51a94fdbd08,26,sandwich,filler,F,25,sandwich15.jpg,sandwich35.jpg,GoalA,NULL
1687408742,b48001bacf7e274e820a696ada854fa2,PennController,30,0,experiment,NULL,PennController,28,_Header_,Start,1687408589246,5f573b18a6a8b51a94fdbd08,5f573b18a6a8b51a94fdbd08,26,sandwich,filler,F,25,sandwich15.jpg,sandwich35.jpg,GoalA,NULL
1687408742,b48001bacf7e274e820a696ada854fa2,PennController,30,0,experiment,NULL,PennController,28,_Header_,End,1687408589246,5f573b18a6a8b51a94fdbd08,5f573b18a6a8b51a94fdbd08,26,sandwich,filler,F,25,sandwich15.jpg,sandwich35.jpg,GoalA,NULL
1687408742,b48001bacf7e274e820a696ada854fa2,PennController,30,0,experiment,NULL,Canvas,canvas6,Print,NA,1687408594964,5f573b18a6a8b51a94fdbd08,5f573b18a6a8b51a94fdbd08,26,sandwich,filler,F,25,sandwich15.jpg,sandwich35.jpg,GoalA,NULL
1687408742,b48001bacf7e274e820a696ada854fa2,PennController,30,0,experiment,NULL,Video,progression,buffer,0.009143,1687408592799,5f573b18a6a8b51a94fdbd08,5f573b18a6a8b51a94fdbd08,26,sandwich,filler,F,25,sandwich15.jpg,sandwich35.jpg,GoalA,NULL
1687408742,b48001bacf7e274e820a696ada854fa2,PennController,30,0,experiment,NULL,Selector,choice,Selection,option1,1687408597920,5f573b18a6a8b51a94fdbd08,5f573b18a6a8b51a94fdbd08,26,sandwich,filler,F,25,sandwich15.jpg,sandwich35.jpg,GoalA,option1;option2
1687408742,b48001bacf7e274e820a696ada854fa2,PennController,30,0,experiment,NULL,PennController,28,_Trial_,End,1687408597922,5f573b18a6a8b51a94fdbd08,5f573b18a6a8b51a94fdbd08,26,sandwich,filler,F,25,sandwich15.jpg,sandwich35.jpg,GoalA,NULL
1687408742,b48001bacf7e274e820a696ada854fa2,PennController,21,0,experiment,NULL,PennController,19,_Trial_,Start,1687408597925,5f573b18a6a8b51a94fdbd08,5f573b18a6a8b51a94fdbd08,17,roll,critical,F,25,roll15.jpg,roll35.jpg,high,NULL
1687408742,b48001bacf7e274e820a696ada854fa2,PennController,21,0,experiment,NULL,PennController,19,_Header_,Start,1687408597925,5f573b18a6a8b51a94fdbd08,5f573b18a6a8b51a94fdbd08,17,roll,critical,F,25,roll15.jpg,roll35.jpg,high,NULL
1687408742,b48001bacf7e274e820a696ada854fa2,PennController,21,0,experiment,NULL,PennController,19,_Header_,End,1687408597925,5f573b18a6a8b51a94fdbd08,5f573b18a6a8b51a94fdbd08,17,roll,critical,F,25,roll15.jpg,roll35.jpg,high,NULL
1687408742,b48001bacf7e274e820a696ada854fa2,PennController,21,0,experiment,NULL,Canvas,canvas6,Print,NA,1687408603653,5f573b18a6a8b51a94fdbd08,5f573b18a6a8b51a94fdbd08,17,roll,critical,F,25,roll15.jpg,roll35.jpg,high,NULL
1687408742,b48001bacf7e274e820a696ada854fa2,PennController,21,0,experiment,NULL,Video,progression,buffer,0.009115,1687408601478,5f573b18a6a8b51a94fdbd08,5f573b18a6a8b51a94fdbd08,17,roll,critical,F,25,roll15.jpg,roll35.jpg,high,NULL
1687408742,b48001bacf7e274e820a696ada854fa2,PennController,21,0,experiment,NULL,Selector,choice,Selection,option1,1687408614155,5f573b18a6a8b51a94fdbd08,5f573b18a6a8b51a94fdbd08,17,roll,critical,F,25,roll15.jpg,roll35.jpg,high,option2;option1
1687408742,b48001bacf7e274e820a696ada854fa2,PennController,21,0,experiment,NULL,PennController,19,_Trial_,End,1687408614158,5f573b18a6a8b51a94fdbd08,5f573b18a6a8b51a94fdbd08,17,roll,critical,F,25,roll15.jpg,roll35.jpg,high,NULL
1687408742,b48001bacf7e274e820a696ada854fa2,PennController,24,0,experiment,NULL,PennController,22,_Trial_,Start,1687408614162,5f573b18a6a8b51a94fdbd08,5f573b18a6a8b51a94fdbd08,20,cat,filler,F,25,cat15.jpg,cat35.jpg,GoalA,NULL
1687408742,b48001bacf7e274e820a696ada854fa2,PennController,24,0,experiment,NULL,PennController,22,_Header_,Start,1687408614162,5f573b18a6a8b51a94fdbd08,5f573b18a6a8b51a94fdbd08,20,cat,filler,F,25,cat15.jpg,cat35.jpg,GoalA,NULL
1687408742,b48001bacf7e274e820a696ada854fa2,PennController,24,0,experiment,NULL,PennController,22,_Header_,End,1687408614162,5f573b18a6a8b51a94fdbd08,5f573b18a6a8b51a94fdbd08,20,cat,filler,F,25,cat15.jpg,cat35.jpg,GoalA,NULL
1687408742,b48001bacf7e274e820a696ada854fa2,PennController,24,0,experiment,NULL,Canvas,canvas6,Print,NA,1687408619883,5f573b18a6a8b51a94fdbd08,5f573b18a6a8b51a94fdbd08,20,cat,filler,F,25,cat15.jpg,cat35.jpg,GoalA,NULL
1687408742,b48001bacf7e274e820a696ada854fa2,PennController,24,0,experiment,NULL,Video,progression,buffer,0.011695,1687408617720,5f573b18a6a8b51a94fdbd08,5f573b18a6a8b51a94fdbd08,20,cat,filler,F,25,cat15.jpg,cat35.jpg,GoalA,NULL
1687408742,b48001bacf7e274e820a696ada854fa2,PennController,24,0,experiment,NULL,Selector,choice,Selection,option2,1687408623891,5f573b18a6a8b51a94fdbd08,5f573b18a6a8b51a94fdbd08,20,cat,filler,F,25,cat15.jpg,cat35.jpg,GoalA,option2;option1
1687408742,b48001bacf7e274e820a696ada854fa2,PennController,24,0,experiment,NULL,PennController,22,_Trial_,End,1687408623894,5f573b18a6a8b51a94fdbd08,5f573b18a6a8b51a94fdbd08,20,cat,filler,F,25,cat15.jpg,cat35.jpg,GoalA,NULL
1687408742,b48001bacf7e274e820a696ada854fa2,PennController,11,0,experiment,NULL,PennController,9,_Trial_,Start,1687408623896,5f573b18a6a8b51a94fdbd08,5f573b18a6a8b51a94fdbd08,7,stack,critical,F,75,stack65.jpg,stack85.jpg,high,NULL
1687408742,b48001bacf7e274e820a696ada854fa2,PennController,11,0,experiment,NULL,PennController,9,_Header_,Start,1687408623896,5f573b18a6a8b51a94fdbd08,5f573b18a6a8b51a94fdbd08,7,stack,critical,F,75,stack65.jpg,stack85.jpg,high,NULL
1687408742,b48001bacf7e274e820a696ada854fa2,PennController,11,0,experiment,NULL,PennController,9,_Header_,End,1687408623896,5f573b18a6a8b51a94fdbd08,5f573b18a6a8b51a94fdbd08,7,stack,critical,F,75,stack65.jpg,stack85.jpg,high,NULL
1687408742,b48001bacf7e274e820a696ada854fa2,PennController,11,0,experiment,NULL,Canvas,canvas6,Print,NA,1687408631618,5f573b18a6a8b51a94fdbd08,5f573b18a6a8b51a94fdbd08,7,stack,critical,F,75,stack65.jpg,stack85.jpg,high,NULL
1687408742,b48001bacf7e274e820a696ada854fa2,PennController,11,0,experiment,NULL,Video,progression,buffer,0.009139,1687408627443,5f573b18a6a8b51a94fdbd08,5f573b18a6a8b51a94fdbd08,7,stack,critical,F,75,stack65.jpg,stack85.jpg,high,NULL
1687408742,b48001bacf7e274e820a696ada854fa2,PennController,11,0,experiment,NULL,Selector,choice,Selection,option1,1687408638801,5f573b18a6a8b51a94fdbd08,5f573b18a6a8b51a94fdbd08,7,stack,critical,F,75,stack65.jpg,stack85.jpg,high,option2;option1
1687408742,b48001bacf7e274e820a696ada854fa2,PennController,11,0,experiment,NULL,PennController,9,_Trial_,End,1687408638804,5f573b18a6a8b51a94fdbd08,5f573b18a6a8b51a94fdbd08,7,stack,critical,F,75,stack65.jpg,stack85.jpg,high,NULL
1687408742,b48001bacf7e274e820a696ada854fa2,PennController,14,0,experiment,NULL,PennController,12,_Trial_,Start,1687408638808,5f573b18a6a8b51a94fdbd08,5f573b18a6a8b51a94fdbd08,10,train,critical,F,75,train65.jpg,train85.jpg,high,NULL
1687408742,b48001bacf7e274e820a696ada854fa2,PennController,14,0,experiment,NULL,PennController,12,_Header_,Start,1687408638808,5f573b18a6a8b51a94fdbd08,5f573b18a6a8b51a94fdbd08,10,train,critical,F,75,train65.jpg,train85.jpg,high,NULL
1687408742,b48001bacf7e274e820a696ada854fa2,PennController,14,0,experiment,NULL,PennController,12,_Header_,End,1687408638808,5f573b18a6a8b51a94fdbd08,5f573b18a6a8b51a94fdbd08,10,train,critical,F,75,train65.jpg,train85.jpg,high,NULL
1687408742,b48001bacf7e274e820a696ada854fa2,PennController,14,0,experiment,NULL,Canvas,canvas6,Print,NA,1687408646519,5f573b18a6a8b51a94fdbd08,5f573b18a6a8b51a94fdbd08,10,train,critical,F,75,train65.jpg,train85.jpg,high,NULL
1687408742,b48001bacf7e274e820a696ada854fa2,PennController,14,0,experiment,NULL,Video,progression,buffer,0.008025,1687408642354,5f573b18a6a8b51a94fdbd08,5f573b18a6a8b51a94fdbd08,10,train,critical,F,75,train65.jpg,train85.jpg,high,NULL
1687408742,b48001bacf7e274e820a696ada854fa2,PennController,14,0,experiment,NULL,Selector,choice,Selection,option1,1687408652181,5f573b18a6a8b51a94fdbd08,5f573b18a6a8b51a94fdbd08,10,train,critical,F,75,train65.jpg,train85.jpg,high,option2;option1
1687408742,b48001bacf7e274e820a696ada854fa2,PennController,14,0,experiment,NULL,PennController,12,_Trial_,End,1687408652183,5f573b18a6a8b51a94fdbd08,5f573b18a6a8b51a94fdbd08,10,train,critical,F,75,train65.jpg,train85.jpg,high,NULL
1687408742,b48001bacf7e274e820a696ada854fa2,PennController,6,0,experiment,NULL,PennController,4,_Trial_,Start,1687408652184,5f573b18a6a8b51a94fdbd08,5f573b18a6a8b51a94fdbd08,2,door,critical,F,25,door15.jpg,door35.jpg,high,NULL
1687408742,b48001bacf7e274e820a696ada854fa2,PennController,6,0,experiment,NULL,PennController,4,_Header_,Start,1687408652184,5f573b18a6a8b51a94fdbd08,5f573b18a6a8b51a94fdbd08,2,door,critical,F,25,door15.jpg,door35.jpg,high,NULL
1687408742,b48001bacf7e274e820a696ada854fa2,PennController,6,0,experiment,NULL,PennController,4,_Header_,End,1687408652184,5f573b18a6a8b51a94fdbd08,5f573b18a6a8b51a94fdbd08,2,door,critical,F,25,door15.jpg,door35.jpg,high,NULL
1687408742,b48001bacf7e274e820a696ada854fa2,PennController,6,0,experiment,NULL,Canvas,canvas6,Print,NA,1687408657918,5f573b18a6a8b51a94fdbd08,5f573b18a6a8b51a94fdbd08,2,door,critical,F,25,door15.jpg,door35.jpg,high,NULL
1687408742,b48001bacf7e274e820a696ada854fa2,PennController,6,0,experiment,NULL,Video,progression,buffer,0.01494,1687408655751,5f573b18a6a8b51a94fdbd08,5f573b18a6a8b51a94fdbd08,2,door,critical,F,25,door15.jpg,door35.jpg,high,NULL
1687408742,b48001bacf7e274e820a696ada854fa2,PennController,6,0,experiment,NULL,Selector,choice,Selection,option1,1687408663632,5f573b18a6a8b51a94fdbd08,5f573b18a6a8b51a94fdbd08,2,door,critical,F,25,door15.jpg,door35.jpg,high,option1;option2
1687408742,b48001bacf7e274e820a696ada854fa2,PennController,6,0,experiment,NULL,PennController,4,_Trial_,End,1687408663636,5f573b18a6a8b51a94fdbd08,5f573b18a6a8b51a94fdbd08,2,door,critical,F,25,door15.jpg,door35.jpg,high,NULL
1687408742,b48001bacf7e274e820a696ada854fa2,PennController,13,0,experiment,NULL,PennController,11,_Trial_,Start,1687408663639,5f573b18a6a8b51a94fdbd08,5f573b18a6a8b51a94fdbd08,9,cake,critical,F,50,cake42.jpg,cake60.jpg,high,NULL
1687408742,b48001bacf7e274e820a696ada854fa2,PennController,13,0,experiment,NULL,PennController,11,_Header_,Start,1687408663639,5f573b18a6a8b51a94fdbd08,5f573b18a6a8b51a94fdbd08,9,cake,critical,F,50,cake42.jpg,cake60.jpg,high,NULL
1687408742,b48001bacf7e274e820a696ada854fa2,PennController,13,0,experiment,NULL,PennController,11,_Header_,End,1687408663639,5f573b18a6a8b51a94fdbd08,5f573b18a6a8b51a94fdbd08,9,cake,critical,F,50,cake42.jpg,cake60.jpg,high,NULL
1687408742,b48001bacf7e274e820a696ada854fa2,PennController,13,0,experiment,NULL,Canvas,canvas6,Print,NA,1687408671753,5f573b18a6a8b51a94fdbd08,5f573b18a6a8b51a94fdbd08,9,cake,critical,F,50,cake42.jpg,cake60.jpg,high,NULL
1687408742,b48001bacf7e274e820a696ada854fa2,PennController,13,0,experiment,NULL,Video,progression,buffer,0.008982,1687408667188,5f573b18a6a8b51a94fdbd08,5f573b18a6a8b51a94fdbd08,9,cake,critical,F,50,cake42.jpg,cake60.jpg,high,NULL
1687408742,b48001bacf7e274e820a696ada854fa2,PennController,13,0,experiment,NULL,Selector,choice,Selection,option2,1687408683826,5f573b18a6a8b51a94fdbd08,5f573b18a6a8b51a94fdbd08,9,cake,critical,F,50,cake42.jpg,cake60.jpg,high,option2;option1
1687408742,b48001bacf7e274e820a696ada854fa2,PennController,13,0,experiment,NULL,PennController,11,_Trial_,End,1687408683828,5f573b18a6a8b51a94fdbd08,5f573b18a6a8b51a94fdbd08,9,cake,critical,F,50,cake42.jpg,cake60.jpg,high,NULL
1687408742,b48001bacf7e274e820a696ada854fa2,PennController,8,0,experiment,NULL,PennController,6,_Trial_,Start,1687408683829,5f573b18a6a8b51a94fdbd08,5f573b18a6a8b51a94fdbd08,4,candy,critical,F,75,candy65.jpg,candy85.jpg,high,NULL
1687408742,b48001bacf7e274e820a696ada854fa2,PennController,8,0,experiment,NULL,PennController,6,_Header_,Start,1687408683829,5f573b18a6a8b51a94fdbd08,5f573b18a6a8b51a94fdbd08,4,candy,critical,F,75,candy65.jpg,candy85.jpg,high,NULL
1687408742,b48001bacf7e274e820a696ada854fa2,PennController,8,0,experiment,NULL,PennController,6,_Header_,End,1687408683829,5f573b18a6a8b51a94fdbd08,5f573b18a6a8b51a94fdbd08,4,candy,critical,F,75,candy65.jpg,candy85.jpg,high,NULL
1687408742,b48001bacf7e274e820a696ada854fa2,PennController,8,0,experiment,NULL,Canvas,canvas6,Print,NA,1687408691517,5f573b18a6a8b51a94fdbd08,5f573b18a6a8b51a94fdbd08,4,candy,critical,F,75,candy65.jpg,candy85.jpg,high,NULL
1687408742,b48001bacf7e274e820a696ada854fa2,PennController,8,0,experiment,NULL,Video,progression,buffer,0.003564,1687408687356,5f573b18a6a8b51a94fdbd08,5f573b18a6a8b51a94fdbd08,4,candy,critical,F,75,candy65.jpg,candy85.jpg,high,NULL
1687408742,b48001bacf7e274e820a696ada854fa2,PennController,8,0,experiment,NULL,Selector,choice,Selection,option1,1687408694284,5f573b18a6a8b51a94fdbd08,5f573b18a6a8b51a94fdbd08,4,candy,critical,F,75,candy65.jpg,candy85.jpg,high,option1;option2
1687408742,b48001bacf7e274e820a696ada854fa2,PennController,8,0,experiment,NULL,PennController,6,_Trial_,End,1687408694287,5f573b18a6a8b51a94fdbd08,5f573b18a6a8b51a94fdbd08,4,candy,critical,F,75,candy65.jpg,candy85.jpg,high,NULL
1687408742,b48001bacf7e274e820a696ada854fa2,PennController,31,0,experiment,NULL,PennController,29,_Trial_,Start,1687408694290,5f573b18a6a8b51a94fdbd08,5f573b18a6a8b51a94fdbd08,27,square,filler,F,50,square40.jpg,square60.jpg,GoalB,NULL
1687408742,b48001bacf7e274e820a696ada854fa2,PennController,31,0,experiment,NULL,PennController,29,_Header_,Start,1687408694290,5f573b18a6a8b51a94fdbd08,5f573b18a6a8b51a94fdbd08,27,square,filler,F,50,square40.jpg,square60.jpg,GoalB,NULL
1687408742,b48001bacf7e274e820a696ada854fa2,PennController,31,0,experiment,NULL,PennController,29,_Header_,End,1687408694290,5f573b18a6a8b51a94fdbd08,5f573b18a6a8b51a94fdbd08,27,square,filler,F,50,square40.jpg,square60.jpg,GoalB,NULL
1687408742,b48001bacf7e274e820a696ada854fa2,PennController,31,0,experiment,NULL,Canvas,canvas6,Print,NA,1687408701005,5f573b18a6a8b51a94fdbd08,5f573b18a6a8b51a94fdbd08,27,square,filler,F,50,square40.jpg,square60.jpg,GoalB,NULL
1687408742,b48001bacf7e274e820a696ada854fa2,PennController,31,0,experiment,NULL,Video,progression,buffer,0.003891,1687408697836,5f573b18a6a8b51a94fdbd08,5f573b18a6a8b51a94fdbd08,27,square,filler,F,50,square40.jpg,square60.jpg,GoalB,NULL
1687408742,b48001bacf7e274e820a696ada854fa2,PennController,31,0,experiment,NULL,Selector,choice,Selection,option2,1687408709861,5f573b18a6a8b51a94fdbd08,5f573b18a6a8b51a94fdbd08,27,square,filler,F,50,square40.jpg,square60.jpg,GoalB,option1;option2
1687408742,b48001bacf7e274e820a696ada854fa2,PennController,31,0,experiment,NULL,PennController,29,_Trial_,End,1687408709864,5f573b18a6a8b51a94fdbd08,5f573b18a6a8b51a94fdbd08,27,square,filler,F,50,square40.jpg,square60.jpg,GoalB,NULL
1687408742,b48001bacf7e274e820a696ada854fa2,PennController,20,0,experiment,NULL,PennController,18,_Trial_,Start,1687408709868,5f573b18a6a8b51a94fdbd08,5f573b18a6a8b51a94fdbd08,16,blinds,critical,F,75,blinds66.jpg,blinds84.jpg,high,NULL
1687408742,b48001bacf7e274e820a696ada854fa2,PennController,20,0,experiment,NULL,PennController,18,_Header_,Start,1687408709868,5f573b18a6a8b51a94fdbd08,5f573b18a6a8b51a94fdbd08,16,blinds,critical,F,75,blinds66.jpg,blinds84.jpg,high,NULL
1687408742,b48001bacf7e274e820a696ada854fa2,PennController,20,0,experiment,NULL,PennController,18,_Header_,End,1687408709868,5f573b18a6a8b51a94fdbd08,5f573b18a6a8b51a94fdbd08,16,blinds,critical,F,75,blinds66.jpg,blinds84.jpg,high,NULL
1687408742,b48001bacf7e274e820a696ada854fa2,PennController,20,0,experiment,NULL,Canvas,canvas6,Print,NA,1687408719581,5f573b18a6a8b51a94fdbd08,5f573b18a6a8b51a94fdbd08,16,blinds,critical,F,75,blinds66.jpg,blinds84.jpg,high,NULL
1687408742,b48001bacf7e274e820a696ada854fa2,PennController,20,0,experiment,NULL,Video,progression,buffer,0.009598,1687408713420,5f573b18a6a8b51a94fdbd08,5f573b18a6a8b51a94fdbd08,16,blinds,critical,F,75,blinds66.jpg,blinds84.jpg,high,NULL
1687408742,b48001bacf7e274e820a696ada854fa2,PennController,20,0,experiment,NULL,Selector,choice,Selection,option2,1687408729579,5f573b18a6a8b51a94fdbd08,5f573b18a6a8b51a94fdbd08,16,blinds,critical,F,75,blinds66.jpg,blinds84.jpg,high,option2;option1
1687408742,b48001bacf7e274e820a696ada854fa2,PennController,20,0,experiment,NULL,PennController,18,_Trial_,End,1687408729582,5f573b18a6a8b51a94fdbd08,5f573b18a6a8b51a94fdbd08,16,blinds,critical,F,75,blinds66.jpg,blinds84.jpg,high,NULL
1687408742,b48001bacf7e274e820a696ada854fa2,PennController,23,0,experiment,NULL,PennController,21,_Trial_,Start,1687408729586,5f573b18a6a8b51a94fdbd08,5f573b18a6a8b51a94fdbd08,19,cup,filler,F,75,cup65.jpg,cup85.jpg,GoalB,NULL
1687408742,b48001bacf7e274e820a696ada854fa2,PennController,23,0,experiment,NULL,PennController,21,_Header_,Start,1687408729586,5f573b18a6a8b51a94fdbd08,5f573b18a6a8b51a94fdbd08,19,cup,filler,F,75,cup65.jpg,cup85.jpg,GoalB,NULL
1687408742,b48001bacf7e274e820a696ada854fa2,PennController,23,0,experiment,NULL,PennController,21,_Header_,End,1687408729586,5f573b18a6a8b51a94fdbd08,5f573b18a6a8b51a94fdbd08,19,cup,filler,F,75,cup65.jpg,cup85.jpg,GoalB,NULL
1687408742,b48001bacf7e274e820a696ada854fa2,PennController,23,0,experiment,NULL,Canvas,canvas6,Print,NA,1687408737298,5f573b18a6a8b51a94fdbd08,5f573b18a6a8b51a94fdbd08,19,cup,filler,F,75,cup65.jpg,cup85.jpg,GoalB,NULL
1687408742,b48001bacf7e274e820a696ada854fa2,PennController,23,0,experiment,NULL,Video,progression,buffer,0.00881,1687408733134,5f573b18a6a8b51a94fdbd08,5f573b18a6a8b51a94fdbd08,19,cup,filler,F,75,cup65.jpg,cup85.jpg,GoalB,NULL
1687408742,b48001bacf7e274e820a696ada854fa2,PennController,23,0,experiment,NULL,Selector,choice,Selection,option2,1687408742468,5f573b18a6a8b51a94fdbd08,5f573b18a6a8b51a94fdbd08,19,cup,filler,F,75,cup65.jpg,cup85.jpg,GoalB,option1;option2
1687408742,b48001bacf7e274e820a696ada854fa2,PennController,23,0,experiment,NULL,PennController,21,_Trial_,End,1687408742471,5f573b18a6a8b51a94fdbd08,5f573b18a6a8b51a94fdbd08,19,cup,filler,F,75,cup65.jpg,cup85.jpg,GoalB,NULL
