#
# Results on Tuesday June 20 2023 18:53:20 UTC
# USER AGENT: Mozilla/5.0 (Windows NT 10.0; Win64; x64) AppleWebKit/537.36 (KHTML, like Gecko) Chrome/114.0.0.0 Safari/537.36
# Design number was non-random = 3
#
# Columns below this comment are as follows:
# 1. Results reception time.
# 2. MD5 hash of participant's IP address.
# 3. Controller name.
# 4. Order number of item.
# 5. Inner element number.
# 6. Label.
# 7. Latin Square Group.
# 8. PennElementType.
# 9. PennElementName.
# 10. Parameter.
# 11. Value.
# 12. EventTime.
# 13. PROLIFIC_ID.
# 14. Comments.
1687287200,9c6ac5366c4a30c851dfdea9308bfc83,PennController,2,0,consent,NULL,PennController,0,_Trial_,Start,1687286897307,6100150aa12ad1614efd1971,NULL
1687287200,9c6ac5366c4a30c851dfdea9308bfc83,PennController,2,0,consent,NULL,PennController,0,_Header_,Start,1687286897307,6100150aa12ad1614efd1971,NULL
1687287200,9c6ac5366c4a30c851dfdea9308bfc83,PennController,2,0,consent,NULL,PennController,0,_Header_,End,1687286897307,6100150aa12ad1614efd1971,NULL
1687287200,9c6ac5366c4a30c851dfdea9308bfc83,PennController,2,0,consent,NULL,PennController,0,_Trial_,End,1687286904389,6100150aa12ad1614efd1971,NULL
# Columns below this comment are as follows:
# 14. ID.
# 15. Comments.
1687287200,9c6ac5366c4a30c851dfdea9308bfc83,PennController,3,0,intro,NULL,PennController,1,_Trial_,Start,1687286904392,6100150aa12ad1614efd1971,6100150aa12ad1614efd1971,NULL
1687287200,9c6ac5366c4a30c851dfdea9308bfc83,PennController,3,0,intro,NULL,PennController,1,_Header_,Start,1687286904392,6100150aa12ad1614efd1971,6100150aa12ad1614efd1971,NULL
1687287200,9c6ac5366c4a30c851dfdea9308bfc83,PennController,3,0,intro,NULL,PennController,1,_Header_,End,1687286904392,6100150aa12ad1614efd1971,6100150aa12ad1614efd1971,NULL
1687287200,9c6ac5366c4a30c851dfdea9308bfc83,PennController,3,0,intro,NULL,PennController,1,_Trial_,End,1687286910093,6100150aa12ad1614efd1971,6100150aa12ad1614efd1971,NULL
# Columns below this comment are as follows:
# 15. item_number.
# 16. item.
# 17. type.
# 18. Group.
# 19. prog.
# 20. prev_image.
# 21. next_image.
# 22. height.
# 23. Comments.
1687287200,9c6ac5366c4a30c851dfdea9308bfc83,PennController,24,0,experiment,NULL,PennController,23,_Trial_,Start,1687286910097,6100150aa12ad1614efd1971,6100150aa12ad1614efd1971,21,visit,filler,D,75,visit65.jpg,visit85.jpg,GoalB,NULL
1687287200,9c6ac5366c4a30c851dfdea9308bfc83,PennController,24,0,experiment,NULL,PennController,23,_Header_,Start,1687286910097,6100150aa12ad1614efd1971,6100150aa12ad1614efd1971,21,visit,filler,D,75,visit65.jpg,visit85.jpg,GoalB,NULL
1687287200,9c6ac5366c4a30c851dfdea9308bfc83,PennController,24,0,experiment,NULL,PennController,23,_Header_,End,1687286910097,6100150aa12ad1614efd1971,6100150aa12ad1614efd1971,21,visit,filler,D,75,visit65.jpg,visit85.jpg,GoalB,NULL
1687287200,9c6ac5366c4a30c851dfdea9308bfc83,PennController,24,0,experiment,NULL,Canvas,canvas6,Print,NA,1687286917855,6100150aa12ad1614efd1971,6100150aa12ad1614efd1971,21,visit,filler,D,75,visit65.jpg,visit85.jpg,GoalB,NULL
1687287200,9c6ac5366c4a30c851dfdea9308bfc83,PennController,24,0,experiment,NULL,Video,progression,buffer,0.007948,1687286913669,6100150aa12ad1614efd1971,6100150aa12ad1614efd1971,21,visit,filler,D,75,visit65.jpg,visit85.jpg,GoalB,NULL
1687287200,9c6ac5366c4a30c851dfdea9308bfc83,PennController,24,0,experiment,NULL,Selector,choice,Selection,option2,1687286922297,6100150aa12ad1614efd1971,6100150aa12ad1614efd1971,21,visit,filler,D,75,visit65.jpg,visit85.jpg,GoalB,option1;option2
1687287200,9c6ac5366c4a30c851dfdea9308bfc83,PennController,24,0,experiment,NULL,PennController,23,_Trial_,End,1687286922299,6100150aa12ad1614efd1971,6100150aa12ad1614efd1971,21,visit,filler,D,75,visit65.jpg,visit85.jpg,GoalB,NULL
1687287200,9c6ac5366c4a30c851dfdea9308bfc83,PennController,16,0,experiment,NULL,PennController,15,_Trial_,Start,1687286922301,6100150aa12ad1614efd1971,6100150aa12ad1614efd1971,13,mix,critical,D,25,mix15.jpg,mix35.jpg,high,NULL
1687287200,9c6ac5366c4a30c851dfdea9308bfc83,PennController,16,0,experiment,NULL,PennController,15,_Header_,Start,1687286922301,6100150aa12ad1614efd1971,6100150aa12ad1614efd1971,13,mix,critical,D,25,mix15.jpg,mix35.jpg,high,NULL
1687287200,9c6ac5366c4a30c851dfdea9308bfc83,PennController,16,0,experiment,NULL,PennController,15,_Header_,End,1687286922301,6100150aa12ad1614efd1971,6100150aa12ad1614efd1971,13,mix,critical,D,25,mix15.jpg,mix35.jpg,high,NULL
1687287200,9c6ac5366c4a30c851dfdea9308bfc83,PennController,16,0,experiment,NULL,Canvas,canvas6,Print,NA,1687286928014,6100150aa12ad1614efd1971,6100150aa12ad1614efd1971,13,mix,critical,D,25,mix15.jpg,mix35.jpg,high,NULL
1687287200,9c6ac5366c4a30c851dfdea9308bfc83,PennController,16,0,experiment,NULL,Video,progression,buffer,0.008379,1687286925845,6100150aa12ad1614efd1971,6100150aa12ad1614efd1971,13,mix,critical,D,25,mix15.jpg,mix35.jpg,high,NULL
1687287200,9c6ac5366c4a30c851dfdea9308bfc83,PennController,16,0,experiment,NULL,Selector,choice,Selection,option2,1687286938198,6100150aa12ad1614efd1971,6100150aa12ad1614efd1971,13,mix,critical,D,25,mix15.jpg,mix35.jpg,high,option2;option1
1687287200,9c6ac5366c4a30c851dfdea9308bfc83,PennController,16,0,experiment,NULL,PennController,15,_Trial_,End,1687286938200,6100150aa12ad1614efd1971,6100150aa12ad1614efd1971,13,mix,critical,D,25,mix15.jpg,mix35.jpg,high,NULL
1687287200,9c6ac5366c4a30c851dfdea9308bfc83,PennController,6,0,experiment,NULL,PennController,5,_Trial_,Start,1687286938202,6100150aa12ad1614efd1971,6100150aa12ad1614efd1971,3,clean,critical,D,75,clean65.jpg,clean85.jpg,high,NULL
1687287200,9c6ac5366c4a30c851dfdea9308bfc83,PennController,6,0,experiment,NULL,PennController,5,_Header_,Start,1687286938202,6100150aa12ad1614efd1971,6100150aa12ad1614efd1971,3,clean,critical,D,75,clean65.jpg,clean85.jpg,high,NULL
1687287200,9c6ac5366c4a30c851dfdea9308bfc83,PennController,6,0,experiment,NULL,PennController,5,_Header_,End,1687286938202,6100150aa12ad1614efd1971,6100150aa12ad1614efd1971,3,clean,critical,D,75,clean65.jpg,clean85.jpg,high,NULL
1687287200,9c6ac5366c4a30c851dfdea9308bfc83,PennController,6,0,experiment,NULL,Canvas,canvas6,Print,NA,1687286945909,6100150aa12ad1614efd1971,6100150aa12ad1614efd1971,3,clean,critical,D,75,clean65.jpg,clean85.jpg,high,NULL
1687287200,9c6ac5366c4a30c851dfdea9308bfc83,PennController,6,0,experiment,NULL,Video,progression,buffer,0.011696,1687286941749,6100150aa12ad1614efd1971,6100150aa12ad1614efd1971,3,clean,critical,D,75,clean65.jpg,clean85.jpg,high,NULL
1687287200,9c6ac5366c4a30c851dfdea9308bfc83,PennController,6,0,experiment,NULL,Selector,choice,Selection,option2,1687286949868,6100150aa12ad1614efd1971,6100150aa12ad1614efd1971,3,clean,critical,D,75,clean65.jpg,clean85.jpg,high,option2;option1
1687287200,9c6ac5366c4a30c851dfdea9308bfc83,PennController,6,0,experiment,NULL,PennController,5,_Trial_,End,1687286949869,6100150aa12ad1614efd1971,6100150aa12ad1614efd1971,3,clean,critical,D,75,clean65.jpg,clean85.jpg,high,NULL
1687287200,9c6ac5366c4a30c851dfdea9308bfc83,PennController,22,0,experiment,NULL,PennController,21,_Trial_,Start,1687286949872,6100150aa12ad1614efd1971,6100150aa12ad1614efd1971,19,cup,filler,D,25,cup15.jpg,cup35.jpg,GoalB,NULL
1687287200,9c6ac5366c4a30c851dfdea9308bfc83,PennController,22,0,experiment,NULL,PennController,21,_Header_,Start,1687286949872,6100150aa12ad1614efd1971,6100150aa12ad1614efd1971,19,cup,filler,D,25,cup15.jpg,cup35.jpg,GoalB,NULL
1687287200,9c6ac5366c4a30c851dfdea9308bfc83,PennController,22,0,experiment,NULL,PennController,21,_Header_,End,1687286949872,6100150aa12ad1614efd1971,6100150aa12ad1614efd1971,19,cup,filler,D,25,cup15.jpg,cup35.jpg,GoalB,NULL
1687287200,9c6ac5366c4a30c851dfdea9308bfc83,PennController,22,0,experiment,NULL,Canvas,canvas6,Print,NA,1687286955595,6100150aa12ad1614efd1971,6100150aa12ad1614efd1971,19,cup,filler,D,25,cup15.jpg,cup35.jpg,GoalB,NULL
1687287200,9c6ac5366c4a30c851dfdea9308bfc83,PennController,22,0,experiment,NULL,Video,progression,buffer,0.007554,1687286953416,6100150aa12ad1614efd1971,6100150aa12ad1614efd1971,19,cup,filler,D,25,cup15.jpg,cup35.jpg,GoalB,NULL
1687287200,9c6ac5366c4a30c851dfdea9308bfc83,PennController,22,0,experiment,NULL,Selector,choice,Selection,option2,1687286960964,6100150aa12ad1614efd1971,6100150aa12ad1614efd1971,19,cup,filler,D,25,cup15.jpg,cup35.jpg,GoalB,option1;option2
1687287200,9c6ac5366c4a30c851dfdea9308bfc83,PennController,22,0,experiment,NULL,PennController,21,_Trial_,End,1687286960965,6100150aa12ad1614efd1971,6100150aa12ad1614efd1971,19,cup,filler,D,25,cup15.jpg,cup35.jpg,GoalB,NULL
1687287200,9c6ac5366c4a30c851dfdea9308bfc83,PennController,13,0,experiment,NULL,PennController,12,_Trial_,Start,1687286960967,6100150aa12ad1614efd1971,6100150aa12ad1614efd1971,10,train,critical,D,25,train15.jpg,train35.jpg,high,NULL
1687287200,9c6ac5366c4a30c851dfdea9308bfc83,PennController,13,0,experiment,NULL,PennController,12,_Header_,Start,1687286960967,6100150aa12ad1614efd1971,6100150aa12ad1614efd1971,10,train,critical,D,25,train15.jpg,train35.jpg,high,NULL
1687287200,9c6ac5366c4a30c851dfdea9308bfc83,PennController,13,0,experiment,NULL,PennController,12,_Header_,End,1687286960967,6100150aa12ad1614efd1971,6100150aa12ad1614efd1971,10,train,critical,D,25,train15.jpg,train35.jpg,high,NULL
1687287200,9c6ac5366c4a30c851dfdea9308bfc83,PennController,13,0,experiment,NULL,Canvas,canvas6,Print,NA,1687286966688,6100150aa12ad1614efd1971,6100150aa12ad1614efd1971,10,train,critical,D,25,train15.jpg,train35.jpg,high,NULL
1687287200,9c6ac5366c4a30c851dfdea9308bfc83,PennController,13,0,experiment,NULL,Video,progression,buffer,0.012885,1687286964514,6100150aa12ad1614efd1971,6100150aa12ad1614efd1971,10,train,critical,D,25,train15.jpg,train35.jpg,high,NULL
1687287200,9c6ac5366c4a30c851dfdea9308bfc83,PennController,13,0,experiment,NULL,Selector,choice,Selection,option2,1687286972863,6100150aa12ad1614efd1971,6100150aa12ad1614efd1971,10,train,critical,D,25,train15.jpg,train35.jpg,high,option1;option2
1687287200,9c6ac5366c4a30c851dfdea9308bfc83,PennController,13,0,experiment,NULL,PennController,12,_Trial_,End,1687286972864,6100150aa12ad1614efd1971,6100150aa12ad1614efd1971,10,train,critical,D,25,train15.jpg,train35.jpg,high,NULL
1687287200,9c6ac5366c4a30c851dfdea9308bfc83,PennController,10,0,experiment,NULL,PennController,9,_Trial_,Start,1687286972866,6100150aa12ad1614efd1971,6100150aa12ad1614efd1971,7,stack,critical,D,25,stack15.jpg,stack35.jpg,high,NULL
1687287200,9c6ac5366c4a30c851dfdea9308bfc83,PennController,10,0,experiment,NULL,PennController,9,_Header_,Start,1687286972866,6100150aa12ad1614efd1971,6100150aa12ad1614efd1971,7,stack,critical,D,25,stack15.jpg,stack35.jpg,high,NULL
1687287200,9c6ac5366c4a30c851dfdea9308bfc83,PennController,10,0,experiment,NULL,PennController,9,_Header_,End,1687286972866,6100150aa12ad1614efd1971,6100150aa12ad1614efd1971,7,stack,critical,D,25,stack15.jpg,stack35.jpg,high,NULL
1687287200,9c6ac5366c4a30c851dfdea9308bfc83,PennController,10,0,experiment,NULL,Canvas,canvas6,Print,NA,1687286978585,6100150aa12ad1614efd1971,6100150aa12ad1614efd1971,7,stack,critical,D,25,stack15.jpg,stack35.jpg,high,NULL
1687287200,9c6ac5366c4a30c851dfdea9308bfc83,PennController,10,0,experiment,NULL,Video,progression,buffer,0.011866,1687286976413,6100150aa12ad1614efd1971,6100150aa12ad1614efd1971,7,stack,critical,D,25,stack15.jpg,stack35.jpg,high,NULL
1687287200,9c6ac5366c4a30c851dfdea9308bfc83,PennController,10,0,experiment,NULL,Selector,choice,Selection,option2,1687286981662,6100150aa12ad1614efd1971,6100150aa12ad1614efd1971,7,stack,critical,D,25,stack15.jpg,stack35.jpg,high,option1;option2
1687287200,9c6ac5366c4a30c851dfdea9308bfc83,PennController,10,0,experiment,NULL,PennController,9,_Trial_,End,1687286981664,6100150aa12ad1614efd1971,6100150aa12ad1614efd1971,7,stack,critical,D,25,stack15.jpg,stack35.jpg,high,NULL
1687287200,9c6ac5366c4a30c851dfdea9308bfc83,PennController,21,0,experiment,NULL,PennController,20,_Trial_,Start,1687286981665,6100150aa12ad1614efd1971,6100150aa12ad1614efd1971,18,ball,critical,D,75,ball65.jpg,ball85.jpg,high,NULL
1687287200,9c6ac5366c4a30c851dfdea9308bfc83,PennController,21,0,experiment,NULL,PennController,20,_Header_,Start,1687286981665,6100150aa12ad1614efd1971,6100150aa12ad1614efd1971,18,ball,critical,D,75,ball65.jpg,ball85.jpg,high,NULL
1687287200,9c6ac5366c4a30c851dfdea9308bfc83,PennController,21,0,experiment,NULL,PennController,20,_Header_,End,1687286981665,6100150aa12ad1614efd1971,6100150aa12ad1614efd1971,18,ball,critical,D,75,ball65.jpg,ball85.jpg,high,NULL
1687287200,9c6ac5366c4a30c851dfdea9308bfc83,PennController,21,0,experiment,NULL,Canvas,canvas6,Print,NA,1687286989390,6100150aa12ad1614efd1971,6100150aa12ad1614efd1971,18,ball,critical,D,75,ball65.jpg,ball85.jpg,high,NULL
1687287200,9c6ac5366c4a30c851dfdea9308bfc83,PennController,21,0,experiment,NULL,Video,progression,buffer,0.013298,1687286985216,6100150aa12ad1614efd1971,6100150aa12ad1614efd1971,18,ball,critical,D,75,ball65.jpg,ball85.jpg,high,NULL
1687287200,9c6ac5366c4a30c851dfdea9308bfc83,PennController,21,0,experiment,NULL,Selector,choice,Selection,option2,1687286995377,6100150aa12ad1614efd1971,6100150aa12ad1614efd1971,18,ball,critical,D,75,ball65.jpg,ball85.jpg,high,option2;option1
1687287200,9c6ac5366c4a30c851dfdea9308bfc83,PennController,21,0,experiment,NULL,PennController,20,_Trial_,End,1687286995378,6100150aa12ad1614efd1971,6100150aa12ad1614efd1971,18,ball,critical,D,75,ball65.jpg,ball85.jpg,high,NULL
1687287200,9c6ac5366c4a30c851dfdea9308bfc83,PennController,4,0,experiment,NULL,PennController,3,_Trial_,Start,1687286995380,6100150aa12ad1614efd1971,6100150aa12ad1614efd1971,1,vase,critical,D,25,vase15.jpg,vase35.jpg,high,NULL
1687287200,9c6ac5366c4a30c851dfdea9308bfc83,PennController,4,0,experiment,NULL,PennController,3,_Header_,Start,1687286995380,6100150aa12ad1614efd1971,6100150aa12ad1614efd1971,1,vase,critical,D,25,vase15.jpg,vase35.jpg,high,NULL
1687287200,9c6ac5366c4a30c851dfdea9308bfc83,PennController,4,0,experiment,NULL,PennController,3,_Header_,End,1687286995380,6100150aa12ad1614efd1971,6100150aa12ad1614efd1971,1,vase,critical,D,25,vase15.jpg,vase35.jpg,high,NULL
1687287200,9c6ac5366c4a30c851dfdea9308bfc83,PennController,4,0,experiment,NULL,Canvas,canvas6,Print,NA,1687287001092,6100150aa12ad1614efd1971,6100150aa12ad1614efd1971,1,vase,critical,D,25,vase15.jpg,vase35.jpg,high,NULL
1687287200,9c6ac5366c4a30c851dfdea9308bfc83,PennController,4,0,experiment,NULL,Video,progression,buffer,0.01104,1687286998923,6100150aa12ad1614efd1971,6100150aa12ad1614efd1971,1,vase,critical,D,25,vase15.jpg,vase35.jpg,high,NULL
1687287200,9c6ac5366c4a30c851dfdea9308bfc83,PennController,4,0,experiment,NULL,Selector,choice,Selection,option2,1687287003943,6100150aa12ad1614efd1971,6100150aa12ad1614efd1971,1,vase,critical,D,25,vase15.jpg,vase35.jpg,high,option1;option2
1687287200,9c6ac5366c4a30c851dfdea9308bfc83,PennController,4,0,experiment,NULL,PennController,3,_Trial_,End,1687287003944,6100150aa12ad1614efd1971,6100150aa12ad1614efd1971,1,vase,critical,D,25,vase15.jpg,vase35.jpg,high,NULL
1687287200,9c6ac5366c4a30c851dfdea9308bfc83,PennController,5,0,experiment,NULL,PennController,4,_Trial_,Start,1687287003946,6100150aa12ad1614efd1971,6100150aa12ad1614efd1971,2,door,critical,D,50,door40.jpg,door60.jpg,high,NULL
1687287200,9c6ac5366c4a30c851dfdea9308bfc83,PennController,5,0,experiment,NULL,PennController,4,_Header_,Start,1687287003946,6100150aa12ad1614efd1971,6100150aa12ad1614efd1971,2,door,critical,D,50,door40.jpg,door60.jpg,high,NULL
1687287200,9c6ac5366c4a30c851dfdea9308bfc83,PennController,5,0,experiment,NULL,PennController,4,_Header_,End,1687287003946,6100150aa12ad1614efd1971,6100150aa12ad1614efd1971,2,door,critical,D,50,door40.jpg,door60.jpg,high,NULL
1687287200,9c6ac5366c4a30c851dfdea9308bfc83,PennController,5,0,experiment,NULL,Canvas,canvas6,Print,NA,1687287010660,6100150aa12ad1614efd1971,6100150aa12ad1614efd1971,2,door,critical,D,50,door40.jpg,door60.jpg,high,NULL
1687287200,9c6ac5366c4a30c851dfdea9308bfc83,PennController,5,0,experiment,NULL,Video,progression,buffer,0.010684,1687287007490,6100150aa12ad1614efd1971,6100150aa12ad1614efd1971,2,door,critical,D,50,door40.jpg,door60.jpg,high,NULL
1687287200,9c6ac5366c4a30c851dfdea9308bfc83,PennController,5,0,experiment,NULL,Selector,choice,Selection,option2,1687287015025,6100150aa12ad1614efd1971,6100150aa12ad1614efd1971,2,door,critical,D,50,door40.jpg,door60.jpg,high,option1;option2
1687287200,9c6ac5366c4a30c851dfdea9308bfc83,PennController,5,0,experiment,NULL,PennController,4,_Trial_,End,1687287015027,6100150aa12ad1614efd1971,6100150aa12ad1614efd1971,2,door,critical,D,50,door40.jpg,door60.jpg,high,NULL
1687287200,9c6ac5366c4a30c851dfdea9308bfc83,PennController,12,0,experiment,NULL,PennController,11,_Trial_,Start,1687287015029,6100150aa12ad1614efd1971,6100150aa12ad1614efd1971,9,cake,critical,D,75,cake66.jpg,cake84.jpg,high,NULL
1687287200,9c6ac5366c4a30c851dfdea9308bfc83,PennController,12,0,experiment,NULL,PennController,11,_Header_,Start,1687287015029,6100150aa12ad1614efd1971,6100150aa12ad1614efd1971,9,cake,critical,D,75,cake66.jpg,cake84.jpg,high,NULL
1687287200,9c6ac5366c4a30c851dfdea9308bfc83,PennController,12,0,experiment,NULL,PennController,11,_Header_,End,1687287015029,6100150aa12ad1614efd1971,6100150aa12ad1614efd1971,9,cake,critical,D,75,cake66.jpg,cake84.jpg,high,NULL
1687287200,9c6ac5366c4a30c851dfdea9308bfc83,PennController,12,0,experiment,NULL,Canvas,canvas6,Print,NA,1687287024740,6100150aa12ad1614efd1971,6100150aa12ad1614efd1971,9,cake,critical,D,75,cake66.jpg,cake84.jpg,high,NULL
1687287200,9c6ac5366c4a30c851dfdea9308bfc83,PennController,12,0,experiment,NULL,Video,progression,buffer,0.013631,1687287018576,6100150aa12ad1614efd1971,6100150aa12ad1614efd1971,9,cake,critical,D,75,cake66.jpg,cake84.jpg,high,NULL
1687287200,9c6ac5366c4a30c851dfdea9308bfc83,PennController,12,0,experiment,NULL,Selector,choice,Selection,option1,1687287028004,6100150aa12ad1614efd1971,6100150aa12ad1614efd1971,9,cake,critical,D,75,cake66.jpg,cake84.jpg,high,option1;option2
1687287200,9c6ac5366c4a30c851dfdea9308bfc83,PennController,12,0,experiment,NULL,PennController,11,_Trial_,End,1687287028005,6100150aa12ad1614efd1971,6100150aa12ad1614efd1971,9,cake,critical,D,75,cake66.jpg,cake84.jpg,high,NULL
1687287200,9c6ac5366c4a30c851dfdea9308bfc83,PennController,8,0,experiment,NULL,PennController,7,_Trial_,Start,1687287028006,6100150aa12ad1614efd1971,6100150aa12ad1614efd1971,5,book,critical,D,50,book40.jpg,book60.jpg,high,NULL
1687287200,9c6ac5366c4a30c851dfdea9308bfc83,PennController,8,0,experiment,NULL,PennController,7,_Header_,Start,1687287028006,6100150aa12ad1614efd1971,6100150aa12ad1614efd1971,5,book,critical,D,50,book40.jpg,book60.jpg,high,NULL
1687287200,9c6ac5366c4a30c851dfdea9308bfc83,PennController,8,0,experiment,NULL,PennController,7,_Header_,End,1687287028006,6100150aa12ad1614efd1971,6100150aa12ad1614efd1971,5,book,critical,D,50,book40.jpg,book60.jpg,high,NULL
1687287200,9c6ac5366c4a30c851dfdea9308bfc83,PennController,8,0,experiment,NULL,Canvas,canvas6,Print,NA,1687287034708,6100150aa12ad1614efd1971,6100150aa12ad1614efd1971,5,book,critical,D,50,book40.jpg,book60.jpg,high,NULL
1687287200,9c6ac5366c4a30c851dfdea9308bfc83,PennController,8,0,experiment,NULL,Video,progression,buffer,0.008425,1687287031544,6100150aa12ad1614efd1971,6100150aa12ad1614efd1971,5,book,critical,D,50,book40.jpg,book60.jpg,high,NULL
1687287200,9c6ac5366c4a30c851dfdea9308bfc83,PennController,8,0,experiment,NULL,Selector,choice,Selection,option2,1687287038797,6100150aa12ad1614efd1971,6100150aa12ad1614efd1971,5,book,critical,D,50,book40.jpg,book60.jpg,high,option2;option1
1687287200,9c6ac5366c4a30c851dfdea9308bfc83,PennController,8,0,experiment,NULL,PennController,7,_Trial_,End,1687287038799,6100150aa12ad1614efd1971,6100150aa12ad1614efd1971,5,book,critical,D,50,book40.jpg,book60.jpg,high,NULL
1687287200,9c6ac5366c4a30c851dfdea9308bfc83,PennController,26,0,experiment,NULL,PennController,25,_Trial_,Start,1687287038800,6100150aa12ad1614efd1971,6100150aa12ad1614efd1971,23,color,filler,D,50,color40.jpg,color60.jpg,GoalB,NULL
1687287200,9c6ac5366c4a30c851dfdea9308bfc83,PennController,26,0,experiment,NULL,PennController,25,_Header_,Start,1687287038800,6100150aa12ad1614efd1971,6100150aa12ad1614efd1971,23,color,filler,D,50,color40.jpg,color60.jpg,GoalB,NULL
1687287200,9c6ac5366c4a30c851dfdea9308bfc83,PennController,26,0,experiment,NULL,PennController,25,_Header_,End,1687287038800,6100150aa12ad1614efd1971,6100150aa12ad1614efd1971,23,color,filler,D,50,color40.jpg,color60.jpg,GoalB,NULL
1687287200,9c6ac5366c4a30c851dfdea9308bfc83,PennController,26,0,experiment,NULL,Canvas,canvas6,Print,NA,1687287045522,6100150aa12ad1614efd1971,6100150aa12ad1614efd1971,23,color,filler,D,50,color40.jpg,color60.jpg,GoalB,NULL
1687287200,9c6ac5366c4a30c851dfdea9308bfc83,PennController,26,0,experiment,NULL,Video,progression,buffer,0.011277,1687287042346,6100150aa12ad1614efd1971,6100150aa12ad1614efd1971,23,color,filler,D,50,color40.jpg,color60.jpg,GoalB,NULL
1687287200,9c6ac5366c4a30c851dfdea9308bfc83,PennController,26,0,experiment,NULL,Selector,choice,Selection,option2,1687287047286,6100150aa12ad1614efd1971,6100150aa12ad1614efd1971,23,color,filler,D,50,color40.jpg,color60.jpg,GoalB,option2;option1
1687287200,9c6ac5366c4a30c851dfdea9308bfc83,PennController,26,0,experiment,NULL,PennController,25,_Trial_,End,1687287047287,6100150aa12ad1614efd1971,6100150aa12ad1614efd1971,23,color,filler,D,50,color40.jpg,color60.jpg,GoalB,NULL
1687287200,9c6ac5366c4a30c851dfdea9308bfc83,PennController,18,0,experiment,NULL,PennController,17,_Trial_,Start,1687287047288,6100150aa12ad1614efd1971,6100150aa12ad1614efd1971,15,zip,critical,D,75,zip65.jpg,zip85.jpg,high,NULL
1687287200,9c6ac5366c4a30c851dfdea9308bfc83,PennController,18,0,experiment,NULL,PennController,17,_Header_,Start,1687287047288,6100150aa12ad1614efd1971,6100150aa12ad1614efd1971,15,zip,critical,D,75,zip65.jpg,zip85.jpg,high,NULL
1687287200,9c6ac5366c4a30c851dfdea9308bfc83,PennController,18,0,experiment,NULL,PennController,17,_Header_,End,1687287047288,6100150aa12ad1614efd1971,6100150aa12ad1614efd1971,15,zip,critical,D,75,zip65.jpg,zip85.jpg,high,NULL
1687287200,9c6ac5366c4a30c851dfdea9308bfc83,PennController,18,0,experiment,NULL,Canvas,canvas6,Print,NA,1687287054205,6100150aa12ad1614efd1971,6100150aa12ad1614efd1971,15,zip,critical,D,75,zip65.jpg,zip85.jpg,high,NULL
1687287200,9c6ac5366c4a30c851dfdea9308bfc83,PennController,18,0,experiment,NULL,Video,progression,buffer,0.013,1687287050835,6100150aa12ad1614efd1971,6100150aa12ad1614efd1971,15,zip,critical,D,75,zip65.jpg,zip85.jpg,high,NULL
1687287200,9c6ac5366c4a30c851dfdea9308bfc83,PennController,18,0,experiment,NULL,Selector,choice,Selection,option1,1687287057716,6100150aa12ad1614efd1971,6100150aa12ad1614efd1971,15,zip,critical,D,75,zip65.jpg,zip85.jpg,high,option1;option2
1687287200,9c6ac5366c4a30c851dfdea9308bfc83,PennController,18,0,experiment,NULL,PennController,17,_Trial_,End,1687287057717,6100150aa12ad1614efd1971,6100150aa12ad1614efd1971,15,zip,critical,D,75,zip65.jpg,zip85.jpg,high,NULL
1687287200,9c6ac5366c4a30c851dfdea9308bfc83,PennController,27,0,experiment,NULL,PennController,26,_Trial_,Start,1687287057718,6100150aa12ad1614efd1971,6100150aa12ad1614efd1971,24,match,filler,D,75,match65.jpg,match85.jpg,GoalA,NULL
1687287200,9c6ac5366c4a30c851dfdea9308bfc83,PennController,27,0,experiment,NULL,PennController,26,_Header_,Start,1687287057718,6100150aa12ad1614efd1971,6100150aa12ad1614efd1971,24,match,filler,D,75,match65.jpg,match85.jpg,GoalA,NULL
1687287200,9c6ac5366c4a30c851dfdea9308bfc83,PennController,27,0,experiment,NULL,PennController,26,_Header_,End,1687287057718,6100150aa12ad1614efd1971,6100150aa12ad1614efd1971,24,match,filler,D,75,match65.jpg,match85.jpg,GoalA,NULL
1687287200,9c6ac5366c4a30c851dfdea9308bfc83,PennController,27,0,experiment,NULL,Canvas,canvas6,Print,NA,1687287065435,6100150aa12ad1614efd1971,6100150aa12ad1614efd1971,24,match,filler,D,75,match65.jpg,match85.jpg,GoalA,NULL
1687287200,9c6ac5366c4a30c851dfdea9308bfc83,PennController,27,0,experiment,NULL,Video,progression,buffer,0.012647,1687287061268,6100150aa12ad1614efd1971,6100150aa12ad1614efd1971,24,match,filler,D,75,match65.jpg,match85.jpg,GoalA,NULL
1687287200,9c6ac5366c4a30c851dfdea9308bfc83,PennController,27,0,experiment,NULL,Selector,choice,Selection,option1,1687287067214,6100150aa12ad1614efd1971,6100150aa12ad1614efd1971,24,match,filler,D,75,match65.jpg,match85.jpg,GoalA,option1;option2
1687287200,9c6ac5366c4a30c851dfdea9308bfc83,PennController,27,0,experiment,NULL,PennController,26,_Trial_,End,1687287067215,6100150aa12ad1614efd1971,6100150aa12ad1614efd1971,24,match,filler,D,75,match65.jpg,match85.jpg,GoalA,NULL
1687287200,9c6ac5366c4a30c851dfdea9308bfc83,PennController,9,0,experiment,NULL,PennController,8,_Trial_,Start,1687287067217,6100150aa12ad1614efd1971,6100150aa12ad1614efd1971,6,flower,critical,D,75,flower65.jpg,flower85.jpg,high,NULL
1687287200,9c6ac5366c4a30c851dfdea9308bfc83,PennController,9,0,experiment,NULL,PennController,8,_Header_,Start,1687287067217,6100150aa12ad1614efd1971,6100150aa12ad1614efd1971,6,flower,critical,D,75,flower65.jpg,flower85.jpg,high,NULL
1687287200,9c6ac5366c4a30c851dfdea9308bfc83,PennController,9,0,experiment,NULL,PennController,8,_Header_,End,1687287067217,6100150aa12ad1614efd1971,6100150aa12ad1614efd1971,6,flower,critical,D,75,flower65.jpg,flower85.jpg,high,NULL
1687287200,9c6ac5366c4a30c851dfdea9308bfc83,PennController,9,0,experiment,NULL,Canvas,canvas6,Print,NA,1687287074934,6100150aa12ad1614efd1971,6100150aa12ad1614efd1971,6,flower,critical,D,75,flower65.jpg,flower85.jpg,high,NULL
1687287200,9c6ac5366c4a30c851dfdea9308bfc83,PennController,9,0,experiment,NULL,Video,progression,buffer,0.011109,1687287070763,6100150aa12ad1614efd1971,6100150aa12ad1614efd1971,6,flower,critical,D,75,flower65.jpg,flower85.jpg,high,NULL
1687287200,9c6ac5366c4a30c851dfdea9308bfc83,PennController,9,0,experiment,NULL,Selector,choice,Selection,option1,1687287077687,6100150aa12ad1614efd1971,6100150aa12ad1614efd1971,6,flower,critical,D,75,flower65.jpg,flower85.jpg,high,option2;option1
1687287200,9c6ac5366c4a30c851dfdea9308bfc83,PennController,9,0,experiment,NULL,PennController,8,_Trial_,End,1687287077688,6100150aa12ad1614efd1971,6100150aa12ad1614efd1971,6,flower,critical,D,75,flower65.jpg,flower85.jpg,high,NULL
1687287200,9c6ac5366c4a30c851dfdea9308bfc83,PennController,28,0,experiment,NULL,PennController,27,_Trial_,Start,1687287077689,6100150aa12ad1614efd1971,6100150aa12ad1614efd1971,25,house,filler,D,25,house15.jpg,house35.jpg,GoalB,NULL
1687287200,9c6ac5366c4a30c851dfdea9308bfc83,PennController,28,0,experiment,NULL,PennController,27,_Header_,Start,1687287077689,6100150aa12ad1614efd1971,6100150aa12ad1614efd1971,25,house,filler,D,25,house15.jpg,house35.jpg,GoalB,NULL
1687287200,9c6ac5366c4a30c851dfdea9308bfc83,PennController,28,0,experiment,NULL,PennController,27,_Header_,End,1687287077689,6100150aa12ad1614efd1971,6100150aa12ad1614efd1971,25,house,filler,D,25,house15.jpg,house35.jpg,GoalB,NULL
1687287200,9c6ac5366c4a30c851dfdea9308bfc83,PennController,28,0,experiment,NULL,Canvas,canvas6,Print,NA,1687287083416,6100150aa12ad1614efd1971,6100150aa12ad1614efd1971,25,house,filler,D,25,house15.jpg,house35.jpg,GoalB,NULL
1687287200,9c6ac5366c4a30c851dfdea9308bfc83,PennController,28,0,experiment,NULL,Video,progression,buffer,0.011506,1687287081241,6100150aa12ad1614efd1971,6100150aa12ad1614efd1971,25,house,filler,D,25,house15.jpg,house35.jpg,GoalB,NULL
1687287200,9c6ac5366c4a30c851dfdea9308bfc83,PennController,28,0,experiment,NULL,Selector,choice,Selection,option2,1687287085009,6100150aa12ad1614efd1971,6100150aa12ad1614efd1971,25,house,filler,D,25,house15.jpg,house35.jpg,GoalB,option2;option1
1687287200,9c6ac5366c4a30c851dfdea9308bfc83,PennController,28,0,experiment,NULL,PennController,27,_Trial_,End,1687287085010,6100150aa12ad1614efd1971,6100150aa12ad1614efd1971,25,house,filler,D,25,house15.jpg,house35.jpg,GoalB,NULL
1687287200,9c6ac5366c4a30c851dfdea9308bfc83,PennController,15,0,experiment,NULL,PennController,14,_Trial_,Start,1687287085012,6100150aa12ad1614efd1971,6100150aa12ad1614efd1971,12,erase,critical,D,75,erase66.jpg,erase84.jpg,high,NULL
1687287200,9c6ac5366c4a30c851dfdea9308bfc83,PennController,15,0,experiment,NULL,PennController,14,_Header_,Start,1687287085012,6100150aa12ad1614efd1971,6100150aa12ad1614efd1971,12,erase,critical,D,75,erase66.jpg,erase84.jpg,high,NULL
1687287200,9c6ac5366c4a30c851dfdea9308bfc83,PennController,15,0,experiment,NULL,PennController,14,_Header_,End,1687287085012,6100150aa12ad1614efd1971,6100150aa12ad1614efd1971,12,erase,critical,D,75,erase66.jpg,erase84.jpg,high,NULL
1687287200,9c6ac5366c4a30c851dfdea9308bfc83,PennController,15,0,experiment,NULL,Canvas,canvas6,Print,NA,1687287094713,6100150aa12ad1614efd1971,6100150aa12ad1614efd1971,12,erase,critical,D,75,erase66.jpg,erase84.jpg,high,NULL
1687287200,9c6ac5366c4a30c851dfdea9308bfc83,PennController,15,0,experiment,NULL,Video,progression,buffer,0.009004,1687287088551,6100150aa12ad1614efd1971,6100150aa12ad1614efd1971,12,erase,critical,D,75,erase66.jpg,erase84.jpg,high,NULL
1687287200,9c6ac5366c4a30c851dfdea9308bfc83,PennController,15,0,experiment,NULL,Selector,choice,Selection,option1,1687287097760,6100150aa12ad1614efd1971,6100150aa12ad1614efd1971,12,erase,critical,D,75,erase66.jpg,erase84.jpg,high,option1;option2
1687287200,9c6ac5366c4a30c851dfdea9308bfc83,PennController,15,0,experiment,NULL,PennController,14,_Trial_,End,1687287097761,6100150aa12ad1614efd1971,6100150aa12ad1614efd1971,12,erase,critical,D,75,erase66.jpg,erase84.jpg,high,NULL
1687287200,9c6ac5366c4a30c851dfdea9308bfc83,PennController,23,0,experiment,NULL,PennController,22,_Trial_,Start,1687287097762,6100150aa12ad1614efd1971,6100150aa12ad1614efd1971,20,cat,filler,D,50,cat40.jpg,cat60.jpg,GoalA,NULL
1687287200,9c6ac5366c4a30c851dfdea9308bfc83,PennController,23,0,experiment,NULL,PennController,22,_Header_,Start,1687287097762,6100150aa12ad1614efd1971,6100150aa12ad1614efd1971,20,cat,filler,D,50,cat40.jpg,cat60.jpg,GoalA,NULL
1687287200,9c6ac5366c4a30c851dfdea9308bfc83,PennController,23,0,experiment,NULL,PennController,22,_Header_,End,1687287097762,6100150aa12ad1614efd1971,6100150aa12ad1614efd1971,20,cat,filler,D,50,cat40.jpg,cat60.jpg,GoalA,NULL
1687287200,9c6ac5366c4a30c851dfdea9308bfc83,PennController,23,0,experiment,NULL,Canvas,canvas6,Print,NA,1687287104476,6100150aa12ad1614efd1971,6100150aa12ad1614efd1971,20,cat,filler,D,50,cat40.jpg,cat60.jpg,GoalA,NULL
1687287200,9c6ac5366c4a30c851dfdea9308bfc83,PennController,23,0,experiment,NULL,Video,progression,buffer,0.011167,1687287101308,6100150aa12ad1614efd1971,6100150aa12ad1614efd1971,20,cat,filler,D,50,cat40.jpg,cat60.jpg,GoalA,NULL
1687287200,9c6ac5366c4a30c851dfdea9308bfc83,PennController,23,0,experiment,NULL,Selector,choice,Selection,option2,1687287105626,6100150aa12ad1614efd1971,6100150aa12ad1614efd1971,20,cat,filler,D,50,cat40.jpg,cat60.jpg,GoalA,option2;option1
1687287200,9c6ac5366c4a30c851dfdea9308bfc83,PennController,23,0,experiment,NULL,PennController,22,_Trial_,End,1687287105627,6100150aa12ad1614efd1971,6100150aa12ad1614efd1971,20,cat,filler,D,50,cat40.jpg,cat60.jpg,GoalA,NULL
1687287200,9c6ac5366c4a30c851dfdea9308bfc83,PennController,30,0,experiment,NULL,PennController,29,_Trial_,Start,1687287105628,6100150aa12ad1614efd1971,6100150aa12ad1614efd1971,27,square,filler,D,75,square65.jpg,square85.jpg,GoalB,NULL
1687287200,9c6ac5366c4a30c851dfdea9308bfc83,PennController,30,0,experiment,NULL,PennController,29,_Header_,Start,1687287105628,6100150aa12ad1614efd1971,6100150aa12ad1614efd1971,27,square,filler,D,75,square65.jpg,square85.jpg,GoalB,NULL
1687287200,9c6ac5366c4a30c851dfdea9308bfc83,PennController,30,0,experiment,NULL,PennController,29,_Header_,End,1687287105628,6100150aa12ad1614efd1971,6100150aa12ad1614efd1971,27,square,filler,D,75,square65.jpg,square85.jpg,GoalB,NULL
1687287200,9c6ac5366c4a30c851dfdea9308bfc83,PennController,30,0,experiment,NULL,Canvas,canvas6,Print,NA,1687287113344,6100150aa12ad1614efd1971,6100150aa12ad1614efd1971,27,square,filler,D,75,square65.jpg,square85.jpg,GoalB,NULL
1687287200,9c6ac5366c4a30c851dfdea9308bfc83,PennController,30,0,experiment,NULL,Video,progression,buffer,0.011478,1687287109174,6100150aa12ad1614efd1971,6100150aa12ad1614efd1971,27,square,filler,D,75,square65.jpg,square85.jpg,GoalB,NULL
1687287200,9c6ac5366c4a30c851dfdea9308bfc83,PennController,30,0,experiment,NULL,Selector,choice,Selection,option1,1687287115698,6100150aa12ad1614efd1971,6100150aa12ad1614efd1971,27,square,filler,D,75,square65.jpg,square85.jpg,GoalB,option2;option1
1687287200,9c6ac5366c4a30c851dfdea9308bfc83,PennController,30,0,experiment,NULL,PennController,29,_Trial_,End,1687287115699,6100150aa12ad1614efd1971,6100150aa12ad1614efd1971,27,square,filler,D,75,square65.jpg,square85.jpg,GoalB,NULL
1687287200,9c6ac5366c4a30c851dfdea9308bfc83,PennController,17,0,experiment,NULL,PennController,16,_Trial_,Start,1687287115701,6100150aa12ad1614efd1971,6100150aa12ad1614efd1971,14,cover,critical,D,50,cover42.jpg,cover60.jpg,high,NULL
1687287200,9c6ac5366c4a30c851dfdea9308bfc83,PennController,17,0,experiment,NULL,PennController,16,_Header_,Start,1687287115701,6100150aa12ad1614efd1971,6100150aa12ad1614efd1971,14,cover,critical,D,50,cover42.jpg,cover60.jpg,high,NULL
1687287200,9c6ac5366c4a30c851dfdea9308bfc83,PennController,17,0,experiment,NULL,PennController,16,_Header_,End,1687287115701,6100150aa12ad1614efd1971,6100150aa12ad1614efd1971,14,cover,critical,D,50,cover42.jpg,cover60.jpg,high,NULL
1687287200,9c6ac5366c4a30c851dfdea9308bfc83,PennController,17,0,experiment,NULL,Canvas,canvas6,Print,NA,1687287123806,6100150aa12ad1614efd1971,6100150aa12ad1614efd1971,14,cover,critical,D,50,cover42.jpg,cover60.jpg,high,NULL
1687287200,9c6ac5366c4a30c851dfdea9308bfc83,PennController,17,0,experiment,NULL,Video,progression,buffer,0.010948,1687287119246,6100150aa12ad1614efd1971,6100150aa12ad1614efd1971,14,cover,critical,D,50,cover42.jpg,cover60.jpg,high,NULL
1687287200,9c6ac5366c4a30c851dfdea9308bfc83,PennController,17,0,experiment,NULL,Selector,choice,Selection,option2,1687287125587,6100150aa12ad1614efd1971,6100150aa12ad1614efd1971,14,cover,critical,D,50,cover42.jpg,cover60.jpg,high,option2;option1
1687287200,9c6ac5366c4a30c851dfdea9308bfc83,PennController,17,0,experiment,NULL,PennController,16,_Trial_,End,1687287125588,6100150aa12ad1614efd1971,6100150aa12ad1614efd1971,14,cover,critical,D,50,cover42.jpg,cover60.jpg,high,NULL
1687287200,9c6ac5366c4a30c851dfdea9308bfc83,PennController,25,0,experiment,NULL,PennController,24,_Trial_,Start,1687287125589,6100150aa12ad1614efd1971,6100150aa12ad1614efd1971,22,wall,filler,D,25,wall15.jpg,wall35.jpg,GoalA,NULL
1687287200,9c6ac5366c4a30c851dfdea9308bfc83,PennController,25,0,experiment,NULL,PennController,24,_Header_,Start,1687287125589,6100150aa12ad1614efd1971,6100150aa12ad1614efd1971,22,wall,filler,D,25,wall15.jpg,wall35.jpg,GoalA,NULL
1687287200,9c6ac5366c4a30c851dfdea9308bfc83,PennController,25,0,experiment,NULL,PennController,24,_Header_,End,1687287125589,6100150aa12ad1614efd1971,6100150aa12ad1614efd1971,22,wall,filler,D,25,wall15.jpg,wall35.jpg,GoalA,NULL
1687287200,9c6ac5366c4a30c851dfdea9308bfc83,PennController,25,0,experiment,NULL,Canvas,canvas6,Print,NA,1687287131305,6100150aa12ad1614efd1971,6100150aa12ad1614efd1971,22,wall,filler,D,25,wall15.jpg,wall35.jpg,GoalA,NULL
1687287200,9c6ac5366c4a30c851dfdea9308bfc83,PennController,25,0,experiment,NULL,Video,progression,buffer,0.014055,1687287129142,6100150aa12ad1614efd1971,6100150aa12ad1614efd1971,22,wall,filler,D,25,wall15.jpg,wall35.jpg,GoalA,NULL
1687287200,9c6ac5366c4a30c851dfdea9308bfc83,PennController,25,0,experiment,NULL,Selector,choice,Selection,option2,1687287132665,6100150aa12ad1614efd1971,6100150aa12ad1614efd1971,22,wall,filler,D,25,wall15.jpg,wall35.jpg,GoalA,option1;option2
1687287200,9c6ac5366c4a30c851dfdea9308bfc83,PennController,25,0,experiment,NULL,PennController,24,_Trial_,End,1687287132666,6100150aa12ad1614efd1971,6100150aa12ad1614efd1971,22,wall,filler,D,25,wall15.jpg,wall35.jpg,GoalA,NULL
1687287200,9c6ac5366c4a30c851dfdea9308bfc83,PennController,14,0,experiment,NULL,PennController,13,_Trial_,Start,1687287132668,6100150aa12ad1614efd1971,6100150aa12ad1614efd1971,11,beads,critical,D,50,beads40.jpg,beads60.jpg,high,NULL
1687287200,9c6ac5366c4a30c851dfdea9308bfc83,PennController,14,0,experiment,NULL,PennController,13,_Header_,Start,1687287132668,6100150aa12ad1614efd1971,6100150aa12ad1614efd1971,11,beads,critical,D,50,beads40.jpg,beads60.jpg,high,NULL
1687287200,9c6ac5366c4a30c851dfdea9308bfc83,PennController,14,0,experiment,NULL,PennController,13,_Header_,End,1687287132668,6100150aa12ad1614efd1971,6100150aa12ad1614efd1971,11,beads,critical,D,50,beads40.jpg,beads60.jpg,high,NULL
1687287200,9c6ac5366c4a30c851dfdea9308bfc83,PennController,14,0,experiment,NULL,Canvas,canvas6,Print,NA,1687287139388,6100150aa12ad1614efd1971,6100150aa12ad1614efd1971,11,beads,critical,D,50,beads40.jpg,beads60.jpg,high,NULL
1687287200,9c6ac5366c4a30c851dfdea9308bfc83,PennController,14,0,experiment,NULL,Video,progression,buffer,0.013789,1687287136220,6100150aa12ad1614efd1971,6100150aa12ad1614efd1971,11,beads,critical,D,50,beads40.jpg,beads60.jpg,high,NULL
1687287200,9c6ac5366c4a30c851dfdea9308bfc83,PennController,14,0,experiment,NULL,Selector,choice,Selection,option2,1687287141453,6100150aa12ad1614efd1971,6100150aa12ad1614efd1971,11,beads,critical,D,50,beads40.jpg,beads60.jpg,high,option2;option1
1687287200,9c6ac5366c4a30c851dfdea9308bfc83,PennController,14,0,experiment,NULL,PennController,13,_Trial_,End,1687287141454,6100150aa12ad1614efd1971,6100150aa12ad1614efd1971,11,beads,critical,D,50,beads40.jpg,beads60.jpg,high,NULL
1687287200,9c6ac5366c4a30c851dfdea9308bfc83,PennController,32,0,experiment,NULL,PennController,31,_Trial_,Start,1687287141455,6100150aa12ad1614efd1971,6100150aa12ad1614efd1971,29,frog,filler,D,50,frog40.jpg,frog60.jpg,GoalB,NULL
1687287200,9c6ac5366c4a30c851dfdea9308bfc83,PennController,32,0,experiment,NULL,PennController,31,_Header_,Start,1687287141455,6100150aa12ad1614efd1971,6100150aa12ad1614efd1971,29,frog,filler,D,50,frog40.jpg,frog60.jpg,GoalB,NULL
1687287200,9c6ac5366c4a30c851dfdea9308bfc83,PennController,32,0,experiment,NULL,PennController,31,_Header_,End,1687287141455,6100150aa12ad1614efd1971,6100150aa12ad1614efd1971,29,frog,filler,D,50,frog40.jpg,frog60.jpg,GoalB,NULL
1687287200,9c6ac5366c4a30c851dfdea9308bfc83,PennController,32,0,experiment,NULL,Canvas,canvas6,Print,NA,1687287148167,6100150aa12ad1614efd1971,6100150aa12ad1614efd1971,29,frog,filler,D,50,frog40.jpg,frog60.jpg,GoalB,NULL
1687287200,9c6ac5366c4a30c851dfdea9308bfc83,PennController,32,0,experiment,NULL,Video,progression,buffer,0.013052,1687287145002,6100150aa12ad1614efd1971,6100150aa12ad1614efd1971,29,frog,filler,D,50,frog40.jpg,frog60.jpg,GoalB,NULL
1687287200,9c6ac5366c4a30c851dfdea9308bfc83,PennController,32,0,experiment,NULL,Selector,choice,Selection,option2,1687287149813,6100150aa12ad1614efd1971,6100150aa12ad1614efd1971,29,frog,filler,D,50,frog40.jpg,frog60.jpg,GoalB,option1;option2
1687287200,9c6ac5366c4a30c851dfdea9308bfc83,PennController,32,0,experiment,NULL,PennController,31,_Trial_,End,1687287149814,6100150aa12ad1614efd1971,6100150aa12ad1614efd1971,29,frog,filler,D,50,frog40.jpg,frog60.jpg,GoalB,NULL
1687287200,9c6ac5366c4a30c851dfdea9308bfc83,PennController,29,0,experiment,NULL,PennController,28,_Trial_,Start,1687287149815,6100150aa12ad1614efd1971,6100150aa12ad1614efd1971,26,sandwich,filler,D,50,sandwich40.jpg,sandwich60.jpg,GoalA,NULL
1687287200,9c6ac5366c4a30c851dfdea9308bfc83,PennController,29,0,experiment,NULL,PennController,28,_Header_,Start,1687287149815,6100150aa12ad1614efd1971,6100150aa12ad1614efd1971,26,sandwich,filler,D,50,sandwich40.jpg,sandwich60.jpg,GoalA,NULL
1687287200,9c6ac5366c4a30c851dfdea9308bfc83,PennController,29,0,experiment,NULL,PennController,28,_Header_,End,1687287149815,6100150aa12ad1614efd1971,6100150aa12ad1614efd1971,26,sandwich,filler,D,50,sandwich40.jpg,sandwich60.jpg,GoalA,NULL
1687287200,9c6ac5366c4a30c851dfdea9308bfc83,PennController,29,0,experiment,NULL,Canvas,canvas6,Print,NA,1687287156536,6100150aa12ad1614efd1971,6100150aa12ad1614efd1971,26,sandwich,filler,D,50,sandwich40.jpg,sandwich60.jpg,GoalA,NULL
1687287200,9c6ac5366c4a30c851dfdea9308bfc83,PennController,29,0,experiment,NULL,Video,progression,buffer,0.011978,1687287153361,6100150aa12ad1614efd1971,6100150aa12ad1614efd1971,26,sandwich,filler,D,50,sandwich40.jpg,sandwich60.jpg,GoalA,NULL
1687287200,9c6ac5366c4a30c851dfdea9308bfc83,PennController,29,0,experiment,NULL,Selector,choice,Selection,option1,1687287158203,6100150aa12ad1614efd1971,6100150aa12ad1614efd1971,26,sandwich,filler,D,50,sandwich40.jpg,sandwich60.jpg,GoalA,option1;option2
1687287200,9c6ac5366c4a30c851dfdea9308bfc83,PennController,29,0,experiment,NULL,PennController,28,_Trial_,End,1687287158204,6100150aa12ad1614efd1971,6100150aa12ad1614efd1971,26,sandwich,filler,D,50,sandwich40.jpg,sandwich60.jpg,GoalA,NULL
1687287200,9c6ac5366c4a30c851dfdea9308bfc83,PennController,31,0,experiment,NULL,PennController,30,_Trial_,Start,1687287158205,6100150aa12ad1614efd1971,6100150aa12ad1614efd1971,28,sort,filler,D,25,sort15.jpg,sort35.jpg,GoalA,NULL
1687287200,9c6ac5366c4a30c851dfdea9308bfc83,PennController,31,0,experiment,NULL,PennController,30,_Header_,Start,1687287158205,6100150aa12ad1614efd1971,6100150aa12ad1614efd1971,28,sort,filler,D,25,sort15.jpg,sort35.jpg,GoalA,NULL
1687287200,9c6ac5366c4a30c851dfdea9308bfc83,PennController,31,0,experiment,NULL,PennController,30,_Header_,End,1687287158205,6100150aa12ad1614efd1971,6100150aa12ad1614efd1971,28,sort,filler,D,25,sort15.jpg,sort35.jpg,GoalA,NULL
1687287200,9c6ac5366c4a30c851dfdea9308bfc83,PennController,31,0,experiment,NULL,Canvas,canvas6,Print,NA,1687287163917,6100150aa12ad1614efd1971,6100150aa12ad1614efd1971,28,sort,filler,D,25,sort15.jpg,sort35.jpg,GoalA,NULL
1687287200,9c6ac5366c4a30c851dfdea9308bfc83,PennController,31,0,experiment,NULL,Video,progression,buffer,0.013925,1687287161756,6100150aa12ad1614efd1971,6100150aa12ad1614efd1971,28,sort,filler,D,25,sort15.jpg,sort35.jpg,GoalA,NULL
1687287200,9c6ac5366c4a30c851dfdea9308bfc83,PennController,31,0,experiment,NULL,Selector,choice,Selection,option1,1687287167592,6100150aa12ad1614efd1971,6100150aa12ad1614efd1971,28,sort,filler,D,25,sort15.jpg,sort35.jpg,GoalA,option1;option2
1687287200,9c6ac5366c4a30c851dfdea9308bfc83,PennController,31,0,experiment,NULL,PennController,30,_Trial_,End,1687287167593,6100150aa12ad1614efd1971,6100150aa12ad1614efd1971,28,sort,filler,D,25,sort15.jpg,sort35.jpg,GoalA,NULL
1687287200,9c6ac5366c4a30c851dfdea9308bfc83,PennController,20,0,experiment,NULL,PennController,19,_Trial_,Start,1687287167595,6100150aa12ad1614efd1971,6100150aa12ad1614efd1971,17,roll,critical,D,50,roll40.jpg,roll60.jpg,high,NULL
1687287200,9c6ac5366c4a30c851dfdea9308bfc83,PennController,20,0,experiment,NULL,PennController,19,_Header_,Start,1687287167595,6100150aa12ad1614efd1971,6100150aa12ad1614efd1971,17,roll,critical,D,50,roll40.jpg,roll60.jpg,high,NULL
1687287200,9c6ac5366c4a30c851dfdea9308bfc83,PennController,20,0,experiment,NULL,PennController,19,_Header_,End,1687287167595,6100150aa12ad1614efd1971,6100150aa12ad1614efd1971,17,roll,critical,D,50,roll40.jpg,roll60.jpg,high,NULL
1687287200,9c6ac5366c4a30c851dfdea9308bfc83,PennController,20,0,experiment,NULL,Canvas,canvas6,Print,NA,1687287174346,6100150aa12ad1614efd1971,6100150aa12ad1614efd1971,17,roll,critical,D,50,roll40.jpg,roll60.jpg,high,NULL
1687287200,9c6ac5366c4a30c851dfdea9308bfc83,PennController,20,0,experiment,NULL,Video,progression,buffer,0,1687287171143,6100150aa12ad1614efd1971,6100150aa12ad1614efd1971,17,roll,critical,D,50,roll40.jpg,roll60.jpg,high,NULL
1687287200,9c6ac5366c4a30c851dfdea9308bfc83,PennController,20,0,experiment,NULL,Selector,choice,Selection,option2,1687287175982,6100150aa12ad1614efd1971,6100150aa12ad1614efd1971,17,roll,critical,D,50,roll40.jpg,roll60.jpg,high,option1;option2
1687287200,9c6ac5366c4a30c851dfdea9308bfc83,PennController,20,0,experiment,NULL,PennController,19,_Trial_,End,1687287175983,6100150aa12ad1614efd1971,6100150aa12ad1614efd1971,17,roll,critical,D,50,roll40.jpg,roll60.jpg,high,NULL
1687287200,9c6ac5366c4a30c851dfdea9308bfc83,PennController,19,0,experiment,NULL,PennController,18,_Trial_,Start,1687287175984,6100150aa12ad1614efd1971,6100150aa12ad1614efd1971,16,blinds,critical,D,25,blinds15.jpg,blinds33.jpg,high,NULL
1687287200,9c6ac5366c4a30c851dfdea9308bfc83,PennController,19,0,experiment,NULL,PennController,18,_Header_,Start,1687287175984,6100150aa12ad1614efd1971,6100150aa12ad1614efd1971,16,blinds,critical,D,25,blinds15.jpg,blinds33.jpg,high,NULL
1687287200,9c6ac5366c4a30c851dfdea9308bfc83,PennController,19,0,experiment,NULL,PennController,18,_Header_,End,1687287175984,6100150aa12ad1614efd1971,6100150aa12ad1614efd1971,16,blinds,critical,D,25,blinds15.jpg,blinds33.jpg,high,NULL
1687287200,9c6ac5366c4a30c851dfdea9308bfc83,PennController,19,0,experiment,NULL,Canvas,canvas6,Print,NA,1687287182295,6100150aa12ad1614efd1971,6100150aa12ad1614efd1971,16,blinds,critical,D,25,blinds15.jpg,blinds33.jpg,high,NULL
1687287200,9c6ac5366c4a30c851dfdea9308bfc83,PennController,19,0,experiment,NULL,Video,progression,buffer,0.012955,1687287179530,6100150aa12ad1614efd1971,6100150aa12ad1614efd1971,16,blinds,critical,D,25,blinds15.jpg,blinds33.jpg,high,NULL
1687287200,9c6ac5366c4a30c851dfdea9308bfc83,PennController,19,0,experiment,NULL,Selector,choice,Selection,option2,1687287183468,6100150aa12ad1614efd1971,6100150aa12ad1614efd1971,16,blinds,critical,D,25,blinds15.jpg,blinds33.jpg,high,option2;option1
1687287200,9c6ac5366c4a30c851dfdea9308bfc83,PennController,19,0,experiment,NULL,PennController,18,_Trial_,End,1687287183469,6100150aa12ad1614efd1971,6100150aa12ad1614efd1971,16,blinds,critical,D,25,blinds15.jpg,blinds33.jpg,high,NULL
1687287200,9c6ac5366c4a30c851dfdea9308bfc83,PennController,7,0,experiment,NULL,PennController,6,_Trial_,Start,1687287183470,6100150aa12ad1614efd1971,6100150aa12ad1614efd1971,4,candy,critical,D,25,candy15.jpg,candy35.jpg,high,NULL
1687287200,9c6ac5366c4a30c851dfdea9308bfc83,PennController,7,0,experiment,NULL,PennController,6,_Header_,Start,1687287183470,6100150aa12ad1614efd1971,6100150aa12ad1614efd1971,4,candy,critical,D,25,candy15.jpg,candy35.jpg,high,NULL
1687287200,9c6ac5366c4a30c851dfdea9308bfc83,PennController,7,0,experiment,NULL,PennController,6,_Header_,End,1687287183470,6100150aa12ad1614efd1971,6100150aa12ad1614efd1971,4,candy,critical,D,25,candy15.jpg,candy35.jpg,high,NULL
1687287200,9c6ac5366c4a30c851dfdea9308bfc83,PennController,7,0,experiment,NULL,Canvas,canvas6,Print,NA,1687287189179,6100150aa12ad1614efd1971,6100150aa12ad1614efd1971,4,candy,critical,D,25,candy15.jpg,candy35.jpg,high,NULL
1687287200,9c6ac5366c4a30c851dfdea9308bfc83,PennController,7,0,experiment,NULL,Video,progression,buffer,0.00913,1687287187013,6100150aa12ad1614efd1971,6100150aa12ad1614efd1971,4,candy,critical,D,25,candy15.jpg,candy35.jpg,high,NULL
1687287200,9c6ac5366c4a30c851dfdea9308bfc83,PennController,7,0,experiment,NULL,Selector,choice,Selection,option2,1687287190566,6100150aa12ad1614efd1971,6100150aa12ad1614efd1971,4,candy,critical,D,25,candy15.jpg,candy35.jpg,high,option2;option1
1687287200,9c6ac5366c4a30c851dfdea9308bfc83,PennController,7,0,experiment,NULL,PennController,6,_Trial_,End,1687287190567,6100150aa12ad1614efd1971,6100150aa12ad1614efd1971,4,candy,critical,D,25,candy15.jpg,candy35.jpg,high,NULL
1687287200,9c6ac5366c4a30c851dfdea9308bfc83,PennController,11,0,experiment,NULL,PennController,10,_Trial_,Start,1687287190568,6100150aa12ad1614efd1971,6100150aa12ad1614efd1971,8,cucumber,critical,D,50,cucumber42.jpg,cucumber60.jpg,high,NULL
1687287200,9c6ac5366c4a30c851dfdea9308bfc83,PennController,11,0,experiment,NULL,PennController,10,_Header_,Start,1687287190568,6100150aa12ad1614efd1971,6100150aa12ad1614efd1971,8,cucumber,critical,D,50,cucumber42.jpg,cucumber60.jpg,high,NULL
1687287200,9c6ac5366c4a30c851dfdea9308bfc83,PennController,11,0,experiment,NULL,PennController,10,_Header_,End,1687287190568,6100150aa12ad1614efd1971,6100150aa12ad1614efd1971,8,cucumber,critical,D,50,cucumber42.jpg,cucumber60.jpg,high,NULL
1687287200,9c6ac5366c4a30c851dfdea9308bfc83,PennController,11,0,experiment,NULL,Canvas,canvas6,Print,NA,1687287198673,6100150aa12ad1614efd1971,6100150aa12ad1614efd1971,8,cucumber,critical,D,50,cucumber42.jpg,cucumber60.jpg,high,NULL
1687287200,9c6ac5366c4a30c851dfdea9308bfc83,PennController,11,0,experiment,NULL,Video,progression,buffer,0.008949,1687287194112,6100150aa12ad1614efd1971,6100150aa12ad1614efd1971,8,cucumber,critical,D,50,cucumber42.jpg,cucumber60.jpg,high,NULL
1687287200,9c6ac5366c4a30c851dfdea9308bfc83,PennController,11,0,experiment,NULL,Selector,choice,Selection,option2,1687287200597,6100150aa12ad1614efd1971,6100150aa12ad1614efd1971,8,cucumber,critical,D,50,cucumber42.jpg,cucumber60.jpg,high,option2;option1
1687287200,9c6ac5366c4a30c851dfdea9308bfc83,PennController,11,0,experiment,NULL,PennController,10,_Trial_,End,1687287200598,6100150aa12ad1614efd1971,6100150aa12ad1614efd1971,8,cucumber,critical,D,50,cucumber42.jpg,cucumber60.jpg,high,NULL
