#
# Results on Tuesday June 20 2023 18:57:40 UTC
# USER AGENT: Mozilla/5.0 (Windows NT 10.0; Win64; x64) AppleWebKit/537.36 (KHTML, like Gecko) Chrome/114.0.0.0 Safari/537.36
# Design number was non-random = 3
#
# Columns below this comment are as follows:
# 1. Results reception time.
# 2. MD5 hash of participant's IP address.
# 3. Controller name.
# 4. Order number of item.
# 5. Inner element number.
# 6. Label.
# 7. Latin Square Group.
# 8. PennElementType.
# 9. PennElementName.
# 10. Parameter.
# 11. Value.
# 12. EventTime.
# 13. PROLIFIC_ID.
# 14. Comments.
1687287460,8781a20275e64bb8bb0afe968ac655e7,PennController,2,0,consent,NULL,PennController,0,_Trial_,Start,1687286935812,5eced3094e07772e58a2fdef,NULL
1687287460,8781a20275e64bb8bb0afe968ac655e7,PennController,2,0,consent,NULL,PennController,0,_Header_,Start,1687286935812,5eced3094e07772e58a2fdef,NULL
1687287460,8781a20275e64bb8bb0afe968ac655e7,PennController,2,0,consent,NULL,PennController,0,_Header_,End,1687286935812,5eced3094e07772e58a2fdef,NULL
1687287460,8781a20275e64bb8bb0afe968ac655e7,PennController,2,0,consent,NULL,PennController,0,_Trial_,End,1687286942170,5eced3094e07772e58a2fdef,NULL
# Columns below this comment are as follows:
# 14. ID.
# 15. Comments.
1687287460,8781a20275e64bb8bb0afe968ac655e7,PennController,3,0,intro,NULL,PennController,1,_Trial_,Start,1687286942171,5eced3094e07772e58a2fdef,5eced3094e07772e58a2fdef,NULL
1687287460,8781a20275e64bb8bb0afe968ac655e7,PennController,3,0,intro,NULL,PennController,1,_Header_,Start,1687286942171,5eced3094e07772e58a2fdef,5eced3094e07772e58a2fdef,NULL
1687287460,8781a20275e64bb8bb0afe968ac655e7,PennController,3,0,intro,NULL,PennController,1,_Header_,End,1687286942171,5eced3094e07772e58a2fdef,5eced3094e07772e58a2fdef,NULL
1687287460,8781a20275e64bb8bb0afe968ac655e7,PennController,3,0,intro,NULL,PennController,1,_Trial_,End,1687286946462,5eced3094e07772e58a2fdef,5eced3094e07772e58a2fdef,NULL
# Columns below this comment are as follows:
# 15. item_number.
# 16. item.
# 17. type.
# 18. Group.
# 19. prog.
# 20. prev_image.
# 21. next_image.
# 22. height.
# 23. Comments.
1687287460,8781a20275e64bb8bb0afe968ac655e7,PennController,27,0,experiment,NULL,PennController,26,_Trial_,Start,1687286946463,5eced3094e07772e58a2fdef,5eced3094e07772e58a2fdef,24,match,filler,D,75,match65.jpg,match85.jpg,GoalA,NULL
1687287460,8781a20275e64bb8bb0afe968ac655e7,PennController,27,0,experiment,NULL,PennController,26,_Header_,Start,1687286946463,5eced3094e07772e58a2fdef,5eced3094e07772e58a2fdef,24,match,filler,D,75,match65.jpg,match85.jpg,GoalA,NULL
1687287460,8781a20275e64bb8bb0afe968ac655e7,PennController,27,0,experiment,NULL,PennController,26,_Header_,End,1687286946463,5eced3094e07772e58a2fdef,5eced3094e07772e58a2fdef,24,match,filler,D,75,match65.jpg,match85.jpg,GoalA,NULL
1687287460,8781a20275e64bb8bb0afe968ac655e7,PennController,27,0,experiment,NULL,Canvas,canvas6,Print,NA,1687286954156,5eced3094e07772e58a2fdef,5eced3094e07772e58a2fdef,24,match,filler,D,75,match65.jpg,match85.jpg,GoalA,NULL
1687287460,8781a20275e64bb8bb0afe968ac655e7,PennController,27,0,experiment,NULL,Video,progression,buffer,0.00177,1687286949996,5eced3094e07772e58a2fdef,5eced3094e07772e58a2fdef,24,match,filler,D,75,match65.jpg,match85.jpg,GoalA,NULL
1687287460,8781a20275e64bb8bb0afe968ac655e7,PennController,27,0,experiment,NULL,Selector,choice,Selection,option2,1687286992072,5eced3094e07772e58a2fdef,5eced3094e07772e58a2fdef,24,match,filler,D,75,match65.jpg,match85.jpg,GoalA,option2;option1
1687287460,8781a20275e64bb8bb0afe968ac655e7,PennController,27,0,experiment,NULL,PennController,26,_Trial_,End,1687286992074,5eced3094e07772e58a2fdef,5eced3094e07772e58a2fdef,24,match,filler,D,75,match65.jpg,match85.jpg,GoalA,NULL
1687287460,8781a20275e64bb8bb0afe968ac655e7,PennController,15,0,experiment,NULL,PennController,14,_Trial_,Start,1687286992075,5eced3094e07772e58a2fdef,5eced3094e07772e58a2fdef,12,erase,critical,D,75,erase66.jpg,erase84.jpg,high,NULL
1687287460,8781a20275e64bb8bb0afe968ac655e7,PennController,15,0,experiment,NULL,PennController,14,_Header_,Start,1687286992075,5eced3094e07772e58a2fdef,5eced3094e07772e58a2fdef,12,erase,critical,D,75,erase66.jpg,erase84.jpg,high,NULL
1687287460,8781a20275e64bb8bb0afe968ac655e7,PennController,15,0,experiment,NULL,PennController,14,_Header_,End,1687286992075,5eced3094e07772e58a2fdef,5eced3094e07772e58a2fdef,12,erase,critical,D,75,erase66.jpg,erase84.jpg,high,NULL
1687287460,8781a20275e64bb8bb0afe968ac655e7,PennController,15,0,experiment,NULL,Canvas,canvas6,Print,NA,1687287001754,5eced3094e07772e58a2fdef,5eced3094e07772e58a2fdef,12,erase,critical,D,75,erase66.jpg,erase84.jpg,high,NULL
1687287460,8781a20275e64bb8bb0afe968ac655e7,PennController,15,0,experiment,NULL,Video,progression,buffer,0.002152,1687286995596,5eced3094e07772e58a2fdef,5eced3094e07772e58a2fdef,12,erase,critical,D,75,erase66.jpg,erase84.jpg,high,NULL
1687287460,8781a20275e64bb8bb0afe968ac655e7,PennController,15,0,experiment,NULL,Selector,choice,Selection,option1,1687287007149,5eced3094e07772e58a2fdef,5eced3094e07772e58a2fdef,12,erase,critical,D,75,erase66.jpg,erase84.jpg,high,option2;option1
1687287460,8781a20275e64bb8bb0afe968ac655e7,PennController,15,0,experiment,NULL,PennController,14,_Trial_,End,1687287007150,5eced3094e07772e58a2fdef,5eced3094e07772e58a2fdef,12,erase,critical,D,75,erase66.jpg,erase84.jpg,high,NULL
1687287460,8781a20275e64bb8bb0afe968ac655e7,PennController,26,0,experiment,NULL,PennController,25,_Trial_,Start,1687287007151,5eced3094e07772e58a2fdef,5eced3094e07772e58a2fdef,23,color,filler,D,50,color40.jpg,color60.jpg,GoalB,NULL
1687287460,8781a20275e64bb8bb0afe968ac655e7,PennController,26,0,experiment,NULL,PennController,25,_Header_,Start,1687287007151,5eced3094e07772e58a2fdef,5eced3094e07772e58a2fdef,23,color,filler,D,50,color40.jpg,color60.jpg,GoalB,NULL
1687287460,8781a20275e64bb8bb0afe968ac655e7,PennController,26,0,experiment,NULL,PennController,25,_Header_,End,1687287007151,5eced3094e07772e58a2fdef,5eced3094e07772e58a2fdef,23,color,filler,D,50,color40.jpg,color60.jpg,GoalB,NULL
1687287460,8781a20275e64bb8bb0afe968ac655e7,PennController,26,0,experiment,NULL,Canvas,canvas6,Print,NA,1687287013838,5eced3094e07772e58a2fdef,5eced3094e07772e58a2fdef,23,color,filler,D,50,color40.jpg,color60.jpg,GoalB,NULL
1687287460,8781a20275e64bb8bb0afe968ac655e7,PennController,26,0,experiment,NULL,Video,progression,buffer,0.001485,1687287010667,5eced3094e07772e58a2fdef,5eced3094e07772e58a2fdef,23,color,filler,D,50,color40.jpg,color60.jpg,GoalB,NULL
1687287460,8781a20275e64bb8bb0afe968ac655e7,PennController,26,0,experiment,NULL,Selector,choice,Selection,option2,1687287015740,5eced3094e07772e58a2fdef,5eced3094e07772e58a2fdef,23,color,filler,D,50,color40.jpg,color60.jpg,GoalB,option1;option2
1687287460,8781a20275e64bb8bb0afe968ac655e7,PennController,26,0,experiment,NULL,PennController,25,_Trial_,End,1687287015742,5eced3094e07772e58a2fdef,5eced3094e07772e58a2fdef,23,color,filler,D,50,color40.jpg,color60.jpg,GoalB,NULL
1687287460,8781a20275e64bb8bb0afe968ac655e7,PennController,22,0,experiment,NULL,PennController,21,_Trial_,Start,1687287015743,5eced3094e07772e58a2fdef,5eced3094e07772e58a2fdef,19,cup,filler,D,25,cup15.jpg,cup35.jpg,GoalB,NULL
1687287460,8781a20275e64bb8bb0afe968ac655e7,PennController,22,0,experiment,NULL,PennController,21,_Header_,Start,1687287015743,5eced3094e07772e58a2fdef,5eced3094e07772e58a2fdef,19,cup,filler,D,25,cup15.jpg,cup35.jpg,GoalB,NULL
1687287460,8781a20275e64bb8bb0afe968ac655e7,PennController,22,0,experiment,NULL,PennController,21,_Header_,End,1687287015743,5eced3094e07772e58a2fdef,5eced3094e07772e58a2fdef,19,cup,filler,D,25,cup15.jpg,cup35.jpg,GoalB,NULL
1687287460,8781a20275e64bb8bb0afe968ac655e7,PennController,22,0,experiment,NULL,Canvas,canvas6,Print,NA,1687287021417,5eced3094e07772e58a2fdef,5eced3094e07772e58a2fdef,19,cup,filler,D,25,cup15.jpg,cup35.jpg,GoalB,NULL
1687287460,8781a20275e64bb8bb0afe968ac655e7,PennController,22,0,experiment,NULL,Video,progression,buffer,0.001761,1687287019261,5eced3094e07772e58a2fdef,5eced3094e07772e58a2fdef,19,cup,filler,D,25,cup15.jpg,cup35.jpg,GoalB,NULL
1687287460,8781a20275e64bb8bb0afe968ac655e7,PennController,22,0,experiment,NULL,Selector,choice,Selection,option2,1687287023344,5eced3094e07772e58a2fdef,5eced3094e07772e58a2fdef,19,cup,filler,D,25,cup15.jpg,cup35.jpg,GoalB,option2;option1
1687287460,8781a20275e64bb8bb0afe968ac655e7,PennController,22,0,experiment,NULL,PennController,21,_Trial_,End,1687287023345,5eced3094e07772e58a2fdef,5eced3094e07772e58a2fdef,19,cup,filler,D,25,cup15.jpg,cup35.jpg,GoalB,NULL
1687287460,8781a20275e64bb8bb0afe968ac655e7,PennController,30,0,experiment,NULL,PennController,29,_Trial_,Start,1687287023346,5eced3094e07772e58a2fdef,5eced3094e07772e58a2fdef,27,square,filler,D,75,square65.jpg,square85.jpg,GoalB,NULL
1687287460,8781a20275e64bb8bb0afe968ac655e7,PennController,30,0,experiment,NULL,PennController,29,_Header_,Start,1687287023346,5eced3094e07772e58a2fdef,5eced3094e07772e58a2fdef,27,square,filler,D,75,square65.jpg,square85.jpg,GoalB,NULL
1687287460,8781a20275e64bb8bb0afe968ac655e7,PennController,30,0,experiment,NULL,PennController,29,_Header_,End,1687287023346,5eced3094e07772e58a2fdef,5eced3094e07772e58a2fdef,27,square,filler,D,75,square65.jpg,square85.jpg,GoalB,NULL
1687287460,8781a20275e64bb8bb0afe968ac655e7,PennController,30,0,experiment,NULL,Canvas,canvas6,Print,NA,1687287031018,5eced3094e07772e58a2fdef,5eced3094e07772e58a2fdef,27,square,filler,D,75,square65.jpg,square85.jpg,GoalB,NULL
1687287460,8781a20275e64bb8bb0afe968ac655e7,PennController,30,0,experiment,NULL,Video,progression,buffer,0.001384,1687287026860,5eced3094e07772e58a2fdef,5eced3094e07772e58a2fdef,27,square,filler,D,75,square65.jpg,square85.jpg,GoalB,NULL
1687287460,8781a20275e64bb8bb0afe968ac655e7,PennController,30,0,experiment,NULL,Selector,choice,Selection,option1,1687287032866,5eced3094e07772e58a2fdef,5eced3094e07772e58a2fdef,27,square,filler,D,75,square65.jpg,square85.jpg,GoalB,option1;option2
1687287460,8781a20275e64bb8bb0afe968ac655e7,PennController,30,0,experiment,NULL,PennController,29,_Trial_,End,1687287032867,5eced3094e07772e58a2fdef,5eced3094e07772e58a2fdef,27,square,filler,D,75,square65.jpg,square85.jpg,GoalB,NULL
1687287460,8781a20275e64bb8bb0afe968ac655e7,PennController,5,0,experiment,NULL,PennController,4,_Trial_,Start,1687287032868,5eced3094e07772e58a2fdef,5eced3094e07772e58a2fdef,2,door,critical,D,50,door40.jpg,door60.jpg,high,NULL
1687287460,8781a20275e64bb8bb0afe968ac655e7,PennController,5,0,experiment,NULL,PennController,4,_Header_,Start,1687287032868,5eced3094e07772e58a2fdef,5eced3094e07772e58a2fdef,2,door,critical,D,50,door40.jpg,door60.jpg,high,NULL
1687287460,8781a20275e64bb8bb0afe968ac655e7,PennController,5,0,experiment,NULL,PennController,4,_Header_,End,1687287032868,5eced3094e07772e58a2fdef,5eced3094e07772e58a2fdef,2,door,critical,D,50,door40.jpg,door60.jpg,high,NULL
1687287460,8781a20275e64bb8bb0afe968ac655e7,PennController,5,0,experiment,NULL,Canvas,canvas6,Print,NA,1687287039554,5eced3094e07772e58a2fdef,5eced3094e07772e58a2fdef,2,door,critical,D,50,door40.jpg,door60.jpg,high,NULL
1687287460,8781a20275e64bb8bb0afe968ac655e7,PennController,5,0,experiment,NULL,Video,progression,buffer,0.002968,1687287036387,5eced3094e07772e58a2fdef,5eced3094e07772e58a2fdef,2,door,critical,D,50,door40.jpg,door60.jpg,high,NULL
1687287460,8781a20275e64bb8bb0afe968ac655e7,PennController,5,0,experiment,NULL,Selector,choice,Selection,option2,1687287044068,5eced3094e07772e58a2fdef,5eced3094e07772e58a2fdef,2,door,critical,D,50,door40.jpg,door60.jpg,high,option2;option1
1687287460,8781a20275e64bb8bb0afe968ac655e7,PennController,5,0,experiment,NULL,PennController,4,_Trial_,End,1687287044069,5eced3094e07772e58a2fdef,5eced3094e07772e58a2fdef,2,door,critical,D,50,door40.jpg,door60.jpg,high,NULL
1687287460,8781a20275e64bb8bb0afe968ac655e7,PennController,6,0,experiment,NULL,PennController,5,_Trial_,Start,1687287044070,5eced3094e07772e58a2fdef,5eced3094e07772e58a2fdef,3,clean,critical,D,75,clean65.jpg,clean85.jpg,high,NULL
1687287460,8781a20275e64bb8bb0afe968ac655e7,PennController,6,0,experiment,NULL,PennController,5,_Header_,Start,1687287044070,5eced3094e07772e58a2fdef,5eced3094e07772e58a2fdef,3,clean,critical,D,75,clean65.jpg,clean85.jpg,high,NULL
1687287460,8781a20275e64bb8bb0afe968ac655e7,PennController,6,0,experiment,NULL,PennController,5,_Header_,End,1687287044070,5eced3094e07772e58a2fdef,5eced3094e07772e58a2fdef,3,clean,critical,D,75,clean65.jpg,clean85.jpg,high,NULL
1687287460,8781a20275e64bb8bb0afe968ac655e7,PennController,6,0,experiment,NULL,Canvas,canvas6,Print,NA,1687287051755,5eced3094e07772e58a2fdef,5eced3094e07772e58a2fdef,3,clean,critical,D,75,clean65.jpg,clean85.jpg,high,NULL
1687287460,8781a20275e64bb8bb0afe968ac655e7,PennController,6,0,experiment,NULL,Video,progression,buffer,0.001875,1687287047582,5eced3094e07772e58a2fdef,5eced3094e07772e58a2fdef,3,clean,critical,D,75,clean65.jpg,clean85.jpg,high,NULL
1687287460,8781a20275e64bb8bb0afe968ac655e7,PennController,6,0,experiment,NULL,Selector,choice,Selection,option1,1687287052996,5eced3094e07772e58a2fdef,5eced3094e07772e58a2fdef,3,clean,critical,D,75,clean65.jpg,clean85.jpg,high,option1;option2
1687287460,8781a20275e64bb8bb0afe968ac655e7,PennController,6,0,experiment,NULL,PennController,5,_Trial_,End,1687287052997,5eced3094e07772e58a2fdef,5eced3094e07772e58a2fdef,3,clean,critical,D,75,clean65.jpg,clean85.jpg,high,NULL
1687287460,8781a20275e64bb8bb0afe968ac655e7,PennController,28,0,experiment,NULL,PennController,27,_Trial_,Start,1687287052998,5eced3094e07772e58a2fdef,5eced3094e07772e58a2fdef,25,house,filler,D,25,house15.jpg,house35.jpg,GoalB,NULL
1687287460,8781a20275e64bb8bb0afe968ac655e7,PennController,28,0,experiment,NULL,PennController,27,_Header_,Start,1687287052998,5eced3094e07772e58a2fdef,5eced3094e07772e58a2fdef,25,house,filler,D,25,house15.jpg,house35.jpg,GoalB,NULL
1687287460,8781a20275e64bb8bb0afe968ac655e7,PennController,28,0,experiment,NULL,PennController,27,_Header_,End,1687287052998,5eced3094e07772e58a2fdef,5eced3094e07772e58a2fdef,25,house,filler,D,25,house15.jpg,house35.jpg,GoalB,NULL
1687287460,8781a20275e64bb8bb0afe968ac655e7,PennController,28,0,experiment,NULL,Canvas,canvas6,Print,NA,1687287058686,5eced3094e07772e58a2fdef,5eced3094e07772e58a2fdef,25,house,filler,D,25,house15.jpg,house35.jpg,GoalB,NULL
1687287460,8781a20275e64bb8bb0afe968ac655e7,PennController,28,0,experiment,NULL,Video,progression,buffer,0.001934,1687287056516,5eced3094e07772e58a2fdef,5eced3094e07772e58a2fdef,25,house,filler,D,25,house15.jpg,house35.jpg,GoalB,NULL
1687287460,8781a20275e64bb8bb0afe968ac655e7,PennController,28,0,experiment,NULL,Selector,choice,Selection,option2,1687287059571,5eced3094e07772e58a2fdef,5eced3094e07772e58a2fdef,25,house,filler,D,25,house15.jpg,house35.jpg,GoalB,option1;option2
1687287460,8781a20275e64bb8bb0afe968ac655e7,PennController,28,0,experiment,NULL,PennController,27,_Trial_,End,1687287059572,5eced3094e07772e58a2fdef,5eced3094e07772e58a2fdef,25,house,filler,D,25,house15.jpg,house35.jpg,GoalB,NULL
1687287460,8781a20275e64bb8bb0afe968ac655e7,PennController,4,0,experiment,NULL,PennController,3,_Trial_,Start,1687287059573,5eced3094e07772e58a2fdef,5eced3094e07772e58a2fdef,1,vase,critical,D,25,vase15.jpg,vase35.jpg,high,NULL
1687287460,8781a20275e64bb8bb0afe968ac655e7,PennController,4,0,experiment,NULL,PennController,3,_Header_,Start,1687287059573,5eced3094e07772e58a2fdef,5eced3094e07772e58a2fdef,1,vase,critical,D,25,vase15.jpg,vase35.jpg,high,NULL
1687287460,8781a20275e64bb8bb0afe968ac655e7,PennController,4,0,experiment,NULL,PennController,3,_Header_,End,1687287059573,5eced3094e07772e58a2fdef,5eced3094e07772e58a2fdef,1,vase,critical,D,25,vase15.jpg,vase35.jpg,high,NULL
1687287460,8781a20275e64bb8bb0afe968ac655e7,PennController,4,0,experiment,NULL,Canvas,canvas6,Print,NA,1687287065253,5eced3094e07772e58a2fdef,5eced3094e07772e58a2fdef,1,vase,critical,D,25,vase15.jpg,vase35.jpg,high,NULL
1687287460,8781a20275e64bb8bb0afe968ac655e7,PennController,4,0,experiment,NULL,Video,progression,buffer,0.001425,1687287063088,5eced3094e07772e58a2fdef,5eced3094e07772e58a2fdef,1,vase,critical,D,25,vase15.jpg,vase35.jpg,high,NULL
1687287460,8781a20275e64bb8bb0afe968ac655e7,PennController,4,0,experiment,NULL,Selector,choice,Selection,option2,1687287066479,5eced3094e07772e58a2fdef,5eced3094e07772e58a2fdef,1,vase,critical,D,25,vase15.jpg,vase35.jpg,high,option2;option1
1687287460,8781a20275e64bb8bb0afe968ac655e7,PennController,4,0,experiment,NULL,PennController,3,_Trial_,End,1687287066480,5eced3094e07772e58a2fdef,5eced3094e07772e58a2fdef,1,vase,critical,D,25,vase15.jpg,vase35.jpg,high,NULL
1687287460,8781a20275e64bb8bb0afe968ac655e7,PennController,31,0,experiment,NULL,PennController,30,_Trial_,Start,1687287066481,5eced3094e07772e58a2fdef,5eced3094e07772e58a2fdef,28,sort,filler,D,25,sort15.jpg,sort35.jpg,GoalA,NULL
1687287460,8781a20275e64bb8bb0afe968ac655e7,PennController,31,0,experiment,NULL,PennController,30,_Header_,Start,1687287066481,5eced3094e07772e58a2fdef,5eced3094e07772e58a2fdef,28,sort,filler,D,25,sort15.jpg,sort35.jpg,GoalA,NULL
1687287460,8781a20275e64bb8bb0afe968ac655e7,PennController,31,0,experiment,NULL,PennController,30,_Header_,End,1687287066481,5eced3094e07772e58a2fdef,5eced3094e07772e58a2fdef,28,sort,filler,D,25,sort15.jpg,sort35.jpg,GoalA,NULL
1687287460,8781a20275e64bb8bb0afe968ac655e7,PennController,31,0,experiment,NULL,Canvas,canvas6,Print,NA,1687287072171,5eced3094e07772e58a2fdef,5eced3094e07772e58a2fdef,28,sort,filler,D,25,sort15.jpg,sort35.jpg,GoalA,NULL
1687287460,8781a20275e64bb8bb0afe968ac655e7,PennController,31,0,experiment,NULL,Video,progression,buffer,0.001682,1687287069999,5eced3094e07772e58a2fdef,5eced3094e07772e58a2fdef,28,sort,filler,D,25,sort15.jpg,sort35.jpg,GoalA,NULL
1687287460,8781a20275e64bb8bb0afe968ac655e7,PennController,31,0,experiment,NULL,Selector,choice,Selection,option1,1687287074465,5eced3094e07772e58a2fdef,5eced3094e07772e58a2fdef,28,sort,filler,D,25,sort15.jpg,sort35.jpg,GoalA,option1;option2
1687287460,8781a20275e64bb8bb0afe968ac655e7,PennController,31,0,experiment,NULL,PennController,30,_Trial_,End,1687287074465,5eced3094e07772e58a2fdef,5eced3094e07772e58a2fdef,28,sort,filler,D,25,sort15.jpg,sort35.jpg,GoalA,NULL
1687287460,8781a20275e64bb8bb0afe968ac655e7,PennController,7,0,experiment,NULL,PennController,6,_Trial_,Start,1687287074466,5eced3094e07772e58a2fdef,5eced3094e07772e58a2fdef,4,candy,critical,D,25,candy15.jpg,candy35.jpg,high,NULL
1687287460,8781a20275e64bb8bb0afe968ac655e7,PennController,7,0,experiment,NULL,PennController,6,_Header_,Start,1687287074466,5eced3094e07772e58a2fdef,5eced3094e07772e58a2fdef,4,candy,critical,D,25,candy15.jpg,candy35.jpg,high,NULL
1687287460,8781a20275e64bb8bb0afe968ac655e7,PennController,7,0,experiment,NULL,PennController,6,_Header_,End,1687287074466,5eced3094e07772e58a2fdef,5eced3094e07772e58a2fdef,4,candy,critical,D,25,candy15.jpg,candy35.jpg,high,NULL
1687287460,8781a20275e64bb8bb0afe968ac655e7,PennController,7,0,experiment,NULL,Canvas,canvas6,Print,NA,1687287080135,5eced3094e07772e58a2fdef,5eced3094e07772e58a2fdef,4,candy,critical,D,25,candy15.jpg,candy35.jpg,high,NULL
1687287460,8781a20275e64bb8bb0afe968ac655e7,PennController,7,0,experiment,NULL,Video,progression,buffer,0.001794,1687287077981,5eced3094e07772e58a2fdef,5eced3094e07772e58a2fdef,4,candy,critical,D,25,candy15.jpg,candy35.jpg,high,NULL
1687287460,8781a20275e64bb8bb0afe968ac655e7,PennController,7,0,experiment,NULL,Selector,choice,Selection,option2,1687287084964,5eced3094e07772e58a2fdef,5eced3094e07772e58a2fdef,4,candy,critical,D,25,candy15.jpg,candy35.jpg,high,option1;option2
1687287460,8781a20275e64bb8bb0afe968ac655e7,PennController,7,0,experiment,NULL,PennController,6,_Trial_,End,1687287084965,5eced3094e07772e58a2fdef,5eced3094e07772e58a2fdef,4,candy,critical,D,25,candy15.jpg,candy35.jpg,high,NULL
1687287460,8781a20275e64bb8bb0afe968ac655e7,PennController,18,0,experiment,NULL,PennController,17,_Trial_,Start,1687287084966,5eced3094e07772e58a2fdef,5eced3094e07772e58a2fdef,15,zip,critical,D,75,zip65.jpg,zip85.jpg,high,NULL
1687287460,8781a20275e64bb8bb0afe968ac655e7,PennController,18,0,experiment,NULL,PennController,17,_Header_,Start,1687287084966,5eced3094e07772e58a2fdef,5eced3094e07772e58a2fdef,15,zip,critical,D,75,zip65.jpg,zip85.jpg,high,NULL
1687287460,8781a20275e64bb8bb0afe968ac655e7,PennController,18,0,experiment,NULL,PennController,17,_Header_,End,1687287084966,5eced3094e07772e58a2fdef,5eced3094e07772e58a2fdef,15,zip,critical,D,75,zip65.jpg,zip85.jpg,high,NULL
1687287460,8781a20275e64bb8bb0afe968ac655e7,PennController,18,0,experiment,NULL,Canvas,canvas6,Print,NA,1687287091838,5eced3094e07772e58a2fdef,5eced3094e07772e58a2fdef,15,zip,critical,D,75,zip65.jpg,zip85.jpg,high,NULL
1687287460,8781a20275e64bb8bb0afe968ac655e7,PennController,18,0,experiment,NULL,Video,progression,buffer,0.002516,1687287088482,5eced3094e07772e58a2fdef,5eced3094e07772e58a2fdef,15,zip,critical,D,75,zip65.jpg,zip85.jpg,high,NULL
1687287460,8781a20275e64bb8bb0afe968ac655e7,PennController,18,0,experiment,NULL,Selector,choice,Selection,option2,1687287095955,5eced3094e07772e58a2fdef,5eced3094e07772e58a2fdef,15,zip,critical,D,75,zip65.jpg,zip85.jpg,high,option2;option1
1687287460,8781a20275e64bb8bb0afe968ac655e7,PennController,18,0,experiment,NULL,PennController,17,_Trial_,End,1687287095956,5eced3094e07772e58a2fdef,5eced3094e07772e58a2fdef,15,zip,critical,D,75,zip65.jpg,zip85.jpg,high,NULL
1687287460,8781a20275e64bb8bb0afe968ac655e7,PennController,25,0,experiment,NULL,PennController,24,_Trial_,Start,1687287095957,5eced3094e07772e58a2fdef,5eced3094e07772e58a2fdef,22,wall,filler,D,25,wall15.jpg,wall35.jpg,GoalA,NULL
1687287460,8781a20275e64bb8bb0afe968ac655e7,PennController,25,0,experiment,NULL,PennController,24,_Header_,Start,1687287095957,5eced3094e07772e58a2fdef,5eced3094e07772e58a2fdef,22,wall,filler,D,25,wall15.jpg,wall35.jpg,GoalA,NULL
1687287460,8781a20275e64bb8bb0afe968ac655e7,PennController,25,0,experiment,NULL,PennController,24,_Header_,End,1687287095957,5eced3094e07772e58a2fdef,5eced3094e07772e58a2fdef,22,wall,filler,D,25,wall15.jpg,wall35.jpg,GoalA,NULL
1687287460,8781a20275e64bb8bb0afe968ac655e7,PennController,25,0,experiment,NULL,Canvas,canvas6,Print,NA,1687287101637,5eced3094e07772e58a2fdef,5eced3094e07772e58a2fdef,22,wall,filler,D,25,wall15.jpg,wall35.jpg,GoalA,NULL
1687287460,8781a20275e64bb8bb0afe968ac655e7,PennController,25,0,experiment,NULL,Video,progression,buffer,0.002254,1687287099478,5eced3094e07772e58a2fdef,5eced3094e07772e58a2fdef,22,wall,filler,D,25,wall15.jpg,wall35.jpg,GoalA,NULL
1687287460,8781a20275e64bb8bb0afe968ac655e7,PennController,25,0,experiment,NULL,Selector,choice,Selection,option2,1687287103747,5eced3094e07772e58a2fdef,5eced3094e07772e58a2fdef,22,wall,filler,D,25,wall15.jpg,wall35.jpg,GoalA,option2;option1
1687287460,8781a20275e64bb8bb0afe968ac655e7,PennController,25,0,experiment,NULL,PennController,24,_Trial_,End,1687287103748,5eced3094e07772e58a2fdef,5eced3094e07772e58a2fdef,22,wall,filler,D,25,wall15.jpg,wall35.jpg,GoalA,NULL
1687287460,8781a20275e64bb8bb0afe968ac655e7,PennController,16,0,experiment,NULL,PennController,15,_Trial_,Start,1687287103749,5eced3094e07772e58a2fdef,5eced3094e07772e58a2fdef,13,mix,critical,D,25,mix15.jpg,mix35.jpg,high,NULL
1687287460,8781a20275e64bb8bb0afe968ac655e7,PennController,16,0,experiment,NULL,PennController,15,_Header_,Start,1687287103749,5eced3094e07772e58a2fdef,5eced3094e07772e58a2fdef,13,mix,critical,D,25,mix15.jpg,mix35.jpg,high,NULL
1687287460,8781a20275e64bb8bb0afe968ac655e7,PennController,16,0,experiment,NULL,PennController,15,_Header_,End,1687287103749,5eced3094e07772e58a2fdef,5eced3094e07772e58a2fdef,13,mix,critical,D,25,mix15.jpg,mix35.jpg,high,NULL
1687287460,8781a20275e64bb8bb0afe968ac655e7,PennController,16,0,experiment,NULL,Canvas,canvas6,Print,NA,1687287109438,5eced3094e07772e58a2fdef,5eced3094e07772e58a2fdef,13,mix,critical,D,25,mix15.jpg,mix35.jpg,high,NULL
1687287460,8781a20275e64bb8bb0afe968ac655e7,PennController,16,0,experiment,NULL,Video,progression,buffer,0.00311,1687287107267,5eced3094e07772e58a2fdef,5eced3094e07772e58a2fdef,13,mix,critical,D,25,mix15.jpg,mix35.jpg,high,NULL
1687287460,8781a20275e64bb8bb0afe968ac655e7,PennController,16,0,experiment,NULL,Selector,choice,Selection,option2,1687287111217,5eced3094e07772e58a2fdef,5eced3094e07772e58a2fdef,13,mix,critical,D,25,mix15.jpg,mix35.jpg,high,option2;option1
1687287460,8781a20275e64bb8bb0afe968ac655e7,PennController,16,0,experiment,NULL,PennController,15,_Trial_,End,1687287111218,5eced3094e07772e58a2fdef,5eced3094e07772e58a2fdef,13,mix,critical,D,25,mix15.jpg,mix35.jpg,high,NULL
1687287460,8781a20275e64bb8bb0afe968ac655e7,PennController,14,0,experiment,NULL,PennController,13,_Trial_,Start,1687287111219,5eced3094e07772e58a2fdef,5eced3094e07772e58a2fdef,11,beads,critical,D,50,beads40.jpg,beads60.jpg,high,NULL
1687287460,8781a20275e64bb8bb0afe968ac655e7,PennController,14,0,experiment,NULL,PennController,13,_Header_,Start,1687287111219,5eced3094e07772e58a2fdef,5eced3094e07772e58a2fdef,11,beads,critical,D,50,beads40.jpg,beads60.jpg,high,NULL
1687287460,8781a20275e64bb8bb0afe968ac655e7,PennController,14,0,experiment,NULL,PennController,13,_Header_,End,1687287111219,5eced3094e07772e58a2fdef,5eced3094e07772e58a2fdef,11,beads,critical,D,50,beads40.jpg,beads60.jpg,high,NULL
1687287460,8781a20275e64bb8bb0afe968ac655e7,PennController,14,0,experiment,NULL,Canvas,canvas6,Print,NA,1687287117908,5eced3094e07772e58a2fdef,5eced3094e07772e58a2fdef,11,beads,critical,D,50,beads40.jpg,beads60.jpg,high,NULL
1687287460,8781a20275e64bb8bb0afe968ac655e7,PennController,14,0,experiment,NULL,Video,progression,buffer,0.003706,1687287114739,5eced3094e07772e58a2fdef,5eced3094e07772e58a2fdef,11,beads,critical,D,50,beads40.jpg,beads60.jpg,high,NULL
1687287460,8781a20275e64bb8bb0afe968ac655e7,PennController,14,0,experiment,NULL,Selector,choice,Selection,option2,1687287119932,5eced3094e07772e58a2fdef,5eced3094e07772e58a2fdef,11,beads,critical,D,50,beads40.jpg,beads60.jpg,high,option2;option1
1687287460,8781a20275e64bb8bb0afe968ac655e7,PennController,14,0,experiment,NULL,PennController,13,_Trial_,End,1687287119933,5eced3094e07772e58a2fdef,5eced3094e07772e58a2fdef,11,beads,critical,D,50,beads40.jpg,beads60.jpg,high,NULL
1687287460,8781a20275e64bb8bb0afe968ac655e7,PennController,17,0,experiment,NULL,PennController,16,_Trial_,Start,1687287119934,5eced3094e07772e58a2fdef,5eced3094e07772e58a2fdef,14,cover,critical,D,50,cover42.jpg,cover60.jpg,high,NULL
1687287460,8781a20275e64bb8bb0afe968ac655e7,PennController,17,0,experiment,NULL,PennController,16,_Header_,Start,1687287119934,5eced3094e07772e58a2fdef,5eced3094e07772e58a2fdef,14,cover,critical,D,50,cover42.jpg,cover60.jpg,high,NULL
1687287460,8781a20275e64bb8bb0afe968ac655e7,PennController,17,0,experiment,NULL,PennController,16,_Header_,End,1687287119934,5eced3094e07772e58a2fdef,5eced3094e07772e58a2fdef,14,cover,critical,D,50,cover42.jpg,cover60.jpg,high,NULL
1687287460,8781a20275e64bb8bb0afe968ac655e7,PennController,17,0,experiment,NULL,Canvas,canvas6,Print,NA,1687287128021,5eced3094e07772e58a2fdef,5eced3094e07772e58a2fdef,14,cover,critical,D,50,cover42.jpg,cover60.jpg,high,NULL
1687287460,8781a20275e64bb8bb0afe968ac655e7,PennController,17,0,experiment,NULL,Video,progression,buffer,0.001558,1687287123456,5eced3094e07772e58a2fdef,5eced3094e07772e58a2fdef,14,cover,critical,D,50,cover42.jpg,cover60.jpg,high,NULL
1687287460,8781a20275e64bb8bb0afe968ac655e7,PennController,17,0,experiment,NULL,Selector,choice,Selection,option1,1687287228375,5eced3094e07772e58a2fdef,5eced3094e07772e58a2fdef,14,cover,critical,D,50,cover42.jpg,cover60.jpg,high,option1;option2
1687287460,8781a20275e64bb8bb0afe968ac655e7,PennController,17,0,experiment,NULL,PennController,16,_Trial_,End,1687287228376,5eced3094e07772e58a2fdef,5eced3094e07772e58a2fdef,14,cover,critical,D,50,cover42.jpg,cover60.jpg,high,NULL
1687287460,8781a20275e64bb8bb0afe968ac655e7,PennController,13,0,experiment,NULL,PennController,12,_Trial_,Start,1687287228377,5eced3094e07772e58a2fdef,5eced3094e07772e58a2fdef,10,train,critical,D,25,train15.jpg,train35.jpg,high,NULL
1687287460,8781a20275e64bb8bb0afe968ac655e7,PennController,13,0,experiment,NULL,PennController,12,_Header_,Start,1687287228377,5eced3094e07772e58a2fdef,5eced3094e07772e58a2fdef,10,train,critical,D,25,train15.jpg,train35.jpg,high,NULL
1687287460,8781a20275e64bb8bb0afe968ac655e7,PennController,13,0,experiment,NULL,PennController,12,_Header_,End,1687287228377,5eced3094e07772e58a2fdef,5eced3094e07772e58a2fdef,10,train,critical,D,25,train15.jpg,train35.jpg,high,NULL
1687287460,8781a20275e64bb8bb0afe968ac655e7,PennController,13,0,experiment,NULL,Canvas,canvas6,Print,NA,1687287234056,5eced3094e07772e58a2fdef,5eced3094e07772e58a2fdef,10,train,critical,D,25,train15.jpg,train35.jpg,high,NULL
1687287460,8781a20275e64bb8bb0afe968ac655e7,PennController,13,0,experiment,NULL,Video,progression,buffer,0.002325,1687287231894,5eced3094e07772e58a2fdef,5eced3094e07772e58a2fdef,10,train,critical,D,25,train15.jpg,train35.jpg,high,NULL
1687287460,8781a20275e64bb8bb0afe968ac655e7,PennController,13,0,experiment,NULL,Selector,choice,Selection,option2,1687287235242,5eced3094e07772e58a2fdef,5eced3094e07772e58a2fdef,10,train,critical,D,25,train15.jpg,train35.jpg,high,option2;option1
1687287460,8781a20275e64bb8bb0afe968ac655e7,PennController,13,0,experiment,NULL,PennController,12,_Trial_,End,1687287235243,5eced3094e07772e58a2fdef,5eced3094e07772e58a2fdef,10,train,critical,D,25,train15.jpg,train35.jpg,high,NULL
1687287460,8781a20275e64bb8bb0afe968ac655e7,PennController,23,0,experiment,NULL,PennController,22,_Trial_,Start,1687287235244,5eced3094e07772e58a2fdef,5eced3094e07772e58a2fdef,20,cat,filler,D,50,cat40.jpg,cat60.jpg,GoalA,NULL
1687287460,8781a20275e64bb8bb0afe968ac655e7,PennController,23,0,experiment,NULL,PennController,22,_Header_,Start,1687287235244,5eced3094e07772e58a2fdef,5eced3094e07772e58a2fdef,20,cat,filler,D,50,cat40.jpg,cat60.jpg,GoalA,NULL
1687287460,8781a20275e64bb8bb0afe968ac655e7,PennController,23,0,experiment,NULL,PennController,22,_Header_,End,1687287235244,5eced3094e07772e58a2fdef,5eced3094e07772e58a2fdef,20,cat,filler,D,50,cat40.jpg,cat60.jpg,GoalA,NULL
1687287460,8781a20275e64bb8bb0afe968ac655e7,PennController,23,0,experiment,NULL,Canvas,canvas6,Print,NA,1687287241921,5eced3094e07772e58a2fdef,5eced3094e07772e58a2fdef,20,cat,filler,D,50,cat40.jpg,cat60.jpg,GoalA,NULL
1687287460,8781a20275e64bb8bb0afe968ac655e7,PennController,23,0,experiment,NULL,Video,progression,buffer,0.001584,1687287238758,5eced3094e07772e58a2fdef,5eced3094e07772e58a2fdef,20,cat,filler,D,50,cat40.jpg,cat60.jpg,GoalA,NULL
1687287460,8781a20275e64bb8bb0afe968ac655e7,PennController,23,0,experiment,NULL,Selector,choice,Selection,option2,1687287242951,5eced3094e07772e58a2fdef,5eced3094e07772e58a2fdef,20,cat,filler,D,50,cat40.jpg,cat60.jpg,GoalA,option2;option1
1687287460,8781a20275e64bb8bb0afe968ac655e7,PennController,23,0,experiment,NULL,PennController,22,_Trial_,End,1687287242952,5eced3094e07772e58a2fdef,5eced3094e07772e58a2fdef,20,cat,filler,D,50,cat40.jpg,cat60.jpg,GoalA,NULL
1687287460,8781a20275e64bb8bb0afe968ac655e7,PennController,8,0,experiment,NULL,PennController,7,_Trial_,Start,1687287242952,5eced3094e07772e58a2fdef,5eced3094e07772e58a2fdef,5,book,critical,D,50,book40.jpg,book60.jpg,high,NULL
1687287460,8781a20275e64bb8bb0afe968ac655e7,PennController,8,0,experiment,NULL,PennController,7,_Header_,Start,1687287242953,5eced3094e07772e58a2fdef,5eced3094e07772e58a2fdef,5,book,critical,D,50,book40.jpg,book60.jpg,high,NULL
1687287460,8781a20275e64bb8bb0afe968ac655e7,PennController,8,0,experiment,NULL,PennController,7,_Header_,End,1687287242953,5eced3094e07772e58a2fdef,5eced3094e07772e58a2fdef,5,book,critical,D,50,book40.jpg,book60.jpg,high,NULL
1687287460,8781a20275e64bb8bb0afe968ac655e7,PennController,8,0,experiment,NULL,Canvas,canvas6,Print,NA,1687287249638,5eced3094e07772e58a2fdef,5eced3094e07772e58a2fdef,5,book,critical,D,50,book40.jpg,book60.jpg,high,NULL
1687287460,8781a20275e64bb8bb0afe968ac655e7,PennController,8,0,experiment,NULL,Video,progression,buffer,0.002435,1687287246470,5eced3094e07772e58a2fdef,5eced3094e07772e58a2fdef,5,book,critical,D,50,book40.jpg,book60.jpg,high,NULL
1687287460,8781a20275e64bb8bb0afe968ac655e7,PennController,8,0,experiment,NULL,Selector,choice,Selection,option2,1687287251145,5eced3094e07772e58a2fdef,5eced3094e07772e58a2fdef,5,book,critical,D,50,book40.jpg,book60.jpg,high,option1;option2
1687287460,8781a20275e64bb8bb0afe968ac655e7,PennController,8,0,experiment,NULL,PennController,7,_Trial_,End,1687287251146,5eced3094e07772e58a2fdef,5eced3094e07772e58a2fdef,5,book,critical,D,50,book40.jpg,book60.jpg,high,NULL
1687287460,8781a20275e64bb8bb0afe968ac655e7,PennController,9,0,experiment,NULL,PennController,8,_Trial_,Start,1687287251147,5eced3094e07772e58a2fdef,5eced3094e07772e58a2fdef,6,flower,critical,D,75,flower65.jpg,flower85.jpg,high,NULL
1687287460,8781a20275e64bb8bb0afe968ac655e7,PennController,9,0,experiment,NULL,PennController,8,_Header_,Start,1687287251147,5eced3094e07772e58a2fdef,5eced3094e07772e58a2fdef,6,flower,critical,D,75,flower65.jpg,flower85.jpg,high,NULL
1687287460,8781a20275e64bb8bb0afe968ac655e7,PennController,9,0,experiment,NULL,PennController,8,_Header_,End,1687287251147,5eced3094e07772e58a2fdef,5eced3094e07772e58a2fdef,6,flower,critical,D,75,flower65.jpg,flower85.jpg,high,NULL
1687287460,8781a20275e64bb8bb0afe968ac655e7,PennController,9,0,experiment,NULL,Canvas,canvas6,Print,NA,1687287258840,5eced3094e07772e58a2fdef,5eced3094e07772e58a2fdef,6,flower,critical,D,75,flower65.jpg,flower85.jpg,high,NULL
1687287460,8781a20275e64bb8bb0afe968ac655e7,PennController,9,0,experiment,NULL,Video,progression,buffer,0.002049,1687287254668,5eced3094e07772e58a2fdef,5eced3094e07772e58a2fdef,6,flower,critical,D,75,flower65.jpg,flower85.jpg,high,NULL
1687287460,8781a20275e64bb8bb0afe968ac655e7,PennController,9,0,experiment,NULL,Selector,choice,Selection,option1,1687287277673,5eced3094e07772e58a2fdef,5eced3094e07772e58a2fdef,6,flower,critical,D,75,flower65.jpg,flower85.jpg,high,option1;option2
1687287460,8781a20275e64bb8bb0afe968ac655e7,PennController,9,0,experiment,NULL,PennController,8,_Trial_,End,1687287277674,5eced3094e07772e58a2fdef,5eced3094e07772e58a2fdef,6,flower,critical,D,75,flower65.jpg,flower85.jpg,high,NULL
1687287460,8781a20275e64bb8bb0afe968ac655e7,PennController,12,0,experiment,NULL,PennController,11,_Trial_,Start,1687287277675,5eced3094e07772e58a2fdef,5eced3094e07772e58a2fdef,9,cake,critical,D,75,cake66.jpg,cake84.jpg,high,NULL
1687287460,8781a20275e64bb8bb0afe968ac655e7,PennController,12,0,experiment,NULL,PennController,11,_Header_,Start,1687287277675,5eced3094e07772e58a2fdef,5eced3094e07772e58a2fdef,9,cake,critical,D,75,cake66.jpg,cake84.jpg,high,NULL
1687287460,8781a20275e64bb8bb0afe968ac655e7,PennController,12,0,experiment,NULL,PennController,11,_Header_,End,1687287277675,5eced3094e07772e58a2fdef,5eced3094e07772e58a2fdef,9,cake,critical,D,75,cake66.jpg,cake84.jpg,high,NULL
1687287460,8781a20275e64bb8bb0afe968ac655e7,PennController,12,0,experiment,NULL,Canvas,canvas6,Print,NA,1687287287358,5eced3094e07772e58a2fdef,5eced3094e07772e58a2fdef,9,cake,critical,D,75,cake66.jpg,cake84.jpg,high,NULL
1687287460,8781a20275e64bb8bb0afe968ac655e7,PennController,12,0,experiment,NULL,Video,progression,buffer,0.001454,1687287281191,5eced3094e07772e58a2fdef,5eced3094e07772e58a2fdef,9,cake,critical,D,75,cake66.jpg,cake84.jpg,high,NULL
1687287460,8781a20275e64bb8bb0afe968ac655e7,PennController,12,0,experiment,NULL,Selector,choice,Selection,option2,1687287289548,5eced3094e07772e58a2fdef,5eced3094e07772e58a2fdef,9,cake,critical,D,75,cake66.jpg,cake84.jpg,high,option1;option2
1687287460,8781a20275e64bb8bb0afe968ac655e7,PennController,12,0,experiment,NULL,PennController,11,_Trial_,End,1687287289549,5eced3094e07772e58a2fdef,5eced3094e07772e58a2fdef,9,cake,critical,D,75,cake66.jpg,cake84.jpg,high,NULL
1687287460,8781a20275e64bb8bb0afe968ac655e7,PennController,24,0,experiment,NULL,PennController,23,_Trial_,Start,1687287289550,5eced3094e07772e58a2fdef,5eced3094e07772e58a2fdef,21,visit,filler,D,75,visit65.jpg,visit85.jpg,GoalB,NULL
1687287460,8781a20275e64bb8bb0afe968ac655e7,PennController,24,0,experiment,NULL,PennController,23,_Header_,Start,1687287289550,5eced3094e07772e58a2fdef,5eced3094e07772e58a2fdef,21,visit,filler,D,75,visit65.jpg,visit85.jpg,GoalB,NULL
1687287460,8781a20275e64bb8bb0afe968ac655e7,PennController,24,0,experiment,NULL,PennController,23,_Header_,End,1687287289550,5eced3094e07772e58a2fdef,5eced3094e07772e58a2fdef,21,visit,filler,D,75,visit65.jpg,visit85.jpg,GoalB,NULL
1687287460,8781a20275e64bb8bb0afe968ac655e7,PennController,24,0,experiment,NULL,Canvas,canvas6,Print,NA,1687287297221,5eced3094e07772e58a2fdef,5eced3094e07772e58a2fdef,21,visit,filler,D,75,visit65.jpg,visit85.jpg,GoalB,NULL
1687287460,8781a20275e64bb8bb0afe968ac655e7,PennController,24,0,experiment,NULL,Video,progression,buffer,0.002181,1687287293064,5eced3094e07772e58a2fdef,5eced3094e07772e58a2fdef,21,visit,filler,D,75,visit65.jpg,visit85.jpg,GoalB,NULL
1687287460,8781a20275e64bb8bb0afe968ac655e7,PennController,24,0,experiment,NULL,Selector,choice,Selection,option2,1687287298661,5eced3094e07772e58a2fdef,5eced3094e07772e58a2fdef,21,visit,filler,D,75,visit65.jpg,visit85.jpg,GoalB,option2;option1
1687287460,8781a20275e64bb8bb0afe968ac655e7,PennController,24,0,experiment,NULL,PennController,23,_Trial_,End,1687287298662,5eced3094e07772e58a2fdef,5eced3094e07772e58a2fdef,21,visit,filler,D,75,visit65.jpg,visit85.jpg,GoalB,NULL
1687287460,8781a20275e64bb8bb0afe968ac655e7,PennController,21,0,experiment,NULL,PennController,20,_Trial_,Start,1687287298662,5eced3094e07772e58a2fdef,5eced3094e07772e58a2fdef,18,ball,critical,D,75,ball65.jpg,ball85.jpg,high,NULL
1687287460,8781a20275e64bb8bb0afe968ac655e7,PennController,21,0,experiment,NULL,PennController,20,_Header_,Start,1687287298662,5eced3094e07772e58a2fdef,5eced3094e07772e58a2fdef,18,ball,critical,D,75,ball65.jpg,ball85.jpg,high,NULL
1687287460,8781a20275e64bb8bb0afe968ac655e7,PennController,21,0,experiment,NULL,PennController,20,_Header_,End,1687287298662,5eced3094e07772e58a2fdef,5eced3094e07772e58a2fdef,18,ball,critical,D,75,ball65.jpg,ball85.jpg,high,NULL
1687287460,8781a20275e64bb8bb0afe968ac655e7,PennController,21,0,experiment,NULL,Canvas,canvas6,Print,NA,1687287306338,5eced3094e07772e58a2fdef,5eced3094e07772e58a2fdef,18,ball,critical,D,75,ball65.jpg,ball85.jpg,high,NULL
1687287460,8781a20275e64bb8bb0afe968ac655e7,PennController,21,0,experiment,NULL,Video,progression,buffer,0.002211,1687287302179,5eced3094e07772e58a2fdef,5eced3094e07772e58a2fdef,18,ball,critical,D,75,ball65.jpg,ball85.jpg,high,NULL
1687287460,8781a20275e64bb8bb0afe968ac655e7,PennController,21,0,experiment,NULL,Selector,choice,Selection,option2,1687287308585,5eced3094e07772e58a2fdef,5eced3094e07772e58a2fdef,18,ball,critical,D,75,ball65.jpg,ball85.jpg,high,option2;option1
1687287460,8781a20275e64bb8bb0afe968ac655e7,PennController,21,0,experiment,NULL,PennController,20,_Trial_,End,1687287308586,5eced3094e07772e58a2fdef,5eced3094e07772e58a2fdef,18,ball,critical,D,75,ball65.jpg,ball85.jpg,high,NULL
1687287460,8781a20275e64bb8bb0afe968ac655e7,PennController,32,0,experiment,NULL,PennController,31,_Trial_,Start,1687287308587,5eced3094e07772e58a2fdef,5eced3094e07772e58a2fdef,29,frog,filler,D,50,frog40.jpg,frog60.jpg,GoalB,NULL
1687287460,8781a20275e64bb8bb0afe968ac655e7,PennController,32,0,experiment,NULL,PennController,31,_Header_,Start,1687287308587,5eced3094e07772e58a2fdef,5eced3094e07772e58a2fdef,29,frog,filler,D,50,frog40.jpg,frog60.jpg,GoalB,NULL
1687287460,8781a20275e64bb8bb0afe968ac655e7,PennController,32,0,experiment,NULL,PennController,31,_Header_,End,1687287308587,5eced3094e07772e58a2fdef,5eced3094e07772e58a2fdef,29,frog,filler,D,50,frog40.jpg,frog60.jpg,GoalB,NULL
1687287460,8781a20275e64bb8bb0afe968ac655e7,PennController,32,0,experiment,NULL,Canvas,canvas6,Print,NA,1687287315271,5eced3094e07772e58a2fdef,5eced3094e07772e58a2fdef,29,frog,filler,D,50,frog40.jpg,frog60.jpg,GoalB,NULL
1687287460,8781a20275e64bb8bb0afe968ac655e7,PennController,32,0,experiment,NULL,Video,progression,buffer,0.003219,1687287312106,5eced3094e07772e58a2fdef,5eced3094e07772e58a2fdef,29,frog,filler,D,50,frog40.jpg,frog60.jpg,GoalB,NULL
1687287460,8781a20275e64bb8bb0afe968ac655e7,PennController,32,0,experiment,NULL,Selector,choice,Selection,option2,1687287317011,5eced3094e07772e58a2fdef,5eced3094e07772e58a2fdef,29,frog,filler,D,50,frog40.jpg,frog60.jpg,GoalB,option1;option2
1687287460,8781a20275e64bb8bb0afe968ac655e7,PennController,32,0,experiment,NULL,PennController,31,_Trial_,End,1687287317012,5eced3094e07772e58a2fdef,5eced3094e07772e58a2fdef,29,frog,filler,D,50,frog40.jpg,frog60.jpg,GoalB,NULL
1687287460,8781a20275e64bb8bb0afe968ac655e7,PennController,19,0,experiment,NULL,PennController,18,_Trial_,Start,1687287317012,5eced3094e07772e58a2fdef,5eced3094e07772e58a2fdef,16,blinds,critical,D,25,blinds15.jpg,blinds33.jpg,high,NULL
1687287460,8781a20275e64bb8bb0afe968ac655e7,PennController,19,0,experiment,NULL,PennController,18,_Header_,Start,1687287317012,5eced3094e07772e58a2fdef,5eced3094e07772e58a2fdef,16,blinds,critical,D,25,blinds15.jpg,blinds33.jpg,high,NULL
1687287460,8781a20275e64bb8bb0afe968ac655e7,PennController,19,0,experiment,NULL,PennController,18,_Header_,End,1687287317012,5eced3094e07772e58a2fdef,5eced3094e07772e58a2fdef,16,blinds,critical,D,25,blinds15.jpg,blinds33.jpg,high,NULL
1687287460,8781a20275e64bb8bb0afe968ac655e7,PennController,19,0,experiment,NULL,Canvas,canvas6,Print,NA,1687287323291,5eced3094e07772e58a2fdef,5eced3094e07772e58a2fdef,16,blinds,critical,D,25,blinds15.jpg,blinds33.jpg,high,NULL
1687287460,8781a20275e64bb8bb0afe968ac655e7,PennController,19,0,experiment,NULL,Video,progression,buffer,0.00183,1687287320531,5eced3094e07772e58a2fdef,5eced3094e07772e58a2fdef,16,blinds,critical,D,25,blinds15.jpg,blinds33.jpg,high,NULL
1687287460,8781a20275e64bb8bb0afe968ac655e7,PennController,19,0,experiment,NULL,Selector,choice,Selection,option2,1687287389503,5eced3094e07772e58a2fdef,5eced3094e07772e58a2fdef,16,blinds,critical,D,25,blinds15.jpg,blinds33.jpg,high,option2;option1
1687287460,8781a20275e64bb8bb0afe968ac655e7,PennController,19,0,experiment,NULL,PennController,18,_Trial_,End,1687287389504,5eced3094e07772e58a2fdef,5eced3094e07772e58a2fdef,16,blinds,critical,D,25,blinds15.jpg,blinds33.jpg,high,NULL
1687287460,8781a20275e64bb8bb0afe968ac655e7,PennController,10,0,experiment,NULL,PennController,9,_Trial_,Start,1687287389505,5eced3094e07772e58a2fdef,5eced3094e07772e58a2fdef,7,stack,critical,D,25,stack15.jpg,stack35.jpg,high,NULL
1687287460,8781a20275e64bb8bb0afe968ac655e7,PennController,10,0,experiment,NULL,PennController,9,_Header_,Start,1687287389505,5eced3094e07772e58a2fdef,5eced3094e07772e58a2fdef,7,stack,critical,D,25,stack15.jpg,stack35.jpg,high,NULL
1687287460,8781a20275e64bb8bb0afe968ac655e7,PennController,10,0,experiment,NULL,PennController,9,_Header_,End,1687287389505,5eced3094e07772e58a2fdef,5eced3094e07772e58a2fdef,7,stack,critical,D,25,stack15.jpg,stack35.jpg,high,NULL
1687287460,8781a20275e64bb8bb0afe968ac655e7,PennController,10,0,experiment,NULL,Canvas,canvas6,Print,NA,1687287395187,5eced3094e07772e58a2fdef,5eced3094e07772e58a2fdef,7,stack,critical,D,25,stack15.jpg,stack35.jpg,high,NULL
1687287460,8781a20275e64bb8bb0afe968ac655e7,PennController,10,0,experiment,NULL,Video,progression,buffer,0.001958,1687287393022,5eced3094e07772e58a2fdef,5eced3094e07772e58a2fdef,7,stack,critical,D,25,stack15.jpg,stack35.jpg,high,NULL
1687287460,8781a20275e64bb8bb0afe968ac655e7,PennController,10,0,experiment,NULL,Selector,choice,Selection,option2,1687287397510,5eced3094e07772e58a2fdef,5eced3094e07772e58a2fdef,7,stack,critical,D,25,stack15.jpg,stack35.jpg,high,option2;option1
1687287460,8781a20275e64bb8bb0afe968ac655e7,PennController,10,0,experiment,NULL,PennController,9,_Trial_,End,1687287397510,5eced3094e07772e58a2fdef,5eced3094e07772e58a2fdef,7,stack,critical,D,25,stack15.jpg,stack35.jpg,high,NULL
1687287460,8781a20275e64bb8bb0afe968ac655e7,PennController,29,0,experiment,NULL,PennController,28,_Trial_,Start,1687287397511,5eced3094e07772e58a2fdef,5eced3094e07772e58a2fdef,26,sandwich,filler,D,50,sandwich40.jpg,sandwich60.jpg,GoalA,NULL
1687287460,8781a20275e64bb8bb0afe968ac655e7,PennController,29,0,experiment,NULL,PennController,28,_Header_,Start,1687287397511,5eced3094e07772e58a2fdef,5eced3094e07772e58a2fdef,26,sandwich,filler,D,50,sandwich40.jpg,sandwich60.jpg,GoalA,NULL
1687287460,8781a20275e64bb8bb0afe968ac655e7,PennController,29,0,experiment,NULL,PennController,28,_Header_,End,1687287397511,5eced3094e07772e58a2fdef,5eced3094e07772e58a2fdef,26,sandwich,filler,D,50,sandwich40.jpg,sandwich60.jpg,GoalA,NULL
1687287460,8781a20275e64bb8bb0afe968ac655e7,PennController,29,0,experiment,NULL,Canvas,canvas6,Print,NA,1687287404190,5eced3094e07772e58a2fdef,5eced3094e07772e58a2fdef,26,sandwich,filler,D,50,sandwich40.jpg,sandwich60.jpg,GoalA,NULL
1687287460,8781a20275e64bb8bb0afe968ac655e7,PennController,29,0,experiment,NULL,Video,progression,buffer,0.001328,1687287401023,5eced3094e07772e58a2fdef,5eced3094e07772e58a2fdef,26,sandwich,filler,D,50,sandwich40.jpg,sandwich60.jpg,GoalA,NULL
1687287460,8781a20275e64bb8bb0afe968ac655e7,PennController,29,0,experiment,NULL,Selector,choice,Selection,option1,1687287407200,5eced3094e07772e58a2fdef,5eced3094e07772e58a2fdef,26,sandwich,filler,D,50,sandwich40.jpg,sandwich60.jpg,GoalA,option2;option1
1687287460,8781a20275e64bb8bb0afe968ac655e7,PennController,29,0,experiment,NULL,PennController,28,_Trial_,End,1687287407201,5eced3094e07772e58a2fdef,5eced3094e07772e58a2fdef,26,sandwich,filler,D,50,sandwich40.jpg,sandwich60.jpg,GoalA,NULL
1687287460,8781a20275e64bb8bb0afe968ac655e7,PennController,11,0,experiment,NULL,PennController,10,_Trial_,Start,1687287407201,5eced3094e07772e58a2fdef,5eced3094e07772e58a2fdef,8,cucumber,critical,D,50,cucumber42.jpg,cucumber60.jpg,high,NULL
1687287460,8781a20275e64bb8bb0afe968ac655e7,PennController,11,0,experiment,NULL,PennController,10,_Header_,Start,1687287407201,5eced3094e07772e58a2fdef,5eced3094e07772e58a2fdef,8,cucumber,critical,D,50,cucumber42.jpg,cucumber60.jpg,high,NULL
1687287460,8781a20275e64bb8bb0afe968ac655e7,PennController,11,0,experiment,NULL,PennController,10,_Header_,End,1687287407201,5eced3094e07772e58a2fdef,5eced3094e07772e58a2fdef,8,cucumber,critical,D,50,cucumber42.jpg,cucumber60.jpg,high,NULL
1687287460,8781a20275e64bb8bb0afe968ac655e7,PennController,11,0,experiment,NULL,Canvas,canvas6,Print,NA,1687287415275,5eced3094e07772e58a2fdef,5eced3094e07772e58a2fdef,8,cucumber,critical,D,50,cucumber42.jpg,cucumber60.jpg,high,NULL
1687287460,8781a20275e64bb8bb0afe968ac655e7,PennController,11,0,experiment,NULL,Video,progression,buffer,0.001757,1687287410717,5eced3094e07772e58a2fdef,5eced3094e07772e58a2fdef,8,cucumber,critical,D,50,cucumber42.jpg,cucumber60.jpg,high,NULL
1687287460,8781a20275e64bb8bb0afe968ac655e7,PennController,11,0,experiment,NULL,Selector,choice,Selection,option1,1687287417100,5eced3094e07772e58a2fdef,5eced3094e07772e58a2fdef,8,cucumber,critical,D,50,cucumber42.jpg,cucumber60.jpg,high,option1;option2
1687287460,8781a20275e64bb8bb0afe968ac655e7,PennController,11,0,experiment,NULL,PennController,10,_Trial_,End,1687287417101,5eced3094e07772e58a2fdef,5eced3094e07772e58a2fdef,8,cucumber,critical,D,50,cucumber42.jpg,cucumber60.jpg,high,NULL
1687287460,8781a20275e64bb8bb0afe968ac655e7,PennController,20,0,experiment,NULL,PennController,19,_Trial_,Start,1687287417102,5eced3094e07772e58a2fdef,5eced3094e07772e58a2fdef,17,roll,critical,D,50,roll40.jpg,roll60.jpg,high,NULL
1687287460,8781a20275e64bb8bb0afe968ac655e7,PennController,20,0,experiment,NULL,PennController,19,_Header_,Start,1687287417102,5eced3094e07772e58a2fdef,5eced3094e07772e58a2fdef,17,roll,critical,D,50,roll40.jpg,roll60.jpg,high,NULL
1687287460,8781a20275e64bb8bb0afe968ac655e7,PennController,20,0,experiment,NULL,PennController,19,_Header_,End,1687287417102,5eced3094e07772e58a2fdef,5eced3094e07772e58a2fdef,17,roll,critical,D,50,roll40.jpg,roll60.jpg,high,NULL
1687287460,8781a20275e64bb8bb0afe968ac655e7,PennController,20,0,experiment,NULL,Canvas,canvas6,Print,NA,1687287426010,5eced3094e07772e58a2fdef,5eced3094e07772e58a2fdef,17,roll,critical,D,50,roll40.jpg,roll60.jpg,high,NULL
1687287460,8781a20275e64bb8bb0afe968ac655e7,PennController,20,0,experiment,NULL,Video,progression,buffer,0.002221,1687287422006,5eced3094e07772e58a2fdef,5eced3094e07772e58a2fdef,17,roll,critical,D,50,roll40.jpg,roll60.jpg,high,NULL
1687287460,8781a20275e64bb8bb0afe968ac655e7,PennController,20,0,experiment,NULL,Selector,choice,Selection,option1,1687287463244,5eced3094e07772e58a2fdef,5eced3094e07772e58a2fdef,17,roll,critical,D,50,roll40.jpg,roll60.jpg,high,option1;option2
1687287460,8781a20275e64bb8bb0afe968ac655e7,PennController,20,0,experiment,NULL,PennController,19,_Trial_,End,1687287463245,5eced3094e07772e58a2fdef,5eced3094e07772e58a2fdef,17,roll,critical,D,50,roll40.jpg,roll60.jpg,high,NULL
