#
# Results on Thursday June 22 2023 05:34:53 UTC
# USER AGENT: Mozilla/5.0 (Windows NT 10.0; Win64; x64) AppleWebKit/537.36 (KHTML, like Gecko) Chrome/114.0.0.0 Safari/537.36
# Design number was non-random = 83
#
# Columns below this comment are as follows:
# 1. Results reception time.
# 2. MD5 hash of participant's IP address.
# 3. Controller name.
# 4. Order number of item.
# 5. Inner element number.
# 6. Label.
# 7. Latin Square Group.
# 8. PennElementType.
# 9. PennElementName.
# 10. Parameter.
# 11. Value.
# 12. EventTime.
# 13. PROLIFIC_ID.
# 14. Comments.
1687412093,3f3936bfd30b9e308ca6a28138dc341d,PennController,3,0,consent,NULL,PennController,0,_Trial_,Start,1687411832329,5da760eae8174b001640d369,NULL
1687412093,3f3936bfd30b9e308ca6a28138dc341d,PennController,3,0,consent,NULL,PennController,0,_Header_,Start,1687411832329,5da760eae8174b001640d369,NULL
1687412093,3f3936bfd30b9e308ca6a28138dc341d,PennController,3,0,consent,NULL,PennController,0,_Header_,End,1687411832329,5da760eae8174b001640d369,NULL
1687412093,3f3936bfd30b9e308ca6a28138dc341d,PennController,3,0,consent,NULL,PennController,0,_Trial_,End,1687411849251,5da760eae8174b001640d369,NULL
# Columns below this comment are as follows:
# 14. ID.
# 15. Comments.
1687412093,3f3936bfd30b9e308ca6a28138dc341d,PennController,4,0,intro,NULL,PennController,1,_Trial_,Start,1687411849253,5da760eae8174b001640d369,5da760eae8174b001640d369,NULL
1687412093,3f3936bfd30b9e308ca6a28138dc341d,PennController,4,0,intro,NULL,PennController,1,_Header_,Start,1687411849253,5da760eae8174b001640d369,5da760eae8174b001640d369,NULL
1687412093,3f3936bfd30b9e308ca6a28138dc341d,PennController,4,0,intro,NULL,PennController,1,_Header_,End,1687411849253,5da760eae8174b001640d369,5da760eae8174b001640d369,NULL
1687412093,3f3936bfd30b9e308ca6a28138dc341d,PennController,4,0,intro,NULL,PennController,1,_Trial_,End,1687411859216,5da760eae8174b001640d369,5da760eae8174b001640d369,NULL
# Columns below this comment are as follows:
# 15. item_number.
# 16. item.
# 17. type.
# 18. Group.
# 19. prog.
# 20. prev_image.
# 21. next_image.
# 22. height.
# 23. Comments.
1687412093,3f3936bfd30b9e308ca6a28138dc341d,PennController,19,0,experiment,NULL,PennController,17,_Trial_,Start,1687411859218,5da760eae8174b001640d369,5da760eae8174b001640d369,15,zip,critical,A,75,zip65.jpg,zip85.jpg,low,NULL
1687412093,3f3936bfd30b9e308ca6a28138dc341d,PennController,19,0,experiment,NULL,PennController,17,_Header_,Start,1687411859218,5da760eae8174b001640d369,5da760eae8174b001640d369,15,zip,critical,A,75,zip65.jpg,zip85.jpg,low,NULL
1687412093,3f3936bfd30b9e308ca6a28138dc341d,PennController,19,0,experiment,NULL,PennController,17,_Header_,End,1687411859218,5da760eae8174b001640d369,5da760eae8174b001640d369,15,zip,critical,A,75,zip65.jpg,zip85.jpg,low,NULL
1687412093,3f3936bfd30b9e308ca6a28138dc341d,PennController,19,0,experiment,NULL,Canvas,canvas6,Print,NA,1687411866104,5da760eae8174b001640d369,5da760eae8174b001640d369,15,zip,critical,A,75,zip65.jpg,zip85.jpg,low,NULL
1687412093,3f3936bfd30b9e308ca6a28138dc341d,PennController,19,0,experiment,NULL,Video,progression,buffer,0.002135,1687411862743,5da760eae8174b001640d369,5da760eae8174b001640d369,15,zip,critical,A,75,zip65.jpg,zip85.jpg,low,NULL
1687412093,3f3936bfd30b9e308ca6a28138dc341d,PennController,19,0,experiment,NULL,Selector,choice,Selection,option1,1687411871052,5da760eae8174b001640d369,5da760eae8174b001640d369,15,zip,critical,A,75,zip65.jpg,zip85.jpg,low,option2;option1
1687412093,3f3936bfd30b9e308ca6a28138dc341d,PennController,19,0,experiment,NULL,PennController,17,_Trial_,End,1687411871053,5da760eae8174b001640d369,5da760eae8174b001640d369,15,zip,critical,A,75,zip65.jpg,zip85.jpg,low,NULL
1687412093,3f3936bfd30b9e308ca6a28138dc341d,PennController,29,0,experiment,NULL,PennController,27,_Trial_,Start,1687411871054,5da760eae8174b001640d369,5da760eae8174b001640d369,25,house,filler,A,25,house15.jpg,house35.jpg,GoalA,NULL
1687412093,3f3936bfd30b9e308ca6a28138dc341d,PennController,29,0,experiment,NULL,PennController,27,_Header_,Start,1687411871054,5da760eae8174b001640d369,5da760eae8174b001640d369,25,house,filler,A,25,house15.jpg,house35.jpg,GoalA,NULL
1687412093,3f3936bfd30b9e308ca6a28138dc341d,PennController,29,0,experiment,NULL,PennController,27,_Header_,End,1687411871054,5da760eae8174b001640d369,5da760eae8174b001640d369,25,house,filler,A,25,house15.jpg,house35.jpg,GoalA,NULL
1687412093,3f3936bfd30b9e308ca6a28138dc341d,PennController,29,0,experiment,NULL,Canvas,canvas6,Print,NA,1687411876735,5da760eae8174b001640d369,5da760eae8174b001640d369,25,house,filler,A,25,house15.jpg,house35.jpg,GoalA,NULL
1687412093,3f3936bfd30b9e308ca6a28138dc341d,PennController,29,0,experiment,NULL,Video,progression,buffer,0.001751,1687411874569,5da760eae8174b001640d369,5da760eae8174b001640d369,25,house,filler,A,25,house15.jpg,house35.jpg,GoalA,NULL
1687412093,3f3936bfd30b9e308ca6a28138dc341d,PennController,29,0,experiment,NULL,Selector,choice,Selection,option2,1687411880745,5da760eae8174b001640d369,5da760eae8174b001640d369,25,house,filler,A,25,house15.jpg,house35.jpg,GoalA,option2;option1
1687412093,3f3936bfd30b9e308ca6a28138dc341d,PennController,29,0,experiment,NULL,PennController,27,_Trial_,End,1687411880746,5da760eae8174b001640d369,5da760eae8174b001640d369,25,house,filler,A,25,house15.jpg,house35.jpg,GoalA,NULL
1687412093,3f3936bfd30b9e308ca6a28138dc341d,PennController,31,0,experiment,NULL,PennController,29,_Trial_,Start,1687411880747,5da760eae8174b001640d369,5da760eae8174b001640d369,27,square,filler,A,75,square65.jpg,square85.jpg,GoalA,NULL
1687412093,3f3936bfd30b9e308ca6a28138dc341d,PennController,31,0,experiment,NULL,PennController,29,_Header_,Start,1687411880747,5da760eae8174b001640d369,5da760eae8174b001640d369,27,square,filler,A,75,square65.jpg,square85.jpg,GoalA,NULL
1687412093,3f3936bfd30b9e308ca6a28138dc341d,PennController,31,0,experiment,NULL,PennController,29,_Header_,End,1687411880747,5da760eae8174b001640d369,5da760eae8174b001640d369,27,square,filler,A,75,square65.jpg,square85.jpg,GoalA,NULL
1687412093,3f3936bfd30b9e308ca6a28138dc341d,PennController,31,0,experiment,NULL,Canvas,canvas6,Print,NA,1687411888421,5da760eae8174b001640d369,5da760eae8174b001640d369,27,square,filler,A,75,square65.jpg,square85.jpg,GoalA,NULL
1687412093,3f3936bfd30b9e308ca6a28138dc341d,PennController,31,0,experiment,NULL,Video,progression,buffer,0.001811,1687411884263,5da760eae8174b001640d369,5da760eae8174b001640d369,27,square,filler,A,75,square65.jpg,square85.jpg,GoalA,NULL
1687412093,3f3936bfd30b9e308ca6a28138dc341d,PennController,31,0,experiment,NULL,Selector,choice,Selection,option1,1687411890790,5da760eae8174b001640d369,5da760eae8174b001640d369,27,square,filler,A,75,square65.jpg,square85.jpg,GoalA,option2;option1
1687412093,3f3936bfd30b9e308ca6a28138dc341d,PennController,31,0,experiment,NULL,PennController,29,_Trial_,End,1687411890791,5da760eae8174b001640d369,5da760eae8174b001640d369,27,square,filler,A,75,square65.jpg,square85.jpg,GoalA,NULL
1687412093,3f3936bfd30b9e308ca6a28138dc341d,PennController,14,0,experiment,NULL,PennController,12,_Trial_,Start,1687411890792,5da760eae8174b001640d369,5da760eae8174b001640d369,10,train,critical,A,25,train15.jpg,train35.jpg,low,NULL
1687412093,3f3936bfd30b9e308ca6a28138dc341d,PennController,14,0,experiment,NULL,PennController,12,_Header_,Start,1687411890792,5da760eae8174b001640d369,5da760eae8174b001640d369,10,train,critical,A,25,train15.jpg,train35.jpg,low,NULL
1687412093,3f3936bfd30b9e308ca6a28138dc341d,PennController,14,0,experiment,NULL,PennController,12,_Header_,End,1687411890792,5da760eae8174b001640d369,5da760eae8174b001640d369,10,train,critical,A,25,train15.jpg,train35.jpg,low,NULL
1687412093,3f3936bfd30b9e308ca6a28138dc341d,PennController,14,0,experiment,NULL,Canvas,canvas6,Print,NA,1687411896473,5da760eae8174b001640d369,5da760eae8174b001640d369,10,train,critical,A,25,train15.jpg,train35.jpg,low,NULL
1687412093,3f3936bfd30b9e308ca6a28138dc341d,PennController,14,0,experiment,NULL,Video,progression,buffer,0.001507,1687411894306,5da760eae8174b001640d369,5da760eae8174b001640d369,10,train,critical,A,25,train15.jpg,train35.jpg,low,NULL
1687412093,3f3936bfd30b9e308ca6a28138dc341d,PennController,14,0,experiment,NULL,Selector,choice,Selection,option1,1687411898248,5da760eae8174b001640d369,5da760eae8174b001640d369,10,train,critical,A,25,train15.jpg,train35.jpg,low,option2;option1
1687412093,3f3936bfd30b9e308ca6a28138dc341d,PennController,14,0,experiment,NULL,PennController,12,_Trial_,End,1687411898249,5da760eae8174b001640d369,5da760eae8174b001640d369,10,train,critical,A,25,train15.jpg,train35.jpg,low,NULL
1687412093,3f3936bfd30b9e308ca6a28138dc341d,PennController,21,0,experiment,NULL,PennController,19,_Trial_,Start,1687411898250,5da760eae8174b001640d369,5da760eae8174b001640d369,17,roll,critical,A,50,roll40.jpg,roll60.jpg,low,NULL
1687412093,3f3936bfd30b9e308ca6a28138dc341d,PennController,21,0,experiment,NULL,PennController,19,_Header_,Start,1687411898250,5da760eae8174b001640d369,5da760eae8174b001640d369,17,roll,critical,A,50,roll40.jpg,roll60.jpg,low,NULL
1687412093,3f3936bfd30b9e308ca6a28138dc341d,PennController,21,0,experiment,NULL,PennController,19,_Header_,End,1687411898250,5da760eae8174b001640d369,5da760eae8174b001640d369,17,roll,critical,A,50,roll40.jpg,roll60.jpg,low,NULL
1687412093,3f3936bfd30b9e308ca6a28138dc341d,PennController,21,0,experiment,NULL,Canvas,canvas6,Print,NA,1687411904938,5da760eae8174b001640d369,5da760eae8174b001640d369,17,roll,critical,A,50,roll40.jpg,roll60.jpg,low,NULL
1687412093,3f3936bfd30b9e308ca6a28138dc341d,PennController,21,0,experiment,NULL,Video,progression,buffer,0.001961,1687411901767,5da760eae8174b001640d369,5da760eae8174b001640d369,17,roll,critical,A,50,roll40.jpg,roll60.jpg,low,NULL
1687412093,3f3936bfd30b9e308ca6a28138dc341d,PennController,21,0,experiment,NULL,Selector,choice,Selection,option2,1687411907408,5da760eae8174b001640d369,5da760eae8174b001640d369,17,roll,critical,A,50,roll40.jpg,roll60.jpg,low,option1;option2
1687412093,3f3936bfd30b9e308ca6a28138dc341d,PennController,21,0,experiment,NULL,PennController,19,_Trial_,End,1687411907409,5da760eae8174b001640d369,5da760eae8174b001640d369,17,roll,critical,A,50,roll40.jpg,roll60.jpg,low,NULL
1687412093,3f3936bfd30b9e308ca6a28138dc341d,PennController,30,0,experiment,NULL,PennController,28,_Trial_,Start,1687411907410,5da760eae8174b001640d369,5da760eae8174b001640d369,26,sandwich,filler,A,50,sandwich40.jpg,sandwich60.jpg,GoalB,NULL
1687412093,3f3936bfd30b9e308ca6a28138dc341d,PennController,30,0,experiment,NULL,PennController,28,_Header_,Start,1687411907410,5da760eae8174b001640d369,5da760eae8174b001640d369,26,sandwich,filler,A,50,sandwich40.jpg,sandwich60.jpg,GoalB,NULL
1687412093,3f3936bfd30b9e308ca6a28138dc341d,PennController,30,0,experiment,NULL,PennController,28,_Header_,End,1687411907410,5da760eae8174b001640d369,5da760eae8174b001640d369,26,sandwich,filler,A,50,sandwich40.jpg,sandwich60.jpg,GoalB,NULL
1687412093,3f3936bfd30b9e308ca6a28138dc341d,PennController,30,0,experiment,NULL,Canvas,canvas6,Print,NA,1687411914090,5da760eae8174b001640d369,5da760eae8174b001640d369,26,sandwich,filler,A,50,sandwich40.jpg,sandwich60.jpg,GoalB,NULL
1687412093,3f3936bfd30b9e308ca6a28138dc341d,PennController,30,0,experiment,NULL,Video,progression,buffer,0.001762,1687411910928,5da760eae8174b001640d369,5da760eae8174b001640d369,26,sandwich,filler,A,50,sandwich40.jpg,sandwich60.jpg,GoalB,NULL
1687412093,3f3936bfd30b9e308ca6a28138dc341d,PennController,30,0,experiment,NULL,Selector,choice,Selection,option1,1687411915562,5da760eae8174b001640d369,5da760eae8174b001640d369,26,sandwich,filler,A,50,sandwich40.jpg,sandwich60.jpg,GoalB,option1;option2
1687412093,3f3936bfd30b9e308ca6a28138dc341d,PennController,30,0,experiment,NULL,PennController,28,_Trial_,End,1687411915563,5da760eae8174b001640d369,5da760eae8174b001640d369,26,sandwich,filler,A,50,sandwich40.jpg,sandwich60.jpg,GoalB,NULL
1687412093,3f3936bfd30b9e308ca6a28138dc341d,PennController,5,0,experiment,NULL,PennController,3,_Trial_,Start,1687411915563,5da760eae8174b001640d369,5da760eae8174b001640d369,1,vase,critical,A,25,vase15.jpg,vase35.jpg,low,NULL
1687412093,3f3936bfd30b9e308ca6a28138dc341d,PennController,5,0,experiment,NULL,PennController,3,_Header_,Start,1687411915563,5da760eae8174b001640d369,5da760eae8174b001640d369,1,vase,critical,A,25,vase15.jpg,vase35.jpg,low,NULL
1687412093,3f3936bfd30b9e308ca6a28138dc341d,PennController,5,0,experiment,NULL,PennController,3,_Header_,End,1687411915563,5da760eae8174b001640d369,5da760eae8174b001640d369,1,vase,critical,A,25,vase15.jpg,vase35.jpg,low,NULL
1687412093,3f3936bfd30b9e308ca6a28138dc341d,PennController,5,0,experiment,NULL,Canvas,canvas6,Print,NA,1687411921238,5da760eae8174b001640d369,5da760eae8174b001640d369,1,vase,critical,A,25,vase15.jpg,vase35.jpg,low,NULL
1687412093,3f3936bfd30b9e308ca6a28138dc341d,PennController,5,0,experiment,NULL,Video,progression,buffer,0.001565,1687411919075,5da760eae8174b001640d369,5da760eae8174b001640d369,1,vase,critical,A,25,vase15.jpg,vase35.jpg,low,NULL
1687412093,3f3936bfd30b9e308ca6a28138dc341d,PennController,5,0,experiment,NULL,Selector,choice,Selection,option1,1687411924104,5da760eae8174b001640d369,5da760eae8174b001640d369,1,vase,critical,A,25,vase15.jpg,vase35.jpg,low,option2;option1
1687412093,3f3936bfd30b9e308ca6a28138dc341d,PennController,5,0,experiment,NULL,PennController,3,_Trial_,End,1687411924105,5da760eae8174b001640d369,5da760eae8174b001640d369,1,vase,critical,A,25,vase15.jpg,vase35.jpg,low,NULL
1687412093,3f3936bfd30b9e308ca6a28138dc341d,PennController,11,0,experiment,NULL,PennController,9,_Trial_,Start,1687411924105,5da760eae8174b001640d369,5da760eae8174b001640d369,7,stack,critical,A,25,stack15.jpg,stack35.jpg,low,NULL
1687412093,3f3936bfd30b9e308ca6a28138dc341d,PennController,11,0,experiment,NULL,PennController,9,_Header_,Start,1687411924105,5da760eae8174b001640d369,5da760eae8174b001640d369,7,stack,critical,A,25,stack15.jpg,stack35.jpg,low,NULL
1687412093,3f3936bfd30b9e308ca6a28138dc341d,PennController,11,0,experiment,NULL,PennController,9,_Header_,End,1687411924105,5da760eae8174b001640d369,5da760eae8174b001640d369,7,stack,critical,A,25,stack15.jpg,stack35.jpg,low,NULL
1687412093,3f3936bfd30b9e308ca6a28138dc341d,PennController,11,0,experiment,NULL,Canvas,canvas6,Print,NA,1687411929774,5da760eae8174b001640d369,5da760eae8174b001640d369,7,stack,critical,A,25,stack15.jpg,stack35.jpg,low,NULL
1687412093,3f3936bfd30b9e308ca6a28138dc341d,PennController,11,0,experiment,NULL,Video,progression,buffer,0.001601,1687411927616,5da760eae8174b001640d369,5da760eae8174b001640d369,7,stack,critical,A,25,stack15.jpg,stack35.jpg,low,NULL
1687412093,3f3936bfd30b9e308ca6a28138dc341d,PennController,11,0,experiment,NULL,Selector,choice,Selection,option1,1687411931192,5da760eae8174b001640d369,5da760eae8174b001640d369,7,stack,critical,A,25,stack15.jpg,stack35.jpg,low,option1;option2
1687412093,3f3936bfd30b9e308ca6a28138dc341d,PennController,11,0,experiment,NULL,PennController,9,_Trial_,End,1687411931192,5da760eae8174b001640d369,5da760eae8174b001640d369,7,stack,critical,A,25,stack15.jpg,stack35.jpg,low,NULL
1687412093,3f3936bfd30b9e308ca6a28138dc341d,PennController,15,0,experiment,NULL,PennController,13,_Trial_,Start,1687411931193,5da760eae8174b001640d369,5da760eae8174b001640d369,11,beads,critical,A,50,beads40.jpg,beads60.jpg,low,NULL
1687412093,3f3936bfd30b9e308ca6a28138dc341d,PennController,15,0,experiment,NULL,PennController,13,_Header_,Start,1687411931193,5da760eae8174b001640d369,5da760eae8174b001640d369,11,beads,critical,A,50,beads40.jpg,beads60.jpg,low,NULL
1687412093,3f3936bfd30b9e308ca6a28138dc341d,PennController,15,0,experiment,NULL,PennController,13,_Header_,End,1687411931193,5da760eae8174b001640d369,5da760eae8174b001640d369,11,beads,critical,A,50,beads40.jpg,beads60.jpg,low,NULL
1687412093,3f3936bfd30b9e308ca6a28138dc341d,PennController,15,0,experiment,NULL,Canvas,canvas6,Print,NA,1687411937872,5da760eae8174b001640d369,5da760eae8174b001640d369,11,beads,critical,A,50,beads40.jpg,beads60.jpg,low,NULL
1687412093,3f3936bfd30b9e308ca6a28138dc341d,PennController,15,0,experiment,NULL,Video,progression,buffer,0.001709,1687411934708,5da760eae8174b001640d369,5da760eae8174b001640d369,11,beads,critical,A,50,beads40.jpg,beads60.jpg,low,NULL
1687412093,3f3936bfd30b9e308ca6a28138dc341d,PennController,15,0,experiment,NULL,Selector,choice,Selection,option2,1687411939643,5da760eae8174b001640d369,5da760eae8174b001640d369,11,beads,critical,A,50,beads40.jpg,beads60.jpg,low,option1;option2
1687412093,3f3936bfd30b9e308ca6a28138dc341d,PennController,15,0,experiment,NULL,PennController,13,_Trial_,End,1687411939644,5da760eae8174b001640d369,5da760eae8174b001640d369,11,beads,critical,A,50,beads40.jpg,beads60.jpg,low,NULL
1687412093,3f3936bfd30b9e308ca6a28138dc341d,PennController,8,0,experiment,NULL,PennController,6,_Trial_,Start,1687411939644,5da760eae8174b001640d369,5da760eae8174b001640d369,4,candy,critical,A,25,candy15.jpg,candy35.jpg,low,NULL
1687412093,3f3936bfd30b9e308ca6a28138dc341d,PennController,8,0,experiment,NULL,PennController,6,_Header_,Start,1687411939644,5da760eae8174b001640d369,5da760eae8174b001640d369,4,candy,critical,A,25,candy15.jpg,candy35.jpg,low,NULL
1687412093,3f3936bfd30b9e308ca6a28138dc341d,PennController,8,0,experiment,NULL,PennController,6,_Header_,End,1687411939644,5da760eae8174b001640d369,5da760eae8174b001640d369,4,candy,critical,A,25,candy15.jpg,candy35.jpg,low,NULL
1687412093,3f3936bfd30b9e308ca6a28138dc341d,PennController,8,0,experiment,NULL,Canvas,canvas6,Print,NA,1687411945323,5da760eae8174b001640d369,5da760eae8174b001640d369,4,candy,critical,A,25,candy15.jpg,candy35.jpg,low,NULL
1687412093,3f3936bfd30b9e308ca6a28138dc341d,PennController,8,0,experiment,NULL,Video,progression,buffer,0.002376,1687411943155,5da760eae8174b001640d369,5da760eae8174b001640d369,4,candy,critical,A,25,candy15.jpg,candy35.jpg,low,NULL
1687412093,3f3936bfd30b9e308ca6a28138dc341d,PennController,8,0,experiment,NULL,Selector,choice,Selection,option2,1687411947815,5da760eae8174b001640d369,5da760eae8174b001640d369,4,candy,critical,A,25,candy15.jpg,candy35.jpg,low,option1;option2
1687412093,3f3936bfd30b9e308ca6a28138dc341d,PennController,8,0,experiment,NULL,PennController,6,_Trial_,End,1687411947815,5da760eae8174b001640d369,5da760eae8174b001640d369,4,candy,critical,A,25,candy15.jpg,candy35.jpg,low,NULL
1687412093,3f3936bfd30b9e308ca6a28138dc341d,PennController,17,0,experiment,NULL,PennController,15,_Trial_,Start,1687411947816,5da760eae8174b001640d369,5da760eae8174b001640d369,13,mix,critical,A,25,mix15.jpg,mix35.jpg,low,NULL
1687412093,3f3936bfd30b9e308ca6a28138dc341d,PennController,17,0,experiment,NULL,PennController,15,_Header_,Start,1687411947816,5da760eae8174b001640d369,5da760eae8174b001640d369,13,mix,critical,A,25,mix15.jpg,mix35.jpg,low,NULL
1687412093,3f3936bfd30b9e308ca6a28138dc341d,PennController,17,0,experiment,NULL,PennController,15,_Header_,End,1687411947816,5da760eae8174b001640d369,5da760eae8174b001640d369,13,mix,critical,A,25,mix15.jpg,mix35.jpg,low,NULL
1687412093,3f3936bfd30b9e308ca6a28138dc341d,PennController,17,0,experiment,NULL,Canvas,canvas6,Print,NA,1687411953493,5da760eae8174b001640d369,5da760eae8174b001640d369,13,mix,critical,A,25,mix15.jpg,mix35.jpg,low,NULL
1687412093,3f3936bfd30b9e308ca6a28138dc341d,PennController,17,0,experiment,NULL,Video,progression,buffer,0.001549,1687411951333,5da760eae8174b001640d369,5da760eae8174b001640d369,13,mix,critical,A,25,mix15.jpg,mix35.jpg,low,NULL
1687412093,3f3936bfd30b9e308ca6a28138dc341d,PennController,17,0,experiment,NULL,Selector,choice,Selection,option1,1687411954704,5da760eae8174b001640d369,5da760eae8174b001640d369,13,mix,critical,A,25,mix15.jpg,mix35.jpg,low,option1;option2
1687412093,3f3936bfd30b9e308ca6a28138dc341d,PennController,17,0,experiment,NULL,PennController,15,_Trial_,End,1687411954704,5da760eae8174b001640d369,5da760eae8174b001640d369,13,mix,critical,A,25,mix15.jpg,mix35.jpg,low,NULL
1687412093,3f3936bfd30b9e308ca6a28138dc341d,PennController,20,0,experiment,NULL,PennController,18,_Trial_,Start,1687411954705,5da760eae8174b001640d369,5da760eae8174b001640d369,16,blinds,critical,A,25,blinds15.jpg,blinds33.jpg,low,NULL
1687412093,3f3936bfd30b9e308ca6a28138dc341d,PennController,20,0,experiment,NULL,PennController,18,_Header_,Start,1687411954705,5da760eae8174b001640d369,5da760eae8174b001640d369,16,blinds,critical,A,25,blinds15.jpg,blinds33.jpg,low,NULL
1687412093,3f3936bfd30b9e308ca6a28138dc341d,PennController,20,0,experiment,NULL,PennController,18,_Header_,End,1687411954705,5da760eae8174b001640d369,5da760eae8174b001640d369,16,blinds,critical,A,25,blinds15.jpg,blinds33.jpg,low,NULL
1687412093,3f3936bfd30b9e308ca6a28138dc341d,PennController,20,0,experiment,NULL,Canvas,canvas6,Print,NA,1687411960972,5da760eae8174b001640d369,5da760eae8174b001640d369,16,blinds,critical,A,25,blinds15.jpg,blinds33.jpg,low,NULL
1687412093,3f3936bfd30b9e308ca6a28138dc341d,PennController,20,0,experiment,NULL,Video,progression,buffer,0.001701,1687411958215,5da760eae8174b001640d369,5da760eae8174b001640d369,16,blinds,critical,A,25,blinds15.jpg,blinds33.jpg,low,NULL
1687412093,3f3936bfd30b9e308ca6a28138dc341d,PennController,20,0,experiment,NULL,Selector,choice,Selection,option1,1687411962325,5da760eae8174b001640d369,5da760eae8174b001640d369,16,blinds,critical,A,25,blinds15.jpg,blinds33.jpg,low,option2;option1
1687412093,3f3936bfd30b9e308ca6a28138dc341d,PennController,20,0,experiment,NULL,PennController,18,_Trial_,End,1687411962326,5da760eae8174b001640d369,5da760eae8174b001640d369,16,blinds,critical,A,25,blinds15.jpg,blinds33.jpg,low,NULL
1687412093,3f3936bfd30b9e308ca6a28138dc341d,PennController,22,0,experiment,NULL,PennController,20,_Trial_,Start,1687411962326,5da760eae8174b001640d369,5da760eae8174b001640d369,18,ball,critical,A,75,ball65.jpg,ball85.jpg,low,NULL
1687412093,3f3936bfd30b9e308ca6a28138dc341d,PennController,22,0,experiment,NULL,PennController,20,_Header_,Start,1687411962326,5da760eae8174b001640d369,5da760eae8174b001640d369,18,ball,critical,A,75,ball65.jpg,ball85.jpg,low,NULL
1687412093,3f3936bfd30b9e308ca6a28138dc341d,PennController,22,0,experiment,NULL,PennController,20,_Header_,End,1687411962327,5da760eae8174b001640d369,5da760eae8174b001640d369,18,ball,critical,A,75,ball65.jpg,ball85.jpg,low,NULL
1687412093,3f3936bfd30b9e308ca6a28138dc341d,PennController,22,0,experiment,NULL,Canvas,canvas6,Print,NA,1687411970009,5da760eae8174b001640d369,5da760eae8174b001640d369,18,ball,critical,A,75,ball65.jpg,ball85.jpg,low,NULL
1687412093,3f3936bfd30b9e308ca6a28138dc341d,PennController,22,0,experiment,NULL,Video,progression,buffer,0.001467,1687411965843,5da760eae8174b001640d369,5da760eae8174b001640d369,18,ball,critical,A,75,ball65.jpg,ball85.jpg,low,NULL
1687412093,3f3936bfd30b9e308ca6a28138dc341d,PennController,22,0,experiment,NULL,Selector,choice,Selection,option2,1687411971713,5da760eae8174b001640d369,5da760eae8174b001640d369,18,ball,critical,A,75,ball65.jpg,ball85.jpg,low,option2;option1
1687412093,3f3936bfd30b9e308ca6a28138dc341d,PennController,22,0,experiment,NULL,PennController,20,_Trial_,End,1687411971714,5da760eae8174b001640d369,5da760eae8174b001640d369,18,ball,critical,A,75,ball65.jpg,ball85.jpg,low,NULL
1687412093,3f3936bfd30b9e308ca6a28138dc341d,PennController,27,0,experiment,NULL,PennController,25,_Trial_,Start,1687411971715,5da760eae8174b001640d369,5da760eae8174b001640d369,23,color,filler,A,50,color40.jpg,color60.jpg,GoalA,NULL
1687412093,3f3936bfd30b9e308ca6a28138dc341d,PennController,27,0,experiment,NULL,PennController,25,_Header_,Start,1687411971715,5da760eae8174b001640d369,5da760eae8174b001640d369,23,color,filler,A,50,color40.jpg,color60.jpg,GoalA,NULL
1687412093,3f3936bfd30b9e308ca6a28138dc341d,PennController,27,0,experiment,NULL,PennController,25,_Header_,End,1687411971715,5da760eae8174b001640d369,5da760eae8174b001640d369,23,color,filler,A,50,color40.jpg,color60.jpg,GoalA,NULL
1687412093,3f3936bfd30b9e308ca6a28138dc341d,PennController,27,0,experiment,NULL,Canvas,canvas6,Print,NA,1687411978393,5da760eae8174b001640d369,5da760eae8174b001640d369,23,color,filler,A,50,color40.jpg,color60.jpg,GoalA,NULL
1687412093,3f3936bfd30b9e308ca6a28138dc341d,PennController,27,0,experiment,NULL,Video,progression,buffer,0.001585,1687411975227,5da760eae8174b001640d369,5da760eae8174b001640d369,23,color,filler,A,50,color40.jpg,color60.jpg,GoalA,NULL
1687412093,3f3936bfd30b9e308ca6a28138dc341d,PennController,27,0,experiment,NULL,Selector,choice,Selection,option2,1687411981055,5da760eae8174b001640d369,5da760eae8174b001640d369,23,color,filler,A,50,color40.jpg,color60.jpg,GoalA,option2;option1
1687412093,3f3936bfd30b9e308ca6a28138dc341d,PennController,27,0,experiment,NULL,PennController,25,_Trial_,End,1687411981056,5da760eae8174b001640d369,5da760eae8174b001640d369,23,color,filler,A,50,color40.jpg,color60.jpg,GoalA,NULL
1687412093,3f3936bfd30b9e308ca6a28138dc341d,PennController,12,0,experiment,NULL,PennController,10,_Trial_,Start,1687411981057,5da760eae8174b001640d369,5da760eae8174b001640d369,8,cucumber,critical,A,50,cucumber42.jpg,cucumber60.jpg,low,NULL
1687412093,3f3936bfd30b9e308ca6a28138dc341d,PennController,12,0,experiment,NULL,PennController,10,_Header_,Start,1687411981057,5da760eae8174b001640d369,5da760eae8174b001640d369,8,cucumber,critical,A,50,cucumber42.jpg,cucumber60.jpg,low,NULL
1687412093,3f3936bfd30b9e308ca6a28138dc341d,PennController,12,0,experiment,NULL,PennController,10,_Header_,End,1687411981057,5da760eae8174b001640d369,5da760eae8174b001640d369,8,cucumber,critical,A,50,cucumber42.jpg,cucumber60.jpg,low,NULL
1687412093,3f3936bfd30b9e308ca6a28138dc341d,PennController,12,0,experiment,NULL,Canvas,canvas6,Print,NA,1687411989139,5da760eae8174b001640d369,5da760eae8174b001640d369,8,cucumber,critical,A,50,cucumber42.jpg,cucumber60.jpg,low,NULL
1687412093,3f3936bfd30b9e308ca6a28138dc341d,PennController,12,0,experiment,NULL,Video,progression,buffer,0.002975,1687411984573,5da760eae8174b001640d369,5da760eae8174b001640d369,8,cucumber,critical,A,50,cucumber42.jpg,cucumber60.jpg,low,NULL
1687412093,3f3936bfd30b9e308ca6a28138dc341d,PennController,12,0,experiment,NULL,Selector,choice,Selection,option1,1687411991094,5da760eae8174b001640d369,5da760eae8174b001640d369,8,cucumber,critical,A,50,cucumber42.jpg,cucumber60.jpg,low,option1;option2
1687412093,3f3936bfd30b9e308ca6a28138dc341d,PennController,12,0,experiment,NULL,PennController,10,_Trial_,End,1687411991095,5da760eae8174b001640d369,5da760eae8174b001640d369,8,cucumber,critical,A,50,cucumber42.jpg,cucumber60.jpg,low,NULL
1687412093,3f3936bfd30b9e308ca6a28138dc341d,PennController,18,0,experiment,NULL,PennController,16,_Trial_,Start,1687411991096,5da760eae8174b001640d369,5da760eae8174b001640d369,14,cover,critical,A,50,cover42.jpg,cover60.jpg,low,NULL
1687412093,3f3936bfd30b9e308ca6a28138dc341d,PennController,18,0,experiment,NULL,PennController,16,_Header_,Start,1687411991096,5da760eae8174b001640d369,5da760eae8174b001640d369,14,cover,critical,A,50,cover42.jpg,cover60.jpg,low,NULL
1687412093,3f3936bfd30b9e308ca6a28138dc341d,PennController,18,0,experiment,NULL,PennController,16,_Header_,End,1687411991096,5da760eae8174b001640d369,5da760eae8174b001640d369,14,cover,critical,A,50,cover42.jpg,cover60.jpg,low,NULL
1687412093,3f3936bfd30b9e308ca6a28138dc341d,PennController,18,0,experiment,NULL,Canvas,canvas6,Print,NA,1687411999173,5da760eae8174b001640d369,5da760eae8174b001640d369,14,cover,critical,A,50,cover42.jpg,cover60.jpg,low,NULL
1687412093,3f3936bfd30b9e308ca6a28138dc341d,PennController,18,0,experiment,NULL,Video,progression,buffer,0.001626,1687411994610,5da760eae8174b001640d369,5da760eae8174b001640d369,14,cover,critical,A,50,cover42.jpg,cover60.jpg,low,NULL
1687412093,3f3936bfd30b9e308ca6a28138dc341d,PennController,18,0,experiment,NULL,Selector,choice,Selection,option1,1687412000186,5da760eae8174b001640d369,5da760eae8174b001640d369,14,cover,critical,A,50,cover42.jpg,cover60.jpg,low,option1;option2
1687412093,3f3936bfd30b9e308ca6a28138dc341d,PennController,18,0,experiment,NULL,PennController,16,_Trial_,End,1687412000187,5da760eae8174b001640d369,5da760eae8174b001640d369,14,cover,critical,A,50,cover42.jpg,cover60.jpg,low,NULL
1687412093,3f3936bfd30b9e308ca6a28138dc341d,PennController,28,0,experiment,NULL,PennController,26,_Trial_,Start,1687412000188,5da760eae8174b001640d369,5da760eae8174b001640d369,24,match,filler,A,75,match65.jpg,match85.jpg,GoalB,NULL
1687412093,3f3936bfd30b9e308ca6a28138dc341d,PennController,28,0,experiment,NULL,PennController,26,_Header_,Start,1687412000188,5da760eae8174b001640d369,5da760eae8174b001640d369,24,match,filler,A,75,match65.jpg,match85.jpg,GoalB,NULL
1687412093,3f3936bfd30b9e308ca6a28138dc341d,PennController,28,0,experiment,NULL,PennController,26,_Header_,End,1687412000188,5da760eae8174b001640d369,5da760eae8174b001640d369,24,match,filler,A,75,match65.jpg,match85.jpg,GoalB,NULL
1687412093,3f3936bfd30b9e308ca6a28138dc341d,PennController,28,0,experiment,NULL,Canvas,canvas6,Print,NA,1687412007858,5da760eae8174b001640d369,5da760eae8174b001640d369,24,match,filler,A,75,match65.jpg,match85.jpg,GoalB,NULL
1687412093,3f3936bfd30b9e308ca6a28138dc341d,PennController,28,0,experiment,NULL,Video,progression,buffer,0.002788,1687412003702,5da760eae8174b001640d369,5da760eae8174b001640d369,24,match,filler,A,75,match65.jpg,match85.jpg,GoalB,NULL
1687412093,3f3936bfd30b9e308ca6a28138dc341d,PennController,28,0,experiment,NULL,Selector,choice,Selection,option1,1687412009394,5da760eae8174b001640d369,5da760eae8174b001640d369,24,match,filler,A,75,match65.jpg,match85.jpg,GoalB,option2;option1
1687412093,3f3936bfd30b9e308ca6a28138dc341d,PennController,28,0,experiment,NULL,PennController,26,_Trial_,End,1687412009395,5da760eae8174b001640d369,5da760eae8174b001640d369,24,match,filler,A,75,match65.jpg,match85.jpg,GoalB,NULL
1687412093,3f3936bfd30b9e308ca6a28138dc341d,PennController,6,0,experiment,NULL,PennController,4,_Trial_,Start,1687412009396,5da760eae8174b001640d369,5da760eae8174b001640d369,2,door,critical,A,50,door40.jpg,door60.jpg,low,NULL
1687412093,3f3936bfd30b9e308ca6a28138dc341d,PennController,6,0,experiment,NULL,PennController,4,_Header_,Start,1687412009396,5da760eae8174b001640d369,5da760eae8174b001640d369,2,door,critical,A,50,door40.jpg,door60.jpg,low,NULL
1687412093,3f3936bfd30b9e308ca6a28138dc341d,PennController,6,0,experiment,NULL,PennController,4,_Header_,End,1687412009396,5da760eae8174b001640d369,5da760eae8174b001640d369,2,door,critical,A,50,door40.jpg,door60.jpg,low,NULL
1687412093,3f3936bfd30b9e308ca6a28138dc341d,PennController,6,0,experiment,NULL,Canvas,canvas6,Print,NA,1687412016074,5da760eae8174b001640d369,5da760eae8174b001640d369,2,door,critical,A,50,door40.jpg,door60.jpg,low,NULL
1687412093,3f3936bfd30b9e308ca6a28138dc341d,PennController,6,0,experiment,NULL,Video,progression,buffer,0.001419,1687412012911,5da760eae8174b001640d369,5da760eae8174b001640d369,2,door,critical,A,50,door40.jpg,door60.jpg,low,NULL
1687412093,3f3936bfd30b9e308ca6a28138dc341d,PennController,6,0,experiment,NULL,Selector,choice,Selection,option2,1687412017100,5da760eae8174b001640d369,5da760eae8174b001640d369,2,door,critical,A,50,door40.jpg,door60.jpg,low,option1;option2
1687412093,3f3936bfd30b9e308ca6a28138dc341d,PennController,6,0,experiment,NULL,PennController,4,_Trial_,End,1687412017101,5da760eae8174b001640d369,5da760eae8174b001640d369,2,door,critical,A,50,door40.jpg,door60.jpg,low,NULL
1687412093,3f3936bfd30b9e308ca6a28138dc341d,PennController,25,0,experiment,NULL,PennController,23,_Trial_,Start,1687412017102,5da760eae8174b001640d369,5da760eae8174b001640d369,21,visit,filler,A,75,visit65.jpg,visit85.jpg,GoalA,NULL
1687412093,3f3936bfd30b9e308ca6a28138dc341d,PennController,25,0,experiment,NULL,PennController,23,_Header_,Start,1687412017102,5da760eae8174b001640d369,5da760eae8174b001640d369,21,visit,filler,A,75,visit65.jpg,visit85.jpg,GoalA,NULL
1687412093,3f3936bfd30b9e308ca6a28138dc341d,PennController,25,0,experiment,NULL,PennController,23,_Header_,End,1687412017102,5da760eae8174b001640d369,5da760eae8174b001640d369,21,visit,filler,A,75,visit65.jpg,visit85.jpg,GoalA,NULL
1687412093,3f3936bfd30b9e308ca6a28138dc341d,PennController,25,0,experiment,NULL,Canvas,canvas6,Print,NA,1687412024778,5da760eae8174b001640d369,5da760eae8174b001640d369,21,visit,filler,A,75,visit65.jpg,visit85.jpg,GoalA,NULL
1687412093,3f3936bfd30b9e308ca6a28138dc341d,PennController,25,0,experiment,NULL,Video,progression,buffer,0.001741,1687412020617,5da760eae8174b001640d369,5da760eae8174b001640d369,21,visit,filler,A,75,visit65.jpg,visit85.jpg,GoalA,NULL
1687412093,3f3936bfd30b9e308ca6a28138dc341d,PennController,25,0,experiment,NULL,Selector,choice,Selection,option2,1687412026236,5da760eae8174b001640d369,5da760eae8174b001640d369,21,visit,filler,A,75,visit65.jpg,visit85.jpg,GoalA,option1;option2
1687412093,3f3936bfd30b9e308ca6a28138dc341d,PennController,25,0,experiment,NULL,PennController,23,_Trial_,End,1687412026236,5da760eae8174b001640d369,5da760eae8174b001640d369,21,visit,filler,A,75,visit65.jpg,visit85.jpg,GoalA,NULL
1687412093,3f3936bfd30b9e308ca6a28138dc341d,PennController,10,0,experiment,NULL,PennController,8,_Trial_,Start,1687412026237,5da760eae8174b001640d369,5da760eae8174b001640d369,6,flower,critical,A,75,flower65.jpg,flower85.jpg,low,NULL
1687412093,3f3936bfd30b9e308ca6a28138dc341d,PennController,10,0,experiment,NULL,PennController,8,_Header_,Start,1687412026237,5da760eae8174b001640d369,5da760eae8174b001640d369,6,flower,critical,A,75,flower65.jpg,flower85.jpg,low,NULL
1687412093,3f3936bfd30b9e308ca6a28138dc341d,PennController,10,0,experiment,NULL,PennController,8,_Header_,End,1687412026237,5da760eae8174b001640d369,5da760eae8174b001640d369,6,flower,critical,A,75,flower65.jpg,flower85.jpg,low,NULL
1687412093,3f3936bfd30b9e308ca6a28138dc341d,PennController,10,0,experiment,NULL,Canvas,canvas6,Print,NA,1687412033912,5da760eae8174b001640d369,5da760eae8174b001640d369,6,flower,critical,A,75,flower65.jpg,flower85.jpg,low,NULL
1687412093,3f3936bfd30b9e308ca6a28138dc341d,PennController,10,0,experiment,NULL,Video,progression,buffer,0.001656,1687412029749,5da760eae8174b001640d369,5da760eae8174b001640d369,6,flower,critical,A,75,flower65.jpg,flower85.jpg,low,NULL
1687412093,3f3936bfd30b9e308ca6a28138dc341d,PennController,10,0,experiment,NULL,Selector,choice,Selection,option2,1687412036619,5da760eae8174b001640d369,5da760eae8174b001640d369,6,flower,critical,A,75,flower65.jpg,flower85.jpg,low,option1;option2
1687412093,3f3936bfd30b9e308ca6a28138dc341d,PennController,10,0,experiment,NULL,PennController,8,_Trial_,End,1687412036620,5da760eae8174b001640d369,5da760eae8174b001640d369,6,flower,critical,A,75,flower65.jpg,flower85.jpg,low,NULL
1687412093,3f3936bfd30b9e308ca6a28138dc341d,PennController,23,0,experiment,NULL,PennController,21,_Trial_,Start,1687412036621,5da760eae8174b001640d369,5da760eae8174b001640d369,19,cup,filler,A,25,cup15.jpg,cup35.jpg,GoalA,NULL
1687412093,3f3936bfd30b9e308ca6a28138dc341d,PennController,23,0,experiment,NULL,PennController,21,_Header_,Start,1687412036621,5da760eae8174b001640d369,5da760eae8174b001640d369,19,cup,filler,A,25,cup15.jpg,cup35.jpg,GoalA,NULL
1687412093,3f3936bfd30b9e308ca6a28138dc341d,PennController,23,0,experiment,NULL,PennController,21,_Header_,End,1687412036621,5da760eae8174b001640d369,5da760eae8174b001640d369,19,cup,filler,A,25,cup15.jpg,cup35.jpg,GoalA,NULL
1687412093,3f3936bfd30b9e308ca6a28138dc341d,PennController,23,0,experiment,NULL,Canvas,canvas6,Print,NA,1687412042292,5da760eae8174b001640d369,5da760eae8174b001640d369,19,cup,filler,A,25,cup15.jpg,cup35.jpg,GoalA,NULL
1687412093,3f3936bfd30b9e308ca6a28138dc341d,PennController,23,0,experiment,NULL,Video,progression,buffer,0.00187,1687412040136,5da760eae8174b001640d369,5da760eae8174b001640d369,19,cup,filler,A,25,cup15.jpg,cup35.jpg,GoalA,NULL
1687412093,3f3936bfd30b9e308ca6a28138dc341d,PennController,23,0,experiment,NULL,Selector,choice,Selection,option2,1687412043539,5da760eae8174b001640d369,5da760eae8174b001640d369,19,cup,filler,A,25,cup15.jpg,cup35.jpg,GoalA,option1;option2
1687412093,3f3936bfd30b9e308ca6a28138dc341d,PennController,23,0,experiment,NULL,PennController,21,_Trial_,End,1687412043540,5da760eae8174b001640d369,5da760eae8174b001640d369,19,cup,filler,A,25,cup15.jpg,cup35.jpg,GoalA,NULL
1687412093,3f3936bfd30b9e308ca6a28138dc341d,PennController,26,0,experiment,NULL,PennController,24,_Trial_,Start,1687412043541,5da760eae8174b001640d369,5da760eae8174b001640d369,22,wall,filler,A,25,wall15.jpg,wall35.jpg,GoalB,NULL
1687412093,3f3936bfd30b9e308ca6a28138dc341d,PennController,26,0,experiment,NULL,PennController,24,_Header_,Start,1687412043541,5da760eae8174b001640d369,5da760eae8174b001640d369,22,wall,filler,A,25,wall15.jpg,wall35.jpg,GoalB,NULL
1687412093,3f3936bfd30b9e308ca6a28138dc341d,PennController,26,0,experiment,NULL,PennController,24,_Header_,End,1687412043541,5da760eae8174b001640d369,5da760eae8174b001640d369,22,wall,filler,A,25,wall15.jpg,wall35.jpg,GoalB,NULL
1687412093,3f3936bfd30b9e308ca6a28138dc341d,PennController,26,0,experiment,NULL,Canvas,canvas6,Print,NA,1687412049209,5da760eae8174b001640d369,5da760eae8174b001640d369,22,wall,filler,A,25,wall15.jpg,wall35.jpg,GoalB,NULL
1687412093,3f3936bfd30b9e308ca6a28138dc341d,PennController,26,0,experiment,NULL,Video,progression,buffer,0.0017,1687412047055,5da760eae8174b001640d369,5da760eae8174b001640d369,22,wall,filler,A,25,wall15.jpg,wall35.jpg,GoalB,NULL
1687412093,3f3936bfd30b9e308ca6a28138dc341d,PennController,26,0,experiment,NULL,Selector,choice,Selection,option1,1687412051549,5da760eae8174b001640d369,5da760eae8174b001640d369,22,wall,filler,A,25,wall15.jpg,wall35.jpg,GoalB,option1;option2
1687412093,3f3936bfd30b9e308ca6a28138dc341d,PennController,26,0,experiment,NULL,PennController,24,_Trial_,End,1687412051550,5da760eae8174b001640d369,5da760eae8174b001640d369,22,wall,filler,A,25,wall15.jpg,wall35.jpg,GoalB,NULL
1687412093,3f3936bfd30b9e308ca6a28138dc341d,PennController,13,0,experiment,NULL,PennController,11,_Trial_,Start,1687412051551,5da760eae8174b001640d369,5da760eae8174b001640d369,9,cake,critical,A,75,cake66.jpg,cake84.jpg,low,NULL
1687412093,3f3936bfd30b9e308ca6a28138dc341d,PennController,13,0,experiment,NULL,PennController,11,_Header_,Start,1687412051551,5da760eae8174b001640d369,5da760eae8174b001640d369,9,cake,critical,A,75,cake66.jpg,cake84.jpg,low,NULL
1687412093,3f3936bfd30b9e308ca6a28138dc341d,PennController,13,0,experiment,NULL,PennController,11,_Header_,End,1687412051551,5da760eae8174b001640d369,5da760eae8174b001640d369,9,cake,critical,A,75,cake66.jpg,cake84.jpg,low,NULL
1687412093,3f3936bfd30b9e308ca6a28138dc341d,PennController,13,0,experiment,NULL,Canvas,canvas6,Print,NA,1687412061226,5da760eae8174b001640d369,5da760eae8174b001640d369,9,cake,critical,A,75,cake66.jpg,cake84.jpg,low,NULL
1687412093,3f3936bfd30b9e308ca6a28138dc341d,PennController,13,0,experiment,NULL,Video,progression,buffer,0.001721,1687412055069,5da760eae8174b001640d369,5da760eae8174b001640d369,9,cake,critical,A,75,cake66.jpg,cake84.jpg,low,NULL
1687412093,3f3936bfd30b9e308ca6a28138dc341d,PennController,13,0,experiment,NULL,Selector,choice,Selection,option1,1687412062914,5da760eae8174b001640d369,5da760eae8174b001640d369,9,cake,critical,A,75,cake66.jpg,cake84.jpg,low,option1;option2
1687412093,3f3936bfd30b9e308ca6a28138dc341d,PennController,13,0,experiment,NULL,PennController,11,_Trial_,End,1687412062915,5da760eae8174b001640d369,5da760eae8174b001640d369,9,cake,critical,A,75,cake66.jpg,cake84.jpg,low,NULL
1687412093,3f3936bfd30b9e308ca6a28138dc341d,PennController,32,0,experiment,NULL,PennController,30,_Trial_,Start,1687412062916,5da760eae8174b001640d369,5da760eae8174b001640d369,28,sort,filler,A,25,sort15.jpg,sort35.jpg,GoalB,NULL
1687412093,3f3936bfd30b9e308ca6a28138dc341d,PennController,32,0,experiment,NULL,PennController,30,_Header_,Start,1687412062916,5da760eae8174b001640d369,5da760eae8174b001640d369,28,sort,filler,A,25,sort15.jpg,sort35.jpg,GoalB,NULL
1687412093,3f3936bfd30b9e308ca6a28138dc341d,PennController,32,0,experiment,NULL,PennController,30,_Header_,End,1687412062916,5da760eae8174b001640d369,5da760eae8174b001640d369,28,sort,filler,A,25,sort15.jpg,sort35.jpg,GoalB,NULL
1687412093,3f3936bfd30b9e308ca6a28138dc341d,PennController,32,0,experiment,NULL,Canvas,canvas6,Print,NA,1687412068595,5da760eae8174b001640d369,5da760eae8174b001640d369,28,sort,filler,A,25,sort15.jpg,sort35.jpg,GoalB,NULL
1687412093,3f3936bfd30b9e308ca6a28138dc341d,PennController,32,0,experiment,NULL,Video,progression,buffer,0.001976,1687412066429,5da760eae8174b001640d369,5da760eae8174b001640d369,28,sort,filler,A,25,sort15.jpg,sort35.jpg,GoalB,NULL
1687412093,3f3936bfd30b9e308ca6a28138dc341d,PennController,32,0,experiment,NULL,Selector,choice,Selection,option1,1687412071317,5da760eae8174b001640d369,5da760eae8174b001640d369,28,sort,filler,A,25,sort15.jpg,sort35.jpg,GoalB,option1;option2
1687412093,3f3936bfd30b9e308ca6a28138dc341d,PennController,32,0,experiment,NULL,PennController,30,_Trial_,End,1687412071318,5da760eae8174b001640d369,5da760eae8174b001640d369,28,sort,filler,A,25,sort15.jpg,sort35.jpg,GoalB,NULL
1687412093,3f3936bfd30b9e308ca6a28138dc341d,PennController,9,0,experiment,NULL,PennController,7,_Trial_,Start,1687412071319,5da760eae8174b001640d369,5da760eae8174b001640d369,5,book,critical,A,50,book40.jpg,book60.jpg,low,NULL
1687412093,3f3936bfd30b9e308ca6a28138dc341d,PennController,9,0,experiment,NULL,PennController,7,_Header_,Start,1687412071319,5da760eae8174b001640d369,5da760eae8174b001640d369,5,book,critical,A,50,book40.jpg,book60.jpg,low,NULL
1687412093,3f3936bfd30b9e308ca6a28138dc341d,PennController,9,0,experiment,NULL,PennController,7,_Header_,End,1687412071319,5da760eae8174b001640d369,5da760eae8174b001640d369,5,book,critical,A,50,book40.jpg,book60.jpg,low,NULL
1687412093,3f3936bfd30b9e308ca6a28138dc341d,PennController,9,0,experiment,NULL,Canvas,canvas6,Print,NA,1687412077993,5da760eae8174b001640d369,5da760eae8174b001640d369,5,book,critical,A,50,book40.jpg,book60.jpg,low,NULL
1687412093,3f3936bfd30b9e308ca6a28138dc341d,PennController,9,0,experiment,NULL,Video,progression,buffer,0.001579,1687412074834,5da760eae8174b001640d369,5da760eae8174b001640d369,5,book,critical,A,50,book40.jpg,book60.jpg,low,NULL
1687412093,3f3936bfd30b9e308ca6a28138dc341d,PennController,9,0,experiment,NULL,Selector,choice,Selection,option2,1687412079174,5da760eae8174b001640d369,5da760eae8174b001640d369,5,book,critical,A,50,book40.jpg,book60.jpg,low,option2;option1
1687412093,3f3936bfd30b9e308ca6a28138dc341d,PennController,9,0,experiment,NULL,PennController,7,_Trial_,End,1687412079175,5da760eae8174b001640d369,5da760eae8174b001640d369,5,book,critical,A,50,book40.jpg,book60.jpg,low,NULL
1687412093,3f3936bfd30b9e308ca6a28138dc341d,PennController,16,0,experiment,NULL,PennController,14,_Trial_,Start,1687412079176,5da760eae8174b001640d369,5da760eae8174b001640d369,12,erase,critical,A,75,erase66.jpg,erase84.jpg,low,NULL
1687412093,3f3936bfd30b9e308ca6a28138dc341d,PennController,16,0,experiment,NULL,PennController,14,_Header_,Start,1687412079176,5da760eae8174b001640d369,5da760eae8174b001640d369,12,erase,critical,A,75,erase66.jpg,erase84.jpg,low,NULL
1687412093,3f3936bfd30b9e308ca6a28138dc341d,PennController,16,0,experiment,NULL,PennController,14,_Header_,End,1687412079176,5da760eae8174b001640d369,5da760eae8174b001640d369,12,erase,critical,A,75,erase66.jpg,erase84.jpg,low,NULL
1687412093,3f3936bfd30b9e308ca6a28138dc341d,PennController,16,0,experiment,NULL,Canvas,canvas6,Print,NA,1687412088846,5da760eae8174b001640d369,5da760eae8174b001640d369,12,erase,critical,A,75,erase66.jpg,erase84.jpg,low,NULL
1687412093,3f3936bfd30b9e308ca6a28138dc341d,PennController,16,0,experiment,NULL,Video,progression,buffer,0.002021,1687412082690,5da760eae8174b001640d369,5da760eae8174b001640d369,12,erase,critical,A,75,erase66.jpg,erase84.jpg,low,NULL
1687412093,3f3936bfd30b9e308ca6a28138dc341d,PennController,16,0,experiment,NULL,Selector,choice,Selection,option2,1687412090213,5da760eae8174b001640d369,5da760eae8174b001640d369,12,erase,critical,A,75,erase66.jpg,erase84.jpg,low,option2;option1
1687412093,3f3936bfd30b9e308ca6a28138dc341d,PennController,16,0,experiment,NULL,PennController,14,_Trial_,End,1687412090214,5da760eae8174b001640d369,5da760eae8174b001640d369,12,erase,critical,A,75,erase66.jpg,erase84.jpg,low,NULL
1687412093,3f3936bfd30b9e308ca6a28138dc341d,PennController,7,0,experiment,NULL,PennController,5,_Trial_,Start,1687412090214,5da760eae8174b001640d369,5da760eae8174b001640d369,3,clean,critical,A,75,clean65.jpg,clean85.jpg,low,NULL
1687412093,3f3936bfd30b9e308ca6a28138dc341d,PennController,7,0,experiment,NULL,PennController,5,_Header_,Start,1687412090214,5da760eae8174b001640d369,5da760eae8174b001640d369,3,clean,critical,A,75,clean65.jpg,clean85.jpg,low,NULL
1687412093,3f3936bfd30b9e308ca6a28138dc341d,PennController,7,0,experiment,NULL,PennController,5,_Header_,End,1687412090214,5da760eae8174b001640d369,5da760eae8174b001640d369,3,clean,critical,A,75,clean65.jpg,clean85.jpg,low,NULL
1687412093,3f3936bfd30b9e308ca6a28138dc341d,PennController,7,0,experiment,NULL,Canvas,canvas6,Print,NA,1687412097896,5da760eae8174b001640d369,5da760eae8174b001640d369,3,clean,critical,A,75,clean65.jpg,clean85.jpg,low,NULL
1687412093,3f3936bfd30b9e308ca6a28138dc341d,PennController,7,0,experiment,NULL,Video,progression,buffer,0.001442,1687412093731,5da760eae8174b001640d369,5da760eae8174b001640d369,3,clean,critical,A,75,clean65.jpg,clean85.jpg,low,NULL
1687412093,3f3936bfd30b9e308ca6a28138dc341d,PennController,7,0,experiment,NULL,Selector,choice,Selection,option1,1687412099058,5da760eae8174b001640d369,5da760eae8174b001640d369,3,clean,critical,A,75,clean65.jpg,clean85.jpg,low,option1;option2
1687412093,3f3936bfd30b9e308ca6a28138dc341d,PennController,7,0,experiment,NULL,PennController,5,_Trial_,End,1687412099059,5da760eae8174b001640d369,5da760eae8174b001640d369,3,clean,critical,A,75,clean65.jpg,clean85.jpg,low,NULL
1687412093,3f3936bfd30b9e308ca6a28138dc341d,PennController,24,0,experiment,NULL,PennController,22,_Trial_,Start,1687412099060,5da760eae8174b001640d369,5da760eae8174b001640d369,20,cat,filler,A,50,cat40.jpg,cat60.jpg,GoalB,NULL
1687412093,3f3936bfd30b9e308ca6a28138dc341d,PennController,24,0,experiment,NULL,PennController,22,_Header_,Start,1687412099060,5da760eae8174b001640d369,5da760eae8174b001640d369,20,cat,filler,A,50,cat40.jpg,cat60.jpg,GoalB,NULL
1687412093,3f3936bfd30b9e308ca6a28138dc341d,PennController,24,0,experiment,NULL,PennController,22,_Header_,End,1687412099060,5da760eae8174b001640d369,5da760eae8174b001640d369,20,cat,filler,A,50,cat40.jpg,cat60.jpg,GoalB,NULL
1687412093,3f3936bfd30b9e308ca6a28138dc341d,PennController,24,0,experiment,NULL,Canvas,canvas6,Print,NA,1687412105747,5da760eae8174b001640d369,5da760eae8174b001640d369,20,cat,filler,A,50,cat40.jpg,cat60.jpg,GoalB,NULL
1687412093,3f3936bfd30b9e308ca6a28138dc341d,PennController,24,0,experiment,NULL,Video,progression,buffer,0.002791,1687412102577,5da760eae8174b001640d369,5da760eae8174b001640d369,20,cat,filler,A,50,cat40.jpg,cat60.jpg,GoalB,NULL
1687412093,3f3936bfd30b9e308ca6a28138dc341d,PennController,24,0,experiment,NULL,Selector,choice,Selection,option2,1687412107194,5da760eae8174b001640d369,5da760eae8174b001640d369,20,cat,filler,A,50,cat40.jpg,cat60.jpg,GoalB,option1;option2
1687412093,3f3936bfd30b9e308ca6a28138dc341d,PennController,24,0,experiment,NULL,PennController,22,_Trial_,End,1687412107195,5da760eae8174b001640d369,5da760eae8174b001640d369,20,cat,filler,A,50,cat40.jpg,cat60.jpg,GoalB,NULL
1687412093,3f3936bfd30b9e308ca6a28138dc341d,PennController,33,0,experiment,NULL,PennController,31,_Trial_,Start,1687412107195,5da760eae8174b001640d369,5da760eae8174b001640d369,29,frog,filler,A,50,frog40.jpg,frog60.jpg,GoalA,NULL
1687412093,3f3936bfd30b9e308ca6a28138dc341d,PennController,33,0,experiment,NULL,PennController,31,_Header_,Start,1687412107195,5da760eae8174b001640d369,5da760eae8174b001640d369,29,frog,filler,A,50,frog40.jpg,frog60.jpg,GoalA,NULL
1687412093,3f3936bfd30b9e308ca6a28138dc341d,PennController,33,0,experiment,NULL,PennController,31,_Header_,End,1687412107195,5da760eae8174b001640d369,5da760eae8174b001640d369,29,frog,filler,A,50,frog40.jpg,frog60.jpg,GoalA,NULL
1687412093,3f3936bfd30b9e308ca6a28138dc341d,PennController,33,0,experiment,NULL,Canvas,canvas6,Print,NA,1687412113881,5da760eae8174b001640d369,5da760eae8174b001640d369,29,frog,filler,A,50,frog40.jpg,frog60.jpg,GoalA,NULL
1687412093,3f3936bfd30b9e308ca6a28138dc341d,PennController,33,0,experiment,NULL,Video,progression,buffer,0.002021,1687412110712,5da760eae8174b001640d369,5da760eae8174b001640d369,29,frog,filler,A,50,frog40.jpg,frog60.jpg,GoalA,NULL
1687412093,3f3936bfd30b9e308ca6a28138dc341d,PennController,33,0,experiment,NULL,Selector,choice,Selection,option1,1687412115275,5da760eae8174b001640d369,5da760eae8174b001640d369,29,frog,filler,A,50,frog40.jpg,frog60.jpg,GoalA,option1;option2
1687412093,3f3936bfd30b9e308ca6a28138dc341d,PennController,33,0,experiment,NULL,PennController,31,_Trial_,End,1687412115276,5da760eae8174b001640d369,5da760eae8174b001640d369,29,frog,filler,A,50,frog40.jpg,frog60.jpg,GoalA,NULL
