#
# Results on Tuesday June 20 2023 18:56:38 UTC
# USER AGENT: Mozilla/5.0 (Windows NT 10.0; Win64; x64) AppleWebKit/537.36 (KHTML, like Gecko) Chrome/114.0.0.0 Safari/537.36
# Design number was non-random = 3
#
# Columns below this comment are as follows:
# 1. Results reception time.
# 2. MD5 hash of participant's IP address.
# 3. Controller name.
# 4. Order number of item.
# 5. Inner element number.
# 6. Label.
# 7. Latin Square Group.
# 8. PennElementType.
# 9. PennElementName.
# 10. Parameter.
# 11. Value.
# 12. EventTime.
# 13. PROLIFIC_ID.
# 14. Comments.
1687287398,4720c77061e2d7a4f135a0fbdca5a225,PennController,2,0,consent,NULL,PennController,0,_Trial_,Start,1687287054967,6157481bc73bba8566fed3be,NULL
1687287398,4720c77061e2d7a4f135a0fbdca5a225,PennController,2,0,consent,NULL,PennController,0,_Header_,Start,1687287054967,6157481bc73bba8566fed3be,NULL
1687287398,4720c77061e2d7a4f135a0fbdca5a225,PennController,2,0,consent,NULL,PennController,0,_Header_,End,1687287054967,6157481bc73bba8566fed3be,NULL
1687287398,4720c77061e2d7a4f135a0fbdca5a225,PennController,2,0,consent,NULL,PennController,0,_Trial_,End,1687287072892,6157481bc73bba8566fed3be,NULL
# Columns below this comment are as follows:
# 14. ID.
# 15. Comments.
1687287398,4720c77061e2d7a4f135a0fbdca5a225,PennController,3,0,intro,NULL,PennController,1,_Trial_,Start,1687287072895,6157481bc73bba8566fed3be,6157481bc73bba8566fed3be,NULL
1687287398,4720c77061e2d7a4f135a0fbdca5a225,PennController,3,0,intro,NULL,PennController,1,_Header_,Start,1687287072895,6157481bc73bba8566fed3be,6157481bc73bba8566fed3be,NULL
1687287398,4720c77061e2d7a4f135a0fbdca5a225,PennController,3,0,intro,NULL,PennController,1,_Header_,End,1687287072895,6157481bc73bba8566fed3be,6157481bc73bba8566fed3be,NULL
1687287398,4720c77061e2d7a4f135a0fbdca5a225,PennController,3,0,intro,NULL,PennController,1,_Trial_,End,1687287088544,6157481bc73bba8566fed3be,6157481bc73bba8566fed3be,NULL
# Columns below this comment are as follows:
# 15. item_number.
# 16. item.
# 17. type.
# 18. Group.
# 19. prog.
# 20. prev_image.
# 21. next_image.
# 22. height.
# 23. Comments.
1687287398,4720c77061e2d7a4f135a0fbdca5a225,PennController,8,0,experiment,NULL,PennController,7,_Trial_,Start,1687287088546,6157481bc73bba8566fed3be,6157481bc73bba8566fed3be,5,book,critical,D,50,book40.jpg,book60.jpg,high,NULL
1687287398,4720c77061e2d7a4f135a0fbdca5a225,PennController,8,0,experiment,NULL,PennController,7,_Header_,Start,1687287088546,6157481bc73bba8566fed3be,6157481bc73bba8566fed3be,5,book,critical,D,50,book40.jpg,book60.jpg,high,NULL
1687287398,4720c77061e2d7a4f135a0fbdca5a225,PennController,8,0,experiment,NULL,PennController,7,_Header_,End,1687287088546,6157481bc73bba8566fed3be,6157481bc73bba8566fed3be,5,book,critical,D,50,book40.jpg,book60.jpg,high,NULL
1687287398,4720c77061e2d7a4f135a0fbdca5a225,PennController,8,0,experiment,NULL,Canvas,canvas6,Print,NA,1687287095239,6157481bc73bba8566fed3be,6157481bc73bba8566fed3be,5,book,critical,D,50,book40.jpg,book60.jpg,high,NULL
1687287398,4720c77061e2d7a4f135a0fbdca5a225,PennController,8,0,experiment,NULL,Video,progression,buffer,0.003548,1687287092081,6157481bc73bba8566fed3be,6157481bc73bba8566fed3be,5,book,critical,D,50,book40.jpg,book60.jpg,high,NULL
1687287398,4720c77061e2d7a4f135a0fbdca5a225,PennController,8,0,experiment,NULL,Selector,choice,Selection,option2,1687287102031,6157481bc73bba8566fed3be,6157481bc73bba8566fed3be,5,book,critical,D,50,book40.jpg,book60.jpg,high,option2;option1
1687287398,4720c77061e2d7a4f135a0fbdca5a225,PennController,8,0,experiment,NULL,PennController,7,_Trial_,End,1687287102033,6157481bc73bba8566fed3be,6157481bc73bba8566fed3be,5,book,critical,D,50,book40.jpg,book60.jpg,high,NULL
1687287398,4720c77061e2d7a4f135a0fbdca5a225,PennController,24,0,experiment,NULL,PennController,23,_Trial_,Start,1687287102034,6157481bc73bba8566fed3be,6157481bc73bba8566fed3be,21,visit,filler,D,75,visit65.jpg,visit85.jpg,GoalB,NULL
1687287398,4720c77061e2d7a4f135a0fbdca5a225,PennController,24,0,experiment,NULL,PennController,23,_Header_,Start,1687287102034,6157481bc73bba8566fed3be,6157481bc73bba8566fed3be,21,visit,filler,D,75,visit65.jpg,visit85.jpg,GoalB,NULL
1687287398,4720c77061e2d7a4f135a0fbdca5a225,PennController,24,0,experiment,NULL,PennController,23,_Header_,End,1687287102034,6157481bc73bba8566fed3be,6157481bc73bba8566fed3be,21,visit,filler,D,75,visit65.jpg,visit85.jpg,GoalB,NULL
1687287398,4720c77061e2d7a4f135a0fbdca5a225,PennController,24,0,experiment,NULL,Canvas,canvas6,Print,NA,1687287109725,6157481bc73bba8566fed3be,6157481bc73bba8566fed3be,21,visit,filler,D,75,visit65.jpg,visit85.jpg,GoalB,NULL
1687287398,4720c77061e2d7a4f135a0fbdca5a225,PennController,24,0,experiment,NULL,Video,progression,buffer,0.002585,1687287105558,6157481bc73bba8566fed3be,6157481bc73bba8566fed3be,21,visit,filler,D,75,visit65.jpg,visit85.jpg,GoalB,NULL
1687287398,4720c77061e2d7a4f135a0fbdca5a225,PennController,24,0,experiment,NULL,Selector,choice,Selection,option2,1687287111095,6157481bc73bba8566fed3be,6157481bc73bba8566fed3be,21,visit,filler,D,75,visit65.jpg,visit85.jpg,GoalB,option2;option1
1687287398,4720c77061e2d7a4f135a0fbdca5a225,PennController,24,0,experiment,NULL,PennController,23,_Trial_,End,1687287111097,6157481bc73bba8566fed3be,6157481bc73bba8566fed3be,21,visit,filler,D,75,visit65.jpg,visit85.jpg,GoalB,NULL
1687287398,4720c77061e2d7a4f135a0fbdca5a225,PennController,30,0,experiment,NULL,PennController,29,_Trial_,Start,1687287111098,6157481bc73bba8566fed3be,6157481bc73bba8566fed3be,27,square,filler,D,75,square65.jpg,square85.jpg,GoalB,NULL
1687287398,4720c77061e2d7a4f135a0fbdca5a225,PennController,30,0,experiment,NULL,PennController,29,_Header_,Start,1687287111098,6157481bc73bba8566fed3be,6157481bc73bba8566fed3be,27,square,filler,D,75,square65.jpg,square85.jpg,GoalB,NULL
1687287398,4720c77061e2d7a4f135a0fbdca5a225,PennController,30,0,experiment,NULL,PennController,29,_Header_,End,1687287111098,6157481bc73bba8566fed3be,6157481bc73bba8566fed3be,27,square,filler,D,75,square65.jpg,square85.jpg,GoalB,NULL
1687287398,4720c77061e2d7a4f135a0fbdca5a225,PennController,30,0,experiment,NULL,Canvas,canvas6,Print,NA,1687287118787,6157481bc73bba8566fed3be,6157481bc73bba8566fed3be,27,square,filler,D,75,square65.jpg,square85.jpg,GoalB,NULL
1687287398,4720c77061e2d7a4f135a0fbdca5a225,PennController,30,0,experiment,NULL,Video,progression,buffer,0.004391,1687287114622,6157481bc73bba8566fed3be,6157481bc73bba8566fed3be,27,square,filler,D,75,square65.jpg,square85.jpg,GoalB,NULL
1687287398,4720c77061e2d7a4f135a0fbdca5a225,PennController,30,0,experiment,NULL,Selector,choice,Selection,option2,1687287121359,6157481bc73bba8566fed3be,6157481bc73bba8566fed3be,27,square,filler,D,75,square65.jpg,square85.jpg,GoalB,option1;option2
1687287398,4720c77061e2d7a4f135a0fbdca5a225,PennController,30,0,experiment,NULL,PennController,29,_Trial_,End,1687287121360,6157481bc73bba8566fed3be,6157481bc73bba8566fed3be,27,square,filler,D,75,square65.jpg,square85.jpg,GoalB,NULL
1687287398,4720c77061e2d7a4f135a0fbdca5a225,PennController,32,0,experiment,NULL,PennController,31,_Trial_,Start,1687287121362,6157481bc73bba8566fed3be,6157481bc73bba8566fed3be,29,frog,filler,D,50,frog40.jpg,frog60.jpg,GoalB,NULL
1687287398,4720c77061e2d7a4f135a0fbdca5a225,PennController,32,0,experiment,NULL,PennController,31,_Header_,Start,1687287121362,6157481bc73bba8566fed3be,6157481bc73bba8566fed3be,29,frog,filler,D,50,frog40.jpg,frog60.jpg,GoalB,NULL
1687287398,4720c77061e2d7a4f135a0fbdca5a225,PennController,32,0,experiment,NULL,PennController,31,_Header_,End,1687287121362,6157481bc73bba8566fed3be,6157481bc73bba8566fed3be,29,frog,filler,D,50,frog40.jpg,frog60.jpg,GoalB,NULL
1687287398,4720c77061e2d7a4f135a0fbdca5a225,PennController,32,0,experiment,NULL,Canvas,canvas6,Print,NA,1687287128038,6157481bc73bba8566fed3be,6157481bc73bba8566fed3be,29,frog,filler,D,50,frog40.jpg,frog60.jpg,GoalB,NULL
1687287398,4720c77061e2d7a4f135a0fbdca5a225,PennController,32,0,experiment,NULL,Video,progression,buffer,0.003038,1687287124882,6157481bc73bba8566fed3be,6157481bc73bba8566fed3be,29,frog,filler,D,50,frog40.jpg,frog60.jpg,GoalB,NULL
1687287398,4720c77061e2d7a4f135a0fbdca5a225,PennController,32,0,experiment,NULL,Selector,choice,Selection,option2,1687287129543,6157481bc73bba8566fed3be,6157481bc73bba8566fed3be,29,frog,filler,D,50,frog40.jpg,frog60.jpg,GoalB,option1;option2
1687287398,4720c77061e2d7a4f135a0fbdca5a225,PennController,32,0,experiment,NULL,PennController,31,_Trial_,End,1687287129545,6157481bc73bba8566fed3be,6157481bc73bba8566fed3be,29,frog,filler,D,50,frog40.jpg,frog60.jpg,GoalB,NULL
1687287398,4720c77061e2d7a4f135a0fbdca5a225,PennController,26,0,experiment,NULL,PennController,25,_Trial_,Start,1687287129546,6157481bc73bba8566fed3be,6157481bc73bba8566fed3be,23,color,filler,D,50,color40.jpg,color60.jpg,GoalB,NULL
1687287398,4720c77061e2d7a4f135a0fbdca5a225,PennController,26,0,experiment,NULL,PennController,25,_Header_,Start,1687287129546,6157481bc73bba8566fed3be,6157481bc73bba8566fed3be,23,color,filler,D,50,color40.jpg,color60.jpg,GoalB,NULL
1687287398,4720c77061e2d7a4f135a0fbdca5a225,PennController,26,0,experiment,NULL,PennController,25,_Header_,End,1687287129546,6157481bc73bba8566fed3be,6157481bc73bba8566fed3be,23,color,filler,D,50,color40.jpg,color60.jpg,GoalB,NULL
1687287398,4720c77061e2d7a4f135a0fbdca5a225,PennController,26,0,experiment,NULL,Canvas,canvas6,Print,NA,1687287136220,6157481bc73bba8566fed3be,6157481bc73bba8566fed3be,23,color,filler,D,50,color40.jpg,color60.jpg,GoalB,NULL
1687287398,4720c77061e2d7a4f135a0fbdca5a225,PennController,26,0,experiment,NULL,Video,progression,buffer,0.003092,1687287133066,6157481bc73bba8566fed3be,6157481bc73bba8566fed3be,23,color,filler,D,50,color40.jpg,color60.jpg,GoalB,NULL
1687287398,4720c77061e2d7a4f135a0fbdca5a225,PennController,26,0,experiment,NULL,Selector,choice,Selection,option2,1687287138975,6157481bc73bba8566fed3be,6157481bc73bba8566fed3be,23,color,filler,D,50,color40.jpg,color60.jpg,GoalB,option1;option2
1687287398,4720c77061e2d7a4f135a0fbdca5a225,PennController,26,0,experiment,NULL,PennController,25,_Trial_,End,1687287138976,6157481bc73bba8566fed3be,6157481bc73bba8566fed3be,23,color,filler,D,50,color40.jpg,color60.jpg,GoalB,NULL
1687287398,4720c77061e2d7a4f135a0fbdca5a225,PennController,21,0,experiment,NULL,PennController,20,_Trial_,Start,1687287138977,6157481bc73bba8566fed3be,6157481bc73bba8566fed3be,18,ball,critical,D,75,ball65.jpg,ball85.jpg,high,NULL
1687287398,4720c77061e2d7a4f135a0fbdca5a225,PennController,21,0,experiment,NULL,PennController,20,_Header_,Start,1687287138977,6157481bc73bba8566fed3be,6157481bc73bba8566fed3be,18,ball,critical,D,75,ball65.jpg,ball85.jpg,high,NULL
1687287398,4720c77061e2d7a4f135a0fbdca5a225,PennController,21,0,experiment,NULL,PennController,20,_Header_,End,1687287138977,6157481bc73bba8566fed3be,6157481bc73bba8566fed3be,18,ball,critical,D,75,ball65.jpg,ball85.jpg,high,NULL
1687287398,4720c77061e2d7a4f135a0fbdca5a225,PennController,21,0,experiment,NULL,Canvas,canvas6,Print,NA,1687287146653,6157481bc73bba8566fed3be,6157481bc73bba8566fed3be,18,ball,critical,D,75,ball65.jpg,ball85.jpg,high,NULL
1687287398,4720c77061e2d7a4f135a0fbdca5a225,PennController,21,0,experiment,NULL,Video,progression,buffer,0.00263,1687287142499,6157481bc73bba8566fed3be,6157481bc73bba8566fed3be,18,ball,critical,D,75,ball65.jpg,ball85.jpg,high,NULL
1687287398,4720c77061e2d7a4f135a0fbdca5a225,PennController,21,0,experiment,NULL,Selector,choice,Selection,option1,1687287149175,6157481bc73bba8566fed3be,6157481bc73bba8566fed3be,18,ball,critical,D,75,ball65.jpg,ball85.jpg,high,option2;option1
1687287398,4720c77061e2d7a4f135a0fbdca5a225,PennController,21,0,experiment,NULL,PennController,20,_Trial_,End,1687287149177,6157481bc73bba8566fed3be,6157481bc73bba8566fed3be,18,ball,critical,D,75,ball65.jpg,ball85.jpg,high,NULL
1687287398,4720c77061e2d7a4f135a0fbdca5a225,PennController,23,0,experiment,NULL,PennController,22,_Trial_,Start,1687287149178,6157481bc73bba8566fed3be,6157481bc73bba8566fed3be,20,cat,filler,D,50,cat40.jpg,cat60.jpg,GoalA,NULL
1687287398,4720c77061e2d7a4f135a0fbdca5a225,PennController,23,0,experiment,NULL,PennController,22,_Header_,Start,1687287149178,6157481bc73bba8566fed3be,6157481bc73bba8566fed3be,20,cat,filler,D,50,cat40.jpg,cat60.jpg,GoalA,NULL
1687287398,4720c77061e2d7a4f135a0fbdca5a225,PennController,23,0,experiment,NULL,PennController,22,_Header_,End,1687287149178,6157481bc73bba8566fed3be,6157481bc73bba8566fed3be,20,cat,filler,D,50,cat40.jpg,cat60.jpg,GoalA,NULL
1687287398,4720c77061e2d7a4f135a0fbdca5a225,PennController,23,0,experiment,NULL,Canvas,canvas6,Print,NA,1687287155856,6157481bc73bba8566fed3be,6157481bc73bba8566fed3be,20,cat,filler,D,50,cat40.jpg,cat60.jpg,GoalA,NULL
1687287398,4720c77061e2d7a4f135a0fbdca5a225,PennController,23,0,experiment,NULL,Video,progression,buffer,0.002689,1687287152695,6157481bc73bba8566fed3be,6157481bc73bba8566fed3be,20,cat,filler,D,50,cat40.jpg,cat60.jpg,GoalA,NULL
1687287398,4720c77061e2d7a4f135a0fbdca5a225,PennController,23,0,experiment,NULL,Selector,choice,Selection,option2,1687287156943,6157481bc73bba8566fed3be,6157481bc73bba8566fed3be,20,cat,filler,D,50,cat40.jpg,cat60.jpg,GoalA,option2;option1
1687287398,4720c77061e2d7a4f135a0fbdca5a225,PennController,23,0,experiment,NULL,PennController,22,_Trial_,End,1687287156944,6157481bc73bba8566fed3be,6157481bc73bba8566fed3be,20,cat,filler,D,50,cat40.jpg,cat60.jpg,GoalA,NULL
1687287398,4720c77061e2d7a4f135a0fbdca5a225,PennController,10,0,experiment,NULL,PennController,9,_Trial_,Start,1687287156945,6157481bc73bba8566fed3be,6157481bc73bba8566fed3be,7,stack,critical,D,25,stack15.jpg,stack35.jpg,high,NULL
1687287398,4720c77061e2d7a4f135a0fbdca5a225,PennController,10,0,experiment,NULL,PennController,9,_Header_,Start,1687287156945,6157481bc73bba8566fed3be,6157481bc73bba8566fed3be,7,stack,critical,D,25,stack15.jpg,stack35.jpg,high,NULL
1687287398,4720c77061e2d7a4f135a0fbdca5a225,PennController,10,0,experiment,NULL,PennController,9,_Header_,End,1687287156945,6157481bc73bba8566fed3be,6157481bc73bba8566fed3be,7,stack,critical,D,25,stack15.jpg,stack35.jpg,high,NULL
1687287398,4720c77061e2d7a4f135a0fbdca5a225,PennController,10,0,experiment,NULL,Canvas,canvas6,Print,NA,1687287162619,6157481bc73bba8566fed3be,6157481bc73bba8566fed3be,7,stack,critical,D,25,stack15.jpg,stack35.jpg,high,NULL
1687287398,4720c77061e2d7a4f135a0fbdca5a225,PennController,10,0,experiment,NULL,Video,progression,buffer,0.0024,1687287160457,6157481bc73bba8566fed3be,6157481bc73bba8566fed3be,7,stack,critical,D,25,stack15.jpg,stack35.jpg,high,NULL
1687287398,4720c77061e2d7a4f135a0fbdca5a225,PennController,10,0,experiment,NULL,Selector,choice,Selection,option2,1687287164448,6157481bc73bba8566fed3be,6157481bc73bba8566fed3be,7,stack,critical,D,25,stack15.jpg,stack35.jpg,high,option1;option2
1687287398,4720c77061e2d7a4f135a0fbdca5a225,PennController,10,0,experiment,NULL,PennController,9,_Trial_,End,1687287164449,6157481bc73bba8566fed3be,6157481bc73bba8566fed3be,7,stack,critical,D,25,stack15.jpg,stack35.jpg,high,NULL
1687287398,4720c77061e2d7a4f135a0fbdca5a225,PennController,15,0,experiment,NULL,PennController,14,_Trial_,Start,1687287164450,6157481bc73bba8566fed3be,6157481bc73bba8566fed3be,12,erase,critical,D,75,erase66.jpg,erase84.jpg,high,NULL
1687287398,4720c77061e2d7a4f135a0fbdca5a225,PennController,15,0,experiment,NULL,PennController,14,_Header_,Start,1687287164450,6157481bc73bba8566fed3be,6157481bc73bba8566fed3be,12,erase,critical,D,75,erase66.jpg,erase84.jpg,high,NULL
1687287398,4720c77061e2d7a4f135a0fbdca5a225,PennController,15,0,experiment,NULL,PennController,14,_Header_,End,1687287164450,6157481bc73bba8566fed3be,6157481bc73bba8566fed3be,12,erase,critical,D,75,erase66.jpg,erase84.jpg,high,NULL
1687287398,4720c77061e2d7a4f135a0fbdca5a225,PennController,15,0,experiment,NULL,Canvas,canvas6,Print,NA,1687287174135,6157481bc73bba8566fed3be,6157481bc73bba8566fed3be,12,erase,critical,D,75,erase66.jpg,erase84.jpg,high,NULL
1687287398,4720c77061e2d7a4f135a0fbdca5a225,PennController,15,0,experiment,NULL,Video,progression,buffer,0.003725,1687287167968,6157481bc73bba8566fed3be,6157481bc73bba8566fed3be,12,erase,critical,D,75,erase66.jpg,erase84.jpg,high,NULL
1687287398,4720c77061e2d7a4f135a0fbdca5a225,PennController,15,0,experiment,NULL,Selector,choice,Selection,option2,1687287177270,6157481bc73bba8566fed3be,6157481bc73bba8566fed3be,12,erase,critical,D,75,erase66.jpg,erase84.jpg,high,option2;option1
1687287398,4720c77061e2d7a4f135a0fbdca5a225,PennController,15,0,experiment,NULL,PennController,14,_Trial_,End,1687287177272,6157481bc73bba8566fed3be,6157481bc73bba8566fed3be,12,erase,critical,D,75,erase66.jpg,erase84.jpg,high,NULL
1687287398,4720c77061e2d7a4f135a0fbdca5a225,PennController,16,0,experiment,NULL,PennController,15,_Trial_,Start,1687287177273,6157481bc73bba8566fed3be,6157481bc73bba8566fed3be,13,mix,critical,D,25,mix15.jpg,mix35.jpg,high,NULL
1687287398,4720c77061e2d7a4f135a0fbdca5a225,PennController,16,0,experiment,NULL,PennController,15,_Header_,Start,1687287177273,6157481bc73bba8566fed3be,6157481bc73bba8566fed3be,13,mix,critical,D,25,mix15.jpg,mix35.jpg,high,NULL
1687287398,4720c77061e2d7a4f135a0fbdca5a225,PennController,16,0,experiment,NULL,PennController,15,_Header_,End,1687287177273,6157481bc73bba8566fed3be,6157481bc73bba8566fed3be,13,mix,critical,D,25,mix15.jpg,mix35.jpg,high,NULL
1687287398,4720c77061e2d7a4f135a0fbdca5a225,PennController,16,0,experiment,NULL,Canvas,canvas6,Print,NA,1687287182954,6157481bc73bba8566fed3be,6157481bc73bba8566fed3be,13,mix,critical,D,25,mix15.jpg,mix35.jpg,high,NULL
1687287398,4720c77061e2d7a4f135a0fbdca5a225,PennController,16,0,experiment,NULL,Video,progression,buffer,0.002785,1687287180788,6157481bc73bba8566fed3be,6157481bc73bba8566fed3be,13,mix,critical,D,25,mix15.jpg,mix35.jpg,high,NULL
1687287398,4720c77061e2d7a4f135a0fbdca5a225,PennController,16,0,experiment,NULL,Selector,choice,Selection,option1,1687287184615,6157481bc73bba8566fed3be,6157481bc73bba8566fed3be,13,mix,critical,D,25,mix15.jpg,mix35.jpg,high,option1;option2
1687287398,4720c77061e2d7a4f135a0fbdca5a225,PennController,16,0,experiment,NULL,PennController,15,_Trial_,End,1687287184616,6157481bc73bba8566fed3be,6157481bc73bba8566fed3be,13,mix,critical,D,25,mix15.jpg,mix35.jpg,high,NULL
1687287398,4720c77061e2d7a4f135a0fbdca5a225,PennController,18,0,experiment,NULL,PennController,17,_Trial_,Start,1687287184616,6157481bc73bba8566fed3be,6157481bc73bba8566fed3be,15,zip,critical,D,75,zip65.jpg,zip85.jpg,high,NULL
1687287398,4720c77061e2d7a4f135a0fbdca5a225,PennController,18,0,experiment,NULL,PennController,17,_Header_,Start,1687287184616,6157481bc73bba8566fed3be,6157481bc73bba8566fed3be,15,zip,critical,D,75,zip65.jpg,zip85.jpg,high,NULL
1687287398,4720c77061e2d7a4f135a0fbdca5a225,PennController,18,0,experiment,NULL,PennController,17,_Header_,End,1687287184617,6157481bc73bba8566fed3be,6157481bc73bba8566fed3be,15,zip,critical,D,75,zip65.jpg,zip85.jpg,high,NULL
1687287398,4720c77061e2d7a4f135a0fbdca5a225,PennController,18,0,experiment,NULL,Canvas,canvas6,Print,NA,1687287191501,6157481bc73bba8566fed3be,6157481bc73bba8566fed3be,15,zip,critical,D,75,zip65.jpg,zip85.jpg,high,NULL
1687287398,4720c77061e2d7a4f135a0fbdca5a225,PennController,18,0,experiment,NULL,Video,progression,buffer,0.003998,1687287188134,6157481bc73bba8566fed3be,6157481bc73bba8566fed3be,15,zip,critical,D,75,zip65.jpg,zip85.jpg,high,NULL
1687287398,4720c77061e2d7a4f135a0fbdca5a225,PennController,18,0,experiment,NULL,Selector,choice,Selection,option2,1687287196014,6157481bc73bba8566fed3be,6157481bc73bba8566fed3be,15,zip,critical,D,75,zip65.jpg,zip85.jpg,high,option1;option2
1687287398,4720c77061e2d7a4f135a0fbdca5a225,PennController,18,0,experiment,NULL,PennController,17,_Trial_,End,1687287196015,6157481bc73bba8566fed3be,6157481bc73bba8566fed3be,15,zip,critical,D,75,zip65.jpg,zip85.jpg,high,NULL
1687287398,4720c77061e2d7a4f135a0fbdca5a225,PennController,5,0,experiment,NULL,PennController,4,_Trial_,Start,1687287196017,6157481bc73bba8566fed3be,6157481bc73bba8566fed3be,2,door,critical,D,50,door40.jpg,door60.jpg,high,NULL
1687287398,4720c77061e2d7a4f135a0fbdca5a225,PennController,5,0,experiment,NULL,PennController,4,_Header_,Start,1687287196017,6157481bc73bba8566fed3be,6157481bc73bba8566fed3be,2,door,critical,D,50,door40.jpg,door60.jpg,high,NULL
1687287398,4720c77061e2d7a4f135a0fbdca5a225,PennController,5,0,experiment,NULL,PennController,4,_Header_,End,1687287196017,6157481bc73bba8566fed3be,6157481bc73bba8566fed3be,2,door,critical,D,50,door40.jpg,door60.jpg,high,NULL
1687287398,4720c77061e2d7a4f135a0fbdca5a225,PennController,5,0,experiment,NULL,Canvas,canvas6,Print,NA,1687287202721,6157481bc73bba8566fed3be,6157481bc73bba8566fed3be,2,door,critical,D,50,door40.jpg,door60.jpg,high,NULL
1687287398,4720c77061e2d7a4f135a0fbdca5a225,PennController,5,0,experiment,NULL,Video,progression,buffer,0,1687287199531,6157481bc73bba8566fed3be,6157481bc73bba8566fed3be,2,door,critical,D,50,door40.jpg,door60.jpg,high,NULL
1687287398,4720c77061e2d7a4f135a0fbdca5a225,PennController,5,0,experiment,NULL,Selector,choice,Selection,option2,1687287204735,6157481bc73bba8566fed3be,6157481bc73bba8566fed3be,2,door,critical,D,50,door40.jpg,door60.jpg,high,option1;option2
1687287398,4720c77061e2d7a4f135a0fbdca5a225,PennController,5,0,experiment,NULL,PennController,4,_Trial_,End,1687287204735,6157481bc73bba8566fed3be,6157481bc73bba8566fed3be,2,door,critical,D,50,door40.jpg,door60.jpg,high,NULL
1687287398,4720c77061e2d7a4f135a0fbdca5a225,PennController,13,0,experiment,NULL,PennController,12,_Trial_,Start,1687287204736,6157481bc73bba8566fed3be,6157481bc73bba8566fed3be,10,train,critical,D,25,train15.jpg,train35.jpg,high,NULL
1687287398,4720c77061e2d7a4f135a0fbdca5a225,PennController,13,0,experiment,NULL,PennController,12,_Header_,Start,1687287204736,6157481bc73bba8566fed3be,6157481bc73bba8566fed3be,10,train,critical,D,25,train15.jpg,train35.jpg,high,NULL
1687287398,4720c77061e2d7a4f135a0fbdca5a225,PennController,13,0,experiment,NULL,PennController,12,_Header_,End,1687287204736,6157481bc73bba8566fed3be,6157481bc73bba8566fed3be,10,train,critical,D,25,train15.jpg,train35.jpg,high,NULL
1687287398,4720c77061e2d7a4f135a0fbdca5a225,PennController,13,0,experiment,NULL,Canvas,canvas6,Print,NA,1687287210419,6157481bc73bba8566fed3be,6157481bc73bba8566fed3be,10,train,critical,D,25,train15.jpg,train35.jpg,high,NULL
1687287398,4720c77061e2d7a4f135a0fbdca5a225,PennController,13,0,experiment,NULL,Video,progression,buffer,0.0033,1687287208252,6157481bc73bba8566fed3be,6157481bc73bba8566fed3be,10,train,critical,D,25,train15.jpg,train35.jpg,high,NULL
1687287398,4720c77061e2d7a4f135a0fbdca5a225,PennController,13,0,experiment,NULL,Selector,choice,Selection,option1,1687287212302,6157481bc73bba8566fed3be,6157481bc73bba8566fed3be,10,train,critical,D,25,train15.jpg,train35.jpg,high,option2;option1
1687287398,4720c77061e2d7a4f135a0fbdca5a225,PennController,13,0,experiment,NULL,PennController,12,_Trial_,End,1687287212303,6157481bc73bba8566fed3be,6157481bc73bba8566fed3be,10,train,critical,D,25,train15.jpg,train35.jpg,high,NULL
1687287398,4720c77061e2d7a4f135a0fbdca5a225,PennController,12,0,experiment,NULL,PennController,11,_Trial_,Start,1687287212305,6157481bc73bba8566fed3be,6157481bc73bba8566fed3be,9,cake,critical,D,75,cake66.jpg,cake84.jpg,high,NULL
1687287398,4720c77061e2d7a4f135a0fbdca5a225,PennController,12,0,experiment,NULL,PennController,11,_Header_,Start,1687287212305,6157481bc73bba8566fed3be,6157481bc73bba8566fed3be,9,cake,critical,D,75,cake66.jpg,cake84.jpg,high,NULL
1687287398,4720c77061e2d7a4f135a0fbdca5a225,PennController,12,0,experiment,NULL,PennController,11,_Header_,End,1687287212305,6157481bc73bba8566fed3be,6157481bc73bba8566fed3be,9,cake,critical,D,75,cake66.jpg,cake84.jpg,high,NULL
1687287398,4720c77061e2d7a4f135a0fbdca5a225,PennController,12,0,experiment,NULL,Canvas,canvas6,Print,NA,1687287221983,6157481bc73bba8566fed3be,6157481bc73bba8566fed3be,9,cake,critical,D,75,cake66.jpg,cake84.jpg,high,NULL
1687287398,4720c77061e2d7a4f135a0fbdca5a225,PennController,12,0,experiment,NULL,Video,progression,buffer,0.002726,1687287215823,6157481bc73bba8566fed3be,6157481bc73bba8566fed3be,9,cake,critical,D,75,cake66.jpg,cake84.jpg,high,NULL
1687287398,4720c77061e2d7a4f135a0fbdca5a225,PennController,12,0,experiment,NULL,Selector,choice,Selection,option1,1687287223414,6157481bc73bba8566fed3be,6157481bc73bba8566fed3be,9,cake,critical,D,75,cake66.jpg,cake84.jpg,high,option1;option2
1687287398,4720c77061e2d7a4f135a0fbdca5a225,PennController,12,0,experiment,NULL,PennController,11,_Trial_,End,1687287223415,6157481bc73bba8566fed3be,6157481bc73bba8566fed3be,9,cake,critical,D,75,cake66.jpg,cake84.jpg,high,NULL
1687287398,4720c77061e2d7a4f135a0fbdca5a225,PennController,29,0,experiment,NULL,PennController,28,_Trial_,Start,1687287223416,6157481bc73bba8566fed3be,6157481bc73bba8566fed3be,26,sandwich,filler,D,50,sandwich40.jpg,sandwich60.jpg,GoalA,NULL
1687287398,4720c77061e2d7a4f135a0fbdca5a225,PennController,29,0,experiment,NULL,PennController,28,_Header_,Start,1687287223416,6157481bc73bba8566fed3be,6157481bc73bba8566fed3be,26,sandwich,filler,D,50,sandwich40.jpg,sandwich60.jpg,GoalA,NULL
1687287398,4720c77061e2d7a4f135a0fbdca5a225,PennController,29,0,experiment,NULL,PennController,28,_Header_,End,1687287223416,6157481bc73bba8566fed3be,6157481bc73bba8566fed3be,26,sandwich,filler,D,50,sandwich40.jpg,sandwich60.jpg,GoalA,NULL
1687287398,4720c77061e2d7a4f135a0fbdca5a225,PennController,29,0,experiment,NULL,Canvas,canvas6,Print,NA,1687287230100,6157481bc73bba8566fed3be,6157481bc73bba8566fed3be,26,sandwich,filler,D,50,sandwich40.jpg,sandwich60.jpg,GoalA,NULL
1687287398,4720c77061e2d7a4f135a0fbdca5a225,PennController,29,0,experiment,NULL,Video,progression,buffer,0.002861,1687287226934,6157481bc73bba8566fed3be,6157481bc73bba8566fed3be,26,sandwich,filler,D,50,sandwich40.jpg,sandwich60.jpg,GoalA,NULL
1687287398,4720c77061e2d7a4f135a0fbdca5a225,PennController,29,0,experiment,NULL,Selector,choice,Selection,option1,1687287231150,6157481bc73bba8566fed3be,6157481bc73bba8566fed3be,26,sandwich,filler,D,50,sandwich40.jpg,sandwich60.jpg,GoalA,option1;option2
1687287398,4720c77061e2d7a4f135a0fbdca5a225,PennController,29,0,experiment,NULL,PennController,28,_Trial_,End,1687287231152,6157481bc73bba8566fed3be,6157481bc73bba8566fed3be,26,sandwich,filler,D,50,sandwich40.jpg,sandwich60.jpg,GoalA,NULL
1687287398,4720c77061e2d7a4f135a0fbdca5a225,PennController,19,0,experiment,NULL,PennController,18,_Trial_,Start,1687287231152,6157481bc73bba8566fed3be,6157481bc73bba8566fed3be,16,blinds,critical,D,25,blinds15.jpg,blinds33.jpg,high,NULL
1687287398,4720c77061e2d7a4f135a0fbdca5a225,PennController,19,0,experiment,NULL,PennController,18,_Header_,Start,1687287231152,6157481bc73bba8566fed3be,6157481bc73bba8566fed3be,16,blinds,critical,D,25,blinds15.jpg,blinds33.jpg,high,NULL
1687287398,4720c77061e2d7a4f135a0fbdca5a225,PennController,19,0,experiment,NULL,PennController,18,_Header_,End,1687287231152,6157481bc73bba8566fed3be,6157481bc73bba8566fed3be,16,blinds,critical,D,25,blinds15.jpg,blinds33.jpg,high,NULL
1687287398,4720c77061e2d7a4f135a0fbdca5a225,PennController,19,0,experiment,NULL,Canvas,canvas6,Print,NA,1687287237436,6157481bc73bba8566fed3be,6157481bc73bba8566fed3be,16,blinds,critical,D,25,blinds15.jpg,blinds33.jpg,high,NULL
1687287398,4720c77061e2d7a4f135a0fbdca5a225,PennController,19,0,experiment,NULL,Video,progression,buffer,0.002546,1687287234670,6157481bc73bba8566fed3be,6157481bc73bba8566fed3be,16,blinds,critical,D,25,blinds15.jpg,blinds33.jpg,high,NULL
1687287398,4720c77061e2d7a4f135a0fbdca5a225,PennController,19,0,experiment,NULL,Selector,choice,Selection,option2,1687287239007,6157481bc73bba8566fed3be,6157481bc73bba8566fed3be,16,blinds,critical,D,25,blinds15.jpg,blinds33.jpg,high,option1;option2
1687287398,4720c77061e2d7a4f135a0fbdca5a225,PennController,19,0,experiment,NULL,PennController,18,_Trial_,End,1687287239008,6157481bc73bba8566fed3be,6157481bc73bba8566fed3be,16,blinds,critical,D,25,blinds15.jpg,blinds33.jpg,high,NULL
1687287398,4720c77061e2d7a4f135a0fbdca5a225,PennController,9,0,experiment,NULL,PennController,8,_Trial_,Start,1687287239009,6157481bc73bba8566fed3be,6157481bc73bba8566fed3be,6,flower,critical,D,75,flower65.jpg,flower85.jpg,high,NULL
1687287398,4720c77061e2d7a4f135a0fbdca5a225,PennController,9,0,experiment,NULL,PennController,8,_Header_,Start,1687287239009,6157481bc73bba8566fed3be,6157481bc73bba8566fed3be,6,flower,critical,D,75,flower65.jpg,flower85.jpg,high,NULL
1687287398,4720c77061e2d7a4f135a0fbdca5a225,PennController,9,0,experiment,NULL,PennController,8,_Header_,End,1687287239010,6157481bc73bba8566fed3be,6157481bc73bba8566fed3be,6,flower,critical,D,75,flower65.jpg,flower85.jpg,high,NULL
1687287398,4720c77061e2d7a4f135a0fbdca5a225,PennController,9,0,experiment,NULL,Canvas,canvas6,Print,NA,1687287246682,6157481bc73bba8566fed3be,6157481bc73bba8566fed3be,6,flower,critical,D,75,flower65.jpg,flower85.jpg,high,NULL
1687287398,4720c77061e2d7a4f135a0fbdca5a225,PennController,9,0,experiment,NULL,Video,progression,buffer,0.002523,1687287242527,6157481bc73bba8566fed3be,6157481bc73bba8566fed3be,6,flower,critical,D,75,flower65.jpg,flower85.jpg,high,NULL
1687287398,4720c77061e2d7a4f135a0fbdca5a225,PennController,9,0,experiment,NULL,Selector,choice,Selection,option2,1687287249016,6157481bc73bba8566fed3be,6157481bc73bba8566fed3be,6,flower,critical,D,75,flower65.jpg,flower85.jpg,high,option2;option1
1687287398,4720c77061e2d7a4f135a0fbdca5a225,PennController,9,0,experiment,NULL,PennController,8,_Trial_,End,1687287249016,6157481bc73bba8566fed3be,6157481bc73bba8566fed3be,6,flower,critical,D,75,flower65.jpg,flower85.jpg,high,NULL
1687287398,4720c77061e2d7a4f135a0fbdca5a225,PennController,31,0,experiment,NULL,PennController,30,_Trial_,Start,1687287249017,6157481bc73bba8566fed3be,6157481bc73bba8566fed3be,28,sort,filler,D,25,sort15.jpg,sort35.jpg,GoalA,NULL
1687287398,4720c77061e2d7a4f135a0fbdca5a225,PennController,31,0,experiment,NULL,PennController,30,_Header_,Start,1687287249017,6157481bc73bba8566fed3be,6157481bc73bba8566fed3be,28,sort,filler,D,25,sort15.jpg,sort35.jpg,GoalA,NULL
1687287398,4720c77061e2d7a4f135a0fbdca5a225,PennController,31,0,experiment,NULL,PennController,30,_Header_,End,1687287249017,6157481bc73bba8566fed3be,6157481bc73bba8566fed3be,28,sort,filler,D,25,sort15.jpg,sort35.jpg,GoalA,NULL
1687287398,4720c77061e2d7a4f135a0fbdca5a225,PennController,31,0,experiment,NULL,Canvas,canvas6,Print,NA,1687287254704,6157481bc73bba8566fed3be,6157481bc73bba8566fed3be,28,sort,filler,D,25,sort15.jpg,sort35.jpg,GoalA,NULL
1687287398,4720c77061e2d7a4f135a0fbdca5a225,PennController,31,0,experiment,NULL,Video,progression,buffer,0.002876,1687287252535,6157481bc73bba8566fed3be,6157481bc73bba8566fed3be,28,sort,filler,D,25,sort15.jpg,sort35.jpg,GoalA,NULL
1687287398,4720c77061e2d7a4f135a0fbdca5a225,PennController,31,0,experiment,NULL,Selector,choice,Selection,option2,1687287256671,6157481bc73bba8566fed3be,6157481bc73bba8566fed3be,28,sort,filler,D,25,sort15.jpg,sort35.jpg,GoalA,option1;option2
1687287398,4720c77061e2d7a4f135a0fbdca5a225,PennController,31,0,experiment,NULL,PennController,30,_Trial_,End,1687287256672,6157481bc73bba8566fed3be,6157481bc73bba8566fed3be,28,sort,filler,D,25,sort15.jpg,sort35.jpg,GoalA,NULL
1687287398,4720c77061e2d7a4f135a0fbdca5a225,PennController,25,0,experiment,NULL,PennController,24,_Trial_,Start,1687287256673,6157481bc73bba8566fed3be,6157481bc73bba8566fed3be,22,wall,filler,D,25,wall15.jpg,wall35.jpg,GoalA,NULL
1687287398,4720c77061e2d7a4f135a0fbdca5a225,PennController,25,0,experiment,NULL,PennController,24,_Header_,Start,1687287256673,6157481bc73bba8566fed3be,6157481bc73bba8566fed3be,22,wall,filler,D,25,wall15.jpg,wall35.jpg,GoalA,NULL
1687287398,4720c77061e2d7a4f135a0fbdca5a225,PennController,25,0,experiment,NULL,PennController,24,_Header_,End,1687287256673,6157481bc73bba8566fed3be,6157481bc73bba8566fed3be,22,wall,filler,D,25,wall15.jpg,wall35.jpg,GoalA,NULL
1687287398,4720c77061e2d7a4f135a0fbdca5a225,PennController,25,0,experiment,NULL,Canvas,canvas6,Print,NA,1687287262348,6157481bc73bba8566fed3be,6157481bc73bba8566fed3be,22,wall,filler,D,25,wall15.jpg,wall35.jpg,GoalA,NULL
1687287398,4720c77061e2d7a4f135a0fbdca5a225,PennController,25,0,experiment,NULL,Video,progression,buffer,0.002632,1687287260192,6157481bc73bba8566fed3be,6157481bc73bba8566fed3be,22,wall,filler,D,25,wall15.jpg,wall35.jpg,GoalA,NULL
1687287398,4720c77061e2d7a4f135a0fbdca5a225,PennController,25,0,experiment,NULL,Selector,choice,Selection,option2,1687287264447,6157481bc73bba8566fed3be,6157481bc73bba8566fed3be,22,wall,filler,D,25,wall15.jpg,wall35.jpg,GoalA,option1;option2
1687287398,4720c77061e2d7a4f135a0fbdca5a225,PennController,25,0,experiment,NULL,PennController,24,_Trial_,End,1687287264448,6157481bc73bba8566fed3be,6157481bc73bba8566fed3be,22,wall,filler,D,25,wall15.jpg,wall35.jpg,GoalA,NULL
1687287398,4720c77061e2d7a4f135a0fbdca5a225,PennController,14,0,experiment,NULL,PennController,13,_Trial_,Start,1687287264449,6157481bc73bba8566fed3be,6157481bc73bba8566fed3be,11,beads,critical,D,50,beads40.jpg,beads60.jpg,high,NULL
1687287398,4720c77061e2d7a4f135a0fbdca5a225,PennController,14,0,experiment,NULL,PennController,13,_Header_,Start,1687287264449,6157481bc73bba8566fed3be,6157481bc73bba8566fed3be,11,beads,critical,D,50,beads40.jpg,beads60.jpg,high,NULL
1687287398,4720c77061e2d7a4f135a0fbdca5a225,PennController,14,0,experiment,NULL,PennController,13,_Header_,End,1687287264449,6157481bc73bba8566fed3be,6157481bc73bba8566fed3be,11,beads,critical,D,50,beads40.jpg,beads60.jpg,high,NULL
1687287398,4720c77061e2d7a4f135a0fbdca5a225,PennController,14,0,experiment,NULL,Canvas,canvas6,Print,NA,1687287271133,6157481bc73bba8566fed3be,6157481bc73bba8566fed3be,11,beads,critical,D,50,beads40.jpg,beads60.jpg,high,NULL
1687287398,4720c77061e2d7a4f135a0fbdca5a225,PennController,14,0,experiment,NULL,Video,progression,buffer,0.003403,1687287267968,6157481bc73bba8566fed3be,6157481bc73bba8566fed3be,11,beads,critical,D,50,beads40.jpg,beads60.jpg,high,NULL
1687287398,4720c77061e2d7a4f135a0fbdca5a225,PennController,14,0,experiment,NULL,Selector,choice,Selection,option2,1687287274520,6157481bc73bba8566fed3be,6157481bc73bba8566fed3be,11,beads,critical,D,50,beads40.jpg,beads60.jpg,high,option1;option2
1687287398,4720c77061e2d7a4f135a0fbdca5a225,PennController,14,0,experiment,NULL,PennController,13,_Trial_,End,1687287274521,6157481bc73bba8566fed3be,6157481bc73bba8566fed3be,11,beads,critical,D,50,beads40.jpg,beads60.jpg,high,NULL
1687287398,4720c77061e2d7a4f135a0fbdca5a225,PennController,20,0,experiment,NULL,PennController,19,_Trial_,Start,1687287274522,6157481bc73bba8566fed3be,6157481bc73bba8566fed3be,17,roll,critical,D,50,roll40.jpg,roll60.jpg,high,NULL
1687287398,4720c77061e2d7a4f135a0fbdca5a225,PennController,20,0,experiment,NULL,PennController,19,_Header_,Start,1687287274522,6157481bc73bba8566fed3be,6157481bc73bba8566fed3be,17,roll,critical,D,50,roll40.jpg,roll60.jpg,high,NULL
1687287398,4720c77061e2d7a4f135a0fbdca5a225,PennController,20,0,experiment,NULL,PennController,19,_Header_,End,1687287274522,6157481bc73bba8566fed3be,6157481bc73bba8566fed3be,17,roll,critical,D,50,roll40.jpg,roll60.jpg,high,NULL
1687287398,4720c77061e2d7a4f135a0fbdca5a225,PennController,20,0,experiment,NULL,Canvas,canvas6,Print,NA,1687287281233,6157481bc73bba8566fed3be,6157481bc73bba8566fed3be,17,roll,critical,D,50,roll40.jpg,roll60.jpg,high,NULL
1687287398,4720c77061e2d7a4f135a0fbdca5a225,PennController,20,0,experiment,NULL,Video,progression,buffer,0,1687287278040,6157481bc73bba8566fed3be,6157481bc73bba8566fed3be,17,roll,critical,D,50,roll40.jpg,roll60.jpg,high,NULL
1687287398,4720c77061e2d7a4f135a0fbdca5a225,PennController,20,0,experiment,NULL,Selector,choice,Selection,option2,1687287297991,6157481bc73bba8566fed3be,6157481bc73bba8566fed3be,17,roll,critical,D,50,roll40.jpg,roll60.jpg,high,option1;option2
1687287398,4720c77061e2d7a4f135a0fbdca5a225,PennController,20,0,experiment,NULL,PennController,19,_Trial_,End,1687287297992,6157481bc73bba8566fed3be,6157481bc73bba8566fed3be,17,roll,critical,D,50,roll40.jpg,roll60.jpg,high,NULL
1687287398,4720c77061e2d7a4f135a0fbdca5a225,PennController,28,0,experiment,NULL,PennController,27,_Trial_,Start,1687287297994,6157481bc73bba8566fed3be,6157481bc73bba8566fed3be,25,house,filler,D,25,house15.jpg,house35.jpg,GoalB,NULL
1687287398,4720c77061e2d7a4f135a0fbdca5a225,PennController,28,0,experiment,NULL,PennController,27,_Header_,Start,1687287297994,6157481bc73bba8566fed3be,6157481bc73bba8566fed3be,25,house,filler,D,25,house15.jpg,house35.jpg,GoalB,NULL
1687287398,4720c77061e2d7a4f135a0fbdca5a225,PennController,28,0,experiment,NULL,PennController,27,_Header_,End,1687287297994,6157481bc73bba8566fed3be,6157481bc73bba8566fed3be,25,house,filler,D,25,house15.jpg,house35.jpg,GoalB,NULL
1687287398,4720c77061e2d7a4f135a0fbdca5a225,PennController,28,0,experiment,NULL,Canvas,canvas6,Print,NA,1687287303685,6157481bc73bba8566fed3be,6157481bc73bba8566fed3be,25,house,filler,D,25,house15.jpg,house35.jpg,GoalB,NULL
1687287398,4720c77061e2d7a4f135a0fbdca5a225,PennController,28,0,experiment,NULL,Video,progression,buffer,0.005142,1687287301518,6157481bc73bba8566fed3be,6157481bc73bba8566fed3be,25,house,filler,D,25,house15.jpg,house35.jpg,GoalB,NULL
1687287398,4720c77061e2d7a4f135a0fbdca5a225,PennController,28,0,experiment,NULL,Selector,choice,Selection,option2,1687287324919,6157481bc73bba8566fed3be,6157481bc73bba8566fed3be,25,house,filler,D,25,house15.jpg,house35.jpg,GoalB,option1;option2
1687287398,4720c77061e2d7a4f135a0fbdca5a225,PennController,28,0,experiment,NULL,PennController,27,_Trial_,End,1687287324920,6157481bc73bba8566fed3be,6157481bc73bba8566fed3be,25,house,filler,D,25,house15.jpg,house35.jpg,GoalB,NULL
1687287398,4720c77061e2d7a4f135a0fbdca5a225,PennController,6,0,experiment,NULL,PennController,5,_Trial_,Start,1687287324921,6157481bc73bba8566fed3be,6157481bc73bba8566fed3be,3,clean,critical,D,75,clean65.jpg,clean85.jpg,high,NULL
1687287398,4720c77061e2d7a4f135a0fbdca5a225,PennController,6,0,experiment,NULL,PennController,5,_Header_,Start,1687287324921,6157481bc73bba8566fed3be,6157481bc73bba8566fed3be,3,clean,critical,D,75,clean65.jpg,clean85.jpg,high,NULL
1687287398,4720c77061e2d7a4f135a0fbdca5a225,PennController,6,0,experiment,NULL,PennController,5,_Header_,End,1687287324921,6157481bc73bba8566fed3be,6157481bc73bba8566fed3be,3,clean,critical,D,75,clean65.jpg,clean85.jpg,high,NULL
1687287398,4720c77061e2d7a4f135a0fbdca5a225,PennController,6,0,experiment,NULL,Canvas,canvas6,Print,NA,1687287332599,6157481bc73bba8566fed3be,6157481bc73bba8566fed3be,3,clean,critical,D,75,clean65.jpg,clean85.jpg,high,NULL
1687287398,4720c77061e2d7a4f135a0fbdca5a225,PennController,6,0,experiment,NULL,Video,progression,buffer,0.002764,1687287328441,6157481bc73bba8566fed3be,6157481bc73bba8566fed3be,3,clean,critical,D,75,clean65.jpg,clean85.jpg,high,NULL
1687287398,4720c77061e2d7a4f135a0fbdca5a225,PennController,6,0,experiment,NULL,Selector,choice,Selection,option2,1687287334807,6157481bc73bba8566fed3be,6157481bc73bba8566fed3be,3,clean,critical,D,75,clean65.jpg,clean85.jpg,high,option2;option1
1687287398,4720c77061e2d7a4f135a0fbdca5a225,PennController,6,0,experiment,NULL,PennController,5,_Trial_,End,1687287334808,6157481bc73bba8566fed3be,6157481bc73bba8566fed3be,3,clean,critical,D,75,clean65.jpg,clean85.jpg,high,NULL
1687287398,4720c77061e2d7a4f135a0fbdca5a225,PennController,17,0,experiment,NULL,PennController,16,_Trial_,Start,1687287334809,6157481bc73bba8566fed3be,6157481bc73bba8566fed3be,14,cover,critical,D,50,cover42.jpg,cover60.jpg,high,NULL
1687287398,4720c77061e2d7a4f135a0fbdca5a225,PennController,17,0,experiment,NULL,PennController,16,_Header_,Start,1687287334809,6157481bc73bba8566fed3be,6157481bc73bba8566fed3be,14,cover,critical,D,50,cover42.jpg,cover60.jpg,high,NULL
1687287398,4720c77061e2d7a4f135a0fbdca5a225,PennController,17,0,experiment,NULL,PennController,16,_Header_,End,1687287334809,6157481bc73bba8566fed3be,6157481bc73bba8566fed3be,14,cover,critical,D,50,cover42.jpg,cover60.jpg,high,NULL
1687287398,4720c77061e2d7a4f135a0fbdca5a225,PennController,17,0,experiment,NULL,Canvas,canvas6,Print,NA,1687287342882,6157481bc73bba8566fed3be,6157481bc73bba8566fed3be,14,cover,critical,D,50,cover42.jpg,cover60.jpg,high,NULL
1687287398,4720c77061e2d7a4f135a0fbdca5a225,PennController,17,0,experiment,NULL,Video,progression,buffer,0.002734,1687287338322,6157481bc73bba8566fed3be,6157481bc73bba8566fed3be,14,cover,critical,D,50,cover42.jpg,cover60.jpg,high,NULL
1687287398,4720c77061e2d7a4f135a0fbdca5a225,PennController,17,0,experiment,NULL,Selector,choice,Selection,option1,1687287343943,6157481bc73bba8566fed3be,6157481bc73bba8566fed3be,14,cover,critical,D,50,cover42.jpg,cover60.jpg,high,option1;option2
1687287398,4720c77061e2d7a4f135a0fbdca5a225,PennController,17,0,experiment,NULL,PennController,16,_Trial_,End,1687287343944,6157481bc73bba8566fed3be,6157481bc73bba8566fed3be,14,cover,critical,D,50,cover42.jpg,cover60.jpg,high,NULL
1687287398,4720c77061e2d7a4f135a0fbdca5a225,PennController,7,0,experiment,NULL,PennController,6,_Trial_,Start,1687287343945,6157481bc73bba8566fed3be,6157481bc73bba8566fed3be,4,candy,critical,D,25,candy15.jpg,candy35.jpg,high,NULL
1687287398,4720c77061e2d7a4f135a0fbdca5a225,PennController,7,0,experiment,NULL,PennController,6,_Header_,Start,1687287343945,6157481bc73bba8566fed3be,6157481bc73bba8566fed3be,4,candy,critical,D,25,candy15.jpg,candy35.jpg,high,NULL
1687287398,4720c77061e2d7a4f135a0fbdca5a225,PennController,7,0,experiment,NULL,PennController,6,_Header_,End,1687287343945,6157481bc73bba8566fed3be,6157481bc73bba8566fed3be,4,candy,critical,D,25,candy15.jpg,candy35.jpg,high,NULL
1687287398,4720c77061e2d7a4f135a0fbdca5a225,PennController,7,0,experiment,NULL,Canvas,canvas6,Print,NA,1687287349631,6157481bc73bba8566fed3be,6157481bc73bba8566fed3be,4,candy,critical,D,25,candy15.jpg,candy35.jpg,high,NULL
1687287398,4720c77061e2d7a4f135a0fbdca5a225,PennController,7,0,experiment,NULL,Video,progression,buffer,0.003733,1687287347461,6157481bc73bba8566fed3be,6157481bc73bba8566fed3be,4,candy,critical,D,25,candy15.jpg,candy35.jpg,high,NULL
1687287398,4720c77061e2d7a4f135a0fbdca5a225,PennController,7,0,experiment,NULL,Selector,choice,Selection,option1,1687287352439,6157481bc73bba8566fed3be,6157481bc73bba8566fed3be,4,candy,critical,D,25,candy15.jpg,candy35.jpg,high,option1;option2
1687287398,4720c77061e2d7a4f135a0fbdca5a225,PennController,7,0,experiment,NULL,PennController,6,_Trial_,End,1687287352440,6157481bc73bba8566fed3be,6157481bc73bba8566fed3be,4,candy,critical,D,25,candy15.jpg,candy35.jpg,high,NULL
1687287398,4720c77061e2d7a4f135a0fbdca5a225,PennController,22,0,experiment,NULL,PennController,21,_Trial_,Start,1687287352440,6157481bc73bba8566fed3be,6157481bc73bba8566fed3be,19,cup,filler,D,25,cup15.jpg,cup35.jpg,GoalB,NULL
1687287398,4720c77061e2d7a4f135a0fbdca5a225,PennController,22,0,experiment,NULL,PennController,21,_Header_,Start,1687287352440,6157481bc73bba8566fed3be,6157481bc73bba8566fed3be,19,cup,filler,D,25,cup15.jpg,cup35.jpg,GoalB,NULL
1687287398,4720c77061e2d7a4f135a0fbdca5a225,PennController,22,0,experiment,NULL,PennController,21,_Header_,End,1687287352440,6157481bc73bba8566fed3be,6157481bc73bba8566fed3be,19,cup,filler,D,25,cup15.jpg,cup35.jpg,GoalB,NULL
1687287398,4720c77061e2d7a4f135a0fbdca5a225,PennController,22,0,experiment,NULL,Canvas,canvas6,Print,NA,1687287358115,6157481bc73bba8566fed3be,6157481bc73bba8566fed3be,19,cup,filler,D,25,cup15.jpg,cup35.jpg,GoalB,NULL
1687287398,4720c77061e2d7a4f135a0fbdca5a225,PennController,22,0,experiment,NULL,Video,progression,buffer,0.002851,1687287355959,6157481bc73bba8566fed3be,6157481bc73bba8566fed3be,19,cup,filler,D,25,cup15.jpg,cup35.jpg,GoalB,NULL
1687287398,4720c77061e2d7a4f135a0fbdca5a225,PennController,22,0,experiment,NULL,Selector,choice,Selection,option2,1687287359271,6157481bc73bba8566fed3be,6157481bc73bba8566fed3be,19,cup,filler,D,25,cup15.jpg,cup35.jpg,GoalB,option2;option1
1687287398,4720c77061e2d7a4f135a0fbdca5a225,PennController,22,0,experiment,NULL,PennController,21,_Trial_,End,1687287359272,6157481bc73bba8566fed3be,6157481bc73bba8566fed3be,19,cup,filler,D,25,cup15.jpg,cup35.jpg,GoalB,NULL
1687287398,4720c77061e2d7a4f135a0fbdca5a225,PennController,11,0,experiment,NULL,PennController,10,_Trial_,Start,1687287359273,6157481bc73bba8566fed3be,6157481bc73bba8566fed3be,8,cucumber,critical,D,50,cucumber42.jpg,cucumber60.jpg,high,NULL
1687287398,4720c77061e2d7a4f135a0fbdca5a225,PennController,11,0,experiment,NULL,PennController,10,_Header_,Start,1687287359273,6157481bc73bba8566fed3be,6157481bc73bba8566fed3be,8,cucumber,critical,D,50,cucumber42.jpg,cucumber60.jpg,high,NULL
1687287398,4720c77061e2d7a4f135a0fbdca5a225,PennController,11,0,experiment,NULL,PennController,10,_Header_,End,1687287359273,6157481bc73bba8566fed3be,6157481bc73bba8566fed3be,8,cucumber,critical,D,50,cucumber42.jpg,cucumber60.jpg,high,NULL
1687287398,4720c77061e2d7a4f135a0fbdca5a225,PennController,11,0,experiment,NULL,Canvas,canvas6,Print,NA,1687287367364,6157481bc73bba8566fed3be,6157481bc73bba8566fed3be,8,cucumber,critical,D,50,cucumber42.jpg,cucumber60.jpg,high,NULL
1687287398,4720c77061e2d7a4f135a0fbdca5a225,PennController,11,0,experiment,NULL,Video,progression,buffer,0.003573,1687287362797,6157481bc73bba8566fed3be,6157481bc73bba8566fed3be,8,cucumber,critical,D,50,cucumber42.jpg,cucumber60.jpg,high,NULL
1687287398,4720c77061e2d7a4f135a0fbdca5a225,PennController,11,0,experiment,NULL,Selector,choice,Selection,option2,1687287368823,6157481bc73bba8566fed3be,6157481bc73bba8566fed3be,8,cucumber,critical,D,50,cucumber42.jpg,cucumber60.jpg,high,option2;option1
1687287398,4720c77061e2d7a4f135a0fbdca5a225,PennController,11,0,experiment,NULL,PennController,10,_Trial_,End,1687287368824,6157481bc73bba8566fed3be,6157481bc73bba8566fed3be,8,cucumber,critical,D,50,cucumber42.jpg,cucumber60.jpg,high,NULL
1687287398,4720c77061e2d7a4f135a0fbdca5a225,PennController,27,0,experiment,NULL,PennController,26,_Trial_,Start,1687287368826,6157481bc73bba8566fed3be,6157481bc73bba8566fed3be,24,match,filler,D,75,match65.jpg,match85.jpg,GoalA,NULL
1687287398,4720c77061e2d7a4f135a0fbdca5a225,PennController,27,0,experiment,NULL,PennController,26,_Header_,Start,1687287368826,6157481bc73bba8566fed3be,6157481bc73bba8566fed3be,24,match,filler,D,75,match65.jpg,match85.jpg,GoalA,NULL
1687287398,4720c77061e2d7a4f135a0fbdca5a225,PennController,27,0,experiment,NULL,PennController,26,_Header_,End,1687287368826,6157481bc73bba8566fed3be,6157481bc73bba8566fed3be,24,match,filler,D,75,match65.jpg,match85.jpg,GoalA,NULL
1687287398,4720c77061e2d7a4f135a0fbdca5a225,PennController,27,0,experiment,NULL,Canvas,canvas6,Print,NA,1687287376496,6157481bc73bba8566fed3be,6157481bc73bba8566fed3be,24,match,filler,D,75,match65.jpg,match85.jpg,GoalA,NULL
1687287398,4720c77061e2d7a4f135a0fbdca5a225,PennController,27,0,experiment,NULL,Video,progression,buffer,0.003745,1687287372342,6157481bc73bba8566fed3be,6157481bc73bba8566fed3be,24,match,filler,D,75,match65.jpg,match85.jpg,GoalA,NULL
1687287398,4720c77061e2d7a4f135a0fbdca5a225,PennController,27,0,experiment,NULL,Selector,choice,Selection,option1,1687287379159,6157481bc73bba8566fed3be,6157481bc73bba8566fed3be,24,match,filler,D,75,match65.jpg,match85.jpg,GoalA,option2;option1
1687287398,4720c77061e2d7a4f135a0fbdca5a225,PennController,27,0,experiment,NULL,PennController,26,_Trial_,End,1687287379160,6157481bc73bba8566fed3be,6157481bc73bba8566fed3be,24,match,filler,D,75,match65.jpg,match85.jpg,GoalA,NULL
1687287398,4720c77061e2d7a4f135a0fbdca5a225,PennController,4,0,experiment,NULL,PennController,3,_Trial_,Start,1687287379161,6157481bc73bba8566fed3be,6157481bc73bba8566fed3be,1,vase,critical,D,25,vase15.jpg,vase35.jpg,high,NULL
1687287398,4720c77061e2d7a4f135a0fbdca5a225,PennController,4,0,experiment,NULL,PennController,3,_Header_,Start,1687287379161,6157481bc73bba8566fed3be,6157481bc73bba8566fed3be,1,vase,critical,D,25,vase15.jpg,vase35.jpg,high,NULL
1687287398,4720c77061e2d7a4f135a0fbdca5a225,PennController,4,0,experiment,NULL,PennController,3,_Header_,End,1687287379161,6157481bc73bba8566fed3be,6157481bc73bba8566fed3be,1,vase,critical,D,25,vase15.jpg,vase35.jpg,high,NULL
1687287398,4720c77061e2d7a4f135a0fbdca5a225,PennController,4,0,experiment,NULL,Canvas,canvas6,Print,NA,1687287384848,6157481bc73bba8566fed3be,6157481bc73bba8566fed3be,1,vase,critical,D,25,vase15.jpg,vase35.jpg,high,NULL
1687287398,4720c77061e2d7a4f135a0fbdca5a225,PennController,4,0,experiment,NULL,Video,progression,buffer,0.004111,1687287382679,6157481bc73bba8566fed3be,6157481bc73bba8566fed3be,1,vase,critical,D,25,vase15.jpg,vase35.jpg,high,NULL
1687287398,4720c77061e2d7a4f135a0fbdca5a225,PennController,4,0,experiment,NULL,Selector,choice,Selection,option2,1687287398600,6157481bc73bba8566fed3be,6157481bc73bba8566fed3be,1,vase,critical,D,25,vase15.jpg,vase35.jpg,high,option1;option2
1687287398,4720c77061e2d7a4f135a0fbdca5a225,PennController,4,0,experiment,NULL,PennController,3,_Trial_,End,1687287398601,6157481bc73bba8566fed3be,6157481bc73bba8566fed3be,1,vase,critical,D,25,vase15.jpg,vase35.jpg,high,NULL
