#
# Results on Tuesday June 20 2023 18:54:10 UTC
# USER AGENT: Mozilla/5.0 (Windows NT 10.0; Win64; x64) AppleWebKit/537.36 (KHTML, like Gecko) Chrome/114.0.0.0 Safari/537.36
# Design number was non-random = 3
#
# Columns below this comment are as follows:
# 1. Results reception time.
# 2. MD5 hash of participant's IP address.
# 3. Controller name.
# 4. Order number of item.
# 5. Inner element number.
# 6. Label.
# 7. Latin Square Group.
# 8. PennElementType.
# 9. PennElementName.
# 10. Parameter.
# 11. Value.
# 12. EventTime.
# 13. PROLIFIC_ID.
# 14. Comments.
1687287250,a0c796167b28e0e434ec7ce941361278,PennController,2,0,consent,NULL,PennController,0,_Trial_,Start,1687286951384,5ac8fd9f0527ba0001c23ddb,NULL
1687287250,a0c796167b28e0e434ec7ce941361278,PennController,2,0,consent,NULL,PennController,0,_Header_,Start,1687286951384,5ac8fd9f0527ba0001c23ddb,NULL
1687287250,a0c796167b28e0e434ec7ce941361278,PennController,2,0,consent,NULL,PennController,0,_Header_,End,1687286951384,5ac8fd9f0527ba0001c23ddb,NULL
1687287250,a0c796167b28e0e434ec7ce941361278,PennController,2,0,consent,NULL,PennController,0,_Trial_,End,1687286955221,5ac8fd9f0527ba0001c23ddb,NULL
# Columns below this comment are as follows:
# 14. ID.
# 15. Comments.
1687287250,a0c796167b28e0e434ec7ce941361278,PennController,3,0,intro,NULL,PennController,1,_Trial_,Start,1687286955222,5ac8fd9f0527ba0001c23ddb,5ac8fd9f0527ba0001c23ddb,NULL
1687287250,a0c796167b28e0e434ec7ce941361278,PennController,3,0,intro,NULL,PennController,1,_Header_,Start,1687286955222,5ac8fd9f0527ba0001c23ddb,5ac8fd9f0527ba0001c23ddb,NULL
1687287250,a0c796167b28e0e434ec7ce941361278,PennController,3,0,intro,NULL,PennController,1,_Header_,End,1687286955222,5ac8fd9f0527ba0001c23ddb,5ac8fd9f0527ba0001c23ddb,NULL
1687287250,a0c796167b28e0e434ec7ce941361278,PennController,3,0,intro,NULL,PennController,1,_Trial_,End,1687286959686,5ac8fd9f0527ba0001c23ddb,5ac8fd9f0527ba0001c23ddb,NULL
# Columns below this comment are as follows:
# 15. item_number.
# 16. item.
# 17. type.
# 18. Group.
# 19. prog.
# 20. prev_image.
# 21. next_image.
# 22. height.
# 23. Comments.
1687287250,a0c796167b28e0e434ec7ce941361278,PennController,16,0,experiment,NULL,PennController,15,_Trial_,Start,1687286959687,5ac8fd9f0527ba0001c23ddb,5ac8fd9f0527ba0001c23ddb,13,mix,critical,D,25,mix15.jpg,mix35.jpg,high,NULL
1687287250,a0c796167b28e0e434ec7ce941361278,PennController,16,0,experiment,NULL,PennController,15,_Header_,Start,1687286959687,5ac8fd9f0527ba0001c23ddb,5ac8fd9f0527ba0001c23ddb,13,mix,critical,D,25,mix15.jpg,mix35.jpg,high,NULL
1687287250,a0c796167b28e0e434ec7ce941361278,PennController,16,0,experiment,NULL,PennController,15,_Header_,End,1687286959687,5ac8fd9f0527ba0001c23ddb,5ac8fd9f0527ba0001c23ddb,13,mix,critical,D,25,mix15.jpg,mix35.jpg,high,NULL
1687287250,a0c796167b28e0e434ec7ce941361278,PennController,16,0,experiment,NULL,Canvas,canvas6,Print,NA,1687286965390,5ac8fd9f0527ba0001c23ddb,5ac8fd9f0527ba0001c23ddb,13,mix,critical,D,25,mix15.jpg,mix35.jpg,high,NULL
1687287250,a0c796167b28e0e434ec7ce941361278,PennController,16,0,experiment,NULL,Video,progression,buffer,0.003651,1687286963219,5ac8fd9f0527ba0001c23ddb,5ac8fd9f0527ba0001c23ddb,13,mix,critical,D,25,mix15.jpg,mix35.jpg,high,NULL
1687287250,a0c796167b28e0e434ec7ce941361278,PennController,16,0,experiment,NULL,Selector,choice,Selection,option2,1687286970386,5ac8fd9f0527ba0001c23ddb,5ac8fd9f0527ba0001c23ddb,13,mix,critical,D,25,mix15.jpg,mix35.jpg,high,option1;option2
1687287250,a0c796167b28e0e434ec7ce941361278,PennController,16,0,experiment,NULL,PennController,15,_Trial_,End,1687286970388,5ac8fd9f0527ba0001c23ddb,5ac8fd9f0527ba0001c23ddb,13,mix,critical,D,25,mix15.jpg,mix35.jpg,high,NULL
1687287250,a0c796167b28e0e434ec7ce941361278,PennController,26,0,experiment,NULL,PennController,25,_Trial_,Start,1687286970390,5ac8fd9f0527ba0001c23ddb,5ac8fd9f0527ba0001c23ddb,23,color,filler,D,50,color40.jpg,color60.jpg,GoalB,NULL
1687287250,a0c796167b28e0e434ec7ce941361278,PennController,26,0,experiment,NULL,PennController,25,_Header_,Start,1687286970390,5ac8fd9f0527ba0001c23ddb,5ac8fd9f0527ba0001c23ddb,23,color,filler,D,50,color40.jpg,color60.jpg,GoalB,NULL
1687287250,a0c796167b28e0e434ec7ce941361278,PennController,26,0,experiment,NULL,PennController,25,_Header_,End,1687286970390,5ac8fd9f0527ba0001c23ddb,5ac8fd9f0527ba0001c23ddb,23,color,filler,D,50,color40.jpg,color60.jpg,GoalB,NULL
1687287250,a0c796167b28e0e434ec7ce941361278,PennController,26,0,experiment,NULL,Canvas,canvas6,Print,NA,1687286977101,5ac8fd9f0527ba0001c23ddb,5ac8fd9f0527ba0001c23ddb,23,color,filler,D,50,color40.jpg,color60.jpg,GoalB,NULL
1687287250,a0c796167b28e0e434ec7ce941361278,PennController,26,0,experiment,NULL,Video,progression,buffer,0.000779,1687286973919,5ac8fd9f0527ba0001c23ddb,5ac8fd9f0527ba0001c23ddb,23,color,filler,D,50,color40.jpg,color60.jpg,GoalB,NULL
1687287250,a0c796167b28e0e434ec7ce941361278,PennController,26,0,experiment,NULL,Selector,choice,Selection,option2,1687286981018,5ac8fd9f0527ba0001c23ddb,5ac8fd9f0527ba0001c23ddb,23,color,filler,D,50,color40.jpg,color60.jpg,GoalB,option2;option1
1687287250,a0c796167b28e0e434ec7ce941361278,PennController,26,0,experiment,NULL,PennController,25,_Trial_,End,1687286981019,5ac8fd9f0527ba0001c23ddb,5ac8fd9f0527ba0001c23ddb,23,color,filler,D,50,color40.jpg,color60.jpg,GoalB,NULL
1687287250,a0c796167b28e0e434ec7ce941361278,PennController,8,0,experiment,NULL,PennController,7,_Trial_,Start,1687286981020,5ac8fd9f0527ba0001c23ddb,5ac8fd9f0527ba0001c23ddb,5,book,critical,D,50,book40.jpg,book60.jpg,high,NULL
1687287250,a0c796167b28e0e434ec7ce941361278,PennController,8,0,experiment,NULL,PennController,7,_Header_,Start,1687286981020,5ac8fd9f0527ba0001c23ddb,5ac8fd9f0527ba0001c23ddb,5,book,critical,D,50,book40.jpg,book60.jpg,high,NULL
1687287250,a0c796167b28e0e434ec7ce941361278,PennController,8,0,experiment,NULL,PennController,7,_Header_,End,1687286981020,5ac8fd9f0527ba0001c23ddb,5ac8fd9f0527ba0001c23ddb,5,book,critical,D,50,book40.jpg,book60.jpg,high,NULL
1687287250,a0c796167b28e0e434ec7ce941361278,PennController,8,0,experiment,NULL,Canvas,canvas6,Print,NA,1687286987701,5ac8fd9f0527ba0001c23ddb,5ac8fd9f0527ba0001c23ddb,5,book,critical,D,50,book40.jpg,book60.jpg,high,NULL
1687287250,a0c796167b28e0e434ec7ce941361278,PennController,8,0,experiment,NULL,Video,progression,buffer,0.006823,1687286984545,5ac8fd9f0527ba0001c23ddb,5ac8fd9f0527ba0001c23ddb,5,book,critical,D,50,book40.jpg,book60.jpg,high,NULL
1687287250,a0c796167b28e0e434ec7ce941361278,PennController,8,0,experiment,NULL,Selector,choice,Selection,option2,1687286991185,5ac8fd9f0527ba0001c23ddb,5ac8fd9f0527ba0001c23ddb,5,book,critical,D,50,book40.jpg,book60.jpg,high,option1;option2
1687287250,a0c796167b28e0e434ec7ce941361278,PennController,8,0,experiment,NULL,PennController,7,_Trial_,End,1687286991187,5ac8fd9f0527ba0001c23ddb,5ac8fd9f0527ba0001c23ddb,5,book,critical,D,50,book40.jpg,book60.jpg,high,NULL
1687287250,a0c796167b28e0e434ec7ce941361278,PennController,25,0,experiment,NULL,PennController,24,_Trial_,Start,1687286991188,5ac8fd9f0527ba0001c23ddb,5ac8fd9f0527ba0001c23ddb,22,wall,filler,D,25,wall15.jpg,wall35.jpg,GoalA,NULL
1687287250,a0c796167b28e0e434ec7ce941361278,PennController,25,0,experiment,NULL,PennController,24,_Header_,Start,1687286991188,5ac8fd9f0527ba0001c23ddb,5ac8fd9f0527ba0001c23ddb,22,wall,filler,D,25,wall15.jpg,wall35.jpg,GoalA,NULL
1687287250,a0c796167b28e0e434ec7ce941361278,PennController,25,0,experiment,NULL,PennController,24,_Header_,End,1687286991188,5ac8fd9f0527ba0001c23ddb,5ac8fd9f0527ba0001c23ddb,22,wall,filler,D,25,wall15.jpg,wall35.jpg,GoalA,NULL
1687287250,a0c796167b28e0e434ec7ce941361278,PennController,25,0,experiment,NULL,Canvas,canvas6,Print,NA,1687286996884,5ac8fd9f0527ba0001c23ddb,5ac8fd9f0527ba0001c23ddb,22,wall,filler,D,25,wall15.jpg,wall35.jpg,GoalA,NULL
1687287250,a0c796167b28e0e434ec7ce941361278,PennController,25,0,experiment,NULL,Video,progression,buffer,0,1687286994711,5ac8fd9f0527ba0001c23ddb,5ac8fd9f0527ba0001c23ddb,22,wall,filler,D,25,wall15.jpg,wall35.jpg,GoalA,NULL
1687287250,a0c796167b28e0e434ec7ce941361278,PennController,25,0,experiment,NULL,Selector,choice,Selection,option2,1687286998081,5ac8fd9f0527ba0001c23ddb,5ac8fd9f0527ba0001c23ddb,22,wall,filler,D,25,wall15.jpg,wall35.jpg,GoalA,option1;option2
1687287250,a0c796167b28e0e434ec7ce941361278,PennController,25,0,experiment,NULL,PennController,24,_Trial_,End,1687286998082,5ac8fd9f0527ba0001c23ddb,5ac8fd9f0527ba0001c23ddb,22,wall,filler,D,25,wall15.jpg,wall35.jpg,GoalA,NULL
1687287250,a0c796167b28e0e434ec7ce941361278,PennController,11,0,experiment,NULL,PennController,10,_Trial_,Start,1687286998084,5ac8fd9f0527ba0001c23ddb,5ac8fd9f0527ba0001c23ddb,8,cucumber,critical,D,50,cucumber42.jpg,cucumber60.jpg,high,NULL
1687287250,a0c796167b28e0e434ec7ce941361278,PennController,11,0,experiment,NULL,PennController,10,_Header_,Start,1687286998084,5ac8fd9f0527ba0001c23ddb,5ac8fd9f0527ba0001c23ddb,8,cucumber,critical,D,50,cucumber42.jpg,cucumber60.jpg,high,NULL
1687287250,a0c796167b28e0e434ec7ce941361278,PennController,11,0,experiment,NULL,PennController,10,_Header_,End,1687286998084,5ac8fd9f0527ba0001c23ddb,5ac8fd9f0527ba0001c23ddb,8,cucumber,critical,D,50,cucumber42.jpg,cucumber60.jpg,high,NULL
1687287250,a0c796167b28e0e434ec7ce941361278,PennController,11,0,experiment,NULL,Canvas,canvas6,Print,NA,1687287006184,5ac8fd9f0527ba0001c23ddb,5ac8fd9f0527ba0001c23ddb,8,cucumber,critical,D,50,cucumber42.jpg,cucumber60.jpg,high,NULL
1687287250,a0c796167b28e0e434ec7ce941361278,PennController,11,0,experiment,NULL,Video,progression,buffer,0,1687287001607,5ac8fd9f0527ba0001c23ddb,5ac8fd9f0527ba0001c23ddb,8,cucumber,critical,D,50,cucumber42.jpg,cucumber60.jpg,high,NULL
1687287250,a0c796167b28e0e434ec7ce941361278,PennController,11,0,experiment,NULL,Selector,choice,Selection,option2,1687287008322,5ac8fd9f0527ba0001c23ddb,5ac8fd9f0527ba0001c23ddb,8,cucumber,critical,D,50,cucumber42.jpg,cucumber60.jpg,high,option2;option1
1687287250,a0c796167b28e0e434ec7ce941361278,PennController,11,0,experiment,NULL,PennController,10,_Trial_,End,1687287008323,5ac8fd9f0527ba0001c23ddb,5ac8fd9f0527ba0001c23ddb,8,cucumber,critical,D,50,cucumber42.jpg,cucumber60.jpg,high,NULL
1687287250,a0c796167b28e0e434ec7ce941361278,PennController,22,0,experiment,NULL,PennController,21,_Trial_,Start,1687287008325,5ac8fd9f0527ba0001c23ddb,5ac8fd9f0527ba0001c23ddb,19,cup,filler,D,25,cup15.jpg,cup35.jpg,GoalB,NULL
1687287250,a0c796167b28e0e434ec7ce941361278,PennController,22,0,experiment,NULL,PennController,21,_Header_,Start,1687287008325,5ac8fd9f0527ba0001c23ddb,5ac8fd9f0527ba0001c23ddb,19,cup,filler,D,25,cup15.jpg,cup35.jpg,GoalB,NULL
1687287250,a0c796167b28e0e434ec7ce941361278,PennController,22,0,experiment,NULL,PennController,21,_Header_,End,1687287008325,5ac8fd9f0527ba0001c23ddb,5ac8fd9f0527ba0001c23ddb,19,cup,filler,D,25,cup15.jpg,cup35.jpg,GoalB,NULL
1687287250,a0c796167b28e0e434ec7ce941361278,PennController,22,0,experiment,NULL,Canvas,canvas6,Print,NA,1687287014017,5ac8fd9f0527ba0001c23ddb,5ac8fd9f0527ba0001c23ddb,19,cup,filler,D,25,cup15.jpg,cup35.jpg,GoalB,NULL
1687287250,a0c796167b28e0e434ec7ce941361278,PennController,22,0,experiment,NULL,Video,progression,buffer,0.005097,1687287011850,5ac8fd9f0527ba0001c23ddb,5ac8fd9f0527ba0001c23ddb,19,cup,filler,D,25,cup15.jpg,cup35.jpg,GoalB,NULL
1687287250,a0c796167b28e0e434ec7ce941361278,PennController,22,0,experiment,NULL,Selector,choice,Selection,option1,1687287017994,5ac8fd9f0527ba0001c23ddb,5ac8fd9f0527ba0001c23ddb,19,cup,filler,D,25,cup15.jpg,cup35.jpg,GoalB,option2;option1
1687287250,a0c796167b28e0e434ec7ce941361278,PennController,22,0,experiment,NULL,PennController,21,_Trial_,End,1687287017995,5ac8fd9f0527ba0001c23ddb,5ac8fd9f0527ba0001c23ddb,19,cup,filler,D,25,cup15.jpg,cup35.jpg,GoalB,NULL
1687287250,a0c796167b28e0e434ec7ce941361278,PennController,21,0,experiment,NULL,PennController,20,_Trial_,Start,1687287017996,5ac8fd9f0527ba0001c23ddb,5ac8fd9f0527ba0001c23ddb,18,ball,critical,D,75,ball65.jpg,ball85.jpg,high,NULL
1687287250,a0c796167b28e0e434ec7ce941361278,PennController,21,0,experiment,NULL,PennController,20,_Header_,Start,1687287017996,5ac8fd9f0527ba0001c23ddb,5ac8fd9f0527ba0001c23ddb,18,ball,critical,D,75,ball65.jpg,ball85.jpg,high,NULL
1687287250,a0c796167b28e0e434ec7ce941361278,PennController,21,0,experiment,NULL,PennController,20,_Header_,End,1687287017996,5ac8fd9f0527ba0001c23ddb,5ac8fd9f0527ba0001c23ddb,18,ball,critical,D,75,ball65.jpg,ball85.jpg,high,NULL
1687287250,a0c796167b28e0e434ec7ce941361278,PennController,21,0,experiment,NULL,Canvas,canvas6,Print,NA,1687287025685,5ac8fd9f0527ba0001c23ddb,5ac8fd9f0527ba0001c23ddb,18,ball,critical,D,75,ball65.jpg,ball85.jpg,high,NULL
1687287250,a0c796167b28e0e434ec7ce941361278,PennController,21,0,experiment,NULL,Video,progression,buffer,0,1687287021517,5ac8fd9f0527ba0001c23ddb,5ac8fd9f0527ba0001c23ddb,18,ball,critical,D,75,ball65.jpg,ball85.jpg,high,NULL
1687287250,a0c796167b28e0e434ec7ce941361278,PennController,21,0,experiment,NULL,Selector,choice,Selection,option1,1687287029274,5ac8fd9f0527ba0001c23ddb,5ac8fd9f0527ba0001c23ddb,18,ball,critical,D,75,ball65.jpg,ball85.jpg,high,option2;option1
1687287250,a0c796167b28e0e434ec7ce941361278,PennController,21,0,experiment,NULL,PennController,20,_Trial_,End,1687287029275,5ac8fd9f0527ba0001c23ddb,5ac8fd9f0527ba0001c23ddb,18,ball,critical,D,75,ball65.jpg,ball85.jpg,high,NULL
1687287250,a0c796167b28e0e434ec7ce941361278,PennController,7,0,experiment,NULL,PennController,6,_Trial_,Start,1687287029277,5ac8fd9f0527ba0001c23ddb,5ac8fd9f0527ba0001c23ddb,4,candy,critical,D,25,candy15.jpg,candy35.jpg,high,NULL
1687287250,a0c796167b28e0e434ec7ce941361278,PennController,7,0,experiment,NULL,PennController,6,_Header_,Start,1687287029277,5ac8fd9f0527ba0001c23ddb,5ac8fd9f0527ba0001c23ddb,4,candy,critical,D,25,candy15.jpg,candy35.jpg,high,NULL
1687287250,a0c796167b28e0e434ec7ce941361278,PennController,7,0,experiment,NULL,PennController,6,_Header_,End,1687287029277,5ac8fd9f0527ba0001c23ddb,5ac8fd9f0527ba0001c23ddb,4,candy,critical,D,25,candy15.jpg,candy35.jpg,high,NULL
1687287250,a0c796167b28e0e434ec7ce941361278,PennController,7,0,experiment,NULL,Canvas,canvas6,Print,NA,1687287034971,5ac8fd9f0527ba0001c23ddb,5ac8fd9f0527ba0001c23ddb,4,candy,critical,D,25,candy15.jpg,candy35.jpg,high,NULL
1687287250,a0c796167b28e0e434ec7ce941361278,PennController,7,0,experiment,NULL,Video,progression,buffer,0.001883,1687287032800,5ac8fd9f0527ba0001c23ddb,5ac8fd9f0527ba0001c23ddb,4,candy,critical,D,25,candy15.jpg,candy35.jpg,high,NULL
1687287250,a0c796167b28e0e434ec7ce941361278,PennController,7,0,experiment,NULL,Selector,choice,Selection,option1,1687287038618,5ac8fd9f0527ba0001c23ddb,5ac8fd9f0527ba0001c23ddb,4,candy,critical,D,25,candy15.jpg,candy35.jpg,high,option2;option1
1687287250,a0c796167b28e0e434ec7ce941361278,PennController,7,0,experiment,NULL,PennController,6,_Trial_,End,1687287038619,5ac8fd9f0527ba0001c23ddb,5ac8fd9f0527ba0001c23ddb,4,candy,critical,D,25,candy15.jpg,candy35.jpg,high,NULL
1687287250,a0c796167b28e0e434ec7ce941361278,PennController,20,0,experiment,NULL,PennController,19,_Trial_,Start,1687287038620,5ac8fd9f0527ba0001c23ddb,5ac8fd9f0527ba0001c23ddb,17,roll,critical,D,50,roll40.jpg,roll60.jpg,high,NULL
1687287250,a0c796167b28e0e434ec7ce941361278,PennController,20,0,experiment,NULL,PennController,19,_Header_,Start,1687287038620,5ac8fd9f0527ba0001c23ddb,5ac8fd9f0527ba0001c23ddb,17,roll,critical,D,50,roll40.jpg,roll60.jpg,high,NULL
1687287250,a0c796167b28e0e434ec7ce941361278,PennController,20,0,experiment,NULL,PennController,19,_Header_,End,1687287038620,5ac8fd9f0527ba0001c23ddb,5ac8fd9f0527ba0001c23ddb,17,roll,critical,D,50,roll40.jpg,roll60.jpg,high,NULL
1687287250,a0c796167b28e0e434ec7ce941361278,PennController,20,0,experiment,NULL,Canvas,canvas6,Print,NA,1687287045350,5ac8fd9f0527ba0001c23ddb,5ac8fd9f0527ba0001c23ddb,17,roll,critical,D,50,roll40.jpg,roll60.jpg,high,NULL
1687287250,a0c796167b28e0e434ec7ce941361278,PennController,20,0,experiment,NULL,Video,progression,buffer,0,1687287042151,5ac8fd9f0527ba0001c23ddb,5ac8fd9f0527ba0001c23ddb,17,roll,critical,D,50,roll40.jpg,roll60.jpg,high,NULL
1687287250,a0c796167b28e0e434ec7ce941361278,PennController,20,0,experiment,NULL,Selector,choice,Selection,option1,1687287047396,5ac8fd9f0527ba0001c23ddb,5ac8fd9f0527ba0001c23ddb,17,roll,critical,D,50,roll40.jpg,roll60.jpg,high,option2;option1
1687287250,a0c796167b28e0e434ec7ce941361278,PennController,20,0,experiment,NULL,PennController,19,_Trial_,End,1687287047397,5ac8fd9f0527ba0001c23ddb,5ac8fd9f0527ba0001c23ddb,17,roll,critical,D,50,roll40.jpg,roll60.jpg,high,NULL
1687287250,a0c796167b28e0e434ec7ce941361278,PennController,29,0,experiment,NULL,PennController,28,_Trial_,Start,1687287047399,5ac8fd9f0527ba0001c23ddb,5ac8fd9f0527ba0001c23ddb,26,sandwich,filler,D,50,sandwich40.jpg,sandwich60.jpg,GoalA,NULL
1687287250,a0c796167b28e0e434ec7ce941361278,PennController,29,0,experiment,NULL,PennController,28,_Header_,Start,1687287047399,5ac8fd9f0527ba0001c23ddb,5ac8fd9f0527ba0001c23ddb,26,sandwich,filler,D,50,sandwich40.jpg,sandwich60.jpg,GoalA,NULL
1687287250,a0c796167b28e0e434ec7ce941361278,PennController,29,0,experiment,NULL,PennController,28,_Header_,End,1687287047399,5ac8fd9f0527ba0001c23ddb,5ac8fd9f0527ba0001c23ddb,26,sandwich,filler,D,50,sandwich40.jpg,sandwich60.jpg,GoalA,NULL
1687287250,a0c796167b28e0e434ec7ce941361278,PennController,29,0,experiment,NULL,Canvas,canvas6,Print,NA,1687287054085,5ac8fd9f0527ba0001c23ddb,5ac8fd9f0527ba0001c23ddb,26,sandwich,filler,D,50,sandwich40.jpg,sandwich60.jpg,GoalA,NULL
1687287250,a0c796167b28e0e434ec7ce941361278,PennController,29,0,experiment,NULL,Video,progression,buffer,0.003729,1687287050920,5ac8fd9f0527ba0001c23ddb,5ac8fd9f0527ba0001c23ddb,26,sandwich,filler,D,50,sandwich40.jpg,sandwich60.jpg,GoalA,NULL
1687287250,a0c796167b28e0e434ec7ce941361278,PennController,29,0,experiment,NULL,Selector,choice,Selection,option1,1687287055865,5ac8fd9f0527ba0001c23ddb,5ac8fd9f0527ba0001c23ddb,26,sandwich,filler,D,50,sandwich40.jpg,sandwich60.jpg,GoalA,option2;option1
1687287250,a0c796167b28e0e434ec7ce941361278,PennController,29,0,experiment,NULL,PennController,28,_Trial_,End,1687287055866,5ac8fd9f0527ba0001c23ddb,5ac8fd9f0527ba0001c23ddb,26,sandwich,filler,D,50,sandwich40.jpg,sandwich60.jpg,GoalA,NULL
1687287250,a0c796167b28e0e434ec7ce941361278,PennController,15,0,experiment,NULL,PennController,14,_Trial_,Start,1687287055867,5ac8fd9f0527ba0001c23ddb,5ac8fd9f0527ba0001c23ddb,12,erase,critical,D,75,erase66.jpg,erase84.jpg,high,NULL
1687287250,a0c796167b28e0e434ec7ce941361278,PennController,15,0,experiment,NULL,PennController,14,_Header_,Start,1687287055867,5ac8fd9f0527ba0001c23ddb,5ac8fd9f0527ba0001c23ddb,12,erase,critical,D,75,erase66.jpg,erase84.jpg,high,NULL
1687287250,a0c796167b28e0e434ec7ce941361278,PennController,15,0,experiment,NULL,PennController,14,_Header_,End,1687287055867,5ac8fd9f0527ba0001c23ddb,5ac8fd9f0527ba0001c23ddb,12,erase,critical,D,75,erase66.jpg,erase84.jpg,high,NULL
1687287250,a0c796167b28e0e434ec7ce941361278,PennController,15,0,experiment,NULL,Canvas,canvas6,Print,NA,1687287065553,5ac8fd9f0527ba0001c23ddb,5ac8fd9f0527ba0001c23ddb,12,erase,critical,D,75,erase66.jpg,erase84.jpg,high,NULL
1687287250,a0c796167b28e0e434ec7ce941361278,PennController,15,0,experiment,NULL,Video,progression,buffer,0,1687287059389,5ac8fd9f0527ba0001c23ddb,5ac8fd9f0527ba0001c23ddb,12,erase,critical,D,75,erase66.jpg,erase84.jpg,high,NULL
1687287250,a0c796167b28e0e434ec7ce941361278,PennController,15,0,experiment,NULL,Selector,choice,Selection,option2,1687287070434,5ac8fd9f0527ba0001c23ddb,5ac8fd9f0527ba0001c23ddb,12,erase,critical,D,75,erase66.jpg,erase84.jpg,high,option2;option1
1687287250,a0c796167b28e0e434ec7ce941361278,PennController,15,0,experiment,NULL,PennController,14,_Trial_,End,1687287070435,5ac8fd9f0527ba0001c23ddb,5ac8fd9f0527ba0001c23ddb,12,erase,critical,D,75,erase66.jpg,erase84.jpg,high,NULL
1687287250,a0c796167b28e0e434ec7ce941361278,PennController,6,0,experiment,NULL,PennController,5,_Trial_,Start,1687287070437,5ac8fd9f0527ba0001c23ddb,5ac8fd9f0527ba0001c23ddb,3,clean,critical,D,75,clean65.jpg,clean85.jpg,high,NULL
1687287250,a0c796167b28e0e434ec7ce941361278,PennController,6,0,experiment,NULL,PennController,5,_Header_,Start,1687287070437,5ac8fd9f0527ba0001c23ddb,5ac8fd9f0527ba0001c23ddb,3,clean,critical,D,75,clean65.jpg,clean85.jpg,high,NULL
1687287250,a0c796167b28e0e434ec7ce941361278,PennController,6,0,experiment,NULL,PennController,5,_Header_,End,1687287070437,5ac8fd9f0527ba0001c23ddb,5ac8fd9f0527ba0001c23ddb,3,clean,critical,D,75,clean65.jpg,clean85.jpg,high,NULL
1687287250,a0c796167b28e0e434ec7ce941361278,PennController,6,0,experiment,NULL,Canvas,canvas6,Print,NA,1687287078137,5ac8fd9f0527ba0001c23ddb,5ac8fd9f0527ba0001c23ddb,3,clean,critical,D,75,clean65.jpg,clean85.jpg,high,NULL
1687287250,a0c796167b28e0e434ec7ce941361278,PennController,6,0,experiment,NULL,Video,progression,buffer,0,1687287073962,5ac8fd9f0527ba0001c23ddb,5ac8fd9f0527ba0001c23ddb,3,clean,critical,D,75,clean65.jpg,clean85.jpg,high,NULL
1687287250,a0c796167b28e0e434ec7ce941361278,PennController,6,0,experiment,NULL,Selector,choice,Selection,option2,1687287081666,5ac8fd9f0527ba0001c23ddb,5ac8fd9f0527ba0001c23ddb,3,clean,critical,D,75,clean65.jpg,clean85.jpg,high,option2;option1
1687287250,a0c796167b28e0e434ec7ce941361278,PennController,6,0,experiment,NULL,PennController,5,_Trial_,End,1687287081667,5ac8fd9f0527ba0001c23ddb,5ac8fd9f0527ba0001c23ddb,3,clean,critical,D,75,clean65.jpg,clean85.jpg,high,NULL
1687287250,a0c796167b28e0e434ec7ce941361278,PennController,13,0,experiment,NULL,PennController,12,_Trial_,Start,1687287081668,5ac8fd9f0527ba0001c23ddb,5ac8fd9f0527ba0001c23ddb,10,train,critical,D,25,train15.jpg,train35.jpg,high,NULL
1687287250,a0c796167b28e0e434ec7ce941361278,PennController,13,0,experiment,NULL,PennController,12,_Header_,Start,1687287081668,5ac8fd9f0527ba0001c23ddb,5ac8fd9f0527ba0001c23ddb,10,train,critical,D,25,train15.jpg,train35.jpg,high,NULL
1687287250,a0c796167b28e0e434ec7ce941361278,PennController,13,0,experiment,NULL,PennController,12,_Header_,End,1687287081668,5ac8fd9f0527ba0001c23ddb,5ac8fd9f0527ba0001c23ddb,10,train,critical,D,25,train15.jpg,train35.jpg,high,NULL
1687287250,a0c796167b28e0e434ec7ce941361278,PennController,13,0,experiment,NULL,Canvas,canvas6,Print,NA,1687287087353,5ac8fd9f0527ba0001c23ddb,5ac8fd9f0527ba0001c23ddb,10,train,critical,D,25,train15.jpg,train35.jpg,high,NULL
1687287250,a0c796167b28e0e434ec7ce941361278,PennController,13,0,experiment,NULL,Video,progression,buffer,0.002818,1687287085192,5ac8fd9f0527ba0001c23ddb,5ac8fd9f0527ba0001c23ddb,10,train,critical,D,25,train15.jpg,train35.jpg,high,NULL
1687287250,a0c796167b28e0e434ec7ce941361278,PennController,13,0,experiment,NULL,Selector,choice,Selection,option2,1687287091818,5ac8fd9f0527ba0001c23ddb,5ac8fd9f0527ba0001c23ddb,10,train,critical,D,25,train15.jpg,train35.jpg,high,option2;option1
1687287250,a0c796167b28e0e434ec7ce941361278,PennController,13,0,experiment,NULL,PennController,12,_Trial_,End,1687287091819,5ac8fd9f0527ba0001c23ddb,5ac8fd9f0527ba0001c23ddb,10,train,critical,D,25,train15.jpg,train35.jpg,high,NULL
1687287250,a0c796167b28e0e434ec7ce941361278,PennController,28,0,experiment,NULL,PennController,27,_Trial_,Start,1687287091821,5ac8fd9f0527ba0001c23ddb,5ac8fd9f0527ba0001c23ddb,25,house,filler,D,25,house15.jpg,house35.jpg,GoalB,NULL
1687287250,a0c796167b28e0e434ec7ce941361278,PennController,28,0,experiment,NULL,PennController,27,_Header_,Start,1687287091821,5ac8fd9f0527ba0001c23ddb,5ac8fd9f0527ba0001c23ddb,25,house,filler,D,25,house15.jpg,house35.jpg,GoalB,NULL
1687287250,a0c796167b28e0e434ec7ce941361278,PennController,28,0,experiment,NULL,PennController,27,_Header_,End,1687287091821,5ac8fd9f0527ba0001c23ddb,5ac8fd9f0527ba0001c23ddb,25,house,filler,D,25,house15.jpg,house35.jpg,GoalB,NULL
1687287250,a0c796167b28e0e434ec7ce941361278,PennController,28,0,experiment,NULL,Canvas,canvas6,Print,NA,1687287097502,5ac8fd9f0527ba0001c23ddb,5ac8fd9f0527ba0001c23ddb,25,house,filler,D,25,house15.jpg,house35.jpg,GoalB,NULL
1687287250,a0c796167b28e0e434ec7ce941361278,PennController,28,0,experiment,NULL,Video,progression,buffer,0,1687287095340,5ac8fd9f0527ba0001c23ddb,5ac8fd9f0527ba0001c23ddb,25,house,filler,D,25,house15.jpg,house35.jpg,GoalB,NULL
1687287250,a0c796167b28e0e434ec7ce941361278,PennController,28,0,experiment,NULL,Selector,choice,Selection,option2,1687287100722,5ac8fd9f0527ba0001c23ddb,5ac8fd9f0527ba0001c23ddb,25,house,filler,D,25,house15.jpg,house35.jpg,GoalB,option2;option1
1687287250,a0c796167b28e0e434ec7ce941361278,PennController,28,0,experiment,NULL,PennController,27,_Trial_,End,1687287100723,5ac8fd9f0527ba0001c23ddb,5ac8fd9f0527ba0001c23ddb,25,house,filler,D,25,house15.jpg,house35.jpg,GoalB,NULL
1687287250,a0c796167b28e0e434ec7ce941361278,PennController,32,0,experiment,NULL,PennController,31,_Trial_,Start,1687287100724,5ac8fd9f0527ba0001c23ddb,5ac8fd9f0527ba0001c23ddb,29,frog,filler,D,50,frog40.jpg,frog60.jpg,GoalB,NULL
1687287250,a0c796167b28e0e434ec7ce941361278,PennController,32,0,experiment,NULL,PennController,31,_Header_,Start,1687287100724,5ac8fd9f0527ba0001c23ddb,5ac8fd9f0527ba0001c23ddb,29,frog,filler,D,50,frog40.jpg,frog60.jpg,GoalB,NULL
1687287250,a0c796167b28e0e434ec7ce941361278,PennController,32,0,experiment,NULL,PennController,31,_Header_,End,1687287100724,5ac8fd9f0527ba0001c23ddb,5ac8fd9f0527ba0001c23ddb,29,frog,filler,D,50,frog40.jpg,frog60.jpg,GoalB,NULL
1687287250,a0c796167b28e0e434ec7ce941361278,PennController,32,0,experiment,NULL,Canvas,canvas6,Print,NA,1687287107419,5ac8fd9f0527ba0001c23ddb,5ac8fd9f0527ba0001c23ddb,29,frog,filler,D,50,frog40.jpg,frog60.jpg,GoalB,NULL
1687287250,a0c796167b28e0e434ec7ce941361278,PennController,32,0,experiment,NULL,Video,progression,buffer,0,1687287104245,5ac8fd9f0527ba0001c23ddb,5ac8fd9f0527ba0001c23ddb,29,frog,filler,D,50,frog40.jpg,frog60.jpg,GoalB,NULL
1687287250,a0c796167b28e0e434ec7ce941361278,PennController,32,0,experiment,NULL,Selector,choice,Selection,option1,1687287109538,5ac8fd9f0527ba0001c23ddb,5ac8fd9f0527ba0001c23ddb,29,frog,filler,D,50,frog40.jpg,frog60.jpg,GoalB,option1;option2
1687287250,a0c796167b28e0e434ec7ce941361278,PennController,32,0,experiment,NULL,PennController,31,_Trial_,End,1687287109539,5ac8fd9f0527ba0001c23ddb,5ac8fd9f0527ba0001c23ddb,29,frog,filler,D,50,frog40.jpg,frog60.jpg,GoalB,NULL
1687287250,a0c796167b28e0e434ec7ce941361278,PennController,27,0,experiment,NULL,PennController,26,_Trial_,Start,1687287109540,5ac8fd9f0527ba0001c23ddb,5ac8fd9f0527ba0001c23ddb,24,match,filler,D,75,match65.jpg,match85.jpg,GoalA,NULL
1687287250,a0c796167b28e0e434ec7ce941361278,PennController,27,0,experiment,NULL,PennController,26,_Header_,Start,1687287109540,5ac8fd9f0527ba0001c23ddb,5ac8fd9f0527ba0001c23ddb,24,match,filler,D,75,match65.jpg,match85.jpg,GoalA,NULL
1687287250,a0c796167b28e0e434ec7ce941361278,PennController,27,0,experiment,NULL,PennController,26,_Header_,End,1687287109540,5ac8fd9f0527ba0001c23ddb,5ac8fd9f0527ba0001c23ddb,24,match,filler,D,75,match65.jpg,match85.jpg,GoalA,NULL
1687287250,a0c796167b28e0e434ec7ce941361278,PennController,27,0,experiment,NULL,Canvas,canvas6,Print,NA,1687287117232,5ac8fd9f0527ba0001c23ddb,5ac8fd9f0527ba0001c23ddb,24,match,filler,D,75,match65.jpg,match85.jpg,GoalA,NULL
1687287250,a0c796167b28e0e434ec7ce941361278,PennController,27,0,experiment,NULL,Video,progression,buffer,0.003991,1687287113066,5ac8fd9f0527ba0001c23ddb,5ac8fd9f0527ba0001c23ddb,24,match,filler,D,75,match65.jpg,match85.jpg,GoalA,NULL
1687287250,a0c796167b28e0e434ec7ce941361278,PennController,27,0,experiment,NULL,Selector,choice,Selection,option2,1687287119770,5ac8fd9f0527ba0001c23ddb,5ac8fd9f0527ba0001c23ddb,24,match,filler,D,75,match65.jpg,match85.jpg,GoalA,option2;option1
1687287250,a0c796167b28e0e434ec7ce941361278,PennController,27,0,experiment,NULL,PennController,26,_Trial_,End,1687287119771,5ac8fd9f0527ba0001c23ddb,5ac8fd9f0527ba0001c23ddb,24,match,filler,D,75,match65.jpg,match85.jpg,GoalA,NULL
1687287250,a0c796167b28e0e434ec7ce941361278,PennController,18,0,experiment,NULL,PennController,17,_Trial_,Start,1687287119772,5ac8fd9f0527ba0001c23ddb,5ac8fd9f0527ba0001c23ddb,15,zip,critical,D,75,zip65.jpg,zip85.jpg,high,NULL
1687287250,a0c796167b28e0e434ec7ce941361278,PennController,18,0,experiment,NULL,PennController,17,_Header_,Start,1687287119772,5ac8fd9f0527ba0001c23ddb,5ac8fd9f0527ba0001c23ddb,15,zip,critical,D,75,zip65.jpg,zip85.jpg,high,NULL
1687287250,a0c796167b28e0e434ec7ce941361278,PennController,18,0,experiment,NULL,PennController,17,_Header_,End,1687287119772,5ac8fd9f0527ba0001c23ddb,5ac8fd9f0527ba0001c23ddb,15,zip,critical,D,75,zip65.jpg,zip85.jpg,high,NULL
1687287250,a0c796167b28e0e434ec7ce941361278,PennController,18,0,experiment,NULL,Canvas,canvas6,Print,NA,1687287126673,5ac8fd9f0527ba0001c23ddb,5ac8fd9f0527ba0001c23ddb,15,zip,critical,D,75,zip65.jpg,zip85.jpg,high,NULL
1687287250,a0c796167b28e0e434ec7ce941361278,PennController,18,0,experiment,NULL,Video,progression,buffer,0,1687287123300,5ac8fd9f0527ba0001c23ddb,5ac8fd9f0527ba0001c23ddb,15,zip,critical,D,75,zip65.jpg,zip85.jpg,high,NULL
1687287250,a0c796167b28e0e434ec7ce941361278,PennController,18,0,experiment,NULL,Selector,choice,Selection,option2,1687287128922,5ac8fd9f0527ba0001c23ddb,5ac8fd9f0527ba0001c23ddb,15,zip,critical,D,75,zip65.jpg,zip85.jpg,high,option1;option2
1687287250,a0c796167b28e0e434ec7ce941361278,PennController,18,0,experiment,NULL,PennController,17,_Trial_,End,1687287128923,5ac8fd9f0527ba0001c23ddb,5ac8fd9f0527ba0001c23ddb,15,zip,critical,D,75,zip65.jpg,zip85.jpg,high,NULL
1687287250,a0c796167b28e0e434ec7ce941361278,PennController,31,0,experiment,NULL,PennController,30,_Trial_,Start,1687287128924,5ac8fd9f0527ba0001c23ddb,5ac8fd9f0527ba0001c23ddb,28,sort,filler,D,25,sort15.jpg,sort35.jpg,GoalA,NULL
1687287250,a0c796167b28e0e434ec7ce941361278,PennController,31,0,experiment,NULL,PennController,30,_Header_,Start,1687287128924,5ac8fd9f0527ba0001c23ddb,5ac8fd9f0527ba0001c23ddb,28,sort,filler,D,25,sort15.jpg,sort35.jpg,GoalA,NULL
1687287250,a0c796167b28e0e434ec7ce941361278,PennController,31,0,experiment,NULL,PennController,30,_Header_,End,1687287128924,5ac8fd9f0527ba0001c23ddb,5ac8fd9f0527ba0001c23ddb,28,sort,filler,D,25,sort15.jpg,sort35.jpg,GoalA,NULL
1687287250,a0c796167b28e0e434ec7ce941361278,PennController,31,0,experiment,NULL,Canvas,canvas6,Print,NA,1687287134605,5ac8fd9f0527ba0001c23ddb,5ac8fd9f0527ba0001c23ddb,28,sort,filler,D,25,sort15.jpg,sort35.jpg,GoalA,NULL
1687287250,a0c796167b28e0e434ec7ce941361278,PennController,31,0,experiment,NULL,Video,progression,buffer,0.003679,1687287132446,5ac8fd9f0527ba0001c23ddb,5ac8fd9f0527ba0001c23ddb,28,sort,filler,D,25,sort15.jpg,sort35.jpg,GoalA,NULL
1687287250,a0c796167b28e0e434ec7ce941361278,PennController,31,0,experiment,NULL,Selector,choice,Selection,option2,1687287136362,5ac8fd9f0527ba0001c23ddb,5ac8fd9f0527ba0001c23ddb,28,sort,filler,D,25,sort15.jpg,sort35.jpg,GoalA,option1;option2
1687287250,a0c796167b28e0e434ec7ce941361278,PennController,31,0,experiment,NULL,PennController,30,_Trial_,End,1687287136363,5ac8fd9f0527ba0001c23ddb,5ac8fd9f0527ba0001c23ddb,28,sort,filler,D,25,sort15.jpg,sort35.jpg,GoalA,NULL
1687287250,a0c796167b28e0e434ec7ce941361278,PennController,5,0,experiment,NULL,PennController,4,_Trial_,Start,1687287136364,5ac8fd9f0527ba0001c23ddb,5ac8fd9f0527ba0001c23ddb,2,door,critical,D,50,door40.jpg,door60.jpg,high,NULL
1687287250,a0c796167b28e0e434ec7ce941361278,PennController,5,0,experiment,NULL,PennController,4,_Header_,Start,1687287136364,5ac8fd9f0527ba0001c23ddb,5ac8fd9f0527ba0001c23ddb,2,door,critical,D,50,door40.jpg,door60.jpg,high,NULL
1687287250,a0c796167b28e0e434ec7ce941361278,PennController,5,0,experiment,NULL,PennController,4,_Header_,End,1687287136364,5ac8fd9f0527ba0001c23ddb,5ac8fd9f0527ba0001c23ddb,2,door,critical,D,50,door40.jpg,door60.jpg,high,NULL
1687287250,a0c796167b28e0e434ec7ce941361278,PennController,5,0,experiment,NULL,Canvas,canvas6,Print,NA,1687287143085,5ac8fd9f0527ba0001c23ddb,5ac8fd9f0527ba0001c23ddb,2,door,critical,D,50,door40.jpg,door60.jpg,high,NULL
1687287250,a0c796167b28e0e434ec7ce941361278,PennController,5,0,experiment,NULL,Video,progression,buffer,0,1687287139887,5ac8fd9f0527ba0001c23ddb,5ac8fd9f0527ba0001c23ddb,2,door,critical,D,50,door40.jpg,door60.jpg,high,NULL
1687287250,a0c796167b28e0e434ec7ce941361278,PennController,5,0,experiment,NULL,Selector,choice,Selection,option2,1687287148786,5ac8fd9f0527ba0001c23ddb,5ac8fd9f0527ba0001c23ddb,2,door,critical,D,50,door40.jpg,door60.jpg,high,option2;option1
1687287250,a0c796167b28e0e434ec7ce941361278,PennController,5,0,experiment,NULL,PennController,4,_Trial_,End,1687287148787,5ac8fd9f0527ba0001c23ddb,5ac8fd9f0527ba0001c23ddb,2,door,critical,D,50,door40.jpg,door60.jpg,high,NULL
1687287250,a0c796167b28e0e434ec7ce941361278,PennController,14,0,experiment,NULL,PennController,13,_Trial_,Start,1687287148788,5ac8fd9f0527ba0001c23ddb,5ac8fd9f0527ba0001c23ddb,11,beads,critical,D,50,beads40.jpg,beads60.jpg,high,NULL
1687287250,a0c796167b28e0e434ec7ce941361278,PennController,14,0,experiment,NULL,PennController,13,_Header_,Start,1687287148788,5ac8fd9f0527ba0001c23ddb,5ac8fd9f0527ba0001c23ddb,11,beads,critical,D,50,beads40.jpg,beads60.jpg,high,NULL
1687287250,a0c796167b28e0e434ec7ce941361278,PennController,14,0,experiment,NULL,PennController,13,_Header_,End,1687287148788,5ac8fd9f0527ba0001c23ddb,5ac8fd9f0527ba0001c23ddb,11,beads,critical,D,50,beads40.jpg,beads60.jpg,high,NULL
1687287250,a0c796167b28e0e434ec7ce941361278,PennController,14,0,experiment,NULL,Canvas,canvas6,Print,NA,1687287155463,5ac8fd9f0527ba0001c23ddb,5ac8fd9f0527ba0001c23ddb,11,beads,critical,D,50,beads40.jpg,beads60.jpg,high,NULL
1687287250,a0c796167b28e0e434ec7ce941361278,PennController,14,0,experiment,NULL,Video,progression,buffer,0.002864,1687287152310,5ac8fd9f0527ba0001c23ddb,5ac8fd9f0527ba0001c23ddb,11,beads,critical,D,50,beads40.jpg,beads60.jpg,high,NULL
1687287250,a0c796167b28e0e434ec7ce941361278,PennController,14,0,experiment,NULL,Selector,choice,Selection,option2,1687287158611,5ac8fd9f0527ba0001c23ddb,5ac8fd9f0527ba0001c23ddb,11,beads,critical,D,50,beads40.jpg,beads60.jpg,high,option2;option1
1687287250,a0c796167b28e0e434ec7ce941361278,PennController,14,0,experiment,NULL,PennController,13,_Trial_,End,1687287158612,5ac8fd9f0527ba0001c23ddb,5ac8fd9f0527ba0001c23ddb,11,beads,critical,D,50,beads40.jpg,beads60.jpg,high,NULL
1687287250,a0c796167b28e0e434ec7ce941361278,PennController,10,0,experiment,NULL,PennController,9,_Trial_,Start,1687287158613,5ac8fd9f0527ba0001c23ddb,5ac8fd9f0527ba0001c23ddb,7,stack,critical,D,25,stack15.jpg,stack35.jpg,high,NULL
1687287250,a0c796167b28e0e434ec7ce941361278,PennController,10,0,experiment,NULL,PennController,9,_Header_,Start,1687287158613,5ac8fd9f0527ba0001c23ddb,5ac8fd9f0527ba0001c23ddb,7,stack,critical,D,25,stack15.jpg,stack35.jpg,high,NULL
1687287250,a0c796167b28e0e434ec7ce941361278,PennController,10,0,experiment,NULL,PennController,9,_Header_,End,1687287158613,5ac8fd9f0527ba0001c23ddb,5ac8fd9f0527ba0001c23ddb,7,stack,critical,D,25,stack15.jpg,stack35.jpg,high,NULL
1687287250,a0c796167b28e0e434ec7ce941361278,PennController,10,0,experiment,NULL,Canvas,canvas6,Print,NA,1687287164300,5ac8fd9f0527ba0001c23ddb,5ac8fd9f0527ba0001c23ddb,7,stack,critical,D,25,stack15.jpg,stack35.jpg,high,NULL
1687287250,a0c796167b28e0e434ec7ce941361278,PennController,10,0,experiment,NULL,Video,progression,buffer,0,1687287162133,5ac8fd9f0527ba0001c23ddb,5ac8fd9f0527ba0001c23ddb,7,stack,critical,D,25,stack15.jpg,stack35.jpg,high,NULL
1687287250,a0c796167b28e0e434ec7ce941361278,PennController,10,0,experiment,NULL,Selector,choice,Selection,option1,1687287172498,5ac8fd9f0527ba0001c23ddb,5ac8fd9f0527ba0001c23ddb,7,stack,critical,D,25,stack15.jpg,stack35.jpg,high,option1;option2
1687287250,a0c796167b28e0e434ec7ce941361278,PennController,10,0,experiment,NULL,PennController,9,_Trial_,End,1687287172499,5ac8fd9f0527ba0001c23ddb,5ac8fd9f0527ba0001c23ddb,7,stack,critical,D,25,stack15.jpg,stack35.jpg,high,NULL
1687287250,a0c796167b28e0e434ec7ce941361278,PennController,19,0,experiment,NULL,PennController,18,_Trial_,Start,1687287172500,5ac8fd9f0527ba0001c23ddb,5ac8fd9f0527ba0001c23ddb,16,blinds,critical,D,25,blinds15.jpg,blinds33.jpg,high,NULL
1687287250,a0c796167b28e0e434ec7ce941361278,PennController,19,0,experiment,NULL,PennController,18,_Header_,Start,1687287172500,5ac8fd9f0527ba0001c23ddb,5ac8fd9f0527ba0001c23ddb,16,blinds,critical,D,25,blinds15.jpg,blinds33.jpg,high,NULL
1687287250,a0c796167b28e0e434ec7ce941361278,PennController,19,0,experiment,NULL,PennController,18,_Header_,End,1687287172500,5ac8fd9f0527ba0001c23ddb,5ac8fd9f0527ba0001c23ddb,16,blinds,critical,D,25,blinds15.jpg,blinds33.jpg,high,NULL
1687287250,a0c796167b28e0e434ec7ce941361278,PennController,19,0,experiment,NULL,Canvas,canvas6,Print,NA,1687287178784,5ac8fd9f0527ba0001c23ddb,5ac8fd9f0527ba0001c23ddb,16,blinds,critical,D,25,blinds15.jpg,blinds33.jpg,high,NULL
1687287250,a0c796167b28e0e434ec7ce941361278,PennController,19,0,experiment,NULL,Video,progression,buffer,0.003691,1687287176026,5ac8fd9f0527ba0001c23ddb,5ac8fd9f0527ba0001c23ddb,16,blinds,critical,D,25,blinds15.jpg,blinds33.jpg,high,NULL
1687287250,a0c796167b28e0e434ec7ce941361278,PennController,19,0,experiment,NULL,Selector,choice,Selection,option2,1687287180434,5ac8fd9f0527ba0001c23ddb,5ac8fd9f0527ba0001c23ddb,16,blinds,critical,D,25,blinds15.jpg,blinds33.jpg,high,option1;option2
1687287250,a0c796167b28e0e434ec7ce941361278,PennController,19,0,experiment,NULL,PennController,18,_Trial_,End,1687287180435,5ac8fd9f0527ba0001c23ddb,5ac8fd9f0527ba0001c23ddb,16,blinds,critical,D,25,blinds15.jpg,blinds33.jpg,high,NULL
1687287250,a0c796167b28e0e434ec7ce941361278,PennController,17,0,experiment,NULL,PennController,16,_Trial_,Start,1687287180436,5ac8fd9f0527ba0001c23ddb,5ac8fd9f0527ba0001c23ddb,14,cover,critical,D,50,cover42.jpg,cover60.jpg,high,NULL
1687287250,a0c796167b28e0e434ec7ce941361278,PennController,17,0,experiment,NULL,PennController,16,_Header_,Start,1687287180436,5ac8fd9f0527ba0001c23ddb,5ac8fd9f0527ba0001c23ddb,14,cover,critical,D,50,cover42.jpg,cover60.jpg,high,NULL
1687287250,a0c796167b28e0e434ec7ce941361278,PennController,17,0,experiment,NULL,PennController,16,_Header_,End,1687287180436,5ac8fd9f0527ba0001c23ddb,5ac8fd9f0527ba0001c23ddb,14,cover,critical,D,50,cover42.jpg,cover60.jpg,high,NULL
1687287250,a0c796167b28e0e434ec7ce941361278,PennController,17,0,experiment,NULL,Canvas,canvas6,Print,NA,1687287188516,5ac8fd9f0527ba0001c23ddb,5ac8fd9f0527ba0001c23ddb,14,cover,critical,D,50,cover42.jpg,cover60.jpg,high,NULL
1687287250,a0c796167b28e0e434ec7ce941361278,PennController,17,0,experiment,NULL,Video,progression,buffer,0,1687287183953,5ac8fd9f0527ba0001c23ddb,5ac8fd9f0527ba0001c23ddb,14,cover,critical,D,50,cover42.jpg,cover60.jpg,high,NULL
1687287250,a0c796167b28e0e434ec7ce941361278,PennController,17,0,experiment,NULL,Selector,choice,Selection,option1,1687287192250,5ac8fd9f0527ba0001c23ddb,5ac8fd9f0527ba0001c23ddb,14,cover,critical,D,50,cover42.jpg,cover60.jpg,high,option1;option2
1687287250,a0c796167b28e0e434ec7ce941361278,PennController,17,0,experiment,NULL,PennController,16,_Trial_,End,1687287192251,5ac8fd9f0527ba0001c23ddb,5ac8fd9f0527ba0001c23ddb,14,cover,critical,D,50,cover42.jpg,cover60.jpg,high,NULL
1687287250,a0c796167b28e0e434ec7ce941361278,PennController,4,0,experiment,NULL,PennController,3,_Trial_,Start,1687287192252,5ac8fd9f0527ba0001c23ddb,5ac8fd9f0527ba0001c23ddb,1,vase,critical,D,25,vase15.jpg,vase35.jpg,high,NULL
1687287250,a0c796167b28e0e434ec7ce941361278,PennController,4,0,experiment,NULL,PennController,3,_Header_,Start,1687287192252,5ac8fd9f0527ba0001c23ddb,5ac8fd9f0527ba0001c23ddb,1,vase,critical,D,25,vase15.jpg,vase35.jpg,high,NULL
1687287250,a0c796167b28e0e434ec7ce941361278,PennController,4,0,experiment,NULL,PennController,3,_Header_,End,1687287192252,5ac8fd9f0527ba0001c23ddb,5ac8fd9f0527ba0001c23ddb,1,vase,critical,D,25,vase15.jpg,vase35.jpg,high,NULL
1687287250,a0c796167b28e0e434ec7ce941361278,PennController,4,0,experiment,NULL,Canvas,canvas6,Print,NA,1687287197952,5ac8fd9f0527ba0001c23ddb,5ac8fd9f0527ba0001c23ddb,1,vase,critical,D,25,vase15.jpg,vase35.jpg,high,NULL
1687287250,a0c796167b28e0e434ec7ce941361278,PennController,4,0,experiment,NULL,Video,progression,buffer,0.000745,1687287195779,5ac8fd9f0527ba0001c23ddb,5ac8fd9f0527ba0001c23ddb,1,vase,critical,D,25,vase15.jpg,vase35.jpg,high,NULL
1687287250,a0c796167b28e0e434ec7ce941361278,PennController,4,0,experiment,NULL,Selector,choice,Selection,option2,1687287199834,5ac8fd9f0527ba0001c23ddb,5ac8fd9f0527ba0001c23ddb,1,vase,critical,D,25,vase15.jpg,vase35.jpg,high,option1;option2
1687287250,a0c796167b28e0e434ec7ce941361278,PennController,4,0,experiment,NULL,PennController,3,_Trial_,End,1687287199835,5ac8fd9f0527ba0001c23ddb,5ac8fd9f0527ba0001c23ddb,1,vase,critical,D,25,vase15.jpg,vase35.jpg,high,NULL
1687287250,a0c796167b28e0e434ec7ce941361278,PennController,9,0,experiment,NULL,PennController,8,_Trial_,Start,1687287199836,5ac8fd9f0527ba0001c23ddb,5ac8fd9f0527ba0001c23ddb,6,flower,critical,D,75,flower65.jpg,flower85.jpg,high,NULL
1687287250,a0c796167b28e0e434ec7ce941361278,PennController,9,0,experiment,NULL,PennController,8,_Header_,Start,1687287199836,5ac8fd9f0527ba0001c23ddb,5ac8fd9f0527ba0001c23ddb,6,flower,critical,D,75,flower65.jpg,flower85.jpg,high,NULL
1687287250,a0c796167b28e0e434ec7ce941361278,PennController,9,0,experiment,NULL,PennController,8,_Header_,End,1687287199836,5ac8fd9f0527ba0001c23ddb,5ac8fd9f0527ba0001c23ddb,6,flower,critical,D,75,flower65.jpg,flower85.jpg,high,NULL
1687287250,a0c796167b28e0e434ec7ce941361278,PennController,9,0,experiment,NULL,Canvas,canvas6,Print,NA,1687287207534,5ac8fd9f0527ba0001c23ddb,5ac8fd9f0527ba0001c23ddb,6,flower,critical,D,75,flower65.jpg,flower85.jpg,high,NULL
1687287250,a0c796167b28e0e434ec7ce941361278,PennController,9,0,experiment,NULL,Video,progression,buffer,0,1687287203360,5ac8fd9f0527ba0001c23ddb,5ac8fd9f0527ba0001c23ddb,6,flower,critical,D,75,flower65.jpg,flower85.jpg,high,NULL
1687287250,a0c796167b28e0e434ec7ce941361278,PennController,9,0,experiment,NULL,Selector,choice,Selection,option2,1687287209081,5ac8fd9f0527ba0001c23ddb,5ac8fd9f0527ba0001c23ddb,6,flower,critical,D,75,flower65.jpg,flower85.jpg,high,option1;option2
1687287250,a0c796167b28e0e434ec7ce941361278,PennController,9,0,experiment,NULL,PennController,8,_Trial_,End,1687287209082,5ac8fd9f0527ba0001c23ddb,5ac8fd9f0527ba0001c23ddb,6,flower,critical,D,75,flower65.jpg,flower85.jpg,high,NULL
1687287250,a0c796167b28e0e434ec7ce941361278,PennController,24,0,experiment,NULL,PennController,23,_Trial_,Start,1687287209083,5ac8fd9f0527ba0001c23ddb,5ac8fd9f0527ba0001c23ddb,21,visit,filler,D,75,visit65.jpg,visit85.jpg,GoalB,NULL
1687287250,a0c796167b28e0e434ec7ce941361278,PennController,24,0,experiment,NULL,PennController,23,_Header_,Start,1687287209083,5ac8fd9f0527ba0001c23ddb,5ac8fd9f0527ba0001c23ddb,21,visit,filler,D,75,visit65.jpg,visit85.jpg,GoalB,NULL
1687287250,a0c796167b28e0e434ec7ce941361278,PennController,24,0,experiment,NULL,PennController,23,_Header_,End,1687287209083,5ac8fd9f0527ba0001c23ddb,5ac8fd9f0527ba0001c23ddb,21,visit,filler,D,75,visit65.jpg,visit85.jpg,GoalB,NULL
1687287250,a0c796167b28e0e434ec7ce941361278,PennController,24,0,experiment,NULL,Canvas,canvas6,Print,NA,1687287216768,5ac8fd9f0527ba0001c23ddb,5ac8fd9f0527ba0001c23ddb,21,visit,filler,D,75,visit65.jpg,visit85.jpg,GoalB,NULL
1687287250,a0c796167b28e0e434ec7ce941361278,PennController,24,0,experiment,NULL,Video,progression,buffer,0,1687287212602,5ac8fd9f0527ba0001c23ddb,5ac8fd9f0527ba0001c23ddb,21,visit,filler,D,75,visit65.jpg,visit85.jpg,GoalB,NULL
1687287250,a0c796167b28e0e434ec7ce941361278,PennController,24,0,experiment,NULL,Selector,choice,Selection,option1,1687287218466,5ac8fd9f0527ba0001c23ddb,5ac8fd9f0527ba0001c23ddb,21,visit,filler,D,75,visit65.jpg,visit85.jpg,GoalB,option2;option1
1687287250,a0c796167b28e0e434ec7ce941361278,PennController,24,0,experiment,NULL,PennController,23,_Trial_,End,1687287218467,5ac8fd9f0527ba0001c23ddb,5ac8fd9f0527ba0001c23ddb,21,visit,filler,D,75,visit65.jpg,visit85.jpg,GoalB,NULL
1687287250,a0c796167b28e0e434ec7ce941361278,PennController,12,0,experiment,NULL,PennController,11,_Trial_,Start,1687287218469,5ac8fd9f0527ba0001c23ddb,5ac8fd9f0527ba0001c23ddb,9,cake,critical,D,75,cake66.jpg,cake84.jpg,high,NULL
1687287250,a0c796167b28e0e434ec7ce941361278,PennController,12,0,experiment,NULL,PennController,11,_Header_,Start,1687287218469,5ac8fd9f0527ba0001c23ddb,5ac8fd9f0527ba0001c23ddb,9,cake,critical,D,75,cake66.jpg,cake84.jpg,high,NULL
1687287250,a0c796167b28e0e434ec7ce941361278,PennController,12,0,experiment,NULL,PennController,11,_Header_,End,1687287218469,5ac8fd9f0527ba0001c23ddb,5ac8fd9f0527ba0001c23ddb,9,cake,critical,D,75,cake66.jpg,cake84.jpg,high,NULL
1687287250,a0c796167b28e0e434ec7ce941361278,PennController,12,0,experiment,NULL,Canvas,canvas6,Print,NA,1687287228150,5ac8fd9f0527ba0001c23ddb,5ac8fd9f0527ba0001c23ddb,9,cake,critical,D,75,cake66.jpg,cake84.jpg,high,NULL
1687287250,a0c796167b28e0e434ec7ce941361278,PennController,12,0,experiment,NULL,Video,progression,buffer,0,1687287221984,5ac8fd9f0527ba0001c23ddb,5ac8fd9f0527ba0001c23ddb,9,cake,critical,D,75,cake66.jpg,cake84.jpg,high,NULL
1687287250,a0c796167b28e0e434ec7ce941361278,PennController,12,0,experiment,NULL,Selector,choice,Selection,option2,1687287230066,5ac8fd9f0527ba0001c23ddb,5ac8fd9f0527ba0001c23ddb,9,cake,critical,D,75,cake66.jpg,cake84.jpg,high,option2;option1
1687287250,a0c796167b28e0e434ec7ce941361278,PennController,12,0,experiment,NULL,PennController,11,_Trial_,End,1687287230067,5ac8fd9f0527ba0001c23ddb,5ac8fd9f0527ba0001c23ddb,9,cake,critical,D,75,cake66.jpg,cake84.jpg,high,NULL
1687287250,a0c796167b28e0e434ec7ce941361278,PennController,30,0,experiment,NULL,PennController,29,_Trial_,Start,1687287230068,5ac8fd9f0527ba0001c23ddb,5ac8fd9f0527ba0001c23ddb,27,square,filler,D,75,square65.jpg,square85.jpg,GoalB,NULL
1687287250,a0c796167b28e0e434ec7ce941361278,PennController,30,0,experiment,NULL,PennController,29,_Header_,Start,1687287230068,5ac8fd9f0527ba0001c23ddb,5ac8fd9f0527ba0001c23ddb,27,square,filler,D,75,square65.jpg,square85.jpg,GoalB,NULL
1687287250,a0c796167b28e0e434ec7ce941361278,PennController,30,0,experiment,NULL,PennController,29,_Header_,End,1687287230068,5ac8fd9f0527ba0001c23ddb,5ac8fd9f0527ba0001c23ddb,27,square,filler,D,75,square65.jpg,square85.jpg,GoalB,NULL
1687287250,a0c796167b28e0e434ec7ce941361278,PennController,30,0,experiment,NULL,Canvas,canvas6,Print,NA,1687287237770,5ac8fd9f0527ba0001c23ddb,5ac8fd9f0527ba0001c23ddb,27,square,filler,D,75,square65.jpg,square85.jpg,GoalB,NULL
1687287250,a0c796167b28e0e434ec7ce941361278,PennController,30,0,experiment,NULL,Video,progression,buffer,0.006958,1687287233600,5ac8fd9f0527ba0001c23ddb,5ac8fd9f0527ba0001c23ddb,27,square,filler,D,75,square65.jpg,square85.jpg,GoalB,NULL
1687287250,a0c796167b28e0e434ec7ce941361278,PennController,30,0,experiment,NULL,Selector,choice,Selection,option1,1687287239450,5ac8fd9f0527ba0001c23ddb,5ac8fd9f0527ba0001c23ddb,27,square,filler,D,75,square65.jpg,square85.jpg,GoalB,option2;option1
1687287250,a0c796167b28e0e434ec7ce941361278,PennController,30,0,experiment,NULL,PennController,29,_Trial_,End,1687287239451,5ac8fd9f0527ba0001c23ddb,5ac8fd9f0527ba0001c23ddb,27,square,filler,D,75,square65.jpg,square85.jpg,GoalB,NULL
1687287250,a0c796167b28e0e434ec7ce941361278,PennController,23,0,experiment,NULL,PennController,22,_Trial_,Start,1687287239452,5ac8fd9f0527ba0001c23ddb,5ac8fd9f0527ba0001c23ddb,20,cat,filler,D,50,cat40.jpg,cat60.jpg,GoalA,NULL
1687287250,a0c796167b28e0e434ec7ce941361278,PennController,23,0,experiment,NULL,PennController,22,_Header_,Start,1687287239452,5ac8fd9f0527ba0001c23ddb,5ac8fd9f0527ba0001c23ddb,20,cat,filler,D,50,cat40.jpg,cat60.jpg,GoalA,NULL
1687287250,a0c796167b28e0e434ec7ce941361278,PennController,23,0,experiment,NULL,PennController,22,_Header_,End,1687287239452,5ac8fd9f0527ba0001c23ddb,5ac8fd9f0527ba0001c23ddb,20,cat,filler,D,50,cat40.jpg,cat60.jpg,GoalA,NULL
1687287250,a0c796167b28e0e434ec7ce941361278,PennController,23,0,experiment,NULL,Canvas,canvas6,Print,NA,1687287246134,5ac8fd9f0527ba0001c23ddb,5ac8fd9f0527ba0001c23ddb,20,cat,filler,D,50,cat40.jpg,cat60.jpg,GoalA,NULL
1687287250,a0c796167b28e0e434ec7ce941361278,PennController,23,0,experiment,NULL,Video,progression,buffer,0,1687287242976,5ac8fd9f0527ba0001c23ddb,5ac8fd9f0527ba0001c23ddb,20,cat,filler,D,50,cat40.jpg,cat60.jpg,GoalA,NULL
1687287250,a0c796167b28e0e434ec7ce941361278,PennController,23,0,experiment,NULL,Selector,choice,Selection,option2,1687287247330,5ac8fd9f0527ba0001c23ddb,5ac8fd9f0527ba0001c23ddb,20,cat,filler,D,50,cat40.jpg,cat60.jpg,GoalA,option1;option2
1687287250,a0c796167b28e0e434ec7ce941361278,PennController,23,0,experiment,NULL,PennController,22,_Trial_,End,1687287247331,5ac8fd9f0527ba0001c23ddb,5ac8fd9f0527ba0001c23ddb,20,cat,filler,D,50,cat40.jpg,cat60.jpg,GoalA,NULL
