#
# Results on Tuesday June 20 2023 18:54:34 UTC
# USER AGENT: Mozilla/5.0 (Windows NT 10.0; Win64; x64) AppleWebKit/537.36 (KHTML, like Gecko) Chrome/114.0.0.0 Safari/537.36
# Design number was non-random = 3
#
# Columns below this comment are as follows:
# 1. Results reception time.
# 2. MD5 hash of participant's IP address.
# 3. Controller name.
# 4. Order number of item.
# 5. Inner element number.
# 6. Label.
# 7. Latin Square Group.
# 8. PennElementType.
# 9. PennElementName.
# 10. Parameter.
# 11. Value.
# 12. EventTime.
# 13. PROLIFIC_ID.
# 14. Comments.
1687287274,0cec24289f01dadb76e091cafa040814,PennController,2,0,consent,NULL,PennController,0,_Trial_,Start,1687287005166,5fb45827fce53c129394e463,NULL
1687287274,0cec24289f01dadb76e091cafa040814,PennController,2,0,consent,NULL,PennController,0,_Header_,Start,1687287005166,5fb45827fce53c129394e463,NULL
1687287274,0cec24289f01dadb76e091cafa040814,PennController,2,0,consent,NULL,PennController,0,_Header_,End,1687287005166,5fb45827fce53c129394e463,NULL
1687287274,0cec24289f01dadb76e091cafa040814,PennController,2,0,consent,NULL,PennController,0,_Trial_,End,1687287007570,5fb45827fce53c129394e463,NULL
# Columns below this comment are as follows:
# 14. ID.
# 15. Comments.
1687287274,0cec24289f01dadb76e091cafa040814,PennController,3,0,intro,NULL,PennController,1,_Trial_,Start,1687287007572,5fb45827fce53c129394e463,5fb45827fce53c129394e463,NULL
1687287274,0cec24289f01dadb76e091cafa040814,PennController,3,0,intro,NULL,PennController,1,_Header_,Start,1687287007572,5fb45827fce53c129394e463,5fb45827fce53c129394e463,NULL
1687287274,0cec24289f01dadb76e091cafa040814,PennController,3,0,intro,NULL,PennController,1,_Header_,End,1687287007572,5fb45827fce53c129394e463,5fb45827fce53c129394e463,NULL
1687287274,0cec24289f01dadb76e091cafa040814,PennController,3,0,intro,NULL,PennController,1,_Trial_,End,1687287016371,5fb45827fce53c129394e463,5fb45827fce53c129394e463,NULL
# Columns below this comment are as follows:
# 15. item_number.
# 16. item.
# 17. type.
# 18. Group.
# 19. prog.
# 20. prev_image.
# 21. next_image.
# 22. height.
# 23. Comments.
1687287274,0cec24289f01dadb76e091cafa040814,PennController,7,0,experiment,NULL,PennController,6,_Trial_,Start,1687287016374,5fb45827fce53c129394e463,5fb45827fce53c129394e463,4,candy,critical,D,25,candy15.jpg,candy35.jpg,high,NULL
1687287274,0cec24289f01dadb76e091cafa040814,PennController,7,0,experiment,NULL,PennController,6,_Header_,Start,1687287016374,5fb45827fce53c129394e463,5fb45827fce53c129394e463,4,candy,critical,D,25,candy15.jpg,candy35.jpg,high,NULL
1687287274,0cec24289f01dadb76e091cafa040814,PennController,7,0,experiment,NULL,PennController,6,_Header_,End,1687287016374,5fb45827fce53c129394e463,5fb45827fce53c129394e463,4,candy,critical,D,25,candy15.jpg,candy35.jpg,high,NULL
1687287274,0cec24289f01dadb76e091cafa040814,PennController,7,0,experiment,NULL,Canvas,canvas6,Print,NA,1687287022142,5fb45827fce53c129394e463,5fb45827fce53c129394e463,4,candy,critical,D,25,candy15.jpg,candy35.jpg,high,NULL
1687287274,0cec24289f01dadb76e091cafa040814,PennController,7,0,experiment,NULL,Video,progression,buffer,0.007085,1687287019929,5fb45827fce53c129394e463,5fb45827fce53c129394e463,4,candy,critical,D,25,candy15.jpg,candy35.jpg,high,NULL
1687287274,0cec24289f01dadb76e091cafa040814,PennController,7,0,experiment,NULL,Selector,choice,Selection,option2,1687287025661,5fb45827fce53c129394e463,5fb45827fce53c129394e463,4,candy,critical,D,25,candy15.jpg,candy35.jpg,high,option1;option2
1687287274,0cec24289f01dadb76e091cafa040814,PennController,7,0,experiment,NULL,PennController,6,_Trial_,End,1687287025665,5fb45827fce53c129394e463,5fb45827fce53c129394e463,4,candy,critical,D,25,candy15.jpg,candy35.jpg,high,NULL
1687287274,0cec24289f01dadb76e091cafa040814,PennController,20,0,experiment,NULL,PennController,19,_Trial_,Start,1687287025669,5fb45827fce53c129394e463,5fb45827fce53c129394e463,17,roll,critical,D,50,roll40.jpg,roll60.jpg,high,NULL
1687287274,0cec24289f01dadb76e091cafa040814,PennController,20,0,experiment,NULL,PennController,19,_Header_,Start,1687287025669,5fb45827fce53c129394e463,5fb45827fce53c129394e463,17,roll,critical,D,50,roll40.jpg,roll60.jpg,high,NULL
1687287274,0cec24289f01dadb76e091cafa040814,PennController,20,0,experiment,NULL,PennController,19,_Header_,End,1687287025669,5fb45827fce53c129394e463,5fb45827fce53c129394e463,17,roll,critical,D,50,roll40.jpg,roll60.jpg,high,NULL
1687287274,0cec24289f01dadb76e091cafa040814,PennController,20,0,experiment,NULL,Canvas,canvas6,Print,NA,1687287032441,5fb45827fce53c129394e463,5fb45827fce53c129394e463,17,roll,critical,D,50,roll40.jpg,roll60.jpg,high,NULL
1687287274,0cec24289f01dadb76e091cafa040814,PennController,20,0,experiment,NULL,Video,progression,buffer,0.00456,1687287029201,5fb45827fce53c129394e463,5fb45827fce53c129394e463,17,roll,critical,D,50,roll40.jpg,roll60.jpg,high,NULL
1687287274,0cec24289f01dadb76e091cafa040814,PennController,20,0,experiment,NULL,Selector,choice,Selection,option1,1687287033597,5fb45827fce53c129394e463,5fb45827fce53c129394e463,17,roll,critical,D,50,roll40.jpg,roll60.jpg,high,option2;option1
1687287274,0cec24289f01dadb76e091cafa040814,PennController,20,0,experiment,NULL,PennController,19,_Trial_,End,1687287033599,5fb45827fce53c129394e463,5fb45827fce53c129394e463,17,roll,critical,D,50,roll40.jpg,roll60.jpg,high,NULL
1687287274,0cec24289f01dadb76e091cafa040814,PennController,13,0,experiment,NULL,PennController,12,_Trial_,Start,1687287033602,5fb45827fce53c129394e463,5fb45827fce53c129394e463,10,train,critical,D,25,train15.jpg,train35.jpg,high,NULL
1687287274,0cec24289f01dadb76e091cafa040814,PennController,13,0,experiment,NULL,PennController,12,_Header_,Start,1687287033602,5fb45827fce53c129394e463,5fb45827fce53c129394e463,10,train,critical,D,25,train15.jpg,train35.jpg,high,NULL
1687287274,0cec24289f01dadb76e091cafa040814,PennController,13,0,experiment,NULL,PennController,12,_Header_,End,1687287033602,5fb45827fce53c129394e463,5fb45827fce53c129394e463,10,train,critical,D,25,train15.jpg,train35.jpg,high,NULL
1687287274,0cec24289f01dadb76e091cafa040814,PennController,13,0,experiment,NULL,Canvas,canvas6,Print,NA,1687287039357,5fb45827fce53c129394e463,5fb45827fce53c129394e463,10,train,critical,D,25,train15.jpg,train35.jpg,high,NULL
1687287274,0cec24289f01dadb76e091cafa040814,PennController,13,0,experiment,NULL,Video,progression,buffer,0.004441,1687287037134,5fb45827fce53c129394e463,5fb45827fce53c129394e463,10,train,critical,D,25,train15.jpg,train35.jpg,high,NULL
1687287274,0cec24289f01dadb76e091cafa040814,PennController,13,0,experiment,NULL,Selector,choice,Selection,option2,1687287043073,5fb45827fce53c129394e463,5fb45827fce53c129394e463,10,train,critical,D,25,train15.jpg,train35.jpg,high,option1;option2
1687287274,0cec24289f01dadb76e091cafa040814,PennController,13,0,experiment,NULL,PennController,12,_Trial_,End,1687287043075,5fb45827fce53c129394e463,5fb45827fce53c129394e463,10,train,critical,D,25,train15.jpg,train35.jpg,high,NULL
1687287274,0cec24289f01dadb76e091cafa040814,PennController,5,0,experiment,NULL,PennController,4,_Trial_,Start,1687287043080,5fb45827fce53c129394e463,5fb45827fce53c129394e463,2,door,critical,D,50,door40.jpg,door60.jpg,high,NULL
1687287274,0cec24289f01dadb76e091cafa040814,PennController,5,0,experiment,NULL,PennController,4,_Header_,Start,1687287043080,5fb45827fce53c129394e463,5fb45827fce53c129394e463,2,door,critical,D,50,door40.jpg,door60.jpg,high,NULL
1687287274,0cec24289f01dadb76e091cafa040814,PennController,5,0,experiment,NULL,PennController,4,_Header_,End,1687287043080,5fb45827fce53c129394e463,5fb45827fce53c129394e463,2,door,critical,D,50,door40.jpg,door60.jpg,high,NULL
1687287274,0cec24289f01dadb76e091cafa040814,PennController,5,0,experiment,NULL,Canvas,canvas6,Print,NA,1687287049824,5fb45827fce53c129394e463,5fb45827fce53c129394e463,2,door,critical,D,50,door40.jpg,door60.jpg,high,NULL
1687287274,0cec24289f01dadb76e091cafa040814,PennController,5,0,experiment,NULL,Video,progression,buffer,0.004135,1687287046611,5fb45827fce53c129394e463,5fb45827fce53c129394e463,2,door,critical,D,50,door40.jpg,door60.jpg,high,NULL
1687287274,0cec24289f01dadb76e091cafa040814,PennController,5,0,experiment,NULL,Selector,choice,Selection,option2,1687287052333,5fb45827fce53c129394e463,5fb45827fce53c129394e463,2,door,critical,D,50,door40.jpg,door60.jpg,high,option1;option2
1687287274,0cec24289f01dadb76e091cafa040814,PennController,5,0,experiment,NULL,PennController,4,_Trial_,End,1687287052336,5fb45827fce53c129394e463,5fb45827fce53c129394e463,2,door,critical,D,50,door40.jpg,door60.jpg,high,NULL
1687287274,0cec24289f01dadb76e091cafa040814,PennController,27,0,experiment,NULL,PennController,26,_Trial_,Start,1687287052338,5fb45827fce53c129394e463,5fb45827fce53c129394e463,24,match,filler,D,75,match65.jpg,match85.jpg,GoalA,NULL
1687287274,0cec24289f01dadb76e091cafa040814,PennController,27,0,experiment,NULL,PennController,26,_Header_,Start,1687287052338,5fb45827fce53c129394e463,5fb45827fce53c129394e463,24,match,filler,D,75,match65.jpg,match85.jpg,GoalA,NULL
1687287274,0cec24289f01dadb76e091cafa040814,PennController,27,0,experiment,NULL,PennController,26,_Header_,End,1687287052338,5fb45827fce53c129394e463,5fb45827fce53c129394e463,24,match,filler,D,75,match65.jpg,match85.jpg,GoalA,NULL
1687287274,0cec24289f01dadb76e091cafa040814,PennController,27,0,experiment,NULL,Canvas,canvas6,Print,NA,1687287060077,5fb45827fce53c129394e463,5fb45827fce53c129394e463,24,match,filler,D,75,match65.jpg,match85.jpg,GoalA,NULL
1687287274,0cec24289f01dadb76e091cafa040814,PennController,27,0,experiment,NULL,Video,progression,buffer,0.004536,1687287055868,5fb45827fce53c129394e463,5fb45827fce53c129394e463,24,match,filler,D,75,match65.jpg,match85.jpg,GoalA,NULL
1687287274,0cec24289f01dadb76e091cafa040814,PennController,27,0,experiment,NULL,Selector,choice,Selection,option1,1687287062187,5fb45827fce53c129394e463,5fb45827fce53c129394e463,24,match,filler,D,75,match65.jpg,match85.jpg,GoalA,option1;option2
1687287274,0cec24289f01dadb76e091cafa040814,PennController,27,0,experiment,NULL,PennController,26,_Trial_,End,1687287062189,5fb45827fce53c129394e463,5fb45827fce53c129394e463,24,match,filler,D,75,match65.jpg,match85.jpg,GoalA,NULL
1687287274,0cec24289f01dadb76e091cafa040814,PennController,26,0,experiment,NULL,PennController,25,_Trial_,Start,1687287062190,5fb45827fce53c129394e463,5fb45827fce53c129394e463,23,color,filler,D,50,color40.jpg,color60.jpg,GoalB,NULL
1687287274,0cec24289f01dadb76e091cafa040814,PennController,26,0,experiment,NULL,PennController,25,_Header_,Start,1687287062190,5fb45827fce53c129394e463,5fb45827fce53c129394e463,23,color,filler,D,50,color40.jpg,color60.jpg,GoalB,NULL
1687287274,0cec24289f01dadb76e091cafa040814,PennController,26,0,experiment,NULL,PennController,25,_Header_,End,1687287062191,5fb45827fce53c129394e463,5fb45827fce53c129394e463,23,color,filler,D,50,color40.jpg,color60.jpg,GoalB,NULL
1687287274,0cec24289f01dadb76e091cafa040814,PennController,26,0,experiment,NULL,Canvas,canvas6,Print,NA,1687287068957,5fb45827fce53c129394e463,5fb45827fce53c129394e463,23,color,filler,D,50,color40.jpg,color60.jpg,GoalB,NULL
1687287274,0cec24289f01dadb76e091cafa040814,PennController,26,0,experiment,NULL,Video,progression,buffer,0.004473,1687287065716,5fb45827fce53c129394e463,5fb45827fce53c129394e463,23,color,filler,D,50,color40.jpg,color60.jpg,GoalB,NULL
1687287274,0cec24289f01dadb76e091cafa040814,PennController,26,0,experiment,NULL,Selector,choice,Selection,option2,1687287072982,5fb45827fce53c129394e463,5fb45827fce53c129394e463,23,color,filler,D,50,color40.jpg,color60.jpg,GoalB,option1;option2
1687287274,0cec24289f01dadb76e091cafa040814,PennController,26,0,experiment,NULL,PennController,25,_Trial_,End,1687287072984,5fb45827fce53c129394e463,5fb45827fce53c129394e463,23,color,filler,D,50,color40.jpg,color60.jpg,GoalB,NULL
1687287274,0cec24289f01dadb76e091cafa040814,PennController,23,0,experiment,NULL,PennController,22,_Trial_,Start,1687287072986,5fb45827fce53c129394e463,5fb45827fce53c129394e463,20,cat,filler,D,50,cat40.jpg,cat60.jpg,GoalA,NULL
1687287274,0cec24289f01dadb76e091cafa040814,PennController,23,0,experiment,NULL,PennController,22,_Header_,Start,1687287072986,5fb45827fce53c129394e463,5fb45827fce53c129394e463,20,cat,filler,D,50,cat40.jpg,cat60.jpg,GoalA,NULL
1687287274,0cec24289f01dadb76e091cafa040814,PennController,23,0,experiment,NULL,PennController,22,_Header_,End,1687287072986,5fb45827fce53c129394e463,5fb45827fce53c129394e463,20,cat,filler,D,50,cat40.jpg,cat60.jpg,GoalA,NULL
1687287274,0cec24289f01dadb76e091cafa040814,PennController,23,0,experiment,NULL,Canvas,canvas6,Print,NA,1687287079739,5fb45827fce53c129394e463,5fb45827fce53c129394e463,20,cat,filler,D,50,cat40.jpg,cat60.jpg,GoalA,NULL
1687287274,0cec24289f01dadb76e091cafa040814,PennController,23,0,experiment,NULL,Video,progression,buffer,0.004686,1687287076510,5fb45827fce53c129394e463,5fb45827fce53c129394e463,20,cat,filler,D,50,cat40.jpg,cat60.jpg,GoalA,NULL
1687287274,0cec24289f01dadb76e091cafa040814,PennController,23,0,experiment,NULL,Selector,choice,Selection,option2,1687287081416,5fb45827fce53c129394e463,5fb45827fce53c129394e463,20,cat,filler,D,50,cat40.jpg,cat60.jpg,GoalA,option1;option2
1687287274,0cec24289f01dadb76e091cafa040814,PennController,23,0,experiment,NULL,PennController,22,_Trial_,End,1687287081420,5fb45827fce53c129394e463,5fb45827fce53c129394e463,20,cat,filler,D,50,cat40.jpg,cat60.jpg,GoalA,NULL
1687287274,0cec24289f01dadb76e091cafa040814,PennController,19,0,experiment,NULL,PennController,18,_Trial_,Start,1687287081422,5fb45827fce53c129394e463,5fb45827fce53c129394e463,16,blinds,critical,D,25,blinds15.jpg,blinds33.jpg,high,NULL
1687287274,0cec24289f01dadb76e091cafa040814,PennController,19,0,experiment,NULL,PennController,18,_Header_,Start,1687287081422,5fb45827fce53c129394e463,5fb45827fce53c129394e463,16,blinds,critical,D,25,blinds15.jpg,blinds33.jpg,high,NULL
1687287274,0cec24289f01dadb76e091cafa040814,PennController,19,0,experiment,NULL,PennController,18,_Header_,End,1687287081422,5fb45827fce53c129394e463,5fb45827fce53c129394e463,16,blinds,critical,D,25,blinds15.jpg,blinds33.jpg,high,NULL
1687287274,0cec24289f01dadb76e091cafa040814,PennController,19,0,experiment,NULL,Canvas,canvas6,Print,NA,1687287087772,5fb45827fce53c129394e463,5fb45827fce53c129394e463,16,blinds,critical,D,25,blinds15.jpg,blinds33.jpg,high,NULL
1687287274,0cec24289f01dadb76e091cafa040814,PennController,19,0,experiment,NULL,Video,progression,buffer,0.007361,1687287084956,5fb45827fce53c129394e463,5fb45827fce53c129394e463,16,blinds,critical,D,25,blinds15.jpg,blinds33.jpg,high,NULL
1687287274,0cec24289f01dadb76e091cafa040814,PennController,19,0,experiment,NULL,Selector,choice,Selection,option2,1687287089118,5fb45827fce53c129394e463,5fb45827fce53c129394e463,16,blinds,critical,D,25,blinds15.jpg,blinds33.jpg,high,option1;option2
1687287274,0cec24289f01dadb76e091cafa040814,PennController,19,0,experiment,NULL,PennController,18,_Trial_,End,1687287089119,5fb45827fce53c129394e463,5fb45827fce53c129394e463,16,blinds,critical,D,25,blinds15.jpg,blinds33.jpg,high,NULL
1687287274,0cec24289f01dadb76e091cafa040814,PennController,18,0,experiment,NULL,PennController,17,_Trial_,Start,1687287089121,5fb45827fce53c129394e463,5fb45827fce53c129394e463,15,zip,critical,D,75,zip65.jpg,zip85.jpg,high,NULL
1687287274,0cec24289f01dadb76e091cafa040814,PennController,18,0,experiment,NULL,PennController,17,_Header_,Start,1687287089121,5fb45827fce53c129394e463,5fb45827fce53c129394e463,15,zip,critical,D,75,zip65.jpg,zip85.jpg,high,NULL
1687287274,0cec24289f01dadb76e091cafa040814,PennController,18,0,experiment,NULL,PennController,17,_Header_,End,1687287089121,5fb45827fce53c129394e463,5fb45827fce53c129394e463,15,zip,critical,D,75,zip65.jpg,zip85.jpg,high,NULL
1687287274,0cec24289f01dadb76e091cafa040814,PennController,18,0,experiment,NULL,Canvas,canvas6,Print,NA,1687287096075,5fb45827fce53c129394e463,5fb45827fce53c129394e463,15,zip,critical,D,75,zip65.jpg,zip85.jpg,high,NULL
1687287274,0cec24289f01dadb76e091cafa040814,PennController,18,0,experiment,NULL,Video,progression,buffer,0.004463,1687287092650,5fb45827fce53c129394e463,5fb45827fce53c129394e463,15,zip,critical,D,75,zip65.jpg,zip85.jpg,high,NULL
1687287274,0cec24289f01dadb76e091cafa040814,PennController,18,0,experiment,NULL,Selector,choice,Selection,option2,1687287098130,5fb45827fce53c129394e463,5fb45827fce53c129394e463,15,zip,critical,D,75,zip65.jpg,zip85.jpg,high,option1;option2
1687287274,0cec24289f01dadb76e091cafa040814,PennController,18,0,experiment,NULL,PennController,17,_Trial_,End,1687287098132,5fb45827fce53c129394e463,5fb45827fce53c129394e463,15,zip,critical,D,75,zip65.jpg,zip85.jpg,high,NULL
1687287274,0cec24289f01dadb76e091cafa040814,PennController,14,0,experiment,NULL,PennController,13,_Trial_,Start,1687287098135,5fb45827fce53c129394e463,5fb45827fce53c129394e463,11,beads,critical,D,50,beads40.jpg,beads60.jpg,high,NULL
1687287274,0cec24289f01dadb76e091cafa040814,PennController,14,0,experiment,NULL,PennController,13,_Header_,Start,1687287098135,5fb45827fce53c129394e463,5fb45827fce53c129394e463,11,beads,critical,D,50,beads40.jpg,beads60.jpg,high,NULL
1687287274,0cec24289f01dadb76e091cafa040814,PennController,14,0,experiment,NULL,PennController,13,_Header_,End,1687287098135,5fb45827fce53c129394e463,5fb45827fce53c129394e463,11,beads,critical,D,50,beads40.jpg,beads60.jpg,high,NULL
1687287274,0cec24289f01dadb76e091cafa040814,PennController,14,0,experiment,NULL,Canvas,canvas6,Print,NA,1687287104889,5fb45827fce53c129394e463,5fb45827fce53c129394e463,11,beads,critical,D,50,beads40.jpg,beads60.jpg,high,NULL
1687287274,0cec24289f01dadb76e091cafa040814,PennController,14,0,experiment,NULL,Video,progression,buffer,0.007054,1687287101669,5fb45827fce53c129394e463,5fb45827fce53c129394e463,11,beads,critical,D,50,beads40.jpg,beads60.jpg,high,NULL
1687287274,0cec24289f01dadb76e091cafa040814,PennController,14,0,experiment,NULL,Selector,choice,Selection,option1,1687287106732,5fb45827fce53c129394e463,5fb45827fce53c129394e463,11,beads,critical,D,50,beads40.jpg,beads60.jpg,high,option2;option1
1687287274,0cec24289f01dadb76e091cafa040814,PennController,14,0,experiment,NULL,PennController,13,_Trial_,End,1687287106733,5fb45827fce53c129394e463,5fb45827fce53c129394e463,11,beads,critical,D,50,beads40.jpg,beads60.jpg,high,NULL
1687287274,0cec24289f01dadb76e091cafa040814,PennController,6,0,experiment,NULL,PennController,5,_Trial_,Start,1687287106734,5fb45827fce53c129394e463,5fb45827fce53c129394e463,3,clean,critical,D,75,clean65.jpg,clean85.jpg,high,NULL
1687287274,0cec24289f01dadb76e091cafa040814,PennController,6,0,experiment,NULL,PennController,5,_Header_,Start,1687287106734,5fb45827fce53c129394e463,5fb45827fce53c129394e463,3,clean,critical,D,75,clean65.jpg,clean85.jpg,high,NULL
1687287274,0cec24289f01dadb76e091cafa040814,PennController,6,0,experiment,NULL,PennController,5,_Header_,End,1687287106734,5fb45827fce53c129394e463,5fb45827fce53c129394e463,3,clean,critical,D,75,clean65.jpg,clean85.jpg,high,NULL
1687287274,0cec24289f01dadb76e091cafa040814,PennController,6,0,experiment,NULL,Canvas,canvas6,Print,NA,1687287114474,5fb45827fce53c129394e463,5fb45827fce53c129394e463,3,clean,critical,D,75,clean65.jpg,clean85.jpg,high,NULL
1687287274,0cec24289f01dadb76e091cafa040814,PennController,6,0,experiment,NULL,Video,progression,buffer,0.004463,1687287110261,5fb45827fce53c129394e463,5fb45827fce53c129394e463,3,clean,critical,D,75,clean65.jpg,clean85.jpg,high,NULL
1687287274,0cec24289f01dadb76e091cafa040814,PennController,6,0,experiment,NULL,Selector,choice,Selection,option1,1687287115645,5fb45827fce53c129394e463,5fb45827fce53c129394e463,3,clean,critical,D,75,clean65.jpg,clean85.jpg,high,option2;option1
1687287274,0cec24289f01dadb76e091cafa040814,PennController,6,0,experiment,NULL,PennController,5,_Trial_,End,1687287115647,5fb45827fce53c129394e463,5fb45827fce53c129394e463,3,clean,critical,D,75,clean65.jpg,clean85.jpg,high,NULL
1687287274,0cec24289f01dadb76e091cafa040814,PennController,11,0,experiment,NULL,PennController,10,_Trial_,Start,1687287115649,5fb45827fce53c129394e463,5fb45827fce53c129394e463,8,cucumber,critical,D,50,cucumber42.jpg,cucumber60.jpg,high,NULL
1687287274,0cec24289f01dadb76e091cafa040814,PennController,11,0,experiment,NULL,PennController,10,_Header_,Start,1687287115649,5fb45827fce53c129394e463,5fb45827fce53c129394e463,8,cucumber,critical,D,50,cucumber42.jpg,cucumber60.jpg,high,NULL
1687287274,0cec24289f01dadb76e091cafa040814,PennController,11,0,experiment,NULL,PennController,10,_Header_,End,1687287115649,5fb45827fce53c129394e463,5fb45827fce53c129394e463,8,cucumber,critical,D,50,cucumber42.jpg,cucumber60.jpg,high,NULL
1687287274,0cec24289f01dadb76e091cafa040814,PennController,11,0,experiment,NULL,Canvas,canvas6,Print,NA,1687287123787,5fb45827fce53c129394e463,5fb45827fce53c129394e463,8,cucumber,critical,D,50,cucumber42.jpg,cucumber60.jpg,high,NULL
1687287274,0cec24289f01dadb76e091cafa040814,PennController,11,0,experiment,NULL,Video,progression,buffer,0.004325,1687287119177,5fb45827fce53c129394e463,5fb45827fce53c129394e463,8,cucumber,critical,D,50,cucumber42.jpg,cucumber60.jpg,high,NULL
1687287274,0cec24289f01dadb76e091cafa040814,PennController,11,0,experiment,NULL,Selector,choice,Selection,option1,1687287126259,5fb45827fce53c129394e463,5fb45827fce53c129394e463,8,cucumber,critical,D,50,cucumber42.jpg,cucumber60.jpg,high,option1;option2
1687287274,0cec24289f01dadb76e091cafa040814,PennController,11,0,experiment,NULL,PennController,10,_Trial_,End,1687287126261,5fb45827fce53c129394e463,5fb45827fce53c129394e463,8,cucumber,critical,D,50,cucumber42.jpg,cucumber60.jpg,high,NULL
1687287274,0cec24289f01dadb76e091cafa040814,PennController,8,0,experiment,NULL,PennController,7,_Trial_,Start,1687287126263,5fb45827fce53c129394e463,5fb45827fce53c129394e463,5,book,critical,D,50,book40.jpg,book60.jpg,high,NULL
1687287274,0cec24289f01dadb76e091cafa040814,PennController,8,0,experiment,NULL,PennController,7,_Header_,Start,1687287126263,5fb45827fce53c129394e463,5fb45827fce53c129394e463,5,book,critical,D,50,book40.jpg,book60.jpg,high,NULL
1687287274,0cec24289f01dadb76e091cafa040814,PennController,8,0,experiment,NULL,PennController,7,_Header_,End,1687287126263,5fb45827fce53c129394e463,5fb45827fce53c129394e463,5,book,critical,D,50,book40.jpg,book60.jpg,high,NULL
1687287274,0cec24289f01dadb76e091cafa040814,PennController,8,0,experiment,NULL,Canvas,canvas6,Print,NA,1687287133005,5fb45827fce53c129394e463,5fb45827fce53c129394e463,5,book,critical,D,50,book40.jpg,book60.jpg,high,NULL
1687287274,0cec24289f01dadb76e091cafa040814,PennController,8,0,experiment,NULL,Video,progression,buffer,0.002387,1687287129788,5fb45827fce53c129394e463,5fb45827fce53c129394e463,5,book,critical,D,50,book40.jpg,book60.jpg,high,NULL
1687287274,0cec24289f01dadb76e091cafa040814,PennController,8,0,experiment,NULL,Selector,choice,Selection,option2,1687287135529,5fb45827fce53c129394e463,5fb45827fce53c129394e463,5,book,critical,D,50,book40.jpg,book60.jpg,high,option1;option2
1687287274,0cec24289f01dadb76e091cafa040814,PennController,8,0,experiment,NULL,PennController,7,_Trial_,End,1687287135531,5fb45827fce53c129394e463,5fb45827fce53c129394e463,5,book,critical,D,50,book40.jpg,book60.jpg,high,NULL
1687287274,0cec24289f01dadb76e091cafa040814,PennController,32,0,experiment,NULL,PennController,31,_Trial_,Start,1687287135533,5fb45827fce53c129394e463,5fb45827fce53c129394e463,29,frog,filler,D,50,frog40.jpg,frog60.jpg,GoalB,NULL
1687287274,0cec24289f01dadb76e091cafa040814,PennController,32,0,experiment,NULL,PennController,31,_Header_,Start,1687287135533,5fb45827fce53c129394e463,5fb45827fce53c129394e463,29,frog,filler,D,50,frog40.jpg,frog60.jpg,GoalB,NULL
1687287274,0cec24289f01dadb76e091cafa040814,PennController,32,0,experiment,NULL,PennController,31,_Header_,End,1687287135533,5fb45827fce53c129394e463,5fb45827fce53c129394e463,29,frog,filler,D,50,frog40.jpg,frog60.jpg,GoalB,NULL
1687287274,0cec24289f01dadb76e091cafa040814,PennController,32,0,experiment,NULL,Canvas,canvas6,Print,NA,1687287142274,5fb45827fce53c129394e463,5fb45827fce53c129394e463,29,frog,filler,D,50,frog40.jpg,frog60.jpg,GoalB,NULL
1687287274,0cec24289f01dadb76e091cafa040814,PennController,32,0,experiment,NULL,Video,progression,buffer,0.006146,1687287139055,5fb45827fce53c129394e463,5fb45827fce53c129394e463,29,frog,filler,D,50,frog40.jpg,frog60.jpg,GoalB,NULL
1687287274,0cec24289f01dadb76e091cafa040814,PennController,32,0,experiment,NULL,Selector,choice,Selection,option2,1687287143515,5fb45827fce53c129394e463,5fb45827fce53c129394e463,29,frog,filler,D,50,frog40.jpg,frog60.jpg,GoalB,option2;option1
1687287274,0cec24289f01dadb76e091cafa040814,PennController,32,0,experiment,NULL,PennController,31,_Trial_,End,1687287143517,5fb45827fce53c129394e463,5fb45827fce53c129394e463,29,frog,filler,D,50,frog40.jpg,frog60.jpg,GoalB,NULL
1687287274,0cec24289f01dadb76e091cafa040814,PennController,15,0,experiment,NULL,PennController,14,_Trial_,Start,1687287143518,5fb45827fce53c129394e463,5fb45827fce53c129394e463,12,erase,critical,D,75,erase66.jpg,erase84.jpg,high,NULL
1687287274,0cec24289f01dadb76e091cafa040814,PennController,15,0,experiment,NULL,PennController,14,_Header_,Start,1687287143518,5fb45827fce53c129394e463,5fb45827fce53c129394e463,12,erase,critical,D,75,erase66.jpg,erase84.jpg,high,NULL
1687287274,0cec24289f01dadb76e091cafa040814,PennController,15,0,experiment,NULL,PennController,14,_Header_,End,1687287143518,5fb45827fce53c129394e463,5fb45827fce53c129394e463,12,erase,critical,D,75,erase66.jpg,erase84.jpg,high,NULL
1687287274,0cec24289f01dadb76e091cafa040814,PennController,15,0,experiment,NULL,Canvas,canvas6,Print,NA,1687287153272,5fb45827fce53c129394e463,5fb45827fce53c129394e463,12,erase,critical,D,75,erase66.jpg,erase84.jpg,high,NULL
1687287274,0cec24289f01dadb76e091cafa040814,PennController,15,0,experiment,NULL,Video,progression,buffer,0.005235,1687287147048,5fb45827fce53c129394e463,5fb45827fce53c129394e463,12,erase,critical,D,75,erase66.jpg,erase84.jpg,high,NULL
1687287274,0cec24289f01dadb76e091cafa040814,PennController,15,0,experiment,NULL,Selector,choice,Selection,option1,1687287155540,5fb45827fce53c129394e463,5fb45827fce53c129394e463,12,erase,critical,D,75,erase66.jpg,erase84.jpg,high,option2;option1
1687287274,0cec24289f01dadb76e091cafa040814,PennController,15,0,experiment,NULL,PennController,14,_Trial_,End,1687287155541,5fb45827fce53c129394e463,5fb45827fce53c129394e463,12,erase,critical,D,75,erase66.jpg,erase84.jpg,high,NULL
1687287274,0cec24289f01dadb76e091cafa040814,PennController,9,0,experiment,NULL,PennController,8,_Trial_,Start,1687287155543,5fb45827fce53c129394e463,5fb45827fce53c129394e463,6,flower,critical,D,75,flower65.jpg,flower85.jpg,high,NULL
1687287274,0cec24289f01dadb76e091cafa040814,PennController,9,0,experiment,NULL,PennController,8,_Header_,Start,1687287155543,5fb45827fce53c129394e463,5fb45827fce53c129394e463,6,flower,critical,D,75,flower65.jpg,flower85.jpg,high,NULL
1687287274,0cec24289f01dadb76e091cafa040814,PennController,9,0,experiment,NULL,PennController,8,_Header_,End,1687287155543,5fb45827fce53c129394e463,5fb45827fce53c129394e463,6,flower,critical,D,75,flower65.jpg,flower85.jpg,high,NULL
1687287274,0cec24289f01dadb76e091cafa040814,PennController,9,0,experiment,NULL,Canvas,canvas6,Print,NA,1687287163289,5fb45827fce53c129394e463,5fb45827fce53c129394e463,6,flower,critical,D,75,flower65.jpg,flower85.jpg,high,NULL
1687287274,0cec24289f01dadb76e091cafa040814,PennController,9,0,experiment,NULL,Video,progression,buffer,0.00532,1687287159080,5fb45827fce53c129394e463,5fb45827fce53c129394e463,6,flower,critical,D,75,flower65.jpg,flower85.jpg,high,NULL
1687287274,0cec24289f01dadb76e091cafa040814,PennController,9,0,experiment,NULL,Selector,choice,Selection,option1,1687287164479,5fb45827fce53c129394e463,5fb45827fce53c129394e463,6,flower,critical,D,75,flower65.jpg,flower85.jpg,high,option2;option1
1687287274,0cec24289f01dadb76e091cafa040814,PennController,9,0,experiment,NULL,PennController,8,_Trial_,End,1687287164480,5fb45827fce53c129394e463,5fb45827fce53c129394e463,6,flower,critical,D,75,flower65.jpg,flower85.jpg,high,NULL
1687287274,0cec24289f01dadb76e091cafa040814,PennController,28,0,experiment,NULL,PennController,27,_Trial_,Start,1687287164483,5fb45827fce53c129394e463,5fb45827fce53c129394e463,25,house,filler,D,25,house15.jpg,house35.jpg,GoalB,NULL
1687287274,0cec24289f01dadb76e091cafa040814,PennController,28,0,experiment,NULL,PennController,27,_Header_,Start,1687287164483,5fb45827fce53c129394e463,5fb45827fce53c129394e463,25,house,filler,D,25,house15.jpg,house35.jpg,GoalB,NULL
1687287274,0cec24289f01dadb76e091cafa040814,PennController,28,0,experiment,NULL,PennController,27,_Header_,End,1687287164483,5fb45827fce53c129394e463,5fb45827fce53c129394e463,25,house,filler,D,25,house15.jpg,house35.jpg,GoalB,NULL
1687287274,0cec24289f01dadb76e091cafa040814,PennController,28,0,experiment,NULL,Canvas,canvas6,Print,NA,1687287170222,5fb45827fce53c129394e463,5fb45827fce53c129394e463,25,house,filler,D,25,house15.jpg,house35.jpg,GoalB,NULL
1687287274,0cec24289f01dadb76e091cafa040814,PennController,28,0,experiment,NULL,Video,progression,buffer,0.004198,1687287168008,5fb45827fce53c129394e463,5fb45827fce53c129394e463,25,house,filler,D,25,house15.jpg,house35.jpg,GoalB,NULL
1687287274,0cec24289f01dadb76e091cafa040814,PennController,28,0,experiment,NULL,Selector,choice,Selection,option1,1687287171577,5fb45827fce53c129394e463,5fb45827fce53c129394e463,25,house,filler,D,25,house15.jpg,house35.jpg,GoalB,option1;option2
1687287274,0cec24289f01dadb76e091cafa040814,PennController,28,0,experiment,NULL,PennController,27,_Trial_,End,1687287171581,5fb45827fce53c129394e463,5fb45827fce53c129394e463,25,house,filler,D,25,house15.jpg,house35.jpg,GoalB,NULL
1687287274,0cec24289f01dadb76e091cafa040814,PennController,12,0,experiment,NULL,PennController,11,_Trial_,Start,1687287171583,5fb45827fce53c129394e463,5fb45827fce53c129394e463,9,cake,critical,D,75,cake66.jpg,cake84.jpg,high,NULL
1687287274,0cec24289f01dadb76e091cafa040814,PennController,12,0,experiment,NULL,PennController,11,_Header_,Start,1687287171583,5fb45827fce53c129394e463,5fb45827fce53c129394e463,9,cake,critical,D,75,cake66.jpg,cake84.jpg,high,NULL
1687287274,0cec24289f01dadb76e091cafa040814,PennController,12,0,experiment,NULL,PennController,11,_Header_,End,1687287171583,5fb45827fce53c129394e463,5fb45827fce53c129394e463,9,cake,critical,D,75,cake66.jpg,cake84.jpg,high,NULL
1687287274,0cec24289f01dadb76e091cafa040814,PennController,12,0,experiment,NULL,Canvas,canvas6,Print,NA,1687287181327,5fb45827fce53c129394e463,5fb45827fce53c129394e463,9,cake,critical,D,75,cake66.jpg,cake84.jpg,high,NULL
1687287274,0cec24289f01dadb76e091cafa040814,PennController,12,0,experiment,NULL,Video,progression,buffer,0.004203,1687287175110,5fb45827fce53c129394e463,5fb45827fce53c129394e463,9,cake,critical,D,75,cake66.jpg,cake84.jpg,high,NULL
1687287274,0cec24289f01dadb76e091cafa040814,PennController,12,0,experiment,NULL,Selector,choice,Selection,option1,1687287182751,5fb45827fce53c129394e463,5fb45827fce53c129394e463,9,cake,critical,D,75,cake66.jpg,cake84.jpg,high,option1;option2
1687287274,0cec24289f01dadb76e091cafa040814,PennController,12,0,experiment,NULL,PennController,11,_Trial_,End,1687287182753,5fb45827fce53c129394e463,5fb45827fce53c129394e463,9,cake,critical,D,75,cake66.jpg,cake84.jpg,high,NULL
1687287274,0cec24289f01dadb76e091cafa040814,PennController,16,0,experiment,NULL,PennController,15,_Trial_,Start,1687287182754,5fb45827fce53c129394e463,5fb45827fce53c129394e463,13,mix,critical,D,25,mix15.jpg,mix35.jpg,high,NULL
1687287274,0cec24289f01dadb76e091cafa040814,PennController,16,0,experiment,NULL,PennController,15,_Header_,Start,1687287182754,5fb45827fce53c129394e463,5fb45827fce53c129394e463,13,mix,critical,D,25,mix15.jpg,mix35.jpg,high,NULL
1687287274,0cec24289f01dadb76e091cafa040814,PennController,16,0,experiment,NULL,PennController,15,_Header_,End,1687287182754,5fb45827fce53c129394e463,5fb45827fce53c129394e463,13,mix,critical,D,25,mix15.jpg,mix35.jpg,high,NULL
1687287274,0cec24289f01dadb76e091cafa040814,PennController,16,0,experiment,NULL,Canvas,canvas6,Print,NA,1687287188507,5fb45827fce53c129394e463,5fb45827fce53c129394e463,13,mix,critical,D,25,mix15.jpg,mix35.jpg,high,NULL
1687287274,0cec24289f01dadb76e091cafa040814,PennController,16,0,experiment,NULL,Video,progression,buffer,0.004517,1687287186290,5fb45827fce53c129394e463,5fb45827fce53c129394e463,13,mix,critical,D,25,mix15.jpg,mix35.jpg,high,NULL
1687287274,0cec24289f01dadb76e091cafa040814,PennController,16,0,experiment,NULL,Selector,choice,Selection,option1,1687287190382,5fb45827fce53c129394e463,5fb45827fce53c129394e463,13,mix,critical,D,25,mix15.jpg,mix35.jpg,high,option1;option2
1687287274,0cec24289f01dadb76e091cafa040814,PennController,16,0,experiment,NULL,PennController,15,_Trial_,End,1687287190383,5fb45827fce53c129394e463,5fb45827fce53c129394e463,13,mix,critical,D,25,mix15.jpg,mix35.jpg,high,NULL
1687287274,0cec24289f01dadb76e091cafa040814,PennController,31,0,experiment,NULL,PennController,30,_Trial_,Start,1687287190385,5fb45827fce53c129394e463,5fb45827fce53c129394e463,28,sort,filler,D,25,sort15.jpg,sort35.jpg,GoalA,NULL
1687287274,0cec24289f01dadb76e091cafa040814,PennController,31,0,experiment,NULL,PennController,30,_Header_,Start,1687287190385,5fb45827fce53c129394e463,5fb45827fce53c129394e463,28,sort,filler,D,25,sort15.jpg,sort35.jpg,GoalA,NULL
1687287274,0cec24289f01dadb76e091cafa040814,PennController,31,0,experiment,NULL,PennController,30,_Header_,End,1687287190385,5fb45827fce53c129394e463,5fb45827fce53c129394e463,28,sort,filler,D,25,sort15.jpg,sort35.jpg,GoalA,NULL
1687287274,0cec24289f01dadb76e091cafa040814,PennController,31,0,experiment,NULL,Canvas,canvas6,Print,NA,1687287196123,5fb45827fce53c129394e463,5fb45827fce53c129394e463,28,sort,filler,D,25,sort15.jpg,sort35.jpg,GoalA,NULL
1687287274,0cec24289f01dadb76e091cafa040814,PennController,31,0,experiment,NULL,Video,progression,buffer,0.006503,1687287193918,5fb45827fce53c129394e463,5fb45827fce53c129394e463,28,sort,filler,D,25,sort15.jpg,sort35.jpg,GoalA,NULL
1687287274,0cec24289f01dadb76e091cafa040814,PennController,31,0,experiment,NULL,Selector,choice,Selection,option1,1687287198614,5fb45827fce53c129394e463,5fb45827fce53c129394e463,28,sort,filler,D,25,sort15.jpg,sort35.jpg,GoalA,option2;option1
1687287274,0cec24289f01dadb76e091cafa040814,PennController,31,0,experiment,NULL,PennController,30,_Trial_,End,1687287198616,5fb45827fce53c129394e463,5fb45827fce53c129394e463,28,sort,filler,D,25,sort15.jpg,sort35.jpg,GoalA,NULL
1687287274,0cec24289f01dadb76e091cafa040814,PennController,22,0,experiment,NULL,PennController,21,_Trial_,Start,1687287198618,5fb45827fce53c129394e463,5fb45827fce53c129394e463,19,cup,filler,D,25,cup15.jpg,cup35.jpg,GoalB,NULL
1687287274,0cec24289f01dadb76e091cafa040814,PennController,22,0,experiment,NULL,PennController,21,_Header_,Start,1687287198618,5fb45827fce53c129394e463,5fb45827fce53c129394e463,19,cup,filler,D,25,cup15.jpg,cup35.jpg,GoalB,NULL
1687287274,0cec24289f01dadb76e091cafa040814,PennController,22,0,experiment,NULL,PennController,21,_Header_,End,1687287198618,5fb45827fce53c129394e463,5fb45827fce53c129394e463,19,cup,filler,D,25,cup15.jpg,cup35.jpg,GoalB,NULL
1687287274,0cec24289f01dadb76e091cafa040814,PennController,22,0,experiment,NULL,Canvas,canvas6,Print,NA,1687287204360,5fb45827fce53c129394e463,5fb45827fce53c129394e463,19,cup,filler,D,25,cup15.jpg,cup35.jpg,GoalB,NULL
1687287274,0cec24289f01dadb76e091cafa040814,PennController,22,0,experiment,NULL,Video,progression,buffer,0.002375,1687287202141,5fb45827fce53c129394e463,5fb45827fce53c129394e463,19,cup,filler,D,25,cup15.jpg,cup35.jpg,GoalB,NULL
1687287274,0cec24289f01dadb76e091cafa040814,PennController,22,0,experiment,NULL,Selector,choice,Selection,option2,1687287206786,5fb45827fce53c129394e463,5fb45827fce53c129394e463,19,cup,filler,D,25,cup15.jpg,cup35.jpg,GoalB,option2;option1
1687287274,0cec24289f01dadb76e091cafa040814,PennController,22,0,experiment,NULL,PennController,21,_Trial_,End,1687287206788,5fb45827fce53c129394e463,5fb45827fce53c129394e463,19,cup,filler,D,25,cup15.jpg,cup35.jpg,GoalB,NULL
1687287274,0cec24289f01dadb76e091cafa040814,PennController,4,0,experiment,NULL,PennController,3,_Trial_,Start,1687287206789,5fb45827fce53c129394e463,5fb45827fce53c129394e463,1,vase,critical,D,25,vase15.jpg,vase35.jpg,high,NULL
1687287274,0cec24289f01dadb76e091cafa040814,PennController,4,0,experiment,NULL,PennController,3,_Header_,Start,1687287206789,5fb45827fce53c129394e463,5fb45827fce53c129394e463,1,vase,critical,D,25,vase15.jpg,vase35.jpg,high,NULL
1687287274,0cec24289f01dadb76e091cafa040814,PennController,4,0,experiment,NULL,PennController,3,_Header_,End,1687287206789,5fb45827fce53c129394e463,5fb45827fce53c129394e463,1,vase,critical,D,25,vase15.jpg,vase35.jpg,high,NULL
1687287274,0cec24289f01dadb76e091cafa040814,PennController,4,0,experiment,NULL,Canvas,canvas6,Print,NA,1687287212521,5fb45827fce53c129394e463,5fb45827fce53c129394e463,1,vase,critical,D,25,vase15.jpg,vase35.jpg,high,NULL
1687287274,0cec24289f01dadb76e091cafa040814,PennController,4,0,experiment,NULL,Video,progression,buffer,0.007876,1687287210321,5fb45827fce53c129394e463,5fb45827fce53c129394e463,1,vase,critical,D,25,vase15.jpg,vase35.jpg,high,NULL
1687287274,0cec24289f01dadb76e091cafa040814,PennController,4,0,experiment,NULL,Selector,choice,Selection,option1,1687287213712,5fb45827fce53c129394e463,5fb45827fce53c129394e463,1,vase,critical,D,25,vase15.jpg,vase35.jpg,high,option2;option1
1687287274,0cec24289f01dadb76e091cafa040814,PennController,4,0,experiment,NULL,PennController,3,_Trial_,End,1687287213714,5fb45827fce53c129394e463,5fb45827fce53c129394e463,1,vase,critical,D,25,vase15.jpg,vase35.jpg,high,NULL
1687287274,0cec24289f01dadb76e091cafa040814,PennController,29,0,experiment,NULL,PennController,28,_Trial_,Start,1687287213715,5fb45827fce53c129394e463,5fb45827fce53c129394e463,26,sandwich,filler,D,50,sandwich40.jpg,sandwich60.jpg,GoalA,NULL
1687287274,0cec24289f01dadb76e091cafa040814,PennController,29,0,experiment,NULL,PennController,28,_Header_,Start,1687287213715,5fb45827fce53c129394e463,5fb45827fce53c129394e463,26,sandwich,filler,D,50,sandwich40.jpg,sandwich60.jpg,GoalA,NULL
1687287274,0cec24289f01dadb76e091cafa040814,PennController,29,0,experiment,NULL,PennController,28,_Header_,End,1687287213715,5fb45827fce53c129394e463,5fb45827fce53c129394e463,26,sandwich,filler,D,50,sandwich40.jpg,sandwich60.jpg,GoalA,NULL
1687287274,0cec24289f01dadb76e091cafa040814,PennController,29,0,experiment,NULL,Canvas,canvas6,Print,NA,1687287220462,5fb45827fce53c129394e463,5fb45827fce53c129394e463,26,sandwich,filler,D,50,sandwich40.jpg,sandwich60.jpg,GoalA,NULL
1687287274,0cec24289f01dadb76e091cafa040814,PennController,29,0,experiment,NULL,Video,progression,buffer,0.006391,1687287217242,5fb45827fce53c129394e463,5fb45827fce53c129394e463,26,sandwich,filler,D,50,sandwich40.jpg,sandwich60.jpg,GoalA,NULL
1687287274,0cec24289f01dadb76e091cafa040814,PennController,29,0,experiment,NULL,Selector,choice,Selection,option1,1687287221489,5fb45827fce53c129394e463,5fb45827fce53c129394e463,26,sandwich,filler,D,50,sandwich40.jpg,sandwich60.jpg,GoalA,option1;option2
1687287274,0cec24289f01dadb76e091cafa040814,PennController,29,0,experiment,NULL,PennController,28,_Trial_,End,1687287221490,5fb45827fce53c129394e463,5fb45827fce53c129394e463,26,sandwich,filler,D,50,sandwich40.jpg,sandwich60.jpg,GoalA,NULL
1687287274,0cec24289f01dadb76e091cafa040814,PennController,21,0,experiment,NULL,PennController,20,_Trial_,Start,1687287221492,5fb45827fce53c129394e463,5fb45827fce53c129394e463,18,ball,critical,D,75,ball65.jpg,ball85.jpg,high,NULL
1687287274,0cec24289f01dadb76e091cafa040814,PennController,21,0,experiment,NULL,PennController,20,_Header_,Start,1687287221492,5fb45827fce53c129394e463,5fb45827fce53c129394e463,18,ball,critical,D,75,ball65.jpg,ball85.jpg,high,NULL
1687287274,0cec24289f01dadb76e091cafa040814,PennController,21,0,experiment,NULL,PennController,20,_Header_,End,1687287221492,5fb45827fce53c129394e463,5fb45827fce53c129394e463,18,ball,critical,D,75,ball65.jpg,ball85.jpg,high,NULL
1687287274,0cec24289f01dadb76e091cafa040814,PennController,21,0,experiment,NULL,Canvas,canvas6,Print,NA,1687287229260,5fb45827fce53c129394e463,5fb45827fce53c129394e463,18,ball,critical,D,75,ball65.jpg,ball85.jpg,high,NULL
1687287274,0cec24289f01dadb76e091cafa040814,PennController,21,0,experiment,NULL,Video,progression,buffer,0.002809,1687287225021,5fb45827fce53c129394e463,5fb45827fce53c129394e463,18,ball,critical,D,75,ball65.jpg,ball85.jpg,high,NULL
1687287274,0cec24289f01dadb76e091cafa040814,PennController,21,0,experiment,NULL,Selector,choice,Selection,option1,1687287230314,5fb45827fce53c129394e463,5fb45827fce53c129394e463,18,ball,critical,D,75,ball65.jpg,ball85.jpg,high,option1;option2
1687287274,0cec24289f01dadb76e091cafa040814,PennController,21,0,experiment,NULL,PennController,20,_Trial_,End,1687287230315,5fb45827fce53c129394e463,5fb45827fce53c129394e463,18,ball,critical,D,75,ball65.jpg,ball85.jpg,high,NULL
1687287274,0cec24289f01dadb76e091cafa040814,PennController,10,0,experiment,NULL,PennController,9,_Trial_,Start,1687287230320,5fb45827fce53c129394e463,5fb45827fce53c129394e463,7,stack,critical,D,25,stack15.jpg,stack35.jpg,high,NULL
1687287274,0cec24289f01dadb76e091cafa040814,PennController,10,0,experiment,NULL,PennController,9,_Header_,Start,1687287230320,5fb45827fce53c129394e463,5fb45827fce53c129394e463,7,stack,critical,D,25,stack15.jpg,stack35.jpg,high,NULL
1687287274,0cec24289f01dadb76e091cafa040814,PennController,10,0,experiment,NULL,PennController,9,_Header_,End,1687287230320,5fb45827fce53c129394e463,5fb45827fce53c129394e463,7,stack,critical,D,25,stack15.jpg,stack35.jpg,high,NULL
1687287274,0cec24289f01dadb76e091cafa040814,PennController,10,0,experiment,NULL,Canvas,canvas6,Print,NA,1687287236061,5fb45827fce53c129394e463,5fb45827fce53c129394e463,7,stack,critical,D,25,stack15.jpg,stack35.jpg,high,NULL
1687287274,0cec24289f01dadb76e091cafa040814,PennController,10,0,experiment,NULL,Video,progression,buffer,0.006286,1687287233853,5fb45827fce53c129394e463,5fb45827fce53c129394e463,7,stack,critical,D,25,stack15.jpg,stack35.jpg,high,NULL
1687287274,0cec24289f01dadb76e091cafa040814,PennController,10,0,experiment,NULL,Selector,choice,Selection,option1,1687287238207,5fb45827fce53c129394e463,5fb45827fce53c129394e463,7,stack,critical,D,25,stack15.jpg,stack35.jpg,high,option2;option1
1687287274,0cec24289f01dadb76e091cafa040814,PennController,10,0,experiment,NULL,PennController,9,_Trial_,End,1687287238208,5fb45827fce53c129394e463,5fb45827fce53c129394e463,7,stack,critical,D,25,stack15.jpg,stack35.jpg,high,NULL
1687287274,0cec24289f01dadb76e091cafa040814,PennController,24,0,experiment,NULL,PennController,23,_Trial_,Start,1687287238210,5fb45827fce53c129394e463,5fb45827fce53c129394e463,21,visit,filler,D,75,visit65.jpg,visit85.jpg,GoalB,NULL
1687287274,0cec24289f01dadb76e091cafa040814,PennController,24,0,experiment,NULL,PennController,23,_Header_,Start,1687287238210,5fb45827fce53c129394e463,5fb45827fce53c129394e463,21,visit,filler,D,75,visit65.jpg,visit85.jpg,GoalB,NULL
1687287274,0cec24289f01dadb76e091cafa040814,PennController,24,0,experiment,NULL,PennController,23,_Header_,End,1687287238210,5fb45827fce53c129394e463,5fb45827fce53c129394e463,21,visit,filler,D,75,visit65.jpg,visit85.jpg,GoalB,NULL
1687287274,0cec24289f01dadb76e091cafa040814,PennController,24,0,experiment,NULL,Canvas,canvas6,Print,NA,1687287245959,5fb45827fce53c129394e463,5fb45827fce53c129394e463,21,visit,filler,D,75,visit65.jpg,visit85.jpg,GoalB,NULL
1687287274,0cec24289f01dadb76e091cafa040814,PennController,24,0,experiment,NULL,Video,progression,buffer,0.004953,1687287241737,5fb45827fce53c129394e463,5fb45827fce53c129394e463,21,visit,filler,D,75,visit65.jpg,visit85.jpg,GoalB,NULL
1687287274,0cec24289f01dadb76e091cafa040814,PennController,24,0,experiment,NULL,Selector,choice,Selection,option2,1687287247642,5fb45827fce53c129394e463,5fb45827fce53c129394e463,21,visit,filler,D,75,visit65.jpg,visit85.jpg,GoalB,option2;option1
1687287274,0cec24289f01dadb76e091cafa040814,PennController,24,0,experiment,NULL,PennController,23,_Trial_,End,1687287247644,5fb45827fce53c129394e463,5fb45827fce53c129394e463,21,visit,filler,D,75,visit65.jpg,visit85.jpg,GoalB,NULL
1687287274,0cec24289f01dadb76e091cafa040814,PennController,25,0,experiment,NULL,PennController,24,_Trial_,Start,1687287247645,5fb45827fce53c129394e463,5fb45827fce53c129394e463,22,wall,filler,D,25,wall15.jpg,wall35.jpg,GoalA,NULL
1687287274,0cec24289f01dadb76e091cafa040814,PennController,25,0,experiment,NULL,PennController,24,_Header_,Start,1687287247645,5fb45827fce53c129394e463,5fb45827fce53c129394e463,22,wall,filler,D,25,wall15.jpg,wall35.jpg,GoalA,NULL
1687287274,0cec24289f01dadb76e091cafa040814,PennController,25,0,experiment,NULL,PennController,24,_Header_,End,1687287247645,5fb45827fce53c129394e463,5fb45827fce53c129394e463,22,wall,filler,D,25,wall15.jpg,wall35.jpg,GoalA,NULL
1687287274,0cec24289f01dadb76e091cafa040814,PennController,25,0,experiment,NULL,Canvas,canvas6,Print,NA,1687287253381,5fb45827fce53c129394e463,5fb45827fce53c129394e463,22,wall,filler,D,25,wall15.jpg,wall35.jpg,GoalA,NULL
1687287274,0cec24289f01dadb76e091cafa040814,PennController,25,0,experiment,NULL,Video,progression,buffer,0.006555,1687287251176,5fb45827fce53c129394e463,5fb45827fce53c129394e463,22,wall,filler,D,25,wall15.jpg,wall35.jpg,GoalA,NULL
1687287274,0cec24289f01dadb76e091cafa040814,PennController,25,0,experiment,NULL,Selector,choice,Selection,option1,1687287254717,5fb45827fce53c129394e463,5fb45827fce53c129394e463,22,wall,filler,D,25,wall15.jpg,wall35.jpg,GoalA,option2;option1
1687287274,0cec24289f01dadb76e091cafa040814,PennController,25,0,experiment,NULL,PennController,24,_Trial_,End,1687287254718,5fb45827fce53c129394e463,5fb45827fce53c129394e463,22,wall,filler,D,25,wall15.jpg,wall35.jpg,GoalA,NULL
1687287274,0cec24289f01dadb76e091cafa040814,PennController,30,0,experiment,NULL,PennController,29,_Trial_,Start,1687287254721,5fb45827fce53c129394e463,5fb45827fce53c129394e463,27,square,filler,D,75,square65.jpg,square85.jpg,GoalB,NULL
1687287274,0cec24289f01dadb76e091cafa040814,PennController,30,0,experiment,NULL,PennController,29,_Header_,Start,1687287254721,5fb45827fce53c129394e463,5fb45827fce53c129394e463,27,square,filler,D,75,square65.jpg,square85.jpg,GoalB,NULL
1687287274,0cec24289f01dadb76e091cafa040814,PennController,30,0,experiment,NULL,PennController,29,_Header_,End,1687287254721,5fb45827fce53c129394e463,5fb45827fce53c129394e463,27,square,filler,D,75,square65.jpg,square85.jpg,GoalB,NULL
1687287274,0cec24289f01dadb76e091cafa040814,PennController,30,0,experiment,NULL,Canvas,canvas6,Print,NA,1687287262460,5fb45827fce53c129394e463,5fb45827fce53c129394e463,27,square,filler,D,75,square65.jpg,square85.jpg,GoalB,NULL
1687287274,0cec24289f01dadb76e091cafa040814,PennController,30,0,experiment,NULL,Video,progression,buffer,0.004924,1687287258250,5fb45827fce53c129394e463,5fb45827fce53c129394e463,27,square,filler,D,75,square65.jpg,square85.jpg,GoalB,NULL
1687287274,0cec24289f01dadb76e091cafa040814,PennController,30,0,experiment,NULL,Selector,choice,Selection,option1,1687287264339,5fb45827fce53c129394e463,5fb45827fce53c129394e463,27,square,filler,D,75,square65.jpg,square85.jpg,GoalB,option1;option2
1687287274,0cec24289f01dadb76e091cafa040814,PennController,30,0,experiment,NULL,PennController,29,_Trial_,End,1687287264341,5fb45827fce53c129394e463,5fb45827fce53c129394e463,27,square,filler,D,75,square65.jpg,square85.jpg,GoalB,NULL
1687287274,0cec24289f01dadb76e091cafa040814,PennController,17,0,experiment,NULL,PennController,16,_Trial_,Start,1687287264342,5fb45827fce53c129394e463,5fb45827fce53c129394e463,14,cover,critical,D,50,cover42.jpg,cover60.jpg,high,NULL
1687287274,0cec24289f01dadb76e091cafa040814,PennController,17,0,experiment,NULL,PennController,16,_Header_,Start,1687287264342,5fb45827fce53c129394e463,5fb45827fce53c129394e463,14,cover,critical,D,50,cover42.jpg,cover60.jpg,high,NULL
1687287274,0cec24289f01dadb76e091cafa040814,PennController,17,0,experiment,NULL,PennController,16,_Header_,End,1687287264342,5fb45827fce53c129394e463,5fb45827fce53c129394e463,14,cover,critical,D,50,cover42.jpg,cover60.jpg,high,NULL
1687287274,0cec24289f01dadb76e091cafa040814,PennController,17,0,experiment,NULL,Canvas,canvas6,Print,NA,1687287272494,5fb45827fce53c129394e463,5fb45827fce53c129394e463,14,cover,critical,D,50,cover42.jpg,cover60.jpg,high,NULL
1687287274,0cec24289f01dadb76e091cafa040814,PennController,17,0,experiment,NULL,Video,progression,buffer,0.006699,1687287267873,5fb45827fce53c129394e463,5fb45827fce53c129394e463,14,cover,critical,D,50,cover42.jpg,cover60.jpg,high,NULL
1687287274,0cec24289f01dadb76e091cafa040814,PennController,17,0,experiment,NULL,Selector,choice,Selection,option1,1687287273433,5fb45827fce53c129394e463,5fb45827fce53c129394e463,14,cover,critical,D,50,cover42.jpg,cover60.jpg,high,option2;option1
1687287274,0cec24289f01dadb76e091cafa040814,PennController,17,0,experiment,NULL,PennController,16,_Trial_,End,1687287273435,5fb45827fce53c129394e463,5fb45827fce53c129394e463,14,cover,critical,D,50,cover42.jpg,cover60.jpg,high,NULL
