#
# Results on Tuesday June 20 2023 19:11:44 UTC
# USER AGENT: Mozilla/5.0 (Windows NT 10.0; Win64; x64) AppleWebKit/537.36 (KHTML, like Gecko) Chrome/114.0.0.0 Safari/537.36
# Design number was non-random = 56
#
# Columns below this comment are as follows:
# 1. Results reception time.
# 2. MD5 hash of participant's IP address.
# 3. Controller name.
# 4. Order number of item.
# 5. Inner element number.
# 6. Label.
# 7. Latin Square Group.
# 8. PennElementType.
# 9. PennElementName.
# 10. Parameter.
# 11. Value.
# 12. EventTime.
# 13. PROLIFIC_ID.
# 14. Comments.
1687288304,5bbfc32a5a0df826c6694b7f04c2c3dd,PennController,2,0,consent,NULL,PennController,0,_Trial_,Start,1687287970434,5fcea6e0350f1f14e9e09bd5,NULL
1687288304,5bbfc32a5a0df826c6694b7f04c2c3dd,PennController,2,0,consent,NULL,PennController,0,_Header_,Start,1687287970434,5fcea6e0350f1f14e9e09bd5,NULL
1687288304,5bbfc32a5a0df826c6694b7f04c2c3dd,PennController,2,0,consent,NULL,PennController,0,_Header_,End,1687287970434,5fcea6e0350f1f14e9e09bd5,NULL
1687288304,5bbfc32a5a0df826c6694b7f04c2c3dd,PennController,2,0,consent,NULL,PennController,0,_Trial_,End,1687287985007,5fcea6e0350f1f14e9e09bd5,NULL
# Columns below this comment are as follows:
# 14. ID.
# 15. Comments.
1687288304,5bbfc32a5a0df826c6694b7f04c2c3dd,PennController,3,0,intro,NULL,PennController,1,_Trial_,Start,1687287985009,5fcea6e0350f1f14e9e09bd5,5fcea6e0350f1f14e9e09bd5,NULL
1687288304,5bbfc32a5a0df826c6694b7f04c2c3dd,PennController,3,0,intro,NULL,PennController,1,_Header_,Start,1687287985009,5fcea6e0350f1f14e9e09bd5,5fcea6e0350f1f14e9e09bd5,NULL
1687288304,5bbfc32a5a0df826c6694b7f04c2c3dd,PennController,3,0,intro,NULL,PennController,1,_Header_,End,1687287985009,5fcea6e0350f1f14e9e09bd5,5fcea6e0350f1f14e9e09bd5,NULL
1687288304,5bbfc32a5a0df826c6694b7f04c2c3dd,PennController,3,0,intro,NULL,PennController,1,_Trial_,End,1687288007319,5fcea6e0350f1f14e9e09bd5,5fcea6e0350f1f14e9e09bd5,NULL
# Columns below this comment are as follows:
# 15. item_number.
# 16. item.
# 17. type.
# 18. Group.
# 19. prog.
# 20. prev_image.
# 21. next_image.
# 22. height.
# 23. Comments.
1687288304,5bbfc32a5a0df826c6694b7f04c2c3dd,PennController,18,0,experiment,NULL,PennController,17,_Trial_,Start,1687288007321,5fcea6e0350f1f14e9e09bd5,5fcea6e0350f1f14e9e09bd5,15,zip,critical,C,50,zip40.jpg,zip60.jpg,low,NULL
1687288304,5bbfc32a5a0df826c6694b7f04c2c3dd,PennController,18,0,experiment,NULL,PennController,17,_Header_,Start,1687288007321,5fcea6e0350f1f14e9e09bd5,5fcea6e0350f1f14e9e09bd5,15,zip,critical,C,50,zip40.jpg,zip60.jpg,low,NULL
1687288304,5bbfc32a5a0df826c6694b7f04c2c3dd,PennController,18,0,experiment,NULL,PennController,17,_Header_,End,1687288007321,5fcea6e0350f1f14e9e09bd5,5fcea6e0350f1f14e9e09bd5,15,zip,critical,C,50,zip40.jpg,zip60.jpg,low,NULL
1687288304,5bbfc32a5a0df826c6694b7f04c2c3dd,PennController,18,0,experiment,NULL,Canvas,canvas6,Print,NA,1687288014049,5fcea6e0350f1f14e9e09bd5,5fcea6e0350f1f14e9e09bd5,15,zip,critical,C,50,zip40.jpg,zip60.jpg,low,NULL
1687288304,5bbfc32a5a0df826c6694b7f04c2c3dd,PennController,18,0,experiment,NULL,Video,progression,buffer,0.003035,1687288010869,5fcea6e0350f1f14e9e09bd5,5fcea6e0350f1f14e9e09bd5,15,zip,critical,C,50,zip40.jpg,zip60.jpg,low,NULL
1687288304,5bbfc32a5a0df826c6694b7f04c2c3dd,PennController,18,0,experiment,NULL,Selector,choice,Selection,option1,1687288016907,5fcea6e0350f1f14e9e09bd5,5fcea6e0350f1f14e9e09bd5,15,zip,critical,C,50,zip40.jpg,zip60.jpg,low,option2;option1
1687288304,5bbfc32a5a0df826c6694b7f04c2c3dd,PennController,18,0,experiment,NULL,PennController,17,_Trial_,End,1687288016909,5fcea6e0350f1f14e9e09bd5,5fcea6e0350f1f14e9e09bd5,15,zip,critical,C,50,zip40.jpg,zip60.jpg,low,NULL
1687288304,5bbfc32a5a0df826c6694b7f04c2c3dd,PennController,13,0,experiment,NULL,PennController,12,_Trial_,Start,1687288016910,5fcea6e0350f1f14e9e09bd5,5fcea6e0350f1f14e9e09bd5,10,train,critical,C,75,train65.jpg,train85.jpg,low,NULL
1687288304,5bbfc32a5a0df826c6694b7f04c2c3dd,PennController,13,0,experiment,NULL,PennController,12,_Header_,Start,1687288016910,5fcea6e0350f1f14e9e09bd5,5fcea6e0350f1f14e9e09bd5,10,train,critical,C,75,train65.jpg,train85.jpg,low,NULL
1687288304,5bbfc32a5a0df826c6694b7f04c2c3dd,PennController,13,0,experiment,NULL,PennController,12,_Header_,End,1687288016910,5fcea6e0350f1f14e9e09bd5,5fcea6e0350f1f14e9e09bd5,10,train,critical,C,75,train65.jpg,train85.jpg,low,NULL
1687288304,5bbfc32a5a0df826c6694b7f04c2c3dd,PennController,13,0,experiment,NULL,Canvas,canvas6,Print,NA,1687288024615,5fcea6e0350f1f14e9e09bd5,5fcea6e0350f1f14e9e09bd5,10,train,critical,C,75,train65.jpg,train85.jpg,low,NULL
1687288304,5bbfc32a5a0df826c6694b7f04c2c3dd,PennController,13,0,experiment,NULL,Video,progression,buffer,0.003027,1687288020437,5fcea6e0350f1f14e9e09bd5,5fcea6e0350f1f14e9e09bd5,10,train,critical,C,75,train65.jpg,train85.jpg,low,NULL
1687288304,5bbfc32a5a0df826c6694b7f04c2c3dd,PennController,13,0,experiment,NULL,Selector,choice,Selection,option2,1687288033930,5fcea6e0350f1f14e9e09bd5,5fcea6e0350f1f14e9e09bd5,10,train,critical,C,75,train65.jpg,train85.jpg,low,option1;option2
1687288304,5bbfc32a5a0df826c6694b7f04c2c3dd,PennController,13,0,experiment,NULL,PennController,12,_Trial_,End,1687288033931,5fcea6e0350f1f14e9e09bd5,5fcea6e0350f1f14e9e09bd5,10,train,critical,C,75,train65.jpg,train85.jpg,low,NULL
1687288304,5bbfc32a5a0df826c6694b7f04c2c3dd,PennController,25,0,experiment,NULL,PennController,24,_Trial_,Start,1687288033933,5fcea6e0350f1f14e9e09bd5,5fcea6e0350f1f14e9e09bd5,22,wall,filler,C,75,wall65.jpg,wall85.jpg,GoalB,NULL
1687288304,5bbfc32a5a0df826c6694b7f04c2c3dd,PennController,25,0,experiment,NULL,PennController,24,_Header_,Start,1687288033933,5fcea6e0350f1f14e9e09bd5,5fcea6e0350f1f14e9e09bd5,22,wall,filler,C,75,wall65.jpg,wall85.jpg,GoalB,NULL
1687288304,5bbfc32a5a0df826c6694b7f04c2c3dd,PennController,25,0,experiment,NULL,PennController,24,_Header_,End,1687288033933,5fcea6e0350f1f14e9e09bd5,5fcea6e0350f1f14e9e09bd5,22,wall,filler,C,75,wall65.jpg,wall85.jpg,GoalB,NULL
1687288304,5bbfc32a5a0df826c6694b7f04c2c3dd,PennController,25,0,experiment,NULL,Canvas,canvas6,Print,NA,1687288041634,5fcea6e0350f1f14e9e09bd5,5fcea6e0350f1f14e9e09bd5,22,wall,filler,C,75,wall65.jpg,wall85.jpg,GoalB,NULL
1687288304,5bbfc32a5a0df826c6694b7f04c2c3dd,PennController,25,0,experiment,NULL,Video,progression,buffer,0.003723,1687288037457,5fcea6e0350f1f14e9e09bd5,5fcea6e0350f1f14e9e09bd5,22,wall,filler,C,75,wall65.jpg,wall85.jpg,GoalB,NULL
1687288304,5bbfc32a5a0df826c6694b7f04c2c3dd,PennController,25,0,experiment,NULL,Selector,choice,Selection,option2,1687288043588,5fcea6e0350f1f14e9e09bd5,5fcea6e0350f1f14e9e09bd5,22,wall,filler,C,75,wall65.jpg,wall85.jpg,GoalB,option2;option1
1687288304,5bbfc32a5a0df826c6694b7f04c2c3dd,PennController,25,0,experiment,NULL,PennController,24,_Trial_,End,1687288043589,5fcea6e0350f1f14e9e09bd5,5fcea6e0350f1f14e9e09bd5,22,wall,filler,C,75,wall65.jpg,wall85.jpg,GoalB,NULL
1687288304,5bbfc32a5a0df826c6694b7f04c2c3dd,PennController,26,0,experiment,NULL,PennController,25,_Trial_,Start,1687288043591,5fcea6e0350f1f14e9e09bd5,5fcea6e0350f1f14e9e09bd5,23,color,filler,C,25,color15.jpg,color35.jpg,GoalA,NULL
1687288304,5bbfc32a5a0df826c6694b7f04c2c3dd,PennController,26,0,experiment,NULL,PennController,25,_Header_,Start,1687288043591,5fcea6e0350f1f14e9e09bd5,5fcea6e0350f1f14e9e09bd5,23,color,filler,C,25,color15.jpg,color35.jpg,GoalA,NULL
1687288304,5bbfc32a5a0df826c6694b7f04c2c3dd,PennController,26,0,experiment,NULL,PennController,25,_Header_,End,1687288043591,5fcea6e0350f1f14e9e09bd5,5fcea6e0350f1f14e9e09bd5,23,color,filler,C,25,color15.jpg,color35.jpg,GoalA,NULL
1687288304,5bbfc32a5a0df826c6694b7f04c2c3dd,PennController,26,0,experiment,NULL,Canvas,canvas6,Print,NA,1687288049298,5fcea6e0350f1f14e9e09bd5,5fcea6e0350f1f14e9e09bd5,23,color,filler,C,25,color15.jpg,color35.jpg,GoalA,NULL
1687288304,5bbfc32a5a0df826c6694b7f04c2c3dd,PennController,26,0,experiment,NULL,Video,progression,buffer,0.003141,1687288047122,5fcea6e0350f1f14e9e09bd5,5fcea6e0350f1f14e9e09bd5,23,color,filler,C,25,color15.jpg,color35.jpg,GoalA,NULL
1687288304,5bbfc32a5a0df826c6694b7f04c2c3dd,PennController,26,0,experiment,NULL,Selector,choice,Selection,option2,1687288054076,5fcea6e0350f1f14e9e09bd5,5fcea6e0350f1f14e9e09bd5,23,color,filler,C,25,color15.jpg,color35.jpg,GoalA,option1;option2
1687288304,5bbfc32a5a0df826c6694b7f04c2c3dd,PennController,26,0,experiment,NULL,PennController,25,_Trial_,End,1687288054077,5fcea6e0350f1f14e9e09bd5,5fcea6e0350f1f14e9e09bd5,23,color,filler,C,25,color15.jpg,color35.jpg,GoalA,NULL
1687288304,5bbfc32a5a0df826c6694b7f04c2c3dd,PennController,31,0,experiment,NULL,PennController,30,_Trial_,Start,1687288054078,5fcea6e0350f1f14e9e09bd5,5fcea6e0350f1f14e9e09bd5,28,sort,filler,C,75,sort65.jpg,sort85.jpg,GoalB,NULL
1687288304,5bbfc32a5a0df826c6694b7f04c2c3dd,PennController,31,0,experiment,NULL,PennController,30,_Header_,Start,1687288054078,5fcea6e0350f1f14e9e09bd5,5fcea6e0350f1f14e9e09bd5,28,sort,filler,C,75,sort65.jpg,sort85.jpg,GoalB,NULL
1687288304,5bbfc32a5a0df826c6694b7f04c2c3dd,PennController,31,0,experiment,NULL,PennController,30,_Header_,End,1687288054078,5fcea6e0350f1f14e9e09bd5,5fcea6e0350f1f14e9e09bd5,28,sort,filler,C,75,sort65.jpg,sort85.jpg,GoalB,NULL
1687288304,5bbfc32a5a0df826c6694b7f04c2c3dd,PennController,31,0,experiment,NULL,Canvas,canvas6,Print,NA,1687288061784,5fcea6e0350f1f14e9e09bd5,5fcea6e0350f1f14e9e09bd5,28,sort,filler,C,75,sort65.jpg,sort85.jpg,GoalB,NULL
1687288304,5bbfc32a5a0df826c6694b7f04c2c3dd,PennController,31,0,experiment,NULL,Video,progression,buffer,0.005281,1687288057607,5fcea6e0350f1f14e9e09bd5,5fcea6e0350f1f14e9e09bd5,28,sort,filler,C,75,sort65.jpg,sort85.jpg,GoalB,NULL
1687288304,5bbfc32a5a0df826c6694b7f04c2c3dd,PennController,31,0,experiment,NULL,Selector,choice,Selection,option2,1687288069619,5fcea6e0350f1f14e9e09bd5,5fcea6e0350f1f14e9e09bd5,28,sort,filler,C,75,sort65.jpg,sort85.jpg,GoalB,option1;option2
1687288304,5bbfc32a5a0df826c6694b7f04c2c3dd,PennController,31,0,experiment,NULL,PennController,30,_Trial_,End,1687288069620,5fcea6e0350f1f14e9e09bd5,5fcea6e0350f1f14e9e09bd5,28,sort,filler,C,75,sort65.jpg,sort85.jpg,GoalB,NULL
1687288304,5bbfc32a5a0df826c6694b7f04c2c3dd,PennController,32,0,experiment,NULL,PennController,31,_Trial_,Start,1687288069622,5fcea6e0350f1f14e9e09bd5,5fcea6e0350f1f14e9e09bd5,29,frog,filler,C,25,frog15.jpg,frog35.jpg,GoalA,NULL
1687288304,5bbfc32a5a0df826c6694b7f04c2c3dd,PennController,32,0,experiment,NULL,PennController,31,_Header_,Start,1687288069622,5fcea6e0350f1f14e9e09bd5,5fcea6e0350f1f14e9e09bd5,29,frog,filler,C,25,frog15.jpg,frog35.jpg,GoalA,NULL
1687288304,5bbfc32a5a0df826c6694b7f04c2c3dd,PennController,32,0,experiment,NULL,PennController,31,_Header_,End,1687288069622,5fcea6e0350f1f14e9e09bd5,5fcea6e0350f1f14e9e09bd5,29,frog,filler,C,25,frog15.jpg,frog35.jpg,GoalA,NULL
1687288304,5bbfc32a5a0df826c6694b7f04c2c3dd,PennController,32,0,experiment,NULL,Canvas,canvas6,Print,NA,1687288075325,5fcea6e0350f1f14e9e09bd5,5fcea6e0350f1f14e9e09bd5,29,frog,filler,C,25,frog15.jpg,frog35.jpg,GoalA,NULL
1687288304,5bbfc32a5a0df826c6694b7f04c2c3dd,PennController,32,0,experiment,NULL,Video,progression,buffer,0.004384,1687288073151,5fcea6e0350f1f14e9e09bd5,5fcea6e0350f1f14e9e09bd5,29,frog,filler,C,25,frog15.jpg,frog35.jpg,GoalA,NULL
1687288304,5bbfc32a5a0df826c6694b7f04c2c3dd,PennController,32,0,experiment,NULL,Selector,choice,Selection,option2,1687288077049,5fcea6e0350f1f14e9e09bd5,5fcea6e0350f1f14e9e09bd5,29,frog,filler,C,25,frog15.jpg,frog35.jpg,GoalA,option2;option1
1687288304,5bbfc32a5a0df826c6694b7f04c2c3dd,PennController,32,0,experiment,NULL,PennController,31,_Trial_,End,1687288077050,5fcea6e0350f1f14e9e09bd5,5fcea6e0350f1f14e9e09bd5,29,frog,filler,C,25,frog15.jpg,frog35.jpg,GoalA,NULL
1687288304,5bbfc32a5a0df826c6694b7f04c2c3dd,PennController,27,0,experiment,NULL,PennController,26,_Trial_,Start,1687288077051,5fcea6e0350f1f14e9e09bd5,5fcea6e0350f1f14e9e09bd5,24,match,filler,C,50,match40.jpg,match60.jpg,GoalB,NULL
1687288304,5bbfc32a5a0df826c6694b7f04c2c3dd,PennController,27,0,experiment,NULL,PennController,26,_Header_,Start,1687288077051,5fcea6e0350f1f14e9e09bd5,5fcea6e0350f1f14e9e09bd5,24,match,filler,C,50,match40.jpg,match60.jpg,GoalB,NULL
1687288304,5bbfc32a5a0df826c6694b7f04c2c3dd,PennController,27,0,experiment,NULL,PennController,26,_Header_,End,1687288077051,5fcea6e0350f1f14e9e09bd5,5fcea6e0350f1f14e9e09bd5,24,match,filler,C,50,match40.jpg,match60.jpg,GoalB,NULL
1687288304,5bbfc32a5a0df826c6694b7f04c2c3dd,PennController,27,0,experiment,NULL,Canvas,canvas6,Print,NA,1687288083747,5fcea6e0350f1f14e9e09bd5,5fcea6e0350f1f14e9e09bd5,24,match,filler,C,50,match40.jpg,match60.jpg,GoalB,NULL
1687288304,5bbfc32a5a0df826c6694b7f04c2c3dd,PennController,27,0,experiment,NULL,Video,progression,buffer,0.005344,1687288080584,5fcea6e0350f1f14e9e09bd5,5fcea6e0350f1f14e9e09bd5,24,match,filler,C,50,match40.jpg,match60.jpg,GoalB,NULL
1687288304,5bbfc32a5a0df826c6694b7f04c2c3dd,PennController,27,0,experiment,NULL,Selector,choice,Selection,option2,1687288092167,5fcea6e0350f1f14e9e09bd5,5fcea6e0350f1f14e9e09bd5,24,match,filler,C,50,match40.jpg,match60.jpg,GoalB,option2;option1
1687288304,5bbfc32a5a0df826c6694b7f04c2c3dd,PennController,27,0,experiment,NULL,PennController,26,_Trial_,End,1687288092168,5fcea6e0350f1f14e9e09bd5,5fcea6e0350f1f14e9e09bd5,24,match,filler,C,50,match40.jpg,match60.jpg,GoalB,NULL
1687288304,5bbfc32a5a0df826c6694b7f04c2c3dd,PennController,9,0,experiment,NULL,PennController,8,_Trial_,Start,1687288092169,5fcea6e0350f1f14e9e09bd5,5fcea6e0350f1f14e9e09bd5,6,flower,critical,C,50,flower40.jpg,flower60.jpg,low,NULL
1687288304,5bbfc32a5a0df826c6694b7f04c2c3dd,PennController,9,0,experiment,NULL,PennController,8,_Header_,Start,1687288092169,5fcea6e0350f1f14e9e09bd5,5fcea6e0350f1f14e9e09bd5,6,flower,critical,C,50,flower40.jpg,flower60.jpg,low,NULL
1687288304,5bbfc32a5a0df826c6694b7f04c2c3dd,PennController,9,0,experiment,NULL,PennController,8,_Header_,End,1687288092169,5fcea6e0350f1f14e9e09bd5,5fcea6e0350f1f14e9e09bd5,6,flower,critical,C,50,flower40.jpg,flower60.jpg,low,NULL
1687288304,5bbfc32a5a0df826c6694b7f04c2c3dd,PennController,9,0,experiment,NULL,Canvas,canvas6,Print,NA,1687288098881,5fcea6e0350f1f14e9e09bd5,5fcea6e0350f1f14e9e09bd5,6,flower,critical,C,50,flower40.jpg,flower60.jpg,low,NULL
1687288304,5bbfc32a5a0df826c6694b7f04c2c3dd,PennController,9,0,experiment,NULL,Video,progression,buffer,0.003387,1687288095702,5fcea6e0350f1f14e9e09bd5,5fcea6e0350f1f14e9e09bd5,6,flower,critical,C,50,flower40.jpg,flower60.jpg,low,NULL
1687288304,5bbfc32a5a0df826c6694b7f04c2c3dd,PennController,9,0,experiment,NULL,Selector,choice,Selection,option1,1687288100310,5fcea6e0350f1f14e9e09bd5,5fcea6e0350f1f14e9e09bd5,6,flower,critical,C,50,flower40.jpg,flower60.jpg,low,option1;option2
1687288304,5bbfc32a5a0df826c6694b7f04c2c3dd,PennController,9,0,experiment,NULL,PennController,8,_Trial_,End,1687288100311,5fcea6e0350f1f14e9e09bd5,5fcea6e0350f1f14e9e09bd5,6,flower,critical,C,50,flower40.jpg,flower60.jpg,low,NULL
1687288304,5bbfc32a5a0df826c6694b7f04c2c3dd,PennController,15,0,experiment,NULL,PennController,14,_Trial_,Start,1687288100311,5fcea6e0350f1f14e9e09bd5,5fcea6e0350f1f14e9e09bd5,12,erase,critical,C,50,erase42.jpg,erase60.jpg,low,NULL
1687288304,5bbfc32a5a0df826c6694b7f04c2c3dd,PennController,15,0,experiment,NULL,PennController,14,_Header_,Start,1687288100311,5fcea6e0350f1f14e9e09bd5,5fcea6e0350f1f14e9e09bd5,12,erase,critical,C,50,erase42.jpg,erase60.jpg,low,NULL
1687288304,5bbfc32a5a0df826c6694b7f04c2c3dd,PennController,15,0,experiment,NULL,PennController,14,_Header_,End,1687288100311,5fcea6e0350f1f14e9e09bd5,5fcea6e0350f1f14e9e09bd5,12,erase,critical,C,50,erase42.jpg,erase60.jpg,low,NULL
1687288304,5bbfc32a5a0df826c6694b7f04c2c3dd,PennController,15,0,experiment,NULL,Canvas,canvas6,Print,NA,1687288108411,5fcea6e0350f1f14e9e09bd5,5fcea6e0350f1f14e9e09bd5,12,erase,critical,C,50,erase42.jpg,erase60.jpg,low,NULL
1687288304,5bbfc32a5a0df826c6694b7f04c2c3dd,PennController,15,0,experiment,NULL,Video,progression,buffer,0.003103,1687288103844,5fcea6e0350f1f14e9e09bd5,5fcea6e0350f1f14e9e09bd5,12,erase,critical,C,50,erase42.jpg,erase60.jpg,low,NULL
1687288304,5bbfc32a5a0df826c6694b7f04c2c3dd,PennController,15,0,experiment,NULL,Selector,choice,Selection,option1,1687288115760,5fcea6e0350f1f14e9e09bd5,5fcea6e0350f1f14e9e09bd5,12,erase,critical,C,50,erase42.jpg,erase60.jpg,low,option1;option2
1687288304,5bbfc32a5a0df826c6694b7f04c2c3dd,PennController,15,0,experiment,NULL,PennController,14,_Trial_,End,1687288115761,5fcea6e0350f1f14e9e09bd5,5fcea6e0350f1f14e9e09bd5,12,erase,critical,C,50,erase42.jpg,erase60.jpg,low,NULL
1687288304,5bbfc32a5a0df826c6694b7f04c2c3dd,PennController,14,0,experiment,NULL,PennController,13,_Trial_,Start,1687288115762,5fcea6e0350f1f14e9e09bd5,5fcea6e0350f1f14e9e09bd5,11,beads,critical,C,25,beads15.jpg,beads35.jpg,low,NULL
1687288304,5bbfc32a5a0df826c6694b7f04c2c3dd,PennController,14,0,experiment,NULL,PennController,13,_Header_,Start,1687288115762,5fcea6e0350f1f14e9e09bd5,5fcea6e0350f1f14e9e09bd5,11,beads,critical,C,25,beads15.jpg,beads35.jpg,low,NULL
1687288304,5bbfc32a5a0df826c6694b7f04c2c3dd,PennController,14,0,experiment,NULL,PennController,13,_Header_,End,1687288115762,5fcea6e0350f1f14e9e09bd5,5fcea6e0350f1f14e9e09bd5,11,beads,critical,C,25,beads15.jpg,beads35.jpg,low,NULL
1687288304,5bbfc32a5a0df826c6694b7f04c2c3dd,PennController,14,0,experiment,NULL,Canvas,canvas6,Print,NA,1687288121455,5fcea6e0350f1f14e9e09bd5,5fcea6e0350f1f14e9e09bd5,11,beads,critical,C,25,beads15.jpg,beads35.jpg,low,NULL
1687288304,5bbfc32a5a0df826c6694b7f04c2c3dd,PennController,14,0,experiment,NULL,Video,progression,buffer,0.00223,1687288119283,5fcea6e0350f1f14e9e09bd5,5fcea6e0350f1f14e9e09bd5,11,beads,critical,C,25,beads15.jpg,beads35.jpg,low,NULL
1687288304,5bbfc32a5a0df826c6694b7f04c2c3dd,PennController,14,0,experiment,NULL,Selector,choice,Selection,option1,1687288123346,5fcea6e0350f1f14e9e09bd5,5fcea6e0350f1f14e9e09bd5,11,beads,critical,C,25,beads15.jpg,beads35.jpg,low,option1;option2
1687288304,5bbfc32a5a0df826c6694b7f04c2c3dd,PennController,14,0,experiment,NULL,PennController,13,_Trial_,End,1687288123348,5fcea6e0350f1f14e9e09bd5,5fcea6e0350f1f14e9e09bd5,11,beads,critical,C,25,beads15.jpg,beads35.jpg,low,NULL
1687288304,5bbfc32a5a0df826c6694b7f04c2c3dd,PennController,21,0,experiment,NULL,PennController,20,_Trial_,Start,1687288123348,5fcea6e0350f1f14e9e09bd5,5fcea6e0350f1f14e9e09bd5,18,ball,critical,C,50,ball40.jpg,ball60.jpg,low,NULL
1687288304,5bbfc32a5a0df826c6694b7f04c2c3dd,PennController,21,0,experiment,NULL,PennController,20,_Header_,Start,1687288123348,5fcea6e0350f1f14e9e09bd5,5fcea6e0350f1f14e9e09bd5,18,ball,critical,C,50,ball40.jpg,ball60.jpg,low,NULL
1687288304,5bbfc32a5a0df826c6694b7f04c2c3dd,PennController,21,0,experiment,NULL,PennController,20,_Header_,End,1687288123348,5fcea6e0350f1f14e9e09bd5,5fcea6e0350f1f14e9e09bd5,18,ball,critical,C,50,ball40.jpg,ball60.jpg,low,NULL
1687288304,5bbfc32a5a0df826c6694b7f04c2c3dd,PennController,21,0,experiment,NULL,Canvas,canvas6,Print,NA,1687288130051,5fcea6e0350f1f14e9e09bd5,5fcea6e0350f1f14e9e09bd5,18,ball,critical,C,50,ball40.jpg,ball60.jpg,low,NULL
1687288304,5bbfc32a5a0df826c6694b7f04c2c3dd,PennController,21,0,experiment,NULL,Video,progression,buffer,0.003622,1687288126877,5fcea6e0350f1f14e9e09bd5,5fcea6e0350f1f14e9e09bd5,18,ball,critical,C,50,ball40.jpg,ball60.jpg,low,NULL
1687288304,5bbfc32a5a0df826c6694b7f04c2c3dd,PennController,21,0,experiment,NULL,Selector,choice,Selection,option1,1687288135684,5fcea6e0350f1f14e9e09bd5,5fcea6e0350f1f14e9e09bd5,18,ball,critical,C,50,ball40.jpg,ball60.jpg,low,option1;option2
1687288304,5bbfc32a5a0df826c6694b7f04c2c3dd,PennController,21,0,experiment,NULL,PennController,20,_Trial_,End,1687288135685,5fcea6e0350f1f14e9e09bd5,5fcea6e0350f1f14e9e09bd5,18,ball,critical,C,50,ball40.jpg,ball60.jpg,low,NULL
1687288304,5bbfc32a5a0df826c6694b7f04c2c3dd,PennController,4,0,experiment,NULL,PennController,3,_Trial_,Start,1687288135686,5fcea6e0350f1f14e9e09bd5,5fcea6e0350f1f14e9e09bd5,1,vase,critical,C,75,vase65.jpg,vase85.jpg,low,NULL
1687288304,5bbfc32a5a0df826c6694b7f04c2c3dd,PennController,4,0,experiment,NULL,PennController,3,_Header_,Start,1687288135686,5fcea6e0350f1f14e9e09bd5,5fcea6e0350f1f14e9e09bd5,1,vase,critical,C,75,vase65.jpg,vase85.jpg,low,NULL
1687288304,5bbfc32a5a0df826c6694b7f04c2c3dd,PennController,4,0,experiment,NULL,PennController,3,_Header_,End,1687288135686,5fcea6e0350f1f14e9e09bd5,5fcea6e0350f1f14e9e09bd5,1,vase,critical,C,75,vase65.jpg,vase85.jpg,low,NULL
1687288304,5bbfc32a5a0df826c6694b7f04c2c3dd,PennController,4,0,experiment,NULL,Canvas,canvas6,Print,NA,1687288143399,5fcea6e0350f1f14e9e09bd5,5fcea6e0350f1f14e9e09bd5,1,vase,critical,C,75,vase65.jpg,vase85.jpg,low,NULL
1687288304,5bbfc32a5a0df826c6694b7f04c2c3dd,PennController,4,0,experiment,NULL,Video,progression,buffer,0.007345,1687288139225,5fcea6e0350f1f14e9e09bd5,5fcea6e0350f1f14e9e09bd5,1,vase,critical,C,75,vase65.jpg,vase85.jpg,low,NULL
1687288304,5bbfc32a5a0df826c6694b7f04c2c3dd,PennController,4,0,experiment,NULL,Selector,choice,Selection,option2,1687288145303,5fcea6e0350f1f14e9e09bd5,5fcea6e0350f1f14e9e09bd5,1,vase,critical,C,75,vase65.jpg,vase85.jpg,low,option1;option2
1687288304,5bbfc32a5a0df826c6694b7f04c2c3dd,PennController,4,0,experiment,NULL,PennController,3,_Trial_,End,1687288145304,5fcea6e0350f1f14e9e09bd5,5fcea6e0350f1f14e9e09bd5,1,vase,critical,C,75,vase65.jpg,vase85.jpg,low,NULL
1687288304,5bbfc32a5a0df826c6694b7f04c2c3dd,PennController,28,0,experiment,NULL,PennController,27,_Trial_,Start,1687288145304,5fcea6e0350f1f14e9e09bd5,5fcea6e0350f1f14e9e09bd5,25,house,filler,C,75,house65.jpg,house85.jpg,GoalA,NULL
1687288304,5bbfc32a5a0df826c6694b7f04c2c3dd,PennController,28,0,experiment,NULL,PennController,27,_Header_,Start,1687288145304,5fcea6e0350f1f14e9e09bd5,5fcea6e0350f1f14e9e09bd5,25,house,filler,C,75,house65.jpg,house85.jpg,GoalA,NULL
1687288304,5bbfc32a5a0df826c6694b7f04c2c3dd,PennController,28,0,experiment,NULL,PennController,27,_Header_,End,1687288145304,5fcea6e0350f1f14e9e09bd5,5fcea6e0350f1f14e9e09bd5,25,house,filler,C,75,house65.jpg,house85.jpg,GoalA,NULL
1687288304,5bbfc32a5a0df826c6694b7f04c2c3dd,PennController,28,0,experiment,NULL,Canvas,canvas6,Print,NA,1687288153002,5fcea6e0350f1f14e9e09bd5,5fcea6e0350f1f14e9e09bd5,25,house,filler,C,75,house65.jpg,house85.jpg,GoalA,NULL
1687288304,5bbfc32a5a0df826c6694b7f04c2c3dd,PennController,28,0,experiment,NULL,Video,progression,buffer,0.004202,1687288148829,5fcea6e0350f1f14e9e09bd5,5fcea6e0350f1f14e9e09bd5,25,house,filler,C,75,house65.jpg,house85.jpg,GoalA,NULL
1687288304,5bbfc32a5a0df826c6694b7f04c2c3dd,PennController,28,0,experiment,NULL,Selector,choice,Selection,option1,1687288154670,5fcea6e0350f1f14e9e09bd5,5fcea6e0350f1f14e9e09bd5,25,house,filler,C,75,house65.jpg,house85.jpg,GoalA,option2;option1
1687288304,5bbfc32a5a0df826c6694b7f04c2c3dd,PennController,28,0,experiment,NULL,PennController,27,_Trial_,End,1687288154671,5fcea6e0350f1f14e9e09bd5,5fcea6e0350f1f14e9e09bd5,25,house,filler,C,75,house65.jpg,house85.jpg,GoalA,NULL
1687288304,5bbfc32a5a0df826c6694b7f04c2c3dd,PennController,10,0,experiment,NULL,PennController,9,_Trial_,Start,1687288154672,5fcea6e0350f1f14e9e09bd5,5fcea6e0350f1f14e9e09bd5,7,stack,critical,C,75,stack65.jpg,stack85.jpg,low,NULL
1687288304,5bbfc32a5a0df826c6694b7f04c2c3dd,PennController,10,0,experiment,NULL,PennController,9,_Header_,Start,1687288154672,5fcea6e0350f1f14e9e09bd5,5fcea6e0350f1f14e9e09bd5,7,stack,critical,C,75,stack65.jpg,stack85.jpg,low,NULL
1687288304,5bbfc32a5a0df826c6694b7f04c2c3dd,PennController,10,0,experiment,NULL,PennController,9,_Header_,End,1687288154672,5fcea6e0350f1f14e9e09bd5,5fcea6e0350f1f14e9e09bd5,7,stack,critical,C,75,stack65.jpg,stack85.jpg,low,NULL
1687288304,5bbfc32a5a0df826c6694b7f04c2c3dd,PennController,10,0,experiment,NULL,Canvas,canvas6,Print,NA,1687288162370,5fcea6e0350f1f14e9e09bd5,5fcea6e0350f1f14e9e09bd5,7,stack,critical,C,75,stack65.jpg,stack85.jpg,low,NULL
1687288304,5bbfc32a5a0df826c6694b7f04c2c3dd,PennController,10,0,experiment,NULL,Video,progression,buffer,0.004867,1687288158206,5fcea6e0350f1f14e9e09bd5,5fcea6e0350f1f14e9e09bd5,7,stack,critical,C,75,stack65.jpg,stack85.jpg,low,NULL
1687288304,5bbfc32a5a0df826c6694b7f04c2c3dd,PennController,10,0,experiment,NULL,Selector,choice,Selection,option1,1687288166266,5fcea6e0350f1f14e9e09bd5,5fcea6e0350f1f14e9e09bd5,7,stack,critical,C,75,stack65.jpg,stack85.jpg,low,option2;option1
1687288304,5bbfc32a5a0df826c6694b7f04c2c3dd,PennController,10,0,experiment,NULL,PennController,9,_Trial_,End,1687288166267,5fcea6e0350f1f14e9e09bd5,5fcea6e0350f1f14e9e09bd5,7,stack,critical,C,75,stack65.jpg,stack85.jpg,low,NULL
1687288304,5bbfc32a5a0df826c6694b7f04c2c3dd,PennController,11,0,experiment,NULL,PennController,10,_Trial_,Start,1687288166267,5fcea6e0350f1f14e9e09bd5,5fcea6e0350f1f14e9e09bd5,8,cucumber,critical,C,25,cucumber15.jpg,cucumber33.jpg,low,NULL
1687288304,5bbfc32a5a0df826c6694b7f04c2c3dd,PennController,11,0,experiment,NULL,PennController,10,_Header_,Start,1687288166267,5fcea6e0350f1f14e9e09bd5,5fcea6e0350f1f14e9e09bd5,8,cucumber,critical,C,25,cucumber15.jpg,cucumber33.jpg,low,NULL
1687288304,5bbfc32a5a0df826c6694b7f04c2c3dd,PennController,11,0,experiment,NULL,PennController,10,_Header_,End,1687288166267,5fcea6e0350f1f14e9e09bd5,5fcea6e0350f1f14e9e09bd5,8,cucumber,critical,C,25,cucumber15.jpg,cucumber33.jpg,low,NULL
1687288304,5bbfc32a5a0df826c6694b7f04c2c3dd,PennController,11,0,experiment,NULL,Canvas,canvas6,Print,NA,1687288172564,5fcea6e0350f1f14e9e09bd5,5fcea6e0350f1f14e9e09bd5,8,cucumber,critical,C,25,cucumber15.jpg,cucumber33.jpg,low,NULL
1687288304,5bbfc32a5a0df826c6694b7f04c2c3dd,PennController,11,0,experiment,NULL,Video,progression,buffer,0.004596,1687288169793,5fcea6e0350f1f14e9e09bd5,5fcea6e0350f1f14e9e09bd5,8,cucumber,critical,C,25,cucumber15.jpg,cucumber33.jpg,low,NULL
1687288304,5bbfc32a5a0df826c6694b7f04c2c3dd,PennController,11,0,experiment,NULL,Selector,choice,Selection,option1,1687288173733,5fcea6e0350f1f14e9e09bd5,5fcea6e0350f1f14e9e09bd5,8,cucumber,critical,C,25,cucumber15.jpg,cucumber33.jpg,low,option2;option1
1687288304,5bbfc32a5a0df826c6694b7f04c2c3dd,PennController,11,0,experiment,NULL,PennController,10,_Trial_,End,1687288173734,5fcea6e0350f1f14e9e09bd5,5fcea6e0350f1f14e9e09bd5,8,cucumber,critical,C,25,cucumber15.jpg,cucumber33.jpg,low,NULL
1687288304,5bbfc32a5a0df826c6694b7f04c2c3dd,PennController,6,0,experiment,NULL,PennController,5,_Trial_,Start,1687288173737,5fcea6e0350f1f14e9e09bd5,5fcea6e0350f1f14e9e09bd5,3,clean,critical,C,50,clean40.jpg,clean60.jpg,low,NULL
1687288304,5bbfc32a5a0df826c6694b7f04c2c3dd,PennController,6,0,experiment,NULL,PennController,5,_Header_,Start,1687288173737,5fcea6e0350f1f14e9e09bd5,5fcea6e0350f1f14e9e09bd5,3,clean,critical,C,50,clean40.jpg,clean60.jpg,low,NULL
1687288304,5bbfc32a5a0df826c6694b7f04c2c3dd,PennController,6,0,experiment,NULL,PennController,5,_Header_,End,1687288173737,5fcea6e0350f1f14e9e09bd5,5fcea6e0350f1f14e9e09bd5,3,clean,critical,C,50,clean40.jpg,clean60.jpg,low,NULL
1687288304,5bbfc32a5a0df826c6694b7f04c2c3dd,PennController,6,0,experiment,NULL,Canvas,canvas6,Print,NA,1687288180444,5fcea6e0350f1f14e9e09bd5,5fcea6e0350f1f14e9e09bd5,3,clean,critical,C,50,clean40.jpg,clean60.jpg,low,NULL
1687288304,5bbfc32a5a0df826c6694b7f04c2c3dd,PennController,6,0,experiment,NULL,Video,progression,buffer,0.002305,1687288177277,5fcea6e0350f1f14e9e09bd5,5fcea6e0350f1f14e9e09bd5,3,clean,critical,C,50,clean40.jpg,clean60.jpg,low,NULL
1687288304,5bbfc32a5a0df826c6694b7f04c2c3dd,PennController,6,0,experiment,NULL,Selector,choice,Selection,option2,1687288183009,5fcea6e0350f1f14e9e09bd5,5fcea6e0350f1f14e9e09bd5,3,clean,critical,C,50,clean40.jpg,clean60.jpg,low,option1;option2
1687288304,5bbfc32a5a0df826c6694b7f04c2c3dd,PennController,6,0,experiment,NULL,PennController,5,_Trial_,End,1687288183010,5fcea6e0350f1f14e9e09bd5,5fcea6e0350f1f14e9e09bd5,3,clean,critical,C,50,clean40.jpg,clean60.jpg,low,NULL
1687288304,5bbfc32a5a0df826c6694b7f04c2c3dd,PennController,24,0,experiment,NULL,PennController,23,_Trial_,Start,1687288183011,5fcea6e0350f1f14e9e09bd5,5fcea6e0350f1f14e9e09bd5,21,visit,filler,C,50,visit40.jpg,visit60.jpg,GoalA,NULL
1687288304,5bbfc32a5a0df826c6694b7f04c2c3dd,PennController,24,0,experiment,NULL,PennController,23,_Header_,Start,1687288183011,5fcea6e0350f1f14e9e09bd5,5fcea6e0350f1f14e9e09bd5,21,visit,filler,C,50,visit40.jpg,visit60.jpg,GoalA,NULL
1687288304,5bbfc32a5a0df826c6694b7f04c2c3dd,PennController,24,0,experiment,NULL,PennController,23,_Header_,End,1687288183011,5fcea6e0350f1f14e9e09bd5,5fcea6e0350f1f14e9e09bd5,21,visit,filler,C,50,visit40.jpg,visit60.jpg,GoalA,NULL
1687288304,5bbfc32a5a0df826c6694b7f04c2c3dd,PennController,24,0,experiment,NULL,Canvas,canvas6,Print,NA,1687288189707,5fcea6e0350f1f14e9e09bd5,5fcea6e0350f1f14e9e09bd5,21,visit,filler,C,50,visit40.jpg,visit60.jpg,GoalA,NULL
1687288304,5bbfc32a5a0df826c6694b7f04c2c3dd,PennController,24,0,experiment,NULL,Video,progression,buffer,0.008536,1687288186549,5fcea6e0350f1f14e9e09bd5,5fcea6e0350f1f14e9e09bd5,21,visit,filler,C,50,visit40.jpg,visit60.jpg,GoalA,NULL
1687288304,5bbfc32a5a0df826c6694b7f04c2c3dd,PennController,24,0,experiment,NULL,Selector,choice,Selection,option1,1687288191035,5fcea6e0350f1f14e9e09bd5,5fcea6e0350f1f14e9e09bd5,21,visit,filler,C,50,visit40.jpg,visit60.jpg,GoalA,option2;option1
1687288304,5bbfc32a5a0df826c6694b7f04c2c3dd,PennController,24,0,experiment,NULL,PennController,23,_Trial_,End,1687288191036,5fcea6e0350f1f14e9e09bd5,5fcea6e0350f1f14e9e09bd5,21,visit,filler,C,50,visit40.jpg,visit60.jpg,GoalA,NULL
1687288304,5bbfc32a5a0df826c6694b7f04c2c3dd,PennController,29,0,experiment,NULL,PennController,28,_Trial_,Start,1687288191037,5fcea6e0350f1f14e9e09bd5,5fcea6e0350f1f14e9e09bd5,26,sandwich,filler,C,25,sandwich15.jpg,sandwich35.jpg,GoalB,NULL
1687288304,5bbfc32a5a0df826c6694b7f04c2c3dd,PennController,29,0,experiment,NULL,PennController,28,_Header_,Start,1687288191037,5fcea6e0350f1f14e9e09bd5,5fcea6e0350f1f14e9e09bd5,26,sandwich,filler,C,25,sandwich15.jpg,sandwich35.jpg,GoalB,NULL
1687288304,5bbfc32a5a0df826c6694b7f04c2c3dd,PennController,29,0,experiment,NULL,PennController,28,_Header_,End,1687288191037,5fcea6e0350f1f14e9e09bd5,5fcea6e0350f1f14e9e09bd5,26,sandwich,filler,C,25,sandwich15.jpg,sandwich35.jpg,GoalB,NULL
1687288304,5bbfc32a5a0df826c6694b7f04c2c3dd,PennController,29,0,experiment,NULL,Canvas,canvas6,Print,NA,1687288196739,5fcea6e0350f1f14e9e09bd5,5fcea6e0350f1f14e9e09bd5,26,sandwich,filler,C,25,sandwich15.jpg,sandwich35.jpg,GoalB,NULL
1687288304,5bbfc32a5a0df826c6694b7f04c2c3dd,PennController,29,0,experiment,NULL,Video,progression,buffer,0.006315,1687288194576,5fcea6e0350f1f14e9e09bd5,5fcea6e0350f1f14e9e09bd5,26,sandwich,filler,C,25,sandwich15.jpg,sandwich35.jpg,GoalB,NULL
1687288304,5bbfc32a5a0df826c6694b7f04c2c3dd,PennController,29,0,experiment,NULL,Selector,choice,Selection,option1,1687288199030,5fcea6e0350f1f14e9e09bd5,5fcea6e0350f1f14e9e09bd5,26,sandwich,filler,C,25,sandwich15.jpg,sandwich35.jpg,GoalB,option2;option1
1687288304,5bbfc32a5a0df826c6694b7f04c2c3dd,PennController,29,0,experiment,NULL,PennController,28,_Trial_,End,1687288199031,5fcea6e0350f1f14e9e09bd5,5fcea6e0350f1f14e9e09bd5,26,sandwich,filler,C,25,sandwich15.jpg,sandwich35.jpg,GoalB,NULL
1687288304,5bbfc32a5a0df826c6694b7f04c2c3dd,PennController,19,0,experiment,NULL,PennController,18,_Trial_,Start,1687288199032,5fcea6e0350f1f14e9e09bd5,5fcea6e0350f1f14e9e09bd5,16,blinds,critical,C,75,blinds66.jpg,blinds84.jpg,low,NULL
1687288304,5bbfc32a5a0df826c6694b7f04c2c3dd,PennController,19,0,experiment,NULL,PennController,18,_Header_,Start,1687288199032,5fcea6e0350f1f14e9e09bd5,5fcea6e0350f1f14e9e09bd5,16,blinds,critical,C,75,blinds66.jpg,blinds84.jpg,low,NULL
1687288304,5bbfc32a5a0df826c6694b7f04c2c3dd,PennController,19,0,experiment,NULL,PennController,18,_Header_,End,1687288199032,5fcea6e0350f1f14e9e09bd5,5fcea6e0350f1f14e9e09bd5,16,blinds,critical,C,75,blinds66.jpg,blinds84.jpg,low,NULL
1687288304,5bbfc32a5a0df826c6694b7f04c2c3dd,PennController,19,0,experiment,NULL,Canvas,canvas6,Print,NA,1687288208738,5fcea6e0350f1f14e9e09bd5,5fcea6e0350f1f14e9e09bd5,16,blinds,critical,C,75,blinds66.jpg,blinds84.jpg,low,NULL
1687288304,5bbfc32a5a0df826c6694b7f04c2c3dd,PennController,19,0,experiment,NULL,Video,progression,buffer,0.007782,1687288202564,5fcea6e0350f1f14e9e09bd5,5fcea6e0350f1f14e9e09bd5,16,blinds,critical,C,75,blinds66.jpg,blinds84.jpg,low,NULL
1687288304,5bbfc32a5a0df826c6694b7f04c2c3dd,PennController,19,0,experiment,NULL,Selector,choice,Selection,option1,1687288211244,5fcea6e0350f1f14e9e09bd5,5fcea6e0350f1f14e9e09bd5,16,blinds,critical,C,75,blinds66.jpg,blinds84.jpg,low,option2;option1
1687288304,5bbfc32a5a0df826c6694b7f04c2c3dd,PennController,19,0,experiment,NULL,PennController,18,_Trial_,End,1687288211245,5fcea6e0350f1f14e9e09bd5,5fcea6e0350f1f14e9e09bd5,16,blinds,critical,C,75,blinds66.jpg,blinds84.jpg,low,NULL
1687288304,5bbfc32a5a0df826c6694b7f04c2c3dd,PennController,22,0,experiment,NULL,PennController,21,_Trial_,Start,1687288211246,5fcea6e0350f1f14e9e09bd5,5fcea6e0350f1f14e9e09bd5,19,cup,filler,C,75,cup65.jpg,cup85.jpg,GoalA,NULL
1687288304,5bbfc32a5a0df826c6694b7f04c2c3dd,PennController,22,0,experiment,NULL,PennController,21,_Header_,Start,1687288211246,5fcea6e0350f1f14e9e09bd5,5fcea6e0350f1f14e9e09bd5,19,cup,filler,C,75,cup65.jpg,cup85.jpg,GoalA,NULL
1687288304,5bbfc32a5a0df826c6694b7f04c2c3dd,PennController,22,0,experiment,NULL,PennController,21,_Header_,End,1687288211247,5fcea6e0350f1f14e9e09bd5,5fcea6e0350f1f14e9e09bd5,19,cup,filler,C,75,cup65.jpg,cup85.jpg,GoalA,NULL
1687288304,5bbfc32a5a0df826c6694b7f04c2c3dd,PennController,22,0,experiment,NULL,Canvas,canvas6,Print,NA,1687288218947,5fcea6e0350f1f14e9e09bd5,5fcea6e0350f1f14e9e09bd5,19,cup,filler,C,75,cup65.jpg,cup85.jpg,GoalA,NULL
1687288304,5bbfc32a5a0df826c6694b7f04c2c3dd,PennController,22,0,experiment,NULL,Video,progression,buffer,0.002766,1687288214776,5fcea6e0350f1f14e9e09bd5,5fcea6e0350f1f14e9e09bd5,19,cup,filler,C,75,cup65.jpg,cup85.jpg,GoalA,NULL
1687288304,5bbfc32a5a0df826c6694b7f04c2c3dd,PennController,22,0,experiment,NULL,Selector,choice,Selection,option2,1687288221715,5fcea6e0350f1f14e9e09bd5,5fcea6e0350f1f14e9e09bd5,19,cup,filler,C,75,cup65.jpg,cup85.jpg,GoalA,option2;option1
1687288304,5bbfc32a5a0df826c6694b7f04c2c3dd,PennController,22,0,experiment,NULL,PennController,21,_Trial_,End,1687288221716,5fcea6e0350f1f14e9e09bd5,5fcea6e0350f1f14e9e09bd5,19,cup,filler,C,75,cup65.jpg,cup85.jpg,GoalA,NULL
1687288304,5bbfc32a5a0df826c6694b7f04c2c3dd,PennController,5,0,experiment,NULL,PennController,4,_Trial_,Start,1687288221717,5fcea6e0350f1f14e9e09bd5,5fcea6e0350f1f14e9e09bd5,2,door,critical,C,25,door15.jpg,door35.jpg,low,NULL
1687288304,5bbfc32a5a0df826c6694b7f04c2c3dd,PennController,5,0,experiment,NULL,PennController,4,_Header_,Start,1687288221717,5fcea6e0350f1f14e9e09bd5,5fcea6e0350f1f14e9e09bd5,2,door,critical,C,25,door15.jpg,door35.jpg,low,NULL
1687288304,5bbfc32a5a0df826c6694b7f04c2c3dd,PennController,5,0,experiment,NULL,PennController,4,_Header_,End,1687288221717,5fcea6e0350f1f14e9e09bd5,5fcea6e0350f1f14e9e09bd5,2,door,critical,C,25,door15.jpg,door35.jpg,low,NULL
1687288304,5bbfc32a5a0df826c6694b7f04c2c3dd,PennController,5,0,experiment,NULL,Canvas,canvas6,Print,NA,1687288227412,5fcea6e0350f1f14e9e09bd5,5fcea6e0350f1f14e9e09bd5,2,door,critical,C,25,door15.jpg,door35.jpg,low,NULL
1687288304,5bbfc32a5a0df826c6694b7f04c2c3dd,PennController,5,0,experiment,NULL,Video,progression,buffer,0.000848,1687288225234,5fcea6e0350f1f14e9e09bd5,5fcea6e0350f1f14e9e09bd5,2,door,critical,C,25,door15.jpg,door35.jpg,low,NULL
1687288304,5bbfc32a5a0df826c6694b7f04c2c3dd,PennController,5,0,experiment,NULL,Selector,choice,Selection,option2,1687288229360,5fcea6e0350f1f14e9e09bd5,5fcea6e0350f1f14e9e09bd5,2,door,critical,C,25,door15.jpg,door35.jpg,low,option1;option2
1687288304,5bbfc32a5a0df826c6694b7f04c2c3dd,PennController,5,0,experiment,NULL,PennController,4,_Trial_,End,1687288229361,5fcea6e0350f1f14e9e09bd5,5fcea6e0350f1f14e9e09bd5,2,door,critical,C,25,door15.jpg,door35.jpg,low,NULL
1687288304,5bbfc32a5a0df826c6694b7f04c2c3dd,PennController,23,0,experiment,NULL,PennController,22,_Trial_,Start,1687288229362,5fcea6e0350f1f14e9e09bd5,5fcea6e0350f1f14e9e09bd5,20,cat,filler,C,25,cat15.jpg,cat35.jpg,GoalB,NULL
1687288304,5bbfc32a5a0df826c6694b7f04c2c3dd,PennController,23,0,experiment,NULL,PennController,22,_Header_,Start,1687288229362,5fcea6e0350f1f14e9e09bd5,5fcea6e0350f1f14e9e09bd5,20,cat,filler,C,25,cat15.jpg,cat35.jpg,GoalB,NULL
1687288304,5bbfc32a5a0df826c6694b7f04c2c3dd,PennController,23,0,experiment,NULL,PennController,22,_Header_,End,1687288229362,5fcea6e0350f1f14e9e09bd5,5fcea6e0350f1f14e9e09bd5,20,cat,filler,C,25,cat15.jpg,cat35.jpg,GoalB,NULL
1687288304,5bbfc32a5a0df826c6694b7f04c2c3dd,PennController,23,0,experiment,NULL,Canvas,canvas6,Print,NA,1687288235071,5fcea6e0350f1f14e9e09bd5,5fcea6e0350f1f14e9e09bd5,20,cat,filler,C,25,cat15.jpg,cat35.jpg,GoalB,NULL
1687288304,5bbfc32a5a0df826c6694b7f04c2c3dd,PennController,23,0,experiment,NULL,Video,progression,buffer,0.004894,1687288232901,5fcea6e0350f1f14e9e09bd5,5fcea6e0350f1f14e9e09bd5,20,cat,filler,C,25,cat15.jpg,cat35.jpg,GoalB,NULL
1687288304,5bbfc32a5a0df826c6694b7f04c2c3dd,PennController,23,0,experiment,NULL,Selector,choice,Selection,option2,1687288241725,5fcea6e0350f1f14e9e09bd5,5fcea6e0350f1f14e9e09bd5,20,cat,filler,C,25,cat15.jpg,cat35.jpg,GoalB,option1;option2
1687288304,5bbfc32a5a0df826c6694b7f04c2c3dd,PennController,23,0,experiment,NULL,PennController,22,_Trial_,End,1687288241726,5fcea6e0350f1f14e9e09bd5,5fcea6e0350f1f14e9e09bd5,20,cat,filler,C,25,cat15.jpg,cat35.jpg,GoalB,NULL
1687288304,5bbfc32a5a0df826c6694b7f04c2c3dd,PennController,30,0,experiment,NULL,PennController,29,_Trial_,Start,1687288241727,5fcea6e0350f1f14e9e09bd5,5fcea6e0350f1f14e9e09bd5,27,square,filler,C,50,square40.jpg,square60.jpg,GoalA,NULL
1687288304,5bbfc32a5a0df826c6694b7f04c2c3dd,PennController,30,0,experiment,NULL,PennController,29,_Header_,Start,1687288241727,5fcea6e0350f1f14e9e09bd5,5fcea6e0350f1f14e9e09bd5,27,square,filler,C,50,square40.jpg,square60.jpg,GoalA,NULL
1687288304,5bbfc32a5a0df826c6694b7f04c2c3dd,PennController,30,0,experiment,NULL,PennController,29,_Header_,End,1687288241727,5fcea6e0350f1f14e9e09bd5,5fcea6e0350f1f14e9e09bd5,27,square,filler,C,50,square40.jpg,square60.jpg,GoalA,NULL
1687288304,5bbfc32a5a0df826c6694b7f04c2c3dd,PennController,30,0,experiment,NULL,Canvas,canvas6,Print,NA,1687288248435,5fcea6e0350f1f14e9e09bd5,5fcea6e0350f1f14e9e09bd5,27,square,filler,C,50,square40.jpg,square60.jpg,GoalA,NULL
1687288304,5bbfc32a5a0df826c6694b7f04c2c3dd,PennController,30,0,experiment,NULL,Video,progression,buffer,0.0057,1687288245262,5fcea6e0350f1f14e9e09bd5,5fcea6e0350f1f14e9e09bd5,27,square,filler,C,50,square40.jpg,square60.jpg,GoalA,NULL
1687288304,5bbfc32a5a0df826c6694b7f04c2c3dd,PennController,30,0,experiment,NULL,Selector,choice,Selection,option2,1687288250757,5fcea6e0350f1f14e9e09bd5,5fcea6e0350f1f14e9e09bd5,27,square,filler,C,50,square40.jpg,square60.jpg,GoalA,option1;option2
1687288304,5bbfc32a5a0df826c6694b7f04c2c3dd,PennController,30,0,experiment,NULL,PennController,29,_Trial_,End,1687288250758,5fcea6e0350f1f14e9e09bd5,5fcea6e0350f1f14e9e09bd5,27,square,filler,C,50,square40.jpg,square60.jpg,GoalA,NULL
1687288304,5bbfc32a5a0df826c6694b7f04c2c3dd,PennController,16,0,experiment,NULL,PennController,15,_Trial_,Start,1687288250758,5fcea6e0350f1f14e9e09bd5,5fcea6e0350f1f14e9e09bd5,13,mix,critical,C,75,mix65.jpg,mix85.jpg,low,NULL
1687288304,5bbfc32a5a0df826c6694b7f04c2c3dd,PennController,16,0,experiment,NULL,PennController,15,_Header_,Start,1687288250758,5fcea6e0350f1f14e9e09bd5,5fcea6e0350f1f14e9e09bd5,13,mix,critical,C,75,mix65.jpg,mix85.jpg,low,NULL
1687288304,5bbfc32a5a0df826c6694b7f04c2c3dd,PennController,16,0,experiment,NULL,PennController,15,_Header_,End,1687288250758,5fcea6e0350f1f14e9e09bd5,5fcea6e0350f1f14e9e09bd5,13,mix,critical,C,75,mix65.jpg,mix85.jpg,low,NULL
1687288304,5bbfc32a5a0df826c6694b7f04c2c3dd,PennController,16,0,experiment,NULL,Canvas,canvas6,Print,NA,1687288258462,5fcea6e0350f1f14e9e09bd5,5fcea6e0350f1f14e9e09bd5,13,mix,critical,C,75,mix65.jpg,mix85.jpg,low,NULL
1687288304,5bbfc32a5a0df826c6694b7f04c2c3dd,PennController,16,0,experiment,NULL,Video,progression,buffer,0.006249,1687288254296,5fcea6e0350f1f14e9e09bd5,5fcea6e0350f1f14e9e09bd5,13,mix,critical,C,75,mix65.jpg,mix85.jpg,low,NULL
1687288304,5bbfc32a5a0df826c6694b7f04c2c3dd,PennController,16,0,experiment,NULL,Selector,choice,Selection,option1,1687288260461,5fcea6e0350f1f14e9e09bd5,5fcea6e0350f1f14e9e09bd5,13,mix,critical,C,75,mix65.jpg,mix85.jpg,low,option1;option2
1687288304,5bbfc32a5a0df826c6694b7f04c2c3dd,PennController,16,0,experiment,NULL,PennController,15,_Trial_,End,1687288260462,5fcea6e0350f1f14e9e09bd5,5fcea6e0350f1f14e9e09bd5,13,mix,critical,C,75,mix65.jpg,mix85.jpg,low,NULL
1687288304,5bbfc32a5a0df826c6694b7f04c2c3dd,PennController,17,0,experiment,NULL,PennController,16,_Trial_,Start,1687288260463,5fcea6e0350f1f14e9e09bd5,5fcea6e0350f1f14e9e09bd5,14,cover,critical,C,25,cover15.jpg,cover33.jpg,low,NULL
1687288304,5bbfc32a5a0df826c6694b7f04c2c3dd,PennController,17,0,experiment,NULL,PennController,16,_Header_,Start,1687288260463,5fcea6e0350f1f14e9e09bd5,5fcea6e0350f1f14e9e09bd5,14,cover,critical,C,25,cover15.jpg,cover33.jpg,low,NULL
1687288304,5bbfc32a5a0df826c6694b7f04c2c3dd,PennController,17,0,experiment,NULL,PennController,16,_Header_,End,1687288260463,5fcea6e0350f1f14e9e09bd5,5fcea6e0350f1f14e9e09bd5,14,cover,critical,C,25,cover15.jpg,cover33.jpg,low,NULL
1687288304,5bbfc32a5a0df826c6694b7f04c2c3dd,PennController,17,0,experiment,NULL,Canvas,canvas6,Print,NA,1687288266764,5fcea6e0350f1f14e9e09bd5,5fcea6e0350f1f14e9e09bd5,14,cover,critical,C,25,cover15.jpg,cover33.jpg,low,NULL
1687288304,5bbfc32a5a0df826c6694b7f04c2c3dd,PennController,17,0,experiment,NULL,Video,progression,buffer,0.002462,1687288263998,5fcea6e0350f1f14e9e09bd5,5fcea6e0350f1f14e9e09bd5,14,cover,critical,C,25,cover15.jpg,cover33.jpg,low,NULL
1687288304,5bbfc32a5a0df826c6694b7f04c2c3dd,PennController,17,0,experiment,NULL,Selector,choice,Selection,option2,1687288269051,5fcea6e0350f1f14e9e09bd5,5fcea6e0350f1f14e9e09bd5,14,cover,critical,C,25,cover15.jpg,cover33.jpg,low,option1;option2
1687288304,5bbfc32a5a0df826c6694b7f04c2c3dd,PennController,17,0,experiment,NULL,PennController,16,_Trial_,End,1687288269052,5fcea6e0350f1f14e9e09bd5,5fcea6e0350f1f14e9e09bd5,14,cover,critical,C,25,cover15.jpg,cover33.jpg,low,NULL
1687288304,5bbfc32a5a0df826c6694b7f04c2c3dd,PennController,20,0,experiment,NULL,PennController,19,_Trial_,Start,1687288269053,5fcea6e0350f1f14e9e09bd5,5fcea6e0350f1f14e9e09bd5,17,roll,critical,C,25,roll15.jpg,roll35.jpg,low,NULL
1687288304,5bbfc32a5a0df826c6694b7f04c2c3dd,PennController,20,0,experiment,NULL,PennController,19,_Header_,Start,1687288269053,5fcea6e0350f1f14e9e09bd5,5fcea6e0350f1f14e9e09bd5,17,roll,critical,C,25,roll15.jpg,roll35.jpg,low,NULL
1687288304,5bbfc32a5a0df826c6694b7f04c2c3dd,PennController,20,0,experiment,NULL,PennController,19,_Header_,End,1687288269053,5fcea6e0350f1f14e9e09bd5,5fcea6e0350f1f14e9e09bd5,17,roll,critical,C,25,roll15.jpg,roll35.jpg,low,NULL
1687288304,5bbfc32a5a0df826c6694b7f04c2c3dd,PennController,20,0,experiment,NULL,Canvas,canvas6,Print,NA,1687288274762,5fcea6e0350f1f14e9e09bd5,5fcea6e0350f1f14e9e09bd5,17,roll,critical,C,25,roll15.jpg,roll35.jpg,low,NULL
1687288304,5bbfc32a5a0df826c6694b7f04c2c3dd,PennController,20,0,experiment,NULL,Video,progression,buffer,0.003866,1687288272587,5fcea6e0350f1f14e9e09bd5,5fcea6e0350f1f14e9e09bd5,17,roll,critical,C,25,roll15.jpg,roll35.jpg,low,NULL
1687288304,5bbfc32a5a0df826c6694b7f04c2c3dd,PennController,20,0,experiment,NULL,Selector,choice,Selection,option1,1687288275916,5fcea6e0350f1f14e9e09bd5,5fcea6e0350f1f14e9e09bd5,17,roll,critical,C,25,roll15.jpg,roll35.jpg,low,option2;option1
1687288304,5bbfc32a5a0df826c6694b7f04c2c3dd,PennController,20,0,experiment,NULL,PennController,19,_Trial_,End,1687288275917,5fcea6e0350f1f14e9e09bd5,5fcea6e0350f1f14e9e09bd5,17,roll,critical,C,25,roll15.jpg,roll35.jpg,low,NULL
1687288304,5bbfc32a5a0df826c6694b7f04c2c3dd,PennController,12,0,experiment,NULL,PennController,11,_Trial_,Start,1687288275918,5fcea6e0350f1f14e9e09bd5,5fcea6e0350f1f14e9e09bd5,9,cake,critical,C,50,cake42.jpg,cake60.jpg,low,NULL
1687288304,5bbfc32a5a0df826c6694b7f04c2c3dd,PennController,12,0,experiment,NULL,PennController,11,_Header_,Start,1687288275918,5fcea6e0350f1f14e9e09bd5,5fcea6e0350f1f14e9e09bd5,9,cake,critical,C,50,cake42.jpg,cake60.jpg,low,NULL
1687288304,5bbfc32a5a0df826c6694b7f04c2c3dd,PennController,12,0,experiment,NULL,PennController,11,_Header_,End,1687288275918,5fcea6e0350f1f14e9e09bd5,5fcea6e0350f1f14e9e09bd5,9,cake,critical,C,50,cake42.jpg,cake60.jpg,low,NULL
1687288304,5bbfc32a5a0df826c6694b7f04c2c3dd,PennController,12,0,experiment,NULL,Canvas,canvas6,Print,NA,1687288284017,5fcea6e0350f1f14e9e09bd5,5fcea6e0350f1f14e9e09bd5,9,cake,critical,C,50,cake42.jpg,cake60.jpg,low,NULL
1687288304,5bbfc32a5a0df826c6694b7f04c2c3dd,PennController,12,0,experiment,NULL,Video,progression,buffer,0.00436,1687288279440,5fcea6e0350f1f14e9e09bd5,5fcea6e0350f1f14e9e09bd5,9,cake,critical,C,50,cake42.jpg,cake60.jpg,low,NULL
1687288304,5bbfc32a5a0df826c6694b7f04c2c3dd,PennController,12,0,experiment,NULL,Selector,choice,Selection,option2,1687288285073,5fcea6e0350f1f14e9e09bd5,5fcea6e0350f1f14e9e09bd5,9,cake,critical,C,50,cake42.jpg,cake60.jpg,low,option1;option2
1687288304,5bbfc32a5a0df826c6694b7f04c2c3dd,PennController,12,0,experiment,NULL,PennController,11,_Trial_,End,1687288285074,5fcea6e0350f1f14e9e09bd5,5fcea6e0350f1f14e9e09bd5,9,cake,critical,C,50,cake42.jpg,cake60.jpg,low,NULL
1687288304,5bbfc32a5a0df826c6694b7f04c2c3dd,PennController,8,0,experiment,NULL,PennController,7,_Trial_,Start,1687288285075,5fcea6e0350f1f14e9e09bd5,5fcea6e0350f1f14e9e09bd5,5,book,critical,C,25,book15.jpg,book35.jpg,low,NULL
1687288304,5bbfc32a5a0df826c6694b7f04c2c3dd,PennController,8,0,experiment,NULL,PennController,7,_Header_,Start,1687288285075,5fcea6e0350f1f14e9e09bd5,5fcea6e0350f1f14e9e09bd5,5,book,critical,C,25,book15.jpg,book35.jpg,low,NULL
1687288304,5bbfc32a5a0df826c6694b7f04c2c3dd,PennController,8,0,experiment,NULL,PennController,7,_Header_,End,1687288285075,5fcea6e0350f1f14e9e09bd5,5fcea6e0350f1f14e9e09bd5,5,book,critical,C,25,book15.jpg,book35.jpg,low,NULL
1687288304,5bbfc32a5a0df826c6694b7f04c2c3dd,PennController,8,0,experiment,NULL,Canvas,canvas6,Print,NA,1687288290768,5fcea6e0350f1f14e9e09bd5,5fcea6e0350f1f14e9e09bd5,5,book,critical,C,25,book15.jpg,book35.jpg,low,NULL
1687288304,5bbfc32a5a0df826c6694b7f04c2c3dd,PennController,8,0,experiment,NULL,Video,progression,buffer,0.000949,1687288288593,5fcea6e0350f1f14e9e09bd5,5fcea6e0350f1f14e9e09bd5,5,book,critical,C,25,book15.jpg,book35.jpg,low,NULL
1687288304,5bbfc32a5a0df826c6694b7f04c2c3dd,PennController,8,0,experiment,NULL,Selector,choice,Selection,option1,1687288293867,5fcea6e0350f1f14e9e09bd5,5fcea6e0350f1f14e9e09bd5,5,book,critical,C,25,book15.jpg,book35.jpg,low,option1;option2
1687288304,5bbfc32a5a0df826c6694b7f04c2c3dd,PennController,8,0,experiment,NULL,PennController,7,_Trial_,End,1687288293868,5fcea6e0350f1f14e9e09bd5,5fcea6e0350f1f14e9e09bd5,5,book,critical,C,25,book15.jpg,book35.jpg,low,NULL
1687288304,5bbfc32a5a0df826c6694b7f04c2c3dd,PennController,7,0,experiment,NULL,PennController,6,_Trial_,Start,1687288293869,5fcea6e0350f1f14e9e09bd5,5fcea6e0350f1f14e9e09bd5,4,candy,critical,C,75,candy65.jpg,candy85.jpg,low,NULL
1687288304,5bbfc32a5a0df826c6694b7f04c2c3dd,PennController,7,0,experiment,NULL,PennController,6,_Header_,Start,1687288293869,5fcea6e0350f1f14e9e09bd5,5fcea6e0350f1f14e9e09bd5,4,candy,critical,C,75,candy65.jpg,candy85.jpg,low,NULL
1687288304,5bbfc32a5a0df826c6694b7f04c2c3dd,PennController,7,0,experiment,NULL,PennController,6,_Header_,End,1687288293869,5fcea6e0350f1f14e9e09bd5,5fcea6e0350f1f14e9e09bd5,4,candy,critical,C,75,candy65.jpg,candy85.jpg,low,NULL
1687288304,5bbfc32a5a0df826c6694b7f04c2c3dd,PennController,7,0,experiment,NULL,Canvas,canvas6,Print,NA,1687288301574,5fcea6e0350f1f14e9e09bd5,5fcea6e0350f1f14e9e09bd5,4,candy,critical,C,75,candy65.jpg,candy85.jpg,low,NULL
1687288304,5bbfc32a5a0df826c6694b7f04c2c3dd,PennController,7,0,experiment,NULL,Video,progression,buffer,0.006086,1687288297408,5fcea6e0350f1f14e9e09bd5,5fcea6e0350f1f14e9e09bd5,4,candy,critical,C,75,candy65.jpg,candy85.jpg,low,NULL
1687288304,5bbfc32a5a0df826c6694b7f04c2c3dd,PennController,7,0,experiment,NULL,Selector,choice,Selection,option1,1687288303664,5fcea6e0350f1f14e9e09bd5,5fcea6e0350f1f14e9e09bd5,4,candy,critical,C,75,candy65.jpg,candy85.jpg,low,option2;option1
1687288304,5bbfc32a5a0df826c6694b7f04c2c3dd,PennController,7,0,experiment,NULL,PennController,6,_Trial_,End,1687288303665,5fcea6e0350f1f14e9e09bd5,5fcea6e0350f1f14e9e09bd5,4,candy,critical,C,75,candy65.jpg,candy85.jpg,low,NULL
