#
# Results on Tuesday June 20 2023 19:09:42 UTC
# USER AGENT: Mozilla/5.0 (Windows NT 10.0; Win64; x64) AppleWebKit/537.36 (KHTML, like Gecko) Chrome/114.0.0.0 Safari/537.36
# Design number was non-random = 14
#
# Columns below this comment are as follows:
# 1. Results reception time.
# 2. MD5 hash of participant's IP address.
# 3. Controller name.
# 4. Order number of item.
# 5. Inner element number.
# 6. Label.
# 7. Latin Square Group.
# 8. PennElementType.
# 9. PennElementName.
# 10. Parameter.
# 11. Value.
# 12. EventTime.
# 13. PROLIFIC_ID.
# 14. Comments.
1687288182,61a79c786c71aa1f358fe6fd4e838673,PennController,2,0,consent,NULL,PennController,0,_Trial_,Start,1687287311225,613a9a6706cc935aaa23a024,NULL
1687288182,61a79c786c71aa1f358fe6fd4e838673,PennController,2,0,consent,NULL,PennController,0,_Header_,Start,1687287311226,613a9a6706cc935aaa23a024,NULL
1687288182,61a79c786c71aa1f358fe6fd4e838673,PennController,2,0,consent,NULL,PennController,0,_Header_,End,1687287311226,613a9a6706cc935aaa23a024,NULL
1687288182,61a79c786c71aa1f358fe6fd4e838673,PennController,2,0,consent,NULL,PennController,0,_Trial_,End,1687287871589,613a9a6706cc935aaa23a024,NULL
# Columns below this comment are as follows:
# 14. ID.
# 15. Comments.
1687288182,61a79c786c71aa1f358fe6fd4e838673,PennController,3,0,intro,NULL,PennController,1,_Trial_,Start,1687287871596,613a9a6706cc935aaa23a024,613a9a6706cc935aaa23a024,NULL
1687288182,61a79c786c71aa1f358fe6fd4e838673,PennController,3,0,intro,NULL,PennController,1,_Header_,Start,1687287871596,613a9a6706cc935aaa23a024,613a9a6706cc935aaa23a024,NULL
1687288182,61a79c786c71aa1f358fe6fd4e838673,PennController,3,0,intro,NULL,PennController,1,_Header_,End,1687287871596,613a9a6706cc935aaa23a024,613a9a6706cc935aaa23a024,NULL
1687288182,61a79c786c71aa1f358fe6fd4e838673,PennController,3,0,intro,NULL,PennController,1,_Trial_,End,1687287894911,613a9a6706cc935aaa23a024,613a9a6706cc935aaa23a024,NULL
# Columns below this comment are as follows:
# 15. item_number.
# 16. item.
# 17. type.
# 18. Group.
# 19. prog.
# 20. prev_image.
# 21. next_image.
# 22. height.
# 23. Comments.
1687288182,61a79c786c71aa1f358fe6fd4e838673,PennController,7,0,experiment,NULL,PennController,6,_Trial_,Start,1687287894913,613a9a6706cc935aaa23a024,613a9a6706cc935aaa23a024,4,candy,critical,C,75,candy65.jpg,candy85.jpg,low,NULL
1687288182,61a79c786c71aa1f358fe6fd4e838673,PennController,7,0,experiment,NULL,PennController,6,_Header_,Start,1687287894913,613a9a6706cc935aaa23a024,613a9a6706cc935aaa23a024,4,candy,critical,C,75,candy65.jpg,candy85.jpg,low,NULL
1687288182,61a79c786c71aa1f358fe6fd4e838673,PennController,7,0,experiment,NULL,PennController,6,_Header_,End,1687287894914,613a9a6706cc935aaa23a024,613a9a6706cc935aaa23a024,4,candy,critical,C,75,candy65.jpg,candy85.jpg,low,NULL
1687288182,61a79c786c71aa1f358fe6fd4e838673,PennController,7,0,experiment,NULL,Canvas,canvas6,Print,NA,1687287902673,613a9a6706cc935aaa23a024,613a9a6706cc935aaa23a024,4,candy,critical,C,75,candy65.jpg,candy85.jpg,low,NULL
1687288182,61a79c786c71aa1f358fe6fd4e838673,PennController,7,0,experiment,NULL,Video,progression,buffer,0.002244,1687287898470,613a9a6706cc935aaa23a024,613a9a6706cc935aaa23a024,4,candy,critical,C,75,candy65.jpg,candy85.jpg,low,NULL
1687288182,61a79c786c71aa1f358fe6fd4e838673,PennController,7,0,experiment,NULL,Selector,choice,Selection,option1,1687287908275,613a9a6706cc935aaa23a024,613a9a6706cc935aaa23a024,4,candy,critical,C,75,candy65.jpg,candy85.jpg,low,option1;option2
1687288182,61a79c786c71aa1f358fe6fd4e838673,PennController,7,0,experiment,NULL,PennController,6,_Trial_,End,1687287908279,613a9a6706cc935aaa23a024,613a9a6706cc935aaa23a024,4,candy,critical,C,75,candy65.jpg,candy85.jpg,low,NULL
1687288182,61a79c786c71aa1f358fe6fd4e838673,PennController,13,0,experiment,NULL,PennController,12,_Trial_,Start,1687287908282,613a9a6706cc935aaa23a024,613a9a6706cc935aaa23a024,10,train,critical,C,75,train65.jpg,train85.jpg,low,NULL
1687288182,61a79c786c71aa1f358fe6fd4e838673,PennController,13,0,experiment,NULL,PennController,12,_Header_,Start,1687287908282,613a9a6706cc935aaa23a024,613a9a6706cc935aaa23a024,10,train,critical,C,75,train65.jpg,train85.jpg,low,NULL
1687288182,61a79c786c71aa1f358fe6fd4e838673,PennController,13,0,experiment,NULL,PennController,12,_Header_,End,1687287908282,613a9a6706cc935aaa23a024,613a9a6706cc935aaa23a024,10,train,critical,C,75,train65.jpg,train85.jpg,low,NULL
1687288182,61a79c786c71aa1f358fe6fd4e838673,PennController,13,0,experiment,NULL,Canvas,canvas6,Print,NA,1687287916000,613a9a6706cc935aaa23a024,613a9a6706cc935aaa23a024,10,train,critical,C,75,train65.jpg,train85.jpg,low,NULL
1687288182,61a79c786c71aa1f358fe6fd4e838673,PennController,13,0,experiment,NULL,Video,progression,buffer,0.012065,1687287911832,613a9a6706cc935aaa23a024,613a9a6706cc935aaa23a024,10,train,critical,C,75,train65.jpg,train85.jpg,low,NULL
1687288182,61a79c786c71aa1f358fe6fd4e838673,PennController,13,0,experiment,NULL,Selector,choice,Selection,option2,1687287920545,613a9a6706cc935aaa23a024,613a9a6706cc935aaa23a024,10,train,critical,C,75,train65.jpg,train85.jpg,low,option1;option2
1687288182,61a79c786c71aa1f358fe6fd4e838673,PennController,13,0,experiment,NULL,PennController,12,_Trial_,End,1687287920546,613a9a6706cc935aaa23a024,613a9a6706cc935aaa23a024,10,train,critical,C,75,train65.jpg,train85.jpg,low,NULL
1687288182,61a79c786c71aa1f358fe6fd4e838673,PennController,10,0,experiment,NULL,PennController,9,_Trial_,Start,1687287920548,613a9a6706cc935aaa23a024,613a9a6706cc935aaa23a024,7,stack,critical,C,75,stack65.jpg,stack85.jpg,low,NULL
1687288182,61a79c786c71aa1f358fe6fd4e838673,PennController,10,0,experiment,NULL,PennController,9,_Header_,Start,1687287920548,613a9a6706cc935aaa23a024,613a9a6706cc935aaa23a024,7,stack,critical,C,75,stack65.jpg,stack85.jpg,low,NULL
1687288182,61a79c786c71aa1f358fe6fd4e838673,PennController,10,0,experiment,NULL,PennController,9,_Header_,End,1687287920548,613a9a6706cc935aaa23a024,613a9a6706cc935aaa23a024,7,stack,critical,C,75,stack65.jpg,stack85.jpg,low,NULL
1687288182,61a79c786c71aa1f358fe6fd4e838673,PennController,10,0,experiment,NULL,Canvas,canvas6,Print,NA,1687287928268,613a9a6706cc935aaa23a024,613a9a6706cc935aaa23a024,7,stack,critical,C,75,stack65.jpg,stack85.jpg,low,NULL
1687288182,61a79c786c71aa1f358fe6fd4e838673,PennController,10,0,experiment,NULL,Video,progression,buffer,0.009559,1687287924094,613a9a6706cc935aaa23a024,613a9a6706cc935aaa23a024,7,stack,critical,C,75,stack65.jpg,stack85.jpg,low,NULL
1687288182,61a79c786c71aa1f358fe6fd4e838673,PennController,10,0,experiment,NULL,Selector,choice,Selection,option1,1687287934324,613a9a6706cc935aaa23a024,613a9a6706cc935aaa23a024,7,stack,critical,C,75,stack65.jpg,stack85.jpg,low,option1;option2
1687288182,61a79c786c71aa1f358fe6fd4e838673,PennController,10,0,experiment,NULL,PennController,9,_Trial_,End,1687287934325,613a9a6706cc935aaa23a024,613a9a6706cc935aaa23a024,7,stack,critical,C,75,stack65.jpg,stack85.jpg,low,NULL
1687288182,61a79c786c71aa1f358fe6fd4e838673,PennController,17,0,experiment,NULL,PennController,16,_Trial_,Start,1687287934328,613a9a6706cc935aaa23a024,613a9a6706cc935aaa23a024,14,cover,critical,C,25,cover15.jpg,cover33.jpg,low,NULL
1687288182,61a79c786c71aa1f358fe6fd4e838673,PennController,17,0,experiment,NULL,PennController,16,_Header_,Start,1687287934328,613a9a6706cc935aaa23a024,613a9a6706cc935aaa23a024,14,cover,critical,C,25,cover15.jpg,cover33.jpg,low,NULL
1687288182,61a79c786c71aa1f358fe6fd4e838673,PennController,17,0,experiment,NULL,PennController,16,_Header_,End,1687287934328,613a9a6706cc935aaa23a024,613a9a6706cc935aaa23a024,14,cover,critical,C,25,cover15.jpg,cover33.jpg,low,NULL
1687288182,61a79c786c71aa1f358fe6fd4e838673,PennController,17,0,experiment,NULL,Canvas,canvas6,Print,NA,1687287940648,613a9a6706cc935aaa23a024,613a9a6706cc935aaa23a024,14,cover,critical,C,25,cover15.jpg,cover33.jpg,low,NULL
1687288182,61a79c786c71aa1f358fe6fd4e838673,PennController,17,0,experiment,NULL,Video,progression,buffer,0.013723,1687287937882,613a9a6706cc935aaa23a024,613a9a6706cc935aaa23a024,14,cover,critical,C,25,cover15.jpg,cover33.jpg,low,NULL
1687288182,61a79c786c71aa1f358fe6fd4e838673,PennController,17,0,experiment,NULL,Selector,choice,Selection,option1,1687287941932,613a9a6706cc935aaa23a024,613a9a6706cc935aaa23a024,14,cover,critical,C,25,cover15.jpg,cover33.jpg,low,option1;option2
1687288182,61a79c786c71aa1f358fe6fd4e838673,PennController,17,0,experiment,NULL,PennController,16,_Trial_,End,1687287941933,613a9a6706cc935aaa23a024,613a9a6706cc935aaa23a024,14,cover,critical,C,25,cover15.jpg,cover33.jpg,low,NULL
1687288182,61a79c786c71aa1f358fe6fd4e838673,PennController,20,0,experiment,NULL,PennController,19,_Trial_,Start,1687287941935,613a9a6706cc935aaa23a024,613a9a6706cc935aaa23a024,17,roll,critical,C,25,roll15.jpg,roll35.jpg,low,NULL
1687288182,61a79c786c71aa1f358fe6fd4e838673,PennController,20,0,experiment,NULL,PennController,19,_Header_,Start,1687287941935,613a9a6706cc935aaa23a024,613a9a6706cc935aaa23a024,17,roll,critical,C,25,roll15.jpg,roll35.jpg,low,NULL
1687288182,61a79c786c71aa1f358fe6fd4e838673,PennController,20,0,experiment,NULL,PennController,19,_Header_,End,1687287941935,613a9a6706cc935aaa23a024,613a9a6706cc935aaa23a024,17,roll,critical,C,25,roll15.jpg,roll35.jpg,low,NULL
1687288182,61a79c786c71aa1f358fe6fd4e838673,PennController,20,0,experiment,NULL,Canvas,canvas6,Print,NA,1687287947663,613a9a6706cc935aaa23a024,613a9a6706cc935aaa23a024,17,roll,critical,C,25,roll15.jpg,roll35.jpg,low,NULL
1687288182,61a79c786c71aa1f358fe6fd4e838673,PennController,20,0,experiment,NULL,Video,progression,buffer,0.018924,1687287945495,613a9a6706cc935aaa23a024,613a9a6706cc935aaa23a024,17,roll,critical,C,25,roll15.jpg,roll35.jpg,low,NULL
1687288182,61a79c786c71aa1f358fe6fd4e838673,PennController,20,0,experiment,NULL,Selector,choice,Selection,option1,1687287949118,613a9a6706cc935aaa23a024,613a9a6706cc935aaa23a024,17,roll,critical,C,25,roll15.jpg,roll35.jpg,low,option2;option1
1687288182,61a79c786c71aa1f358fe6fd4e838673,PennController,20,0,experiment,NULL,PennController,19,_Trial_,End,1687287949119,613a9a6706cc935aaa23a024,613a9a6706cc935aaa23a024,17,roll,critical,C,25,roll15.jpg,roll35.jpg,low,NULL
1687288182,61a79c786c71aa1f358fe6fd4e838673,PennController,15,0,experiment,NULL,PennController,14,_Trial_,Start,1687287949120,613a9a6706cc935aaa23a024,613a9a6706cc935aaa23a024,12,erase,critical,C,50,erase42.jpg,erase60.jpg,low,NULL
1687288182,61a79c786c71aa1f358fe6fd4e838673,PennController,15,0,experiment,NULL,PennController,14,_Header_,Start,1687287949120,613a9a6706cc935aaa23a024,613a9a6706cc935aaa23a024,12,erase,critical,C,50,erase42.jpg,erase60.jpg,low,NULL
1687288182,61a79c786c71aa1f358fe6fd4e838673,PennController,15,0,experiment,NULL,PennController,14,_Header_,End,1687287949120,613a9a6706cc935aaa23a024,613a9a6706cc935aaa23a024,12,erase,critical,C,50,erase42.jpg,erase60.jpg,low,NULL
1687288182,61a79c786c71aa1f358fe6fd4e838673,PennController,15,0,experiment,NULL,Canvas,canvas6,Print,NA,1687287957250,613a9a6706cc935aaa23a024,613a9a6706cc935aaa23a024,12,erase,critical,C,50,erase42.jpg,erase60.jpg,low,NULL
1687288182,61a79c786c71aa1f358fe6fd4e838673,PennController,15,0,experiment,NULL,Video,progression,buffer,0.011298,1687287952674,613a9a6706cc935aaa23a024,613a9a6706cc935aaa23a024,12,erase,critical,C,50,erase42.jpg,erase60.jpg,low,NULL
1687288182,61a79c786c71aa1f358fe6fd4e838673,PennController,15,0,experiment,NULL,Selector,choice,Selection,option2,1687287959022,613a9a6706cc935aaa23a024,613a9a6706cc935aaa23a024,12,erase,critical,C,50,erase42.jpg,erase60.jpg,low,option1;option2
1687288182,61a79c786c71aa1f358fe6fd4e838673,PennController,15,0,experiment,NULL,PennController,14,_Trial_,End,1687287959023,613a9a6706cc935aaa23a024,613a9a6706cc935aaa23a024,12,erase,critical,C,50,erase42.jpg,erase60.jpg,low,NULL
1687288182,61a79c786c71aa1f358fe6fd4e838673,PennController,4,0,experiment,NULL,PennController,3,_Trial_,Start,1687287959024,613a9a6706cc935aaa23a024,613a9a6706cc935aaa23a024,1,vase,critical,C,75,vase65.jpg,vase85.jpg,low,NULL
1687288182,61a79c786c71aa1f358fe6fd4e838673,PennController,4,0,experiment,NULL,PennController,3,_Header_,Start,1687287959024,613a9a6706cc935aaa23a024,613a9a6706cc935aaa23a024,1,vase,critical,C,75,vase65.jpg,vase85.jpg,low,NULL
1687288182,61a79c786c71aa1f358fe6fd4e838673,PennController,4,0,experiment,NULL,PennController,3,_Header_,End,1687287959024,613a9a6706cc935aaa23a024,613a9a6706cc935aaa23a024,1,vase,critical,C,75,vase65.jpg,vase85.jpg,low,NULL
1687288182,61a79c786c71aa1f358fe6fd4e838673,PennController,4,0,experiment,NULL,Canvas,canvas6,Print,NA,1687287966723,613a9a6706cc935aaa23a024,613a9a6706cc935aaa23a024,1,vase,critical,C,75,vase65.jpg,vase85.jpg,low,NULL
1687288182,61a79c786c71aa1f358fe6fd4e838673,PennController,4,0,experiment,NULL,Video,progression,buffer,0.009896,1687287962568,613a9a6706cc935aaa23a024,613a9a6706cc935aaa23a024,1,vase,critical,C,75,vase65.jpg,vase85.jpg,low,NULL
1687288182,61a79c786c71aa1f358fe6fd4e838673,PennController,4,0,experiment,NULL,Selector,choice,Selection,option2,1687287969178,613a9a6706cc935aaa23a024,613a9a6706cc935aaa23a024,1,vase,critical,C,75,vase65.jpg,vase85.jpg,low,option1;option2
1687288182,61a79c786c71aa1f358fe6fd4e838673,PennController,4,0,experiment,NULL,PennController,3,_Trial_,End,1687287969179,613a9a6706cc935aaa23a024,613a9a6706cc935aaa23a024,1,vase,critical,C,75,vase65.jpg,vase85.jpg,low,NULL
1687288182,61a79c786c71aa1f358fe6fd4e838673,PennController,5,0,experiment,NULL,PennController,4,_Trial_,Start,1687287969181,613a9a6706cc935aaa23a024,613a9a6706cc935aaa23a024,2,door,critical,C,25,door15.jpg,door35.jpg,low,NULL
1687288182,61a79c786c71aa1f358fe6fd4e838673,PennController,5,0,experiment,NULL,PennController,4,_Header_,Start,1687287969181,613a9a6706cc935aaa23a024,613a9a6706cc935aaa23a024,2,door,critical,C,25,door15.jpg,door35.jpg,low,NULL
1687288182,61a79c786c71aa1f358fe6fd4e838673,PennController,5,0,experiment,NULL,PennController,4,_Header_,End,1687287969181,613a9a6706cc935aaa23a024,613a9a6706cc935aaa23a024,2,door,critical,C,25,door15.jpg,door35.jpg,low,NULL
1687288182,61a79c786c71aa1f358fe6fd4e838673,PennController,5,0,experiment,NULL,Canvas,canvas6,Print,NA,1687287974893,613a9a6706cc935aaa23a024,613a9a6706cc935aaa23a024,2,door,critical,C,25,door15.jpg,door35.jpg,low,NULL
1687288182,61a79c786c71aa1f358fe6fd4e838673,PennController,5,0,experiment,NULL,Video,progression,buffer,0.011562,1687287972727,613a9a6706cc935aaa23a024,613a9a6706cc935aaa23a024,2,door,critical,C,25,door15.jpg,door35.jpg,low,NULL
1687288182,61a79c786c71aa1f358fe6fd4e838673,PennController,5,0,experiment,NULL,Selector,choice,Selection,option1,1687287976152,613a9a6706cc935aaa23a024,613a9a6706cc935aaa23a024,2,door,critical,C,25,door15.jpg,door35.jpg,low,option1;option2
1687288182,61a79c786c71aa1f358fe6fd4e838673,PennController,5,0,experiment,NULL,PennController,4,_Trial_,End,1687287976153,613a9a6706cc935aaa23a024,613a9a6706cc935aaa23a024,2,door,critical,C,25,door15.jpg,door35.jpg,low,NULL
1687288182,61a79c786c71aa1f358fe6fd4e838673,PennController,6,0,experiment,NULL,PennController,5,_Trial_,Start,1687287976154,613a9a6706cc935aaa23a024,613a9a6706cc935aaa23a024,3,clean,critical,C,50,clean40.jpg,clean60.jpg,low,NULL
1687288182,61a79c786c71aa1f358fe6fd4e838673,PennController,6,0,experiment,NULL,PennController,5,_Header_,Start,1687287976154,613a9a6706cc935aaa23a024,613a9a6706cc935aaa23a024,3,clean,critical,C,50,clean40.jpg,clean60.jpg,low,NULL
1687288182,61a79c786c71aa1f358fe6fd4e838673,PennController,6,0,experiment,NULL,PennController,5,_Header_,End,1687287976154,613a9a6706cc935aaa23a024,613a9a6706cc935aaa23a024,3,clean,critical,C,50,clean40.jpg,clean60.jpg,low,NULL
1687288182,61a79c786c71aa1f358fe6fd4e838673,PennController,6,0,experiment,NULL,Canvas,canvas6,Print,NA,1687287982879,613a9a6706cc935aaa23a024,613a9a6706cc935aaa23a024,3,clean,critical,C,50,clean40.jpg,clean60.jpg,low,NULL
1687288182,61a79c786c71aa1f358fe6fd4e838673,PennController,6,0,experiment,NULL,Video,progression,buffer,0.008654,1687287979701,613a9a6706cc935aaa23a024,613a9a6706cc935aaa23a024,3,clean,critical,C,50,clean40.jpg,clean60.jpg,low,NULL
1687288182,61a79c786c71aa1f358fe6fd4e838673,PennController,6,0,experiment,NULL,Selector,choice,Selection,option1,1687287984238,613a9a6706cc935aaa23a024,613a9a6706cc935aaa23a024,3,clean,critical,C,50,clean40.jpg,clean60.jpg,low,option1;option2
1687288182,61a79c786c71aa1f358fe6fd4e838673,PennController,6,0,experiment,NULL,PennController,5,_Trial_,End,1687287984239,613a9a6706cc935aaa23a024,613a9a6706cc935aaa23a024,3,clean,critical,C,50,clean40.jpg,clean60.jpg,low,NULL
1687288182,61a79c786c71aa1f358fe6fd4e838673,PennController,8,0,experiment,NULL,PennController,7,_Trial_,Start,1687287984240,613a9a6706cc935aaa23a024,613a9a6706cc935aaa23a024,5,book,critical,C,25,book15.jpg,book35.jpg,low,NULL
1687288182,61a79c786c71aa1f358fe6fd4e838673,PennController,8,0,experiment,NULL,PennController,7,_Header_,Start,1687287984240,613a9a6706cc935aaa23a024,613a9a6706cc935aaa23a024,5,book,critical,C,25,book15.jpg,book35.jpg,low,NULL
1687288182,61a79c786c71aa1f358fe6fd4e838673,PennController,8,0,experiment,NULL,PennController,7,_Header_,End,1687287984240,613a9a6706cc935aaa23a024,613a9a6706cc935aaa23a024,5,book,critical,C,25,book15.jpg,book35.jpg,low,NULL
1687288182,61a79c786c71aa1f358fe6fd4e838673,PennController,8,0,experiment,NULL,Canvas,canvas6,Print,NA,1687287989947,613a9a6706cc935aaa23a024,613a9a6706cc935aaa23a024,5,book,critical,C,25,book15.jpg,book35.jpg,low,NULL
1687288182,61a79c786c71aa1f358fe6fd4e838673,PennController,8,0,experiment,NULL,Video,progression,buffer,0.009866,1687287987782,613a9a6706cc935aaa23a024,613a9a6706cc935aaa23a024,5,book,critical,C,25,book15.jpg,book35.jpg,low,NULL
1687288182,61a79c786c71aa1f358fe6fd4e838673,PennController,8,0,experiment,NULL,Selector,choice,Selection,option1,1687287992738,613a9a6706cc935aaa23a024,613a9a6706cc935aaa23a024,5,book,critical,C,25,book15.jpg,book35.jpg,low,option2;option1
1687288182,61a79c786c71aa1f358fe6fd4e838673,PennController,8,0,experiment,NULL,PennController,7,_Trial_,End,1687287992739,613a9a6706cc935aaa23a024,613a9a6706cc935aaa23a024,5,book,critical,C,25,book15.jpg,book35.jpg,low,NULL
1687288182,61a79c786c71aa1f358fe6fd4e838673,PennController,32,0,experiment,NULL,PennController,31,_Trial_,Start,1687287992740,613a9a6706cc935aaa23a024,613a9a6706cc935aaa23a024,29,frog,filler,C,25,frog15.jpg,frog35.jpg,GoalA,NULL
1687288182,61a79c786c71aa1f358fe6fd4e838673,PennController,32,0,experiment,NULL,PennController,31,_Header_,Start,1687287992740,613a9a6706cc935aaa23a024,613a9a6706cc935aaa23a024,29,frog,filler,C,25,frog15.jpg,frog35.jpg,GoalA,NULL
1687288182,61a79c786c71aa1f358fe6fd4e838673,PennController,32,0,experiment,NULL,PennController,31,_Header_,End,1687287992740,613a9a6706cc935aaa23a024,613a9a6706cc935aaa23a024,29,frog,filler,C,25,frog15.jpg,frog35.jpg,GoalA,NULL
1687288182,61a79c786c71aa1f358fe6fd4e838673,PennController,32,0,experiment,NULL,Canvas,canvas6,Print,NA,1687287998448,613a9a6706cc935aaa23a024,613a9a6706cc935aaa23a024,29,frog,filler,C,25,frog15.jpg,frog35.jpg,GoalA,NULL
1687288182,61a79c786c71aa1f358fe6fd4e838673,PennController,32,0,experiment,NULL,Video,progression,buffer,0.008784,1687287996283,613a9a6706cc935aaa23a024,613a9a6706cc935aaa23a024,29,frog,filler,C,25,frog15.jpg,frog35.jpg,GoalA,NULL
1687288182,61a79c786c71aa1f358fe6fd4e838673,PennController,32,0,experiment,NULL,Selector,choice,Selection,option2,1687287999856,613a9a6706cc935aaa23a024,613a9a6706cc935aaa23a024,29,frog,filler,C,25,frog15.jpg,frog35.jpg,GoalA,option1;option2
1687288182,61a79c786c71aa1f358fe6fd4e838673,PennController,32,0,experiment,NULL,PennController,31,_Trial_,End,1687287999857,613a9a6706cc935aaa23a024,613a9a6706cc935aaa23a024,29,frog,filler,C,25,frog15.jpg,frog35.jpg,GoalA,NULL
1687288182,61a79c786c71aa1f358fe6fd4e838673,PennController,31,0,experiment,NULL,PennController,30,_Trial_,Start,1687287999858,613a9a6706cc935aaa23a024,613a9a6706cc935aaa23a024,28,sort,filler,C,75,sort65.jpg,sort85.jpg,GoalB,NULL
1687288182,61a79c786c71aa1f358fe6fd4e838673,PennController,31,0,experiment,NULL,PennController,30,_Header_,Start,1687287999858,613a9a6706cc935aaa23a024,613a9a6706cc935aaa23a024,28,sort,filler,C,75,sort65.jpg,sort85.jpg,GoalB,NULL
1687288182,61a79c786c71aa1f358fe6fd4e838673,PennController,31,0,experiment,NULL,PennController,30,_Header_,End,1687287999858,613a9a6706cc935aaa23a024,613a9a6706cc935aaa23a024,28,sort,filler,C,75,sort65.jpg,sort85.jpg,GoalB,NULL
1687288182,61a79c786c71aa1f358fe6fd4e838673,PennController,31,0,experiment,NULL,Canvas,canvas6,Print,NA,1687288007581,613a9a6706cc935aaa23a024,613a9a6706cc935aaa23a024,28,sort,filler,C,75,sort65.jpg,sort85.jpg,GoalB,NULL
1687288182,61a79c786c71aa1f358fe6fd4e838673,PennController,31,0,experiment,NULL,Video,progression,buffer,0.011816,1687288003408,613a9a6706cc935aaa23a024,613a9a6706cc935aaa23a024,28,sort,filler,C,75,sort65.jpg,sort85.jpg,GoalB,NULL
1687288182,61a79c786c71aa1f358fe6fd4e838673,PennController,31,0,experiment,NULL,Selector,choice,Selection,option1,1687288011333,613a9a6706cc935aaa23a024,613a9a6706cc935aaa23a024,28,sort,filler,C,75,sort65.jpg,sort85.jpg,GoalB,option1;option2
1687288182,61a79c786c71aa1f358fe6fd4e838673,PennController,31,0,experiment,NULL,PennController,30,_Trial_,End,1687288011334,613a9a6706cc935aaa23a024,613a9a6706cc935aaa23a024,28,sort,filler,C,75,sort65.jpg,sort85.jpg,GoalB,NULL
1687288182,61a79c786c71aa1f358fe6fd4e838673,PennController,25,0,experiment,NULL,PennController,24,_Trial_,Start,1687288011336,613a9a6706cc935aaa23a024,613a9a6706cc935aaa23a024,22,wall,filler,C,75,wall65.jpg,wall85.jpg,GoalB,NULL
1687288182,61a79c786c71aa1f358fe6fd4e838673,PennController,25,0,experiment,NULL,PennController,24,_Header_,Start,1687288011336,613a9a6706cc935aaa23a024,613a9a6706cc935aaa23a024,22,wall,filler,C,75,wall65.jpg,wall85.jpg,GoalB,NULL
1687288182,61a79c786c71aa1f358fe6fd4e838673,PennController,25,0,experiment,NULL,PennController,24,_Header_,End,1687288011336,613a9a6706cc935aaa23a024,613a9a6706cc935aaa23a024,22,wall,filler,C,75,wall65.jpg,wall85.jpg,GoalB,NULL
1687288182,61a79c786c71aa1f358fe6fd4e838673,PennController,25,0,experiment,NULL,Canvas,canvas6,Print,NA,1687288019039,613a9a6706cc935aaa23a024,613a9a6706cc935aaa23a024,22,wall,filler,C,75,wall65.jpg,wall85.jpg,GoalB,NULL
1687288182,61a79c786c71aa1f358fe6fd4e838673,PennController,25,0,experiment,NULL,Video,progression,buffer,0.013048,1687288014885,613a9a6706cc935aaa23a024,613a9a6706cc935aaa23a024,22,wall,filler,C,75,wall65.jpg,wall85.jpg,GoalB,NULL
1687288182,61a79c786c71aa1f358fe6fd4e838673,PennController,25,0,experiment,NULL,Selector,choice,Selection,option2,1687288020383,613a9a6706cc935aaa23a024,613a9a6706cc935aaa23a024,22,wall,filler,C,75,wall65.jpg,wall85.jpg,GoalB,option2;option1
1687288182,61a79c786c71aa1f358fe6fd4e838673,PennController,25,0,experiment,NULL,PennController,24,_Trial_,End,1687288020384,613a9a6706cc935aaa23a024,613a9a6706cc935aaa23a024,22,wall,filler,C,75,wall65.jpg,wall85.jpg,GoalB,NULL
1687288182,61a79c786c71aa1f358fe6fd4e838673,PennController,23,0,experiment,NULL,PennController,22,_Trial_,Start,1687288020385,613a9a6706cc935aaa23a024,613a9a6706cc935aaa23a024,20,cat,filler,C,25,cat15.jpg,cat35.jpg,GoalB,NULL
1687288182,61a79c786c71aa1f358fe6fd4e838673,PennController,23,0,experiment,NULL,PennController,22,_Header_,Start,1687288020385,613a9a6706cc935aaa23a024,613a9a6706cc935aaa23a024,20,cat,filler,C,25,cat15.jpg,cat35.jpg,GoalB,NULL
1687288182,61a79c786c71aa1f358fe6fd4e838673,PennController,23,0,experiment,NULL,PennController,22,_Header_,End,1687288020385,613a9a6706cc935aaa23a024,613a9a6706cc935aaa23a024,20,cat,filler,C,25,cat15.jpg,cat35.jpg,GoalB,NULL
1687288182,61a79c786c71aa1f358fe6fd4e838673,PennController,23,0,experiment,NULL,Canvas,canvas6,Print,NA,1687288026097,613a9a6706cc935aaa23a024,613a9a6706cc935aaa23a024,20,cat,filler,C,25,cat15.jpg,cat35.jpg,GoalB,NULL
1687288182,61a79c786c71aa1f358fe6fd4e838673,PennController,23,0,experiment,NULL,Video,progression,buffer,0.013556,1687288023931,613a9a6706cc935aaa23a024,613a9a6706cc935aaa23a024,20,cat,filler,C,25,cat15.jpg,cat35.jpg,GoalB,NULL
1687288182,61a79c786c71aa1f358fe6fd4e838673,PennController,23,0,experiment,NULL,Selector,choice,Selection,option1,1687288032071,613a9a6706cc935aaa23a024,613a9a6706cc935aaa23a024,20,cat,filler,C,25,cat15.jpg,cat35.jpg,GoalB,option2;option1
1687288182,61a79c786c71aa1f358fe6fd4e838673,PennController,23,0,experiment,NULL,PennController,22,_Trial_,End,1687288032072,613a9a6706cc935aaa23a024,613a9a6706cc935aaa23a024,20,cat,filler,C,25,cat15.jpg,cat35.jpg,GoalB,NULL
1687288182,61a79c786c71aa1f358fe6fd4e838673,PennController,21,0,experiment,NULL,PennController,20,_Trial_,Start,1687288032073,613a9a6706cc935aaa23a024,613a9a6706cc935aaa23a024,18,ball,critical,C,50,ball40.jpg,ball60.jpg,low,NULL
1687288182,61a79c786c71aa1f358fe6fd4e838673,PennController,21,0,experiment,NULL,PennController,20,_Header_,Start,1687288032073,613a9a6706cc935aaa23a024,613a9a6706cc935aaa23a024,18,ball,critical,C,50,ball40.jpg,ball60.jpg,low,NULL
1687288182,61a79c786c71aa1f358fe6fd4e838673,PennController,21,0,experiment,NULL,PennController,20,_Header_,End,1687288032074,613a9a6706cc935aaa23a024,613a9a6706cc935aaa23a024,18,ball,critical,C,50,ball40.jpg,ball60.jpg,low,NULL
1687288182,61a79c786c71aa1f358fe6fd4e838673,PennController,21,0,experiment,NULL,Canvas,canvas6,Print,NA,1687288038779,613a9a6706cc935aaa23a024,613a9a6706cc935aaa23a024,18,ball,critical,C,50,ball40.jpg,ball60.jpg,low,NULL
1687288182,61a79c786c71aa1f358fe6fd4e838673,PennController,21,0,experiment,NULL,Video,progression,buffer,0.008927,1687288035614,613a9a6706cc935aaa23a024,613a9a6706cc935aaa23a024,18,ball,critical,C,50,ball40.jpg,ball60.jpg,low,NULL
1687288182,61a79c786c71aa1f358fe6fd4e838673,PennController,21,0,experiment,NULL,Selector,choice,Selection,option1,1687288045601,613a9a6706cc935aaa23a024,613a9a6706cc935aaa23a024,18,ball,critical,C,50,ball40.jpg,ball60.jpg,low,option2;option1
1687288182,61a79c786c71aa1f358fe6fd4e838673,PennController,21,0,experiment,NULL,PennController,20,_Trial_,End,1687288045602,613a9a6706cc935aaa23a024,613a9a6706cc935aaa23a024,18,ball,critical,C,50,ball40.jpg,ball60.jpg,low,NULL
1687288182,61a79c786c71aa1f358fe6fd4e838673,PennController,14,0,experiment,NULL,PennController,13,_Trial_,Start,1687288045604,613a9a6706cc935aaa23a024,613a9a6706cc935aaa23a024,11,beads,critical,C,25,beads15.jpg,beads35.jpg,low,NULL
1687288182,61a79c786c71aa1f358fe6fd4e838673,PennController,14,0,experiment,NULL,PennController,13,_Header_,Start,1687288045604,613a9a6706cc935aaa23a024,613a9a6706cc935aaa23a024,11,beads,critical,C,25,beads15.jpg,beads35.jpg,low,NULL
1687288182,61a79c786c71aa1f358fe6fd4e838673,PennController,14,0,experiment,NULL,PennController,13,_Header_,End,1687288045604,613a9a6706cc935aaa23a024,613a9a6706cc935aaa23a024,11,beads,critical,C,25,beads15.jpg,beads35.jpg,low,NULL
1687288182,61a79c786c71aa1f358fe6fd4e838673,PennController,14,0,experiment,NULL,Canvas,canvas6,Print,NA,1687288051331,613a9a6706cc935aaa23a024,613a9a6706cc935aaa23a024,11,beads,critical,C,25,beads15.jpg,beads35.jpg,low,NULL
1687288182,61a79c786c71aa1f358fe6fd4e838673,PennController,14,0,experiment,NULL,Video,progression,buffer,0.01095,1687288049154,613a9a6706cc935aaa23a024,613a9a6706cc935aaa23a024,11,beads,critical,C,25,beads15.jpg,beads35.jpg,low,NULL
1687288182,61a79c786c71aa1f358fe6fd4e838673,PennController,14,0,experiment,NULL,Selector,choice,Selection,option1,1687288052999,613a9a6706cc935aaa23a024,613a9a6706cc935aaa23a024,11,beads,critical,C,25,beads15.jpg,beads35.jpg,low,option1;option2
1687288182,61a79c786c71aa1f358fe6fd4e838673,PennController,14,0,experiment,NULL,PennController,13,_Trial_,End,1687288053000,613a9a6706cc935aaa23a024,613a9a6706cc935aaa23a024,11,beads,critical,C,25,beads15.jpg,beads35.jpg,low,NULL
1687288182,61a79c786c71aa1f358fe6fd4e838673,PennController,11,0,experiment,NULL,PennController,10,_Trial_,Start,1687288053001,613a9a6706cc935aaa23a024,613a9a6706cc935aaa23a024,8,cucumber,critical,C,25,cucumber15.jpg,cucumber33.jpg,low,NULL
1687288182,61a79c786c71aa1f358fe6fd4e838673,PennController,11,0,experiment,NULL,PennController,10,_Header_,Start,1687288053001,613a9a6706cc935aaa23a024,613a9a6706cc935aaa23a024,8,cucumber,critical,C,25,cucumber15.jpg,cucumber33.jpg,low,NULL
1687288182,61a79c786c71aa1f358fe6fd4e838673,PennController,11,0,experiment,NULL,PennController,10,_Header_,End,1687288053001,613a9a6706cc935aaa23a024,613a9a6706cc935aaa23a024,8,cucumber,critical,C,25,cucumber15.jpg,cucumber33.jpg,low,NULL
1687288182,61a79c786c71aa1f358fe6fd4e838673,PennController,11,0,experiment,NULL,Canvas,canvas6,Print,NA,1687288059311,613a9a6706cc935aaa23a024,613a9a6706cc935aaa23a024,8,cucumber,critical,C,25,cucumber15.jpg,cucumber33.jpg,low,NULL
1687288182,61a79c786c71aa1f358fe6fd4e838673,PennController,11,0,experiment,NULL,Video,progression,buffer,0.009132,1687288056545,613a9a6706cc935aaa23a024,613a9a6706cc935aaa23a024,8,cucumber,critical,C,25,cucumber15.jpg,cucumber33.jpg,low,NULL
1687288182,61a79c786c71aa1f358fe6fd4e838673,PennController,11,0,experiment,NULL,Selector,choice,Selection,option1,1687288060976,613a9a6706cc935aaa23a024,613a9a6706cc935aaa23a024,8,cucumber,critical,C,25,cucumber15.jpg,cucumber33.jpg,low,option1;option2
1687288182,61a79c786c71aa1f358fe6fd4e838673,PennController,11,0,experiment,NULL,PennController,10,_Trial_,End,1687288060977,613a9a6706cc935aaa23a024,613a9a6706cc935aaa23a024,8,cucumber,critical,C,25,cucumber15.jpg,cucumber33.jpg,low,NULL
1687288182,61a79c786c71aa1f358fe6fd4e838673,PennController,22,0,experiment,NULL,PennController,21,_Trial_,Start,1687288060978,613a9a6706cc935aaa23a024,613a9a6706cc935aaa23a024,19,cup,filler,C,75,cup65.jpg,cup85.jpg,GoalA,NULL
1687288182,61a79c786c71aa1f358fe6fd4e838673,PennController,22,0,experiment,NULL,PennController,21,_Header_,Start,1687288060978,613a9a6706cc935aaa23a024,613a9a6706cc935aaa23a024,19,cup,filler,C,75,cup65.jpg,cup85.jpg,GoalA,NULL
1687288182,61a79c786c71aa1f358fe6fd4e838673,PennController,22,0,experiment,NULL,PennController,21,_Header_,End,1687288060978,613a9a6706cc935aaa23a024,613a9a6706cc935aaa23a024,19,cup,filler,C,75,cup65.jpg,cup85.jpg,GoalA,NULL
1687288182,61a79c786c71aa1f358fe6fd4e838673,PennController,22,0,experiment,NULL,Canvas,canvas6,Print,NA,1687288068693,613a9a6706cc935aaa23a024,613a9a6706cc935aaa23a024,19,cup,filler,C,75,cup65.jpg,cup85.jpg,GoalA,NULL
1687288182,61a79c786c71aa1f358fe6fd4e838673,PennController,22,0,experiment,NULL,Video,progression,buffer,0.013176,1687288064529,613a9a6706cc935aaa23a024,613a9a6706cc935aaa23a024,19,cup,filler,C,75,cup65.jpg,cup85.jpg,GoalA,NULL
1687288182,61a79c786c71aa1f358fe6fd4e838673,PennController,22,0,experiment,NULL,Selector,choice,Selection,option1,1687288070777,613a9a6706cc935aaa23a024,613a9a6706cc935aaa23a024,19,cup,filler,C,75,cup65.jpg,cup85.jpg,GoalA,option2;option1
1687288182,61a79c786c71aa1f358fe6fd4e838673,PennController,22,0,experiment,NULL,PennController,21,_Trial_,End,1687288070778,613a9a6706cc935aaa23a024,613a9a6706cc935aaa23a024,19,cup,filler,C,75,cup65.jpg,cup85.jpg,GoalA,NULL
1687288182,61a79c786c71aa1f358fe6fd4e838673,PennController,28,0,experiment,NULL,PennController,27,_Trial_,Start,1687288070779,613a9a6706cc935aaa23a024,613a9a6706cc935aaa23a024,25,house,filler,C,75,house65.jpg,house85.jpg,GoalA,NULL
1687288182,61a79c786c71aa1f358fe6fd4e838673,PennController,28,0,experiment,NULL,PennController,27,_Header_,Start,1687288070779,613a9a6706cc935aaa23a024,613a9a6706cc935aaa23a024,25,house,filler,C,75,house65.jpg,house85.jpg,GoalA,NULL
1687288182,61a79c786c71aa1f358fe6fd4e838673,PennController,28,0,experiment,NULL,PennController,27,_Header_,End,1687288070779,613a9a6706cc935aaa23a024,613a9a6706cc935aaa23a024,25,house,filler,C,75,house65.jpg,house85.jpg,GoalA,NULL
1687288182,61a79c786c71aa1f358fe6fd4e838673,PennController,28,0,experiment,NULL,Canvas,canvas6,Print,NA,1687288078495,613a9a6706cc935aaa23a024,613a9a6706cc935aaa23a024,25,house,filler,C,75,house65.jpg,house85.jpg,GoalA,NULL
1687288182,61a79c786c71aa1f358fe6fd4e838673,PennController,28,0,experiment,NULL,Video,progression,buffer,0.013361,1687288074327,613a9a6706cc935aaa23a024,613a9a6706cc935aaa23a024,25,house,filler,C,75,house65.jpg,house85.jpg,GoalA,NULL
1687288182,61a79c786c71aa1f358fe6fd4e838673,PennController,28,0,experiment,NULL,Selector,choice,Selection,option2,1687288083468,613a9a6706cc935aaa23a024,613a9a6706cc935aaa23a024,25,house,filler,C,75,house65.jpg,house85.jpg,GoalA,option1;option2
1687288182,61a79c786c71aa1f358fe6fd4e838673,PennController,28,0,experiment,NULL,PennController,27,_Trial_,End,1687288083469,613a9a6706cc935aaa23a024,613a9a6706cc935aaa23a024,25,house,filler,C,75,house65.jpg,house85.jpg,GoalA,NULL
1687288182,61a79c786c71aa1f358fe6fd4e838673,PennController,12,0,experiment,NULL,PennController,11,_Trial_,Start,1687288083470,613a9a6706cc935aaa23a024,613a9a6706cc935aaa23a024,9,cake,critical,C,50,cake42.jpg,cake60.jpg,low,NULL
1687288182,61a79c786c71aa1f358fe6fd4e838673,PennController,12,0,experiment,NULL,PennController,11,_Header_,Start,1687288083470,613a9a6706cc935aaa23a024,613a9a6706cc935aaa23a024,9,cake,critical,C,50,cake42.jpg,cake60.jpg,low,NULL
1687288182,61a79c786c71aa1f358fe6fd4e838673,PennController,12,0,experiment,NULL,PennController,11,_Header_,End,1687288083470,613a9a6706cc935aaa23a024,613a9a6706cc935aaa23a024,9,cake,critical,C,50,cake42.jpg,cake60.jpg,low,NULL
1687288182,61a79c786c71aa1f358fe6fd4e838673,PennController,12,0,experiment,NULL,Canvas,canvas6,Print,NA,1687288091596,613a9a6706cc935aaa23a024,613a9a6706cc935aaa23a024,9,cake,critical,C,50,cake42.jpg,cake60.jpg,low,NULL
1687288182,61a79c786c71aa1f358fe6fd4e838673,PennController,12,0,experiment,NULL,Video,progression,buffer,0.009826,1687288087021,613a9a6706cc935aaa23a024,613a9a6706cc935aaa23a024,9,cake,critical,C,50,cake42.jpg,cake60.jpg,low,NULL
1687288182,61a79c786c71aa1f358fe6fd4e838673,PennController,12,0,experiment,NULL,Selector,choice,Selection,option2,1687288093200,613a9a6706cc935aaa23a024,613a9a6706cc935aaa23a024,9,cake,critical,C,50,cake42.jpg,cake60.jpg,low,option2;option1
1687288182,61a79c786c71aa1f358fe6fd4e838673,PennController,12,0,experiment,NULL,PennController,11,_Trial_,End,1687288093201,613a9a6706cc935aaa23a024,613a9a6706cc935aaa23a024,9,cake,critical,C,50,cake42.jpg,cake60.jpg,low,NULL
1687288182,61a79c786c71aa1f358fe6fd4e838673,PennController,18,0,experiment,NULL,PennController,17,_Trial_,Start,1687288093202,613a9a6706cc935aaa23a024,613a9a6706cc935aaa23a024,15,zip,critical,C,50,zip40.jpg,zip60.jpg,low,NULL
1687288182,61a79c786c71aa1f358fe6fd4e838673,PennController,18,0,experiment,NULL,PennController,17,_Header_,Start,1687288093202,613a9a6706cc935aaa23a024,613a9a6706cc935aaa23a024,15,zip,critical,C,50,zip40.jpg,zip60.jpg,low,NULL
1687288182,61a79c786c71aa1f358fe6fd4e838673,PennController,18,0,experiment,NULL,PennController,17,_Header_,End,1687288093202,613a9a6706cc935aaa23a024,613a9a6706cc935aaa23a024,15,zip,critical,C,50,zip40.jpg,zip60.jpg,low,NULL
1687288182,61a79c786c71aa1f358fe6fd4e838673,PennController,18,0,experiment,NULL,Canvas,canvas6,Print,NA,1687288099929,613a9a6706cc935aaa23a024,613a9a6706cc935aaa23a024,15,zip,critical,C,50,zip40.jpg,zip60.jpg,low,NULL
1687288182,61a79c786c71aa1f358fe6fd4e838673,PennController,18,0,experiment,NULL,Video,progression,buffer,0.010613,1687288096757,613a9a6706cc935aaa23a024,613a9a6706cc935aaa23a024,15,zip,critical,C,50,zip40.jpg,zip60.jpg,low,NULL
1687288182,61a79c786c71aa1f358fe6fd4e838673,PennController,18,0,experiment,NULL,Selector,choice,Selection,option2,1687288101414,613a9a6706cc935aaa23a024,613a9a6706cc935aaa23a024,15,zip,critical,C,50,zip40.jpg,zip60.jpg,low,option2;option1
1687288182,61a79c786c71aa1f358fe6fd4e838673,PennController,18,0,experiment,NULL,PennController,17,_Trial_,End,1687288101415,613a9a6706cc935aaa23a024,613a9a6706cc935aaa23a024,15,zip,critical,C,50,zip40.jpg,zip60.jpg,low,NULL
1687288182,61a79c786c71aa1f358fe6fd4e838673,PennController,19,0,experiment,NULL,PennController,18,_Trial_,Start,1687288101416,613a9a6706cc935aaa23a024,613a9a6706cc935aaa23a024,16,blinds,critical,C,75,blinds66.jpg,blinds84.jpg,low,NULL
1687288182,61a79c786c71aa1f358fe6fd4e838673,PennController,19,0,experiment,NULL,PennController,18,_Header_,Start,1687288101416,613a9a6706cc935aaa23a024,613a9a6706cc935aaa23a024,16,blinds,critical,C,75,blinds66.jpg,blinds84.jpg,low,NULL
1687288182,61a79c786c71aa1f358fe6fd4e838673,PennController,19,0,experiment,NULL,PennController,18,_Header_,End,1687288101416,613a9a6706cc935aaa23a024,613a9a6706cc935aaa23a024,16,blinds,critical,C,75,blinds66.jpg,blinds84.jpg,low,NULL
1687288182,61a79c786c71aa1f358fe6fd4e838673,PennController,19,0,experiment,NULL,Canvas,canvas6,Print,NA,1687288111132,613a9a6706cc935aaa23a024,613a9a6706cc935aaa23a024,16,blinds,critical,C,75,blinds66.jpg,blinds84.jpg,low,NULL
1687288182,61a79c786c71aa1f358fe6fd4e838673,PennController,19,0,experiment,NULL,Video,progression,buffer,0.012995,1687288104964,613a9a6706cc935aaa23a024,613a9a6706cc935aaa23a024,16,blinds,critical,C,75,blinds66.jpg,blinds84.jpg,low,NULL
1687288182,61a79c786c71aa1f358fe6fd4e838673,PennController,19,0,experiment,NULL,Selector,choice,Selection,option2,1687288113926,613a9a6706cc935aaa23a024,613a9a6706cc935aaa23a024,16,blinds,critical,C,75,blinds66.jpg,blinds84.jpg,low,option1;option2
1687288182,61a79c786c71aa1f358fe6fd4e838673,PennController,19,0,experiment,NULL,PennController,18,_Trial_,End,1687288113927,613a9a6706cc935aaa23a024,613a9a6706cc935aaa23a024,16,blinds,critical,C,75,blinds66.jpg,blinds84.jpg,low,NULL
1687288182,61a79c786c71aa1f358fe6fd4e838673,PennController,24,0,experiment,NULL,PennController,23,_Trial_,Start,1687288113929,613a9a6706cc935aaa23a024,613a9a6706cc935aaa23a024,21,visit,filler,C,50,visit40.jpg,visit60.jpg,GoalA,NULL
1687288182,61a79c786c71aa1f358fe6fd4e838673,PennController,24,0,experiment,NULL,PennController,23,_Header_,Start,1687288113929,613a9a6706cc935aaa23a024,613a9a6706cc935aaa23a024,21,visit,filler,C,50,visit40.jpg,visit60.jpg,GoalA,NULL
1687288182,61a79c786c71aa1f358fe6fd4e838673,PennController,24,0,experiment,NULL,PennController,23,_Header_,End,1687288113929,613a9a6706cc935aaa23a024,613a9a6706cc935aaa23a024,21,visit,filler,C,50,visit40.jpg,visit60.jpg,GoalA,NULL
1687288182,61a79c786c71aa1f358fe6fd4e838673,PennController,24,0,experiment,NULL,Canvas,canvas6,Print,NA,1687288120650,613a9a6706cc935aaa23a024,613a9a6706cc935aaa23a024,21,visit,filler,C,50,visit40.jpg,visit60.jpg,GoalA,NULL
1687288182,61a79c786c71aa1f358fe6fd4e838673,PennController,24,0,experiment,NULL,Video,progression,buffer,0.009623,1687288117470,613a9a6706cc935aaa23a024,613a9a6706cc935aaa23a024,21,visit,filler,C,50,visit40.jpg,visit60.jpg,GoalA,NULL
1687288182,61a79c786c71aa1f358fe6fd4e838673,PennController,24,0,experiment,NULL,Selector,choice,Selection,option2,1687288122446,613a9a6706cc935aaa23a024,613a9a6706cc935aaa23a024,21,visit,filler,C,50,visit40.jpg,visit60.jpg,GoalA,option1;option2
1687288182,61a79c786c71aa1f358fe6fd4e838673,PennController,24,0,experiment,NULL,PennController,23,_Trial_,End,1687288122447,613a9a6706cc935aaa23a024,613a9a6706cc935aaa23a024,21,visit,filler,C,50,visit40.jpg,visit60.jpg,GoalA,NULL
1687288182,61a79c786c71aa1f358fe6fd4e838673,PennController,29,0,experiment,NULL,PennController,28,_Trial_,Start,1687288122448,613a9a6706cc935aaa23a024,613a9a6706cc935aaa23a024,26,sandwich,filler,C,25,sandwich15.jpg,sandwich35.jpg,GoalB,NULL
1687288182,61a79c786c71aa1f358fe6fd4e838673,PennController,29,0,experiment,NULL,PennController,28,_Header_,Start,1687288122448,613a9a6706cc935aaa23a024,613a9a6706cc935aaa23a024,26,sandwich,filler,C,25,sandwich15.jpg,sandwich35.jpg,GoalB,NULL
1687288182,61a79c786c71aa1f358fe6fd4e838673,PennController,29,0,experiment,NULL,PennController,28,_Header_,End,1687288122448,613a9a6706cc935aaa23a024,613a9a6706cc935aaa23a024,26,sandwich,filler,C,25,sandwich15.jpg,sandwich35.jpg,GoalB,NULL
1687288182,61a79c786c71aa1f358fe6fd4e838673,PennController,29,0,experiment,NULL,Canvas,canvas6,Print,NA,1687288128167,613a9a6706cc935aaa23a024,613a9a6706cc935aaa23a024,26,sandwich,filler,C,25,sandwich15.jpg,sandwich35.jpg,GoalB,NULL
1687288182,61a79c786c71aa1f358fe6fd4e838673,PennController,29,0,experiment,NULL,Video,progression,buffer,0.009855,1687288125998,613a9a6706cc935aaa23a024,613a9a6706cc935aaa23a024,26,sandwich,filler,C,25,sandwich15.jpg,sandwich35.jpg,GoalB,NULL
1687288182,61a79c786c71aa1f358fe6fd4e838673,PennController,29,0,experiment,NULL,Selector,choice,Selection,option2,1687288131418,613a9a6706cc935aaa23a024,613a9a6706cc935aaa23a024,26,sandwich,filler,C,25,sandwich15.jpg,sandwich35.jpg,GoalB,option2;option1
1687288182,61a79c786c71aa1f358fe6fd4e838673,PennController,29,0,experiment,NULL,PennController,28,_Trial_,End,1687288131419,613a9a6706cc935aaa23a024,613a9a6706cc935aaa23a024,26,sandwich,filler,C,25,sandwich15.jpg,sandwich35.jpg,GoalB,NULL
1687288182,61a79c786c71aa1f358fe6fd4e838673,PennController,27,0,experiment,NULL,PennController,26,_Trial_,Start,1687288131420,613a9a6706cc935aaa23a024,613a9a6706cc935aaa23a024,24,match,filler,C,50,match40.jpg,match60.jpg,GoalB,NULL
1687288182,61a79c786c71aa1f358fe6fd4e838673,PennController,27,0,experiment,NULL,PennController,26,_Header_,Start,1687288131420,613a9a6706cc935aaa23a024,613a9a6706cc935aaa23a024,24,match,filler,C,50,match40.jpg,match60.jpg,GoalB,NULL
1687288182,61a79c786c71aa1f358fe6fd4e838673,PennController,27,0,experiment,NULL,PennController,26,_Header_,End,1687288131420,613a9a6706cc935aaa23a024,613a9a6706cc935aaa23a024,24,match,filler,C,50,match40.jpg,match60.jpg,GoalB,NULL
1687288182,61a79c786c71aa1f358fe6fd4e838673,PennController,27,0,experiment,NULL,Canvas,canvas6,Print,NA,1687288138134,613a9a6706cc935aaa23a024,613a9a6706cc935aaa23a024,24,match,filler,C,50,match40.jpg,match60.jpg,GoalB,NULL
1687288182,61a79c786c71aa1f358fe6fd4e838673,PennController,27,0,experiment,NULL,Video,progression,buffer,0.012344,1687288134963,613a9a6706cc935aaa23a024,613a9a6706cc935aaa23a024,24,match,filler,C,50,match40.jpg,match60.jpg,GoalB,NULL
1687288182,61a79c786c71aa1f358fe6fd4e838673,PennController,27,0,experiment,NULL,Selector,choice,Selection,option2,1687288140331,613a9a6706cc935aaa23a024,613a9a6706cc935aaa23a024,24,match,filler,C,50,match40.jpg,match60.jpg,GoalB,option2;option1
1687288182,61a79c786c71aa1f358fe6fd4e838673,PennController,27,0,experiment,NULL,PennController,26,_Trial_,End,1687288140333,613a9a6706cc935aaa23a024,613a9a6706cc935aaa23a024,24,match,filler,C,50,match40.jpg,match60.jpg,GoalB,NULL
1687288182,61a79c786c71aa1f358fe6fd4e838673,PennController,9,0,experiment,NULL,PennController,8,_Trial_,Start,1687288140334,613a9a6706cc935aaa23a024,613a9a6706cc935aaa23a024,6,flower,critical,C,50,flower40.jpg,flower60.jpg,low,NULL
1687288182,61a79c786c71aa1f358fe6fd4e838673,PennController,9,0,experiment,NULL,PennController,8,_Header_,Start,1687288140334,613a9a6706cc935aaa23a024,613a9a6706cc935aaa23a024,6,flower,critical,C,50,flower40.jpg,flower60.jpg,low,NULL
1687288182,61a79c786c71aa1f358fe6fd4e838673,PennController,9,0,experiment,NULL,PennController,8,_Header_,End,1687288140334,613a9a6706cc935aaa23a024,613a9a6706cc935aaa23a024,6,flower,critical,C,50,flower40.jpg,flower60.jpg,low,NULL
1687288182,61a79c786c71aa1f358fe6fd4e838673,PennController,9,0,experiment,NULL,Canvas,canvas6,Print,NA,1687288147046,613a9a6706cc935aaa23a024,613a9a6706cc935aaa23a024,6,flower,critical,C,50,flower40.jpg,flower60.jpg,low,NULL
1687288182,61a79c786c71aa1f358fe6fd4e838673,PennController,9,0,experiment,NULL,Video,progression,buffer,0.012799,1687288143879,613a9a6706cc935aaa23a024,613a9a6706cc935aaa23a024,6,flower,critical,C,50,flower40.jpg,flower60.jpg,low,NULL
1687288182,61a79c786c71aa1f358fe6fd4e838673,PennController,9,0,experiment,NULL,Selector,choice,Selection,option1,1687288148280,613a9a6706cc935aaa23a024,613a9a6706cc935aaa23a024,6,flower,critical,C,50,flower40.jpg,flower60.jpg,low,option2;option1
1687288182,61a79c786c71aa1f358fe6fd4e838673,PennController,9,0,experiment,NULL,PennController,8,_Trial_,End,1687288148282,613a9a6706cc935aaa23a024,613a9a6706cc935aaa23a024,6,flower,critical,C,50,flower40.jpg,flower60.jpg,low,NULL
1687288182,61a79c786c71aa1f358fe6fd4e838673,PennController,30,0,experiment,NULL,PennController,29,_Trial_,Start,1687288148284,613a9a6706cc935aaa23a024,613a9a6706cc935aaa23a024,27,square,filler,C,50,square40.jpg,square60.jpg,GoalA,NULL
1687288182,61a79c786c71aa1f358fe6fd4e838673,PennController,30,0,experiment,NULL,PennController,29,_Header_,Start,1687288148284,613a9a6706cc935aaa23a024,613a9a6706cc935aaa23a024,27,square,filler,C,50,square40.jpg,square60.jpg,GoalA,NULL
1687288182,61a79c786c71aa1f358fe6fd4e838673,PennController,30,0,experiment,NULL,PennController,29,_Header_,End,1687288148284,613a9a6706cc935aaa23a024,613a9a6706cc935aaa23a024,27,square,filler,C,50,square40.jpg,square60.jpg,GoalA,NULL
1687288182,61a79c786c71aa1f358fe6fd4e838673,PennController,30,0,experiment,NULL,Canvas,canvas6,Print,NA,1687288155013,613a9a6706cc935aaa23a024,613a9a6706cc935aaa23a024,27,square,filler,C,50,square40.jpg,square60.jpg,GoalA,NULL
1687288182,61a79c786c71aa1f358fe6fd4e838673,PennController,30,0,experiment,NULL,Video,progression,buffer,0.011266,1687288151840,613a9a6706cc935aaa23a024,613a9a6706cc935aaa23a024,27,square,filler,C,50,square40.jpg,square60.jpg,GoalA,NULL
1687288182,61a79c786c71aa1f358fe6fd4e838673,PennController,30,0,experiment,NULL,Selector,choice,Selection,option1,1687288157250,613a9a6706cc935aaa23a024,613a9a6706cc935aaa23a024,27,square,filler,C,50,square40.jpg,square60.jpg,GoalA,option1;option2
1687288182,61a79c786c71aa1f358fe6fd4e838673,PennController,30,0,experiment,NULL,PennController,29,_Trial_,End,1687288157251,613a9a6706cc935aaa23a024,613a9a6706cc935aaa23a024,27,square,filler,C,50,square40.jpg,square60.jpg,GoalA,NULL
1687288182,61a79c786c71aa1f358fe6fd4e838673,PennController,26,0,experiment,NULL,PennController,25,_Trial_,Start,1687288157252,613a9a6706cc935aaa23a024,613a9a6706cc935aaa23a024,23,color,filler,C,25,color15.jpg,color35.jpg,GoalA,NULL
1687288182,61a79c786c71aa1f358fe6fd4e838673,PennController,26,0,experiment,NULL,PennController,25,_Header_,Start,1687288157252,613a9a6706cc935aaa23a024,613a9a6706cc935aaa23a024,23,color,filler,C,25,color15.jpg,color35.jpg,GoalA,NULL
1687288182,61a79c786c71aa1f358fe6fd4e838673,PennController,26,0,experiment,NULL,PennController,25,_Header_,End,1687288157252,613a9a6706cc935aaa23a024,613a9a6706cc935aaa23a024,23,color,filler,C,25,color15.jpg,color35.jpg,GoalA,NULL
1687288182,61a79c786c71aa1f358fe6fd4e838673,PennController,26,0,experiment,NULL,Canvas,canvas6,Print,NA,1687288162965,613a9a6706cc935aaa23a024,613a9a6706cc935aaa23a024,23,color,filler,C,25,color15.jpg,color35.jpg,GoalA,NULL
1687288182,61a79c786c71aa1f358fe6fd4e838673,PennController,26,0,experiment,NULL,Video,progression,buffer,0.010434,1687288160800,613a9a6706cc935aaa23a024,613a9a6706cc935aaa23a024,23,color,filler,C,25,color15.jpg,color35.jpg,GoalA,NULL
1687288182,61a79c786c71aa1f358fe6fd4e838673,PennController,26,0,experiment,NULL,Selector,choice,Selection,option1,1687288172836,613a9a6706cc935aaa23a024,613a9a6706cc935aaa23a024,23,color,filler,C,25,color15.jpg,color35.jpg,GoalA,option2;option1
1687288182,61a79c786c71aa1f358fe6fd4e838673,PennController,26,0,experiment,NULL,PennController,25,_Trial_,End,1687288172837,613a9a6706cc935aaa23a024,613a9a6706cc935aaa23a024,23,color,filler,C,25,color15.jpg,color35.jpg,GoalA,NULL
1687288182,61a79c786c71aa1f358fe6fd4e838673,PennController,16,0,experiment,NULL,PennController,15,_Trial_,Start,1687288172838,613a9a6706cc935aaa23a024,613a9a6706cc935aaa23a024,13,mix,critical,C,75,mix65.jpg,mix85.jpg,low,NULL
1687288182,61a79c786c71aa1f358fe6fd4e838673,PennController,16,0,experiment,NULL,PennController,15,_Header_,Start,1687288172838,613a9a6706cc935aaa23a024,613a9a6706cc935aaa23a024,13,mix,critical,C,75,mix65.jpg,mix85.jpg,low,NULL
1687288182,61a79c786c71aa1f358fe6fd4e838673,PennController,16,0,experiment,NULL,PennController,15,_Header_,End,1687288172838,613a9a6706cc935aaa23a024,613a9a6706cc935aaa23a024,13,mix,critical,C,75,mix65.jpg,mix85.jpg,low,NULL
1687288182,61a79c786c71aa1f358fe6fd4e838673,PennController,16,0,experiment,NULL,Canvas,canvas6,Print,NA,1687288180555,613a9a6706cc935aaa23a024,613a9a6706cc935aaa23a024,13,mix,critical,C,75,mix65.jpg,mix85.jpg,low,NULL
1687288182,61a79c786c71aa1f358fe6fd4e838673,PennController,16,0,experiment,NULL,Video,progression,buffer,0.010534,1687288176385,613a9a6706cc935aaa23a024,613a9a6706cc935aaa23a024,13,mix,critical,C,75,mix65.jpg,mix85.jpg,low,NULL
1687288182,61a79c786c71aa1f358fe6fd4e838673,PennController,16,0,experiment,NULL,Selector,choice,Selection,option2,1687288182275,613a9a6706cc935aaa23a024,613a9a6706cc935aaa23a024,13,mix,critical,C,75,mix65.jpg,mix85.jpg,low,option2;option1
1687288182,61a79c786c71aa1f358fe6fd4e838673,PennController,16,0,experiment,NULL,PennController,15,_Trial_,End,1687288182276,613a9a6706cc935aaa23a024,613a9a6706cc935aaa23a024,13,mix,critical,C,75,mix65.jpg,mix85.jpg,low,NULL
