#
# Results on Tuesday June 20 2023 19:08:52 UTC
# USER AGENT: Mozilla/5.0 (Windows NT 10.0; Win64; x64) AppleWebKit/537.36 (KHTML, like Gecko) Chrome/114.0.0.0 Safari/537.36
# Design number was non-random = 50
#
# Columns below this comment are as follows:
# 1. Results reception time.
# 2. MD5 hash of participant's IP address.
# 3. Controller name.
# 4. Order number of item.
# 5. Inner element number.
# 6. Label.
# 7. Latin Square Group.
# 8. PennElementType.
# 9. PennElementName.
# 10. Parameter.
# 11. Value.
# 12. EventTime.
# 13. PROLIFIC_ID.
# 14. Comments.
1687288132,e472f06505067faaf5d827c850c6d087,PennController,2,0,consent,NULL,PennController,0,_Trial_,Start,1687287689030,60eef7de7fbae0b24bae2a84,NULL
1687288132,e472f06505067faaf5d827c850c6d087,PennController,2,0,consent,NULL,PennController,0,_Header_,Start,1687287689030,60eef7de7fbae0b24bae2a84,NULL
1687288132,e472f06505067faaf5d827c850c6d087,PennController,2,0,consent,NULL,PennController,0,_Header_,End,1687287689030,60eef7de7fbae0b24bae2a84,NULL
1687288132,e472f06505067faaf5d827c850c6d087,PennController,2,0,consent,NULL,PennController,0,_Trial_,End,1687287796212,60eef7de7fbae0b24bae2a84,NULL
# Columns below this comment are as follows:
# 14. ID.
# 15. Comments.
1687288132,e472f06505067faaf5d827c850c6d087,PennController,3,0,intro,NULL,PennController,1,_Trial_,Start,1687287796215,60eef7de7fbae0b24bae2a84,60eef7de7fbae0b24bae2a84,NULL
1687288132,e472f06505067faaf5d827c850c6d087,PennController,3,0,intro,NULL,PennController,1,_Header_,Start,1687287796215,60eef7de7fbae0b24bae2a84,60eef7de7fbae0b24bae2a84,NULL
1687288132,e472f06505067faaf5d827c850c6d087,PennController,3,0,intro,NULL,PennController,1,_Header_,End,1687287796215,60eef7de7fbae0b24bae2a84,60eef7de7fbae0b24bae2a84,NULL
1687288132,e472f06505067faaf5d827c850c6d087,PennController,3,0,intro,NULL,PennController,1,_Trial_,End,1687287801817,60eef7de7fbae0b24bae2a84,60eef7de7fbae0b24bae2a84,NULL
# Columns below this comment are as follows:
# 15. item_number.
# 16. item.
# 17. type.
# 18. Group.
# 19. prog.
# 20. prev_image.
# 21. next_image.
# 22. height.
# 23. Comments.
1687288132,e472f06505067faaf5d827c850c6d087,PennController,15,0,experiment,NULL,PennController,14,_Trial_,Start,1687287801825,60eef7de7fbae0b24bae2a84,60eef7de7fbae0b24bae2a84,12,erase,critical,C,50,erase42.jpg,erase60.jpg,low,NULL
1687288132,e472f06505067faaf5d827c850c6d087,PennController,15,0,experiment,NULL,PennController,14,_Header_,Start,1687287801825,60eef7de7fbae0b24bae2a84,60eef7de7fbae0b24bae2a84,12,erase,critical,C,50,erase42.jpg,erase60.jpg,low,NULL
1687288132,e472f06505067faaf5d827c850c6d087,PennController,15,0,experiment,NULL,PennController,14,_Header_,End,1687287801825,60eef7de7fbae0b24bae2a84,60eef7de7fbae0b24bae2a84,12,erase,critical,C,50,erase42.jpg,erase60.jpg,low,NULL
1687288132,e472f06505067faaf5d827c850c6d087,PennController,15,0,experiment,NULL,Canvas,canvas6,Print,NA,1687287809993,60eef7de7fbae0b24bae2a84,60eef7de7fbae0b24bae2a84,12,erase,critical,C,50,erase42.jpg,erase60.jpg,low,NULL
1687288132,e472f06505067faaf5d827c850c6d087,PennController,15,0,experiment,NULL,Video,progression,buffer,0.013003,1687287805438,60eef7de7fbae0b24bae2a84,60eef7de7fbae0b24bae2a84,12,erase,critical,C,50,erase42.jpg,erase60.jpg,low,NULL
1687288132,e472f06505067faaf5d827c850c6d087,PennController,15,0,experiment,NULL,Selector,choice,Selection,option2,1687287812531,60eef7de7fbae0b24bae2a84,60eef7de7fbae0b24bae2a84,12,erase,critical,C,50,erase42.jpg,erase60.jpg,low,option1;option2
1687288132,e472f06505067faaf5d827c850c6d087,PennController,15,0,experiment,NULL,PennController,14,_Trial_,End,1687287812533,60eef7de7fbae0b24bae2a84,60eef7de7fbae0b24bae2a84,12,erase,critical,C,50,erase42.jpg,erase60.jpg,low,NULL
1687288132,e472f06505067faaf5d827c850c6d087,PennController,14,0,experiment,NULL,PennController,13,_Trial_,Start,1687287812535,60eef7de7fbae0b24bae2a84,60eef7de7fbae0b24bae2a84,11,beads,critical,C,25,beads15.jpg,beads35.jpg,low,NULL
1687288132,e472f06505067faaf5d827c850c6d087,PennController,14,0,experiment,NULL,PennController,13,_Header_,Start,1687287812535,60eef7de7fbae0b24bae2a84,60eef7de7fbae0b24bae2a84,11,beads,critical,C,25,beads15.jpg,beads35.jpg,low,NULL
1687288132,e472f06505067faaf5d827c850c6d087,PennController,14,0,experiment,NULL,PennController,13,_Header_,End,1687287812535,60eef7de7fbae0b24bae2a84,60eef7de7fbae0b24bae2a84,11,beads,critical,C,25,beads15.jpg,beads35.jpg,low,NULL
1687288132,e472f06505067faaf5d827c850c6d087,PennController,14,0,experiment,NULL,Canvas,canvas6,Print,NA,1687287818235,60eef7de7fbae0b24bae2a84,60eef7de7fbae0b24bae2a84,11,beads,critical,C,25,beads15.jpg,beads35.jpg,low,NULL
1687288132,e472f06505067faaf5d827c850c6d087,PennController,14,0,experiment,NULL,Video,progression,buffer,0.009758,1687287816070,60eef7de7fbae0b24bae2a84,60eef7de7fbae0b24bae2a84,11,beads,critical,C,25,beads15.jpg,beads35.jpg,low,NULL
1687288132,e472f06505067faaf5d827c850c6d087,PennController,14,0,experiment,NULL,Selector,choice,Selection,option1,1687287827129,60eef7de7fbae0b24bae2a84,60eef7de7fbae0b24bae2a84,11,beads,critical,C,25,beads15.jpg,beads35.jpg,low,option1;option2
1687288132,e472f06505067faaf5d827c850c6d087,PennController,14,0,experiment,NULL,PennController,13,_Trial_,End,1687287827131,60eef7de7fbae0b24bae2a84,60eef7de7fbae0b24bae2a84,11,beads,critical,C,25,beads15.jpg,beads35.jpg,low,NULL
1687288132,e472f06505067faaf5d827c850c6d087,PennController,30,0,experiment,NULL,PennController,29,_Trial_,Start,1687287827133,60eef7de7fbae0b24bae2a84,60eef7de7fbae0b24bae2a84,27,square,filler,C,50,square40.jpg,square60.jpg,GoalA,NULL
1687288132,e472f06505067faaf5d827c850c6d087,PennController,30,0,experiment,NULL,PennController,29,_Header_,Start,1687287827133,60eef7de7fbae0b24bae2a84,60eef7de7fbae0b24bae2a84,27,square,filler,C,50,square40.jpg,square60.jpg,GoalA,NULL
1687288132,e472f06505067faaf5d827c850c6d087,PennController,30,0,experiment,NULL,PennController,29,_Header_,End,1687287827133,60eef7de7fbae0b24bae2a84,60eef7de7fbae0b24bae2a84,27,square,filler,C,50,square40.jpg,square60.jpg,GoalA,NULL
1687288132,e472f06505067faaf5d827c850c6d087,PennController,30,0,experiment,NULL,Canvas,canvas6,Print,NA,1687287833836,60eef7de7fbae0b24bae2a84,60eef7de7fbae0b24bae2a84,27,square,filler,C,50,square40.jpg,square60.jpg,GoalA,NULL
1687288132,e472f06505067faaf5d827c850c6d087,PennController,30,0,experiment,NULL,Video,progression,buffer,0.008528,1687287830666,60eef7de7fbae0b24bae2a84,60eef7de7fbae0b24bae2a84,27,square,filler,C,50,square40.jpg,square60.jpg,GoalA,NULL
1687288132,e472f06505067faaf5d827c850c6d087,PennController,30,0,experiment,NULL,Selector,choice,Selection,option1,1687287836200,60eef7de7fbae0b24bae2a84,60eef7de7fbae0b24bae2a84,27,square,filler,C,50,square40.jpg,square60.jpg,GoalA,option2;option1
1687288132,e472f06505067faaf5d827c850c6d087,PennController,30,0,experiment,NULL,PennController,29,_Trial_,End,1687287836202,60eef7de7fbae0b24bae2a84,60eef7de7fbae0b24bae2a84,27,square,filler,C,50,square40.jpg,square60.jpg,GoalA,NULL
1687288132,e472f06505067faaf5d827c850c6d087,PennController,24,0,experiment,NULL,PennController,23,_Trial_,Start,1687287836204,60eef7de7fbae0b24bae2a84,60eef7de7fbae0b24bae2a84,21,visit,filler,C,50,visit40.jpg,visit60.jpg,GoalA,NULL
1687288132,e472f06505067faaf5d827c850c6d087,PennController,24,0,experiment,NULL,PennController,23,_Header_,Start,1687287836204,60eef7de7fbae0b24bae2a84,60eef7de7fbae0b24bae2a84,21,visit,filler,C,50,visit40.jpg,visit60.jpg,GoalA,NULL
1687288132,e472f06505067faaf5d827c850c6d087,PennController,24,0,experiment,NULL,PennController,23,_Header_,End,1687287836204,60eef7de7fbae0b24bae2a84,60eef7de7fbae0b24bae2a84,21,visit,filler,C,50,visit40.jpg,visit60.jpg,GoalA,NULL
1687288132,e472f06505067faaf5d827c850c6d087,PennController,24,0,experiment,NULL,Canvas,canvas6,Print,NA,1687287842911,60eef7de7fbae0b24bae2a84,60eef7de7fbae0b24bae2a84,21,visit,filler,C,50,visit40.jpg,visit60.jpg,GoalA,NULL
1687288132,e472f06505067faaf5d827c850c6d087,PennController,24,0,experiment,NULL,Video,progression,buffer,0.010662,1687287839746,60eef7de7fbae0b24bae2a84,60eef7de7fbae0b24bae2a84,21,visit,filler,C,50,visit40.jpg,visit60.jpg,GoalA,NULL
1687288132,e472f06505067faaf5d827c850c6d087,PennController,24,0,experiment,NULL,Selector,choice,Selection,option1,1687287851279,60eef7de7fbae0b24bae2a84,60eef7de7fbae0b24bae2a84,21,visit,filler,C,50,visit40.jpg,visit60.jpg,GoalA,option2;option1
1687288132,e472f06505067faaf5d827c850c6d087,PennController,24,0,experiment,NULL,PennController,23,_Trial_,End,1687287851281,60eef7de7fbae0b24bae2a84,60eef7de7fbae0b24bae2a84,21,visit,filler,C,50,visit40.jpg,visit60.jpg,GoalA,NULL
1687288132,e472f06505067faaf5d827c850c6d087,PennController,23,0,experiment,NULL,PennController,22,_Trial_,Start,1687287851284,60eef7de7fbae0b24bae2a84,60eef7de7fbae0b24bae2a84,20,cat,filler,C,25,cat15.jpg,cat35.jpg,GoalB,NULL
1687288132,e472f06505067faaf5d827c850c6d087,PennController,23,0,experiment,NULL,PennController,22,_Header_,Start,1687287851284,60eef7de7fbae0b24bae2a84,60eef7de7fbae0b24bae2a84,20,cat,filler,C,25,cat15.jpg,cat35.jpg,GoalB,NULL
1687288132,e472f06505067faaf5d827c850c6d087,PennController,23,0,experiment,NULL,PennController,22,_Header_,End,1687287851284,60eef7de7fbae0b24bae2a84,60eef7de7fbae0b24bae2a84,20,cat,filler,C,25,cat15.jpg,cat35.jpg,GoalB,NULL
1687288132,e472f06505067faaf5d827c850c6d087,PennController,23,0,experiment,NULL,Canvas,canvas6,Print,NA,1687287856972,60eef7de7fbae0b24bae2a84,60eef7de7fbae0b24bae2a84,20,cat,filler,C,25,cat15.jpg,cat35.jpg,GoalB,NULL
1687288132,e472f06505067faaf5d827c850c6d087,PennController,23,0,experiment,NULL,Video,progression,buffer,0.00786,1687287854818,60eef7de7fbae0b24bae2a84,60eef7de7fbae0b24bae2a84,20,cat,filler,C,25,cat15.jpg,cat35.jpg,GoalB,NULL
1687288132,e472f06505067faaf5d827c850c6d087,PennController,23,0,experiment,NULL,Selector,choice,Selection,option1,1687287873023,60eef7de7fbae0b24bae2a84,60eef7de7fbae0b24bae2a84,20,cat,filler,C,25,cat15.jpg,cat35.jpg,GoalB,option2;option1
1687288132,e472f06505067faaf5d827c850c6d087,PennController,23,0,experiment,NULL,PennController,22,_Trial_,End,1687287873024,60eef7de7fbae0b24bae2a84,60eef7de7fbae0b24bae2a84,20,cat,filler,C,25,cat15.jpg,cat35.jpg,GoalB,NULL
1687288132,e472f06505067faaf5d827c850c6d087,PennController,27,0,experiment,NULL,PennController,26,_Trial_,Start,1687287873026,60eef7de7fbae0b24bae2a84,60eef7de7fbae0b24bae2a84,24,match,filler,C,50,match40.jpg,match60.jpg,GoalB,NULL
1687288132,e472f06505067faaf5d827c850c6d087,PennController,27,0,experiment,NULL,PennController,26,_Header_,Start,1687287873026,60eef7de7fbae0b24bae2a84,60eef7de7fbae0b24bae2a84,24,match,filler,C,50,match40.jpg,match60.jpg,GoalB,NULL
1687288132,e472f06505067faaf5d827c850c6d087,PennController,27,0,experiment,NULL,PennController,26,_Header_,End,1687287873026,60eef7de7fbae0b24bae2a84,60eef7de7fbae0b24bae2a84,24,match,filler,C,50,match40.jpg,match60.jpg,GoalB,NULL
1687288132,e472f06505067faaf5d827c850c6d087,PennController,27,0,experiment,NULL,Canvas,canvas6,Print,NA,1687287879729,60eef7de7fbae0b24bae2a84,60eef7de7fbae0b24bae2a84,24,match,filler,C,50,match40.jpg,match60.jpg,GoalB,NULL
1687288132,e472f06505067faaf5d827c850c6d087,PennController,27,0,experiment,NULL,Video,progression,buffer,0.016261,1687287876573,60eef7de7fbae0b24bae2a84,60eef7de7fbae0b24bae2a84,24,match,filler,C,50,match40.jpg,match60.jpg,GoalB,NULL
1687288132,e472f06505067faaf5d827c850c6d087,PennController,27,0,experiment,NULL,Selector,choice,Selection,option2,1687287884752,60eef7de7fbae0b24bae2a84,60eef7de7fbae0b24bae2a84,24,match,filler,C,50,match40.jpg,match60.jpg,GoalB,option1;option2
1687288132,e472f06505067faaf5d827c850c6d087,PennController,27,0,experiment,NULL,PennController,26,_Trial_,End,1687287884753,60eef7de7fbae0b24bae2a84,60eef7de7fbae0b24bae2a84,24,match,filler,C,50,match40.jpg,match60.jpg,GoalB,NULL
1687288132,e472f06505067faaf5d827c850c6d087,PennController,13,0,experiment,NULL,PennController,12,_Trial_,Start,1687287884754,60eef7de7fbae0b24bae2a84,60eef7de7fbae0b24bae2a84,10,train,critical,C,75,train65.jpg,train85.jpg,low,NULL
1687288132,e472f06505067faaf5d827c850c6d087,PennController,13,0,experiment,NULL,PennController,12,_Header_,Start,1687287884754,60eef7de7fbae0b24bae2a84,60eef7de7fbae0b24bae2a84,10,train,critical,C,75,train65.jpg,train85.jpg,low,NULL
1687288132,e472f06505067faaf5d827c850c6d087,PennController,13,0,experiment,NULL,PennController,12,_Header_,End,1687287884754,60eef7de7fbae0b24bae2a84,60eef7de7fbae0b24bae2a84,10,train,critical,C,75,train65.jpg,train85.jpg,low,NULL
1687288132,e472f06505067faaf5d827c850c6d087,PennController,13,0,experiment,NULL,Canvas,canvas6,Print,NA,1687287892450,60eef7de7fbae0b24bae2a84,60eef7de7fbae0b24bae2a84,10,train,critical,C,75,train65.jpg,train85.jpg,low,NULL
1687288132,e472f06505067faaf5d827c850c6d087,PennController,13,0,experiment,NULL,Video,progression,buffer,0.002408,1687287888273,60eef7de7fbae0b24bae2a84,60eef7de7fbae0b24bae2a84,10,train,critical,C,75,train65.jpg,train85.jpg,low,NULL
1687288132,e472f06505067faaf5d827c850c6d087,PennController,13,0,experiment,NULL,Selector,choice,Selection,option2,1687287894216,60eef7de7fbae0b24bae2a84,60eef7de7fbae0b24bae2a84,10,train,critical,C,75,train65.jpg,train85.jpg,low,option1;option2
1687288132,e472f06505067faaf5d827c850c6d087,PennController,13,0,experiment,NULL,PennController,12,_Trial_,End,1687287894217,60eef7de7fbae0b24bae2a84,60eef7de7fbae0b24bae2a84,10,train,critical,C,75,train65.jpg,train85.jpg,low,NULL
1687288132,e472f06505067faaf5d827c850c6d087,PennController,8,0,experiment,NULL,PennController,7,_Trial_,Start,1687287894219,60eef7de7fbae0b24bae2a84,60eef7de7fbae0b24bae2a84,5,book,critical,C,25,book15.jpg,book35.jpg,low,NULL
1687288132,e472f06505067faaf5d827c850c6d087,PennController,8,0,experiment,NULL,PennController,7,_Header_,Start,1687287894219,60eef7de7fbae0b24bae2a84,60eef7de7fbae0b24bae2a84,5,book,critical,C,25,book15.jpg,book35.jpg,low,NULL
1687288132,e472f06505067faaf5d827c850c6d087,PennController,8,0,experiment,NULL,PennController,7,_Header_,End,1687287894219,60eef7de7fbae0b24bae2a84,60eef7de7fbae0b24bae2a84,5,book,critical,C,25,book15.jpg,book35.jpg,low,NULL
1687288132,e472f06505067faaf5d827c850c6d087,PennController,8,0,experiment,NULL,Canvas,canvas6,Print,NA,1687287899928,60eef7de7fbae0b24bae2a84,60eef7de7fbae0b24bae2a84,5,book,critical,C,25,book15.jpg,book35.jpg,low,NULL
1687288132,e472f06505067faaf5d827c850c6d087,PennController,8,0,experiment,NULL,Video,progression,buffer,0.014811,1687287897763,60eef7de7fbae0b24bae2a84,60eef7de7fbae0b24bae2a84,5,book,critical,C,25,book15.jpg,book35.jpg,low,NULL
1687288132,e472f06505067faaf5d827c850c6d087,PennController,8,0,experiment,NULL,Selector,choice,Selection,option1,1687287902271,60eef7de7fbae0b24bae2a84,60eef7de7fbae0b24bae2a84,5,book,critical,C,25,book15.jpg,book35.jpg,low,option2;option1
1687288132,e472f06505067faaf5d827c850c6d087,PennController,8,0,experiment,NULL,PennController,7,_Trial_,End,1687287902273,60eef7de7fbae0b24bae2a84,60eef7de7fbae0b24bae2a84,5,book,critical,C,25,book15.jpg,book35.jpg,low,NULL
1687288132,e472f06505067faaf5d827c850c6d087,PennController,31,0,experiment,NULL,PennController,30,_Trial_,Start,1687287902274,60eef7de7fbae0b24bae2a84,60eef7de7fbae0b24bae2a84,28,sort,filler,C,75,sort65.jpg,sort85.jpg,GoalB,NULL
1687288132,e472f06505067faaf5d827c850c6d087,PennController,31,0,experiment,NULL,PennController,30,_Header_,Start,1687287902274,60eef7de7fbae0b24bae2a84,60eef7de7fbae0b24bae2a84,28,sort,filler,C,75,sort65.jpg,sort85.jpg,GoalB,NULL
1687288132,e472f06505067faaf5d827c850c6d087,PennController,31,0,experiment,NULL,PennController,30,_Header_,End,1687287902274,60eef7de7fbae0b24bae2a84,60eef7de7fbae0b24bae2a84,28,sort,filler,C,75,sort65.jpg,sort85.jpg,GoalB,NULL
1687288132,e472f06505067faaf5d827c850c6d087,PennController,31,0,experiment,NULL,Canvas,canvas6,Print,NA,1687287909976,60eef7de7fbae0b24bae2a84,60eef7de7fbae0b24bae2a84,28,sort,filler,C,75,sort65.jpg,sort85.jpg,GoalB,NULL
1687288132,e472f06505067faaf5d827c850c6d087,PennController,31,0,experiment,NULL,Video,progression,buffer,0.005631,1687287905802,60eef7de7fbae0b24bae2a84,60eef7de7fbae0b24bae2a84,28,sort,filler,C,75,sort65.jpg,sort85.jpg,GoalB,NULL
1687288132,e472f06505067faaf5d827c850c6d087,PennController,31,0,experiment,NULL,Selector,choice,Selection,option2,1687287912249,60eef7de7fbae0b24bae2a84,60eef7de7fbae0b24bae2a84,28,sort,filler,C,75,sort65.jpg,sort85.jpg,GoalB,option1;option2
1687288132,e472f06505067faaf5d827c850c6d087,PennController,31,0,experiment,NULL,PennController,30,_Trial_,End,1687287912251,60eef7de7fbae0b24bae2a84,60eef7de7fbae0b24bae2a84,28,sort,filler,C,75,sort65.jpg,sort85.jpg,GoalB,NULL
1687288132,e472f06505067faaf5d827c850c6d087,PennController,22,0,experiment,NULL,PennController,21,_Trial_,Start,1687287912252,60eef7de7fbae0b24bae2a84,60eef7de7fbae0b24bae2a84,19,cup,filler,C,75,cup65.jpg,cup85.jpg,GoalA,NULL
1687288132,e472f06505067faaf5d827c850c6d087,PennController,22,0,experiment,NULL,PennController,21,_Header_,Start,1687287912252,60eef7de7fbae0b24bae2a84,60eef7de7fbae0b24bae2a84,19,cup,filler,C,75,cup65.jpg,cup85.jpg,GoalA,NULL
1687288132,e472f06505067faaf5d827c850c6d087,PennController,22,0,experiment,NULL,PennController,21,_Header_,End,1687287912252,60eef7de7fbae0b24bae2a84,60eef7de7fbae0b24bae2a84,19,cup,filler,C,75,cup65.jpg,cup85.jpg,GoalA,NULL
1687288132,e472f06505067faaf5d827c850c6d087,PennController,22,0,experiment,NULL,Canvas,canvas6,Print,NA,1687287919944,60eef7de7fbae0b24bae2a84,60eef7de7fbae0b24bae2a84,19,cup,filler,C,75,cup65.jpg,cup85.jpg,GoalA,NULL
1687288132,e472f06505067faaf5d827c850c6d087,PennController,22,0,experiment,NULL,Video,progression,buffer,0.005442,1687287915779,60eef7de7fbae0b24bae2a84,60eef7de7fbae0b24bae2a84,19,cup,filler,C,75,cup65.jpg,cup85.jpg,GoalA,NULL
1687288132,e472f06505067faaf5d827c850c6d087,PennController,22,0,experiment,NULL,Selector,choice,Selection,option1,1687287923424,60eef7de7fbae0b24bae2a84,60eef7de7fbae0b24bae2a84,19,cup,filler,C,75,cup65.jpg,cup85.jpg,GoalA,option1;option2
1687288132,e472f06505067faaf5d827c850c6d087,PennController,22,0,experiment,NULL,PennController,21,_Trial_,End,1687287923425,60eef7de7fbae0b24bae2a84,60eef7de7fbae0b24bae2a84,19,cup,filler,C,75,cup65.jpg,cup85.jpg,GoalA,NULL
1687288132,e472f06505067faaf5d827c850c6d087,PennController,11,0,experiment,NULL,PennController,10,_Trial_,Start,1687287923426,60eef7de7fbae0b24bae2a84,60eef7de7fbae0b24bae2a84,8,cucumber,critical,C,25,cucumber15.jpg,cucumber33.jpg,low,NULL
1687288132,e472f06505067faaf5d827c850c6d087,PennController,11,0,experiment,NULL,PennController,10,_Header_,Start,1687287923426,60eef7de7fbae0b24bae2a84,60eef7de7fbae0b24bae2a84,8,cucumber,critical,C,25,cucumber15.jpg,cucumber33.jpg,low,NULL
1687288132,e472f06505067faaf5d827c850c6d087,PennController,11,0,experiment,NULL,PennController,10,_Header_,End,1687287923426,60eef7de7fbae0b24bae2a84,60eef7de7fbae0b24bae2a84,8,cucumber,critical,C,25,cucumber15.jpg,cucumber33.jpg,low,NULL
1687288132,e472f06505067faaf5d827c850c6d087,PennController,11,0,experiment,NULL,Canvas,canvas6,Print,NA,1687287929740,60eef7de7fbae0b24bae2a84,60eef7de7fbae0b24bae2a84,8,cucumber,critical,C,25,cucumber15.jpg,cucumber33.jpg,low,NULL
1687288132,e472f06505067faaf5d827c850c6d087,PennController,11,0,experiment,NULL,Video,progression,buffer,0.017729,1687287926984,60eef7de7fbae0b24bae2a84,60eef7de7fbae0b24bae2a84,8,cucumber,critical,C,25,cucumber15.jpg,cucumber33.jpg,low,NULL
1687288132,e472f06505067faaf5d827c850c6d087,PennController,11,0,experiment,NULL,Selector,choice,Selection,option1,1687287938899,60eef7de7fbae0b24bae2a84,60eef7de7fbae0b24bae2a84,8,cucumber,critical,C,25,cucumber15.jpg,cucumber33.jpg,low,option1;option2
1687288132,e472f06505067faaf5d827c850c6d087,PennController,11,0,experiment,NULL,PennController,10,_Trial_,End,1687287938900,60eef7de7fbae0b24bae2a84,60eef7de7fbae0b24bae2a84,8,cucumber,critical,C,25,cucumber15.jpg,cucumber33.jpg,low,NULL
1687288132,e472f06505067faaf5d827c850c6d087,PennController,16,0,experiment,NULL,PennController,15,_Trial_,Start,1687287938902,60eef7de7fbae0b24bae2a84,60eef7de7fbae0b24bae2a84,13,mix,critical,C,75,mix65.jpg,mix85.jpg,low,NULL
1687288132,e472f06505067faaf5d827c850c6d087,PennController,16,0,experiment,NULL,PennController,15,_Header_,Start,1687287938902,60eef7de7fbae0b24bae2a84,60eef7de7fbae0b24bae2a84,13,mix,critical,C,75,mix65.jpg,mix85.jpg,low,NULL
1687288132,e472f06505067faaf5d827c850c6d087,PennController,16,0,experiment,NULL,PennController,15,_Header_,End,1687287938902,60eef7de7fbae0b24bae2a84,60eef7de7fbae0b24bae2a84,13,mix,critical,C,75,mix65.jpg,mix85.jpg,low,NULL
1687288132,e472f06505067faaf5d827c850c6d087,PennController,16,0,experiment,NULL,Canvas,canvas6,Print,NA,1687287946607,60eef7de7fbae0b24bae2a84,60eef7de7fbae0b24bae2a84,13,mix,critical,C,75,mix65.jpg,mix85.jpg,low,NULL
1687288132,e472f06505067faaf5d827c850c6d087,PennController,16,0,experiment,NULL,Video,progression,buffer,0.003469,1687287942431,60eef7de7fbae0b24bae2a84,60eef7de7fbae0b24bae2a84,13,mix,critical,C,75,mix65.jpg,mix85.jpg,low,NULL
1687288132,e472f06505067faaf5d827c850c6d087,PennController,16,0,experiment,NULL,Selector,choice,Selection,option1,1687287949210,60eef7de7fbae0b24bae2a84,60eef7de7fbae0b24bae2a84,13,mix,critical,C,75,mix65.jpg,mix85.jpg,low,option2;option1
1687288132,e472f06505067faaf5d827c850c6d087,PennController,16,0,experiment,NULL,PennController,15,_Trial_,End,1687287949211,60eef7de7fbae0b24bae2a84,60eef7de7fbae0b24bae2a84,13,mix,critical,C,75,mix65.jpg,mix85.jpg,low,NULL
1687288132,e472f06505067faaf5d827c850c6d087,PennController,28,0,experiment,NULL,PennController,27,_Trial_,Start,1687287949212,60eef7de7fbae0b24bae2a84,60eef7de7fbae0b24bae2a84,25,house,filler,C,75,house65.jpg,house85.jpg,GoalA,NULL
1687288132,e472f06505067faaf5d827c850c6d087,PennController,28,0,experiment,NULL,PennController,27,_Header_,Start,1687287949212,60eef7de7fbae0b24bae2a84,60eef7de7fbae0b24bae2a84,25,house,filler,C,75,house65.jpg,house85.jpg,GoalA,NULL
1687288132,e472f06505067faaf5d827c850c6d087,PennController,28,0,experiment,NULL,PennController,27,_Header_,End,1687287949212,60eef7de7fbae0b24bae2a84,60eef7de7fbae0b24bae2a84,25,house,filler,C,75,house65.jpg,house85.jpg,GoalA,NULL
1687288132,e472f06505067faaf5d827c850c6d087,PennController,28,0,experiment,NULL,Canvas,canvas6,Print,NA,1687287956919,60eef7de7fbae0b24bae2a84,60eef7de7fbae0b24bae2a84,25,house,filler,C,75,house65.jpg,house85.jpg,GoalA,NULL
1687288132,e472f06505067faaf5d827c850c6d087,PennController,28,0,experiment,NULL,Video,progression,buffer,0.005704,1687287952741,60eef7de7fbae0b24bae2a84,60eef7de7fbae0b24bae2a84,25,house,filler,C,75,house65.jpg,house85.jpg,GoalA,NULL
1687288132,e472f06505067faaf5d827c850c6d087,PennController,28,0,experiment,NULL,Selector,choice,Selection,option1,1687287959955,60eef7de7fbae0b24bae2a84,60eef7de7fbae0b24bae2a84,25,house,filler,C,75,house65.jpg,house85.jpg,GoalA,option2;option1
1687288132,e472f06505067faaf5d827c850c6d087,PennController,28,0,experiment,NULL,PennController,27,_Trial_,End,1687287959956,60eef7de7fbae0b24bae2a84,60eef7de7fbae0b24bae2a84,25,house,filler,C,75,house65.jpg,house85.jpg,GoalA,NULL
1687288132,e472f06505067faaf5d827c850c6d087,PennController,21,0,experiment,NULL,PennController,20,_Trial_,Start,1687287959959,60eef7de7fbae0b24bae2a84,60eef7de7fbae0b24bae2a84,18,ball,critical,C,50,ball40.jpg,ball60.jpg,low,NULL
1687288132,e472f06505067faaf5d827c850c6d087,PennController,21,0,experiment,NULL,PennController,20,_Header_,Start,1687287959959,60eef7de7fbae0b24bae2a84,60eef7de7fbae0b24bae2a84,18,ball,critical,C,50,ball40.jpg,ball60.jpg,low,NULL
1687288132,e472f06505067faaf5d827c850c6d087,PennController,21,0,experiment,NULL,PennController,20,_Header_,End,1687287959959,60eef7de7fbae0b24bae2a84,60eef7de7fbae0b24bae2a84,18,ball,critical,C,50,ball40.jpg,ball60.jpg,low,NULL
1687288132,e472f06505067faaf5d827c850c6d087,PennController,21,0,experiment,NULL,Canvas,canvas6,Print,NA,1687287966675,60eef7de7fbae0b24bae2a84,60eef7de7fbae0b24bae2a84,18,ball,critical,C,50,ball40.jpg,ball60.jpg,low,NULL
1687288132,e472f06505067faaf5d827c850c6d087,PennController,21,0,experiment,NULL,Video,progression,buffer,0.002614,1687287963499,60eef7de7fbae0b24bae2a84,60eef7de7fbae0b24bae2a84,18,ball,critical,C,50,ball40.jpg,ball60.jpg,low,NULL
1687288132,e472f06505067faaf5d827c850c6d087,PennController,21,0,experiment,NULL,Selector,choice,Selection,option2,1687287968020,60eef7de7fbae0b24bae2a84,60eef7de7fbae0b24bae2a84,18,ball,critical,C,50,ball40.jpg,ball60.jpg,low,option1;option2
1687288132,e472f06505067faaf5d827c850c6d087,PennController,21,0,experiment,NULL,PennController,20,_Trial_,End,1687287968021,60eef7de7fbae0b24bae2a84,60eef7de7fbae0b24bae2a84,18,ball,critical,C,50,ball40.jpg,ball60.jpg,low,NULL
1687288132,e472f06505067faaf5d827c850c6d087,PennController,32,0,experiment,NULL,PennController,31,_Trial_,Start,1687287968022,60eef7de7fbae0b24bae2a84,60eef7de7fbae0b24bae2a84,29,frog,filler,C,25,frog15.jpg,frog35.jpg,GoalA,NULL
1687288132,e472f06505067faaf5d827c850c6d087,PennController,32,0,experiment,NULL,PennController,31,_Header_,Start,1687287968022,60eef7de7fbae0b24bae2a84,60eef7de7fbae0b24bae2a84,29,frog,filler,C,25,frog15.jpg,frog35.jpg,GoalA,NULL
1687288132,e472f06505067faaf5d827c850c6d087,PennController,32,0,experiment,NULL,PennController,31,_Header_,End,1687287968022,60eef7de7fbae0b24bae2a84,60eef7de7fbae0b24bae2a84,29,frog,filler,C,25,frog15.jpg,frog35.jpg,GoalA,NULL
1687288132,e472f06505067faaf5d827c850c6d087,PennController,32,0,experiment,NULL,Canvas,canvas6,Print,NA,1687287973725,60eef7de7fbae0b24bae2a84,60eef7de7fbae0b24bae2a84,29,frog,filler,C,25,frog15.jpg,frog35.jpg,GoalA,NULL
1687288132,e472f06505067faaf5d827c850c6d087,PennController,32,0,experiment,NULL,Video,progression,buffer,0.01033,1687287971559,60eef7de7fbae0b24bae2a84,60eef7de7fbae0b24bae2a84,29,frog,filler,C,25,frog15.jpg,frog35.jpg,GoalA,NULL
1687288132,e472f06505067faaf5d827c850c6d087,PennController,32,0,experiment,NULL,Selector,choice,Selection,option1,1687287977199,60eef7de7fbae0b24bae2a84,60eef7de7fbae0b24bae2a84,29,frog,filler,C,25,frog15.jpg,frog35.jpg,GoalA,option1;option2
1687288132,e472f06505067faaf5d827c850c6d087,PennController,32,0,experiment,NULL,PennController,31,_Trial_,End,1687287977200,60eef7de7fbae0b24bae2a84,60eef7de7fbae0b24bae2a84,29,frog,filler,C,25,frog15.jpg,frog35.jpg,GoalA,NULL
1687288132,e472f06505067faaf5d827c850c6d087,PennController,18,0,experiment,NULL,PennController,17,_Trial_,Start,1687287977201,60eef7de7fbae0b24bae2a84,60eef7de7fbae0b24bae2a84,15,zip,critical,C,50,zip40.jpg,zip60.jpg,low,NULL
1687288132,e472f06505067faaf5d827c850c6d087,PennController,18,0,experiment,NULL,PennController,17,_Header_,Start,1687287977201,60eef7de7fbae0b24bae2a84,60eef7de7fbae0b24bae2a84,15,zip,critical,C,50,zip40.jpg,zip60.jpg,low,NULL
1687288132,e472f06505067faaf5d827c850c6d087,PennController,18,0,experiment,NULL,PennController,17,_Header_,End,1687287977201,60eef7de7fbae0b24bae2a84,60eef7de7fbae0b24bae2a84,15,zip,critical,C,50,zip40.jpg,zip60.jpg,low,NULL
1687288132,e472f06505067faaf5d827c850c6d087,PennController,18,0,experiment,NULL,Canvas,canvas6,Print,NA,1687287983910,60eef7de7fbae0b24bae2a84,60eef7de7fbae0b24bae2a84,15,zip,critical,C,50,zip40.jpg,zip60.jpg,low,NULL
1687288132,e472f06505067faaf5d827c850c6d087,PennController,18,0,experiment,NULL,Video,progression,buffer,0.007377,1687287980734,60eef7de7fbae0b24bae2a84,60eef7de7fbae0b24bae2a84,15,zip,critical,C,50,zip40.jpg,zip60.jpg,low,NULL
1687288132,e472f06505067faaf5d827c850c6d087,PennController,18,0,experiment,NULL,Selector,choice,Selection,option1,1687287986138,60eef7de7fbae0b24bae2a84,60eef7de7fbae0b24bae2a84,15,zip,critical,C,50,zip40.jpg,zip60.jpg,low,option1;option2
1687288132,e472f06505067faaf5d827c850c6d087,PennController,18,0,experiment,NULL,PennController,17,_Trial_,End,1687287986139,60eef7de7fbae0b24bae2a84,60eef7de7fbae0b24bae2a84,15,zip,critical,C,50,zip40.jpg,zip60.jpg,low,NULL
1687288132,e472f06505067faaf5d827c850c6d087,PennController,20,0,experiment,NULL,PennController,19,_Trial_,Start,1687287986141,60eef7de7fbae0b24bae2a84,60eef7de7fbae0b24bae2a84,17,roll,critical,C,25,roll15.jpg,roll35.jpg,low,NULL
1687288132,e472f06505067faaf5d827c850c6d087,PennController,20,0,experiment,NULL,PennController,19,_Header_,Start,1687287986141,60eef7de7fbae0b24bae2a84,60eef7de7fbae0b24bae2a84,17,roll,critical,C,25,roll15.jpg,roll35.jpg,low,NULL
1687288132,e472f06505067faaf5d827c850c6d087,PennController,20,0,experiment,NULL,PennController,19,_Header_,End,1687287986141,60eef7de7fbae0b24bae2a84,60eef7de7fbae0b24bae2a84,17,roll,critical,C,25,roll15.jpg,roll35.jpg,low,NULL
1687288132,e472f06505067faaf5d827c850c6d087,PennController,20,0,experiment,NULL,Canvas,canvas6,Print,NA,1687287991829,60eef7de7fbae0b24bae2a84,60eef7de7fbae0b24bae2a84,17,roll,critical,C,25,roll15.jpg,roll35.jpg,low,NULL
1687288132,e472f06505067faaf5d827c850c6d087,PennController,20,0,experiment,NULL,Video,progression,buffer,0.003092,1687287989660,60eef7de7fbae0b24bae2a84,60eef7de7fbae0b24bae2a84,17,roll,critical,C,25,roll15.jpg,roll35.jpg,low,NULL
1687288132,e472f06505067faaf5d827c850c6d087,PennController,20,0,experiment,NULL,Selector,choice,Selection,option1,1687287994886,60eef7de7fbae0b24bae2a84,60eef7de7fbae0b24bae2a84,17,roll,critical,C,25,roll15.jpg,roll35.jpg,low,option1;option2
1687288132,e472f06505067faaf5d827c850c6d087,PennController,20,0,experiment,NULL,PennController,19,_Trial_,End,1687287994887,60eef7de7fbae0b24bae2a84,60eef7de7fbae0b24bae2a84,17,roll,critical,C,25,roll15.jpg,roll35.jpg,low,NULL
1687288132,e472f06505067faaf5d827c850c6d087,PennController,29,0,experiment,NULL,PennController,28,_Trial_,Start,1687287994887,60eef7de7fbae0b24bae2a84,60eef7de7fbae0b24bae2a84,26,sandwich,filler,C,25,sandwich15.jpg,sandwich35.jpg,GoalB,NULL
1687288132,e472f06505067faaf5d827c850c6d087,PennController,29,0,experiment,NULL,PennController,28,_Header_,Start,1687287994887,60eef7de7fbae0b24bae2a84,60eef7de7fbae0b24bae2a84,26,sandwich,filler,C,25,sandwich15.jpg,sandwich35.jpg,GoalB,NULL
1687288132,e472f06505067faaf5d827c850c6d087,PennController,29,0,experiment,NULL,PennController,28,_Header_,End,1687287994887,60eef7de7fbae0b24bae2a84,60eef7de7fbae0b24bae2a84,26,sandwich,filler,C,25,sandwich15.jpg,sandwich35.jpg,GoalB,NULL
1687288132,e472f06505067faaf5d827c850c6d087,PennController,29,0,experiment,NULL,Canvas,canvas6,Print,NA,1687288000585,60eef7de7fbae0b24bae2a84,60eef7de7fbae0b24bae2a84,26,sandwich,filler,C,25,sandwich15.jpg,sandwich35.jpg,GoalB,NULL
1687288132,e472f06505067faaf5d827c850c6d087,PennController,29,0,experiment,NULL,Video,progression,buffer,0.008161,1687287998426,60eef7de7fbae0b24bae2a84,60eef7de7fbae0b24bae2a84,26,sandwich,filler,C,25,sandwich15.jpg,sandwich35.jpg,GoalB,NULL
1687288132,e472f06505067faaf5d827c850c6d087,PennController,29,0,experiment,NULL,Selector,choice,Selection,option1,1687288002437,60eef7de7fbae0b24bae2a84,60eef7de7fbae0b24bae2a84,26,sandwich,filler,C,25,sandwich15.jpg,sandwich35.jpg,GoalB,option2;option1
1687288132,e472f06505067faaf5d827c850c6d087,PennController,29,0,experiment,NULL,PennController,28,_Trial_,End,1687288002438,60eef7de7fbae0b24bae2a84,60eef7de7fbae0b24bae2a84,26,sandwich,filler,C,25,sandwich15.jpg,sandwich35.jpg,GoalB,NULL
1687288132,e472f06505067faaf5d827c850c6d087,PennController,12,0,experiment,NULL,PennController,11,_Trial_,Start,1687288002439,60eef7de7fbae0b24bae2a84,60eef7de7fbae0b24bae2a84,9,cake,critical,C,50,cake42.jpg,cake60.jpg,low,NULL
1687288132,e472f06505067faaf5d827c850c6d087,PennController,12,0,experiment,NULL,PennController,11,_Header_,Start,1687288002439,60eef7de7fbae0b24bae2a84,60eef7de7fbae0b24bae2a84,9,cake,critical,C,50,cake42.jpg,cake60.jpg,low,NULL
1687288132,e472f06505067faaf5d827c850c6d087,PennController,12,0,experiment,NULL,PennController,11,_Header_,End,1687288002439,60eef7de7fbae0b24bae2a84,60eef7de7fbae0b24bae2a84,9,cake,critical,C,50,cake42.jpg,cake60.jpg,low,NULL
1687288132,e472f06505067faaf5d827c850c6d087,PennController,12,0,experiment,NULL,Canvas,canvas6,Print,NA,1687288010530,60eef7de7fbae0b24bae2a84,60eef7de7fbae0b24bae2a84,9,cake,critical,C,50,cake42.jpg,cake60.jpg,low,NULL
1687288132,e472f06505067faaf5d827c850c6d087,PennController,12,0,experiment,NULL,Video,progression,buffer,0.005133,1687288005966,60eef7de7fbae0b24bae2a84,60eef7de7fbae0b24bae2a84,9,cake,critical,C,50,cake42.jpg,cake60.jpg,low,NULL
1687288132,e472f06505067faaf5d827c850c6d087,PennController,12,0,experiment,NULL,Selector,choice,Selection,option2,1687288012334,60eef7de7fbae0b24bae2a84,60eef7de7fbae0b24bae2a84,9,cake,critical,C,50,cake42.jpg,cake60.jpg,low,option2;option1
1687288132,e472f06505067faaf5d827c850c6d087,PennController,12,0,experiment,NULL,PennController,11,_Trial_,End,1687288012335,60eef7de7fbae0b24bae2a84,60eef7de7fbae0b24bae2a84,9,cake,critical,C,50,cake42.jpg,cake60.jpg,low,NULL
1687288132,e472f06505067faaf5d827c850c6d087,PennController,7,0,experiment,NULL,PennController,6,_Trial_,Start,1687288012336,60eef7de7fbae0b24bae2a84,60eef7de7fbae0b24bae2a84,4,candy,critical,C,75,candy65.jpg,candy85.jpg,low,NULL
1687288132,e472f06505067faaf5d827c850c6d087,PennController,7,0,experiment,NULL,PennController,6,_Header_,Start,1687288012336,60eef7de7fbae0b24bae2a84,60eef7de7fbae0b24bae2a84,4,candy,critical,C,75,candy65.jpg,candy85.jpg,low,NULL
1687288132,e472f06505067faaf5d827c850c6d087,PennController,7,0,experiment,NULL,PennController,6,_Header_,End,1687288012336,60eef7de7fbae0b24bae2a84,60eef7de7fbae0b24bae2a84,4,candy,critical,C,75,candy65.jpg,candy85.jpg,low,NULL
1687288132,e472f06505067faaf5d827c850c6d087,PennController,7,0,experiment,NULL,Canvas,canvas6,Print,NA,1687288020034,60eef7de7fbae0b24bae2a84,60eef7de7fbae0b24bae2a84,4,candy,critical,C,75,candy65.jpg,candy85.jpg,low,NULL
1687288132,e472f06505067faaf5d827c850c6d087,PennController,7,0,experiment,NULL,Video,progression,buffer,0.008685,1687288015874,60eef7de7fbae0b24bae2a84,60eef7de7fbae0b24bae2a84,4,candy,critical,C,75,candy65.jpg,candy85.jpg,low,NULL
1687288132,e472f06505067faaf5d827c850c6d087,PennController,7,0,experiment,NULL,Selector,choice,Selection,option1,1687288023127,60eef7de7fbae0b24bae2a84,60eef7de7fbae0b24bae2a84,4,candy,critical,C,75,candy65.jpg,candy85.jpg,low,option1;option2
1687288132,e472f06505067faaf5d827c850c6d087,PennController,7,0,experiment,NULL,PennController,6,_Trial_,End,1687288023130,60eef7de7fbae0b24bae2a84,60eef7de7fbae0b24bae2a84,4,candy,critical,C,75,candy65.jpg,candy85.jpg,low,NULL
1687288132,e472f06505067faaf5d827c850c6d087,PennController,5,0,experiment,NULL,PennController,4,_Trial_,Start,1687288023131,60eef7de7fbae0b24bae2a84,60eef7de7fbae0b24bae2a84,2,door,critical,C,25,door15.jpg,door35.jpg,low,NULL
1687288132,e472f06505067faaf5d827c850c6d087,PennController,5,0,experiment,NULL,PennController,4,_Header_,Start,1687288023131,60eef7de7fbae0b24bae2a84,60eef7de7fbae0b24bae2a84,2,door,critical,C,25,door15.jpg,door35.jpg,low,NULL
1687288132,e472f06505067faaf5d827c850c6d087,PennController,5,0,experiment,NULL,PennController,4,_Header_,End,1687288023131,60eef7de7fbae0b24bae2a84,60eef7de7fbae0b24bae2a84,2,door,critical,C,25,door15.jpg,door35.jpg,low,NULL
1687288132,e472f06505067faaf5d827c850c6d087,PennController,5,0,experiment,NULL,Canvas,canvas6,Print,NA,1687288028845,60eef7de7fbae0b24bae2a84,60eef7de7fbae0b24bae2a84,2,door,critical,C,25,door15.jpg,door35.jpg,low,NULL
1687288132,e472f06505067faaf5d827c850c6d087,PennController,5,0,experiment,NULL,Video,progression,buffer,0.015605,1687288026680,60eef7de7fbae0b24bae2a84,60eef7de7fbae0b24bae2a84,2,door,critical,C,25,door15.jpg,door35.jpg,low,NULL
1687288132,e472f06505067faaf5d827c850c6d087,PennController,5,0,experiment,NULL,Selector,choice,Selection,option2,1687288031242,60eef7de7fbae0b24bae2a84,60eef7de7fbae0b24bae2a84,2,door,critical,C,25,door15.jpg,door35.jpg,low,option1;option2
1687288132,e472f06505067faaf5d827c850c6d087,PennController,5,0,experiment,NULL,PennController,4,_Trial_,End,1687288031243,60eef7de7fbae0b24bae2a84,60eef7de7fbae0b24bae2a84,2,door,critical,C,25,door15.jpg,door35.jpg,low,NULL
1687288132,e472f06505067faaf5d827c850c6d087,PennController,9,0,experiment,NULL,PennController,8,_Trial_,Start,1687288031244,60eef7de7fbae0b24bae2a84,60eef7de7fbae0b24bae2a84,6,flower,critical,C,50,flower40.jpg,flower60.jpg,low,NULL
1687288132,e472f06505067faaf5d827c850c6d087,PennController,9,0,experiment,NULL,PennController,8,_Header_,Start,1687288031244,60eef7de7fbae0b24bae2a84,60eef7de7fbae0b24bae2a84,6,flower,critical,C,50,flower40.jpg,flower60.jpg,low,NULL
1687288132,e472f06505067faaf5d827c850c6d087,PennController,9,0,experiment,NULL,PennController,8,_Header_,End,1687288031244,60eef7de7fbae0b24bae2a84,60eef7de7fbae0b24bae2a84,6,flower,critical,C,50,flower40.jpg,flower60.jpg,low,NULL
1687288132,e472f06505067faaf5d827c850c6d087,PennController,9,0,experiment,NULL,Canvas,canvas6,Print,NA,1687288037949,60eef7de7fbae0b24bae2a84,60eef7de7fbae0b24bae2a84,6,flower,critical,C,50,flower40.jpg,flower60.jpg,low,NULL
1687288132,e472f06505067faaf5d827c850c6d087,PennController,9,0,experiment,NULL,Video,progression,buffer,0.004608,1687288034775,60eef7de7fbae0b24bae2a84,60eef7de7fbae0b24bae2a84,6,flower,critical,C,50,flower40.jpg,flower60.jpg,low,NULL
1687288132,e472f06505067faaf5d827c850c6d087,PennController,9,0,experiment,NULL,Selector,choice,Selection,option2,1687288041904,60eef7de7fbae0b24bae2a84,60eef7de7fbae0b24bae2a84,6,flower,critical,C,50,flower40.jpg,flower60.jpg,low,option1;option2
1687288132,e472f06505067faaf5d827c850c6d087,PennController,9,0,experiment,NULL,PennController,8,_Trial_,End,1687288041905,60eef7de7fbae0b24bae2a84,60eef7de7fbae0b24bae2a84,6,flower,critical,C,50,flower40.jpg,flower60.jpg,low,NULL
1687288132,e472f06505067faaf5d827c850c6d087,PennController,26,0,experiment,NULL,PennController,25,_Trial_,Start,1687288041906,60eef7de7fbae0b24bae2a84,60eef7de7fbae0b24bae2a84,23,color,filler,C,25,color15.jpg,color35.jpg,GoalA,NULL
1687288132,e472f06505067faaf5d827c850c6d087,PennController,26,0,experiment,NULL,PennController,25,_Header_,Start,1687288041906,60eef7de7fbae0b24bae2a84,60eef7de7fbae0b24bae2a84,23,color,filler,C,25,color15.jpg,color35.jpg,GoalA,NULL
1687288132,e472f06505067faaf5d827c850c6d087,PennController,26,0,experiment,NULL,PennController,25,_Header_,End,1687288041906,60eef7de7fbae0b24bae2a84,60eef7de7fbae0b24bae2a84,23,color,filler,C,25,color15.jpg,color35.jpg,GoalA,NULL
1687288132,e472f06505067faaf5d827c850c6d087,PennController,26,0,experiment,NULL,Canvas,canvas6,Print,NA,1687288047615,60eef7de7fbae0b24bae2a84,60eef7de7fbae0b24bae2a84,23,color,filler,C,25,color15.jpg,color35.jpg,GoalA,NULL
1687288132,e472f06505067faaf5d827c850c6d087,PennController,26,0,experiment,NULL,Video,progression,buffer,0.006187,1687288045433,60eef7de7fbae0b24bae2a84,60eef7de7fbae0b24bae2a84,23,color,filler,C,25,color15.jpg,color35.jpg,GoalA,NULL
1687288132,e472f06505067faaf5d827c850c6d087,PennController,26,0,experiment,NULL,Selector,choice,Selection,option1,1687288054204,60eef7de7fbae0b24bae2a84,60eef7de7fbae0b24bae2a84,23,color,filler,C,25,color15.jpg,color35.jpg,GoalA,option1;option2
1687288132,e472f06505067faaf5d827c850c6d087,PennController,26,0,experiment,NULL,PennController,25,_Trial_,End,1687288054205,60eef7de7fbae0b24bae2a84,60eef7de7fbae0b24bae2a84,23,color,filler,C,25,color15.jpg,color35.jpg,GoalA,NULL
1687288132,e472f06505067faaf5d827c850c6d087,PennController,6,0,experiment,NULL,PennController,5,_Trial_,Start,1687288054206,60eef7de7fbae0b24bae2a84,60eef7de7fbae0b24bae2a84,3,clean,critical,C,50,clean40.jpg,clean60.jpg,low,NULL
1687288132,e472f06505067faaf5d827c850c6d087,PennController,6,0,experiment,NULL,PennController,5,_Header_,Start,1687288054206,60eef7de7fbae0b24bae2a84,60eef7de7fbae0b24bae2a84,3,clean,critical,C,50,clean40.jpg,clean60.jpg,low,NULL
1687288132,e472f06505067faaf5d827c850c6d087,PennController,6,0,experiment,NULL,PennController,5,_Header_,End,1687288054206,60eef7de7fbae0b24bae2a84,60eef7de7fbae0b24bae2a84,3,clean,critical,C,50,clean40.jpg,clean60.jpg,low,NULL
1687288132,e472f06505067faaf5d827c850c6d087,PennController,6,0,experiment,NULL,Canvas,canvas6,Print,NA,1687288060922,60eef7de7fbae0b24bae2a84,60eef7de7fbae0b24bae2a84,3,clean,critical,C,50,clean40.jpg,clean60.jpg,low,NULL
1687288132,e472f06505067faaf5d827c850c6d087,PennController,6,0,experiment,NULL,Video,progression,buffer,0.012647,1687288057753,60eef7de7fbae0b24bae2a84,60eef7de7fbae0b24bae2a84,3,clean,critical,C,50,clean40.jpg,clean60.jpg,low,NULL
1687288132,e472f06505067faaf5d827c850c6d087,PennController,6,0,experiment,NULL,Selector,choice,Selection,option2,1687288064209,60eef7de7fbae0b24bae2a84,60eef7de7fbae0b24bae2a84,3,clean,critical,C,50,clean40.jpg,clean60.jpg,low,option1;option2
1687288132,e472f06505067faaf5d827c850c6d087,PennController,6,0,experiment,NULL,PennController,5,_Trial_,End,1687288064211,60eef7de7fbae0b24bae2a84,60eef7de7fbae0b24bae2a84,3,clean,critical,C,50,clean40.jpg,clean60.jpg,low,NULL
1687288132,e472f06505067faaf5d827c850c6d087,PennController,25,0,experiment,NULL,PennController,24,_Trial_,Start,1687288064212,60eef7de7fbae0b24bae2a84,60eef7de7fbae0b24bae2a84,22,wall,filler,C,75,wall65.jpg,wall85.jpg,GoalB,NULL
1687288132,e472f06505067faaf5d827c850c6d087,PennController,25,0,experiment,NULL,PennController,24,_Header_,Start,1687288064212,60eef7de7fbae0b24bae2a84,60eef7de7fbae0b24bae2a84,22,wall,filler,C,75,wall65.jpg,wall85.jpg,GoalB,NULL
1687288132,e472f06505067faaf5d827c850c6d087,PennController,25,0,experiment,NULL,PennController,24,_Header_,End,1687288064212,60eef7de7fbae0b24bae2a84,60eef7de7fbae0b24bae2a84,22,wall,filler,C,75,wall65.jpg,wall85.jpg,GoalB,NULL
1687288132,e472f06505067faaf5d827c850c6d087,PennController,25,0,experiment,NULL,Canvas,canvas6,Print,NA,1687288071915,60eef7de7fbae0b24bae2a84,60eef7de7fbae0b24bae2a84,22,wall,filler,C,75,wall65.jpg,wall85.jpg,GoalB,NULL
1687288132,e472f06505067faaf5d827c850c6d087,PennController,25,0,experiment,NULL,Video,progression,buffer,0.012909,1687288067753,60eef7de7fbae0b24bae2a84,60eef7de7fbae0b24bae2a84,22,wall,filler,C,75,wall65.jpg,wall85.jpg,GoalB,NULL
1687288132,e472f06505067faaf5d827c850c6d087,PennController,25,0,experiment,NULL,Selector,choice,Selection,option2,1687288078079,60eef7de7fbae0b24bae2a84,60eef7de7fbae0b24bae2a84,22,wall,filler,C,75,wall65.jpg,wall85.jpg,GoalB,option1;option2
1687288132,e472f06505067faaf5d827c850c6d087,PennController,25,0,experiment,NULL,PennController,24,_Trial_,End,1687288078084,60eef7de7fbae0b24bae2a84,60eef7de7fbae0b24bae2a84,22,wall,filler,C,75,wall65.jpg,wall85.jpg,GoalB,NULL
1687288132,e472f06505067faaf5d827c850c6d087,PennController,17,0,experiment,NULL,PennController,16,_Trial_,Start,1687288078089,60eef7de7fbae0b24bae2a84,60eef7de7fbae0b24bae2a84,14,cover,critical,C,25,cover15.jpg,cover33.jpg,low,NULL
1687288132,e472f06505067faaf5d827c850c6d087,PennController,17,0,experiment,NULL,PennController,16,_Header_,Start,1687288078089,60eef7de7fbae0b24bae2a84,60eef7de7fbae0b24bae2a84,14,cover,critical,C,25,cover15.jpg,cover33.jpg,low,NULL
1687288132,e472f06505067faaf5d827c850c6d087,PennController,17,0,experiment,NULL,PennController,16,_Header_,End,1687288078089,60eef7de7fbae0b24bae2a84,60eef7de7fbae0b24bae2a84,14,cover,critical,C,25,cover15.jpg,cover33.jpg,low,NULL
1687288132,e472f06505067faaf5d827c850c6d087,PennController,17,0,experiment,NULL,Canvas,canvas6,Print,NA,1687288084388,60eef7de7fbae0b24bae2a84,60eef7de7fbae0b24bae2a84,14,cover,critical,C,25,cover15.jpg,cover33.jpg,low,NULL
1687288132,e472f06505067faaf5d827c850c6d087,PennController,17,0,experiment,NULL,Video,progression,buffer,0.005353,1687288081611,60eef7de7fbae0b24bae2a84,60eef7de7fbae0b24bae2a84,14,cover,critical,C,25,cover15.jpg,cover33.jpg,low,NULL
1687288132,e472f06505067faaf5d827c850c6d087,PennController,17,0,experiment,NULL,Selector,choice,Selection,option1,1687288086381,60eef7de7fbae0b24bae2a84,60eef7de7fbae0b24bae2a84,14,cover,critical,C,25,cover15.jpg,cover33.jpg,low,option2;option1
1687288132,e472f06505067faaf5d827c850c6d087,PennController,17,0,experiment,NULL,PennController,16,_Trial_,End,1687288086383,60eef7de7fbae0b24bae2a84,60eef7de7fbae0b24bae2a84,14,cover,critical,C,25,cover15.jpg,cover33.jpg,low,NULL
1687288132,e472f06505067faaf5d827c850c6d087,PennController,19,0,experiment,NULL,PennController,18,_Trial_,Start,1687288086385,60eef7de7fbae0b24bae2a84,60eef7de7fbae0b24bae2a84,16,blinds,critical,C,75,blinds66.jpg,blinds84.jpg,low,NULL
1687288132,e472f06505067faaf5d827c850c6d087,PennController,19,0,experiment,NULL,PennController,18,_Header_,Start,1687288086385,60eef7de7fbae0b24bae2a84,60eef7de7fbae0b24bae2a84,16,blinds,critical,C,75,blinds66.jpg,blinds84.jpg,low,NULL
1687288132,e472f06505067faaf5d827c850c6d087,PennController,19,0,experiment,NULL,PennController,18,_Header_,End,1687288086385,60eef7de7fbae0b24bae2a84,60eef7de7fbae0b24bae2a84,16,blinds,critical,C,75,blinds66.jpg,blinds84.jpg,low,NULL
1687288132,e472f06505067faaf5d827c850c6d087,PennController,19,0,experiment,NULL,Canvas,canvas6,Print,NA,1687288096067,60eef7de7fbae0b24bae2a84,60eef7de7fbae0b24bae2a84,16,blinds,critical,C,75,blinds66.jpg,blinds84.jpg,low,NULL
1687288132,e472f06505067faaf5d827c850c6d087,PennController,19,0,experiment,NULL,Video,progression,buffer,0.006373,1687288089913,60eef7de7fbae0b24bae2a84,60eef7de7fbae0b24bae2a84,16,blinds,critical,C,75,blinds66.jpg,blinds84.jpg,low,NULL
1687288132,e472f06505067faaf5d827c850c6d087,PennController,19,0,experiment,NULL,Selector,choice,Selection,option2,1687288098683,60eef7de7fbae0b24bae2a84,60eef7de7fbae0b24bae2a84,16,blinds,critical,C,75,blinds66.jpg,blinds84.jpg,low,option1;option2
1687288132,e472f06505067faaf5d827c850c6d087,PennController,19,0,experiment,NULL,PennController,18,_Trial_,End,1687288098684,60eef7de7fbae0b24bae2a84,60eef7de7fbae0b24bae2a84,16,blinds,critical,C,75,blinds66.jpg,blinds84.jpg,low,NULL
1687288132,e472f06505067faaf5d827c850c6d087,PennController,4,0,experiment,NULL,PennController,3,_Trial_,Start,1687288098685,60eef7de7fbae0b24bae2a84,60eef7de7fbae0b24bae2a84,1,vase,critical,C,75,vase65.jpg,vase85.jpg,low,NULL
1687288132,e472f06505067faaf5d827c850c6d087,PennController,4,0,experiment,NULL,PennController,3,_Header_,Start,1687288098685,60eef7de7fbae0b24bae2a84,60eef7de7fbae0b24bae2a84,1,vase,critical,C,75,vase65.jpg,vase85.jpg,low,NULL
1687288132,e472f06505067faaf5d827c850c6d087,PennController,4,0,experiment,NULL,PennController,3,_Header_,End,1687288098685,60eef7de7fbae0b24bae2a84,60eef7de7fbae0b24bae2a84,1,vase,critical,C,75,vase65.jpg,vase85.jpg,low,NULL
1687288132,e472f06505067faaf5d827c850c6d087,PennController,4,0,experiment,NULL,Canvas,canvas6,Print,NA,1687288106385,60eef7de7fbae0b24bae2a84,60eef7de7fbae0b24bae2a84,1,vase,critical,C,75,vase65.jpg,vase85.jpg,low,NULL
1687288132,e472f06505067faaf5d827c850c6d087,PennController,4,0,experiment,NULL,Video,progression,buffer,0.005263,1687288102209,60eef7de7fbae0b24bae2a84,60eef7de7fbae0b24bae2a84,1,vase,critical,C,75,vase65.jpg,vase85.jpg,low,NULL
1687288132,e472f06505067faaf5d827c850c6d087,PennController,4,0,experiment,NULL,Selector,choice,Selection,option1,1687288108041,60eef7de7fbae0b24bae2a84,60eef7de7fbae0b24bae2a84,1,vase,critical,C,75,vase65.jpg,vase85.jpg,low,option2;option1
1687288132,e472f06505067faaf5d827c850c6d087,PennController,4,0,experiment,NULL,PennController,3,_Trial_,End,1687288108042,60eef7de7fbae0b24bae2a84,60eef7de7fbae0b24bae2a84,1,vase,critical,C,75,vase65.jpg,vase85.jpg,low,NULL
1687288132,e472f06505067faaf5d827c850c6d087,PennController,10,0,experiment,NULL,PennController,9,_Trial_,Start,1687288108043,60eef7de7fbae0b24bae2a84,60eef7de7fbae0b24bae2a84,7,stack,critical,C,75,stack65.jpg,stack85.jpg,low,NULL
1687288132,e472f06505067faaf5d827c850c6d087,PennController,10,0,experiment,NULL,PennController,9,_Header_,Start,1687288108043,60eef7de7fbae0b24bae2a84,60eef7de7fbae0b24bae2a84,7,stack,critical,C,75,stack65.jpg,stack85.jpg,low,NULL
1687288132,e472f06505067faaf5d827c850c6d087,PennController,10,0,experiment,NULL,PennController,9,_Header_,End,1687288108043,60eef7de7fbae0b24bae2a84,60eef7de7fbae0b24bae2a84,7,stack,critical,C,75,stack65.jpg,stack85.jpg,low,NULL
1687288132,e472f06505067faaf5d827c850c6d087,PennController,10,0,experiment,NULL,Canvas,canvas6,Print,NA,1687288115739,60eef7de7fbae0b24bae2a84,60eef7de7fbae0b24bae2a84,7,stack,critical,C,75,stack65.jpg,stack85.jpg,low,NULL
1687288132,e472f06505067faaf5d827c850c6d087,PennController,10,0,experiment,NULL,Video,progression,buffer,0.004997,1687288111571,60eef7de7fbae0b24bae2a84,60eef7de7fbae0b24bae2a84,7,stack,critical,C,75,stack65.jpg,stack85.jpg,low,NULL
1687288132,e472f06505067faaf5d827c850c6d087,PennController,10,0,experiment,NULL,Selector,choice,Selection,option1,1687288121816,60eef7de7fbae0b24bae2a84,60eef7de7fbae0b24bae2a84,7,stack,critical,C,75,stack65.jpg,stack85.jpg,low,option1;option2
1687288132,e472f06505067faaf5d827c850c6d087,PennController,10,0,experiment,NULL,PennController,9,_Trial_,End,1687288121817,60eef7de7fbae0b24bae2a84,60eef7de7fbae0b24bae2a84,7,stack,critical,C,75,stack65.jpg,stack85.jpg,low,NULL
