#
# Results on Thursday June 22 2023 05:35:54 UTC
# USER AGENT: Mozilla/5.0 (Windows NT 10.0; Win64; x64; rv:109.0) Gecko/20100101 Firefox/114.0
# Design number was non-random = 83
#
# Columns below this comment are as follows:
# 1. Results reception time.
# 2. MD5 hash of participant's IP address.
# 3. Controller name.
# 4. Order number of item.
# 5. Inner element number.
# 6. Label.
# 7. Latin Square Group.
# 8. PennElementType.
# 9. PennElementName.
# 10. Parameter.
# 11. Value.
# 12. EventTime.
# 13. PROLIFIC_ID.
# 14. Comments.
1687412154,5de3f796107a017efcccf36bc3ddbdbd,PennController,3,0,consent,NULL,PennController,0,_Trial_,Start,1687411813350,5f23f9035554f32008f8a35e,NULL
1687412154,5de3f796107a017efcccf36bc3ddbdbd,PennController,3,0,consent,NULL,PennController,0,_Header_,Start,1687411813350,5f23f9035554f32008f8a35e,NULL
1687412154,5de3f796107a017efcccf36bc3ddbdbd,PennController,3,0,consent,NULL,PennController,0,_Header_,End,1687411813350,5f23f9035554f32008f8a35e,NULL
1687412154,5de3f796107a017efcccf36bc3ddbdbd,PennController,3,0,consent,NULL,PennController,0,_Trial_,End,1687411841479,5f23f9035554f32008f8a35e,NULL
# Columns below this comment are as follows:
# 14. ID.
# 15. Comments.
1687412154,5de3f796107a017efcccf36bc3ddbdbd,PennController,4,0,intro,NULL,PennController,1,_Trial_,Start,1687411841482,5f23f9035554f32008f8a35e,5f23f9035554f32008f8a35e,NULL
1687412154,5de3f796107a017efcccf36bc3ddbdbd,PennController,4,0,intro,NULL,PennController,1,_Header_,Start,1687411841482,5f23f9035554f32008f8a35e,5f23f9035554f32008f8a35e,NULL
1687412154,5de3f796107a017efcccf36bc3ddbdbd,PennController,4,0,intro,NULL,PennController,1,_Header_,End,1687411841482,5f23f9035554f32008f8a35e,5f23f9035554f32008f8a35e,NULL
1687412154,5de3f796107a017efcccf36bc3ddbdbd,PennController,4,0,intro,NULL,PennController,1,_Trial_,End,1687411858721,5f23f9035554f32008f8a35e,5f23f9035554f32008f8a35e,NULL
# Columns below this comment are as follows:
# 15. item_number.
# 16. item.
# 17. type.
# 18. Group.
# 19. prog.
# 20. prev_image.
# 21. next_image.
# 22. height.
# 23. Comments.
1687412154,5de3f796107a017efcccf36bc3ddbdbd,PennController,5,0,experiment,NULL,PennController,3,_Trial_,Start,1687411858722,5f23f9035554f32008f8a35e,5f23f9035554f32008f8a35e,1,vase,critical,A,25,vase15.jpg,vase35.jpg,low,NULL
1687412154,5de3f796107a017efcccf36bc3ddbdbd,PennController,5,0,experiment,NULL,PennController,3,_Header_,Start,1687411858722,5f23f9035554f32008f8a35e,5f23f9035554f32008f8a35e,1,vase,critical,A,25,vase15.jpg,vase35.jpg,low,NULL
1687412154,5de3f796107a017efcccf36bc3ddbdbd,PennController,5,0,experiment,NULL,PennController,3,_Header_,End,1687411858722,5f23f9035554f32008f8a35e,5f23f9035554f32008f8a35e,1,vase,critical,A,25,vase15.jpg,vase35.jpg,low,NULL
1687412154,5de3f796107a017efcccf36bc3ddbdbd,PennController,5,0,experiment,NULL,Video,progression,buffer,0,1687411862288,5f23f9035554f32008f8a35e,5f23f9035554f32008f8a35e,1,vase,critical,A,25,vase15.jpg,vase35.jpg,low,NULL
1687412154,5de3f796107a017efcccf36bc3ddbdbd,PennController,5,0,experiment,NULL,Canvas,canvas6,Print,NA,1687411864527,5f23f9035554f32008f8a35e,5f23f9035554f32008f8a35e,1,vase,critical,A,25,vase15.jpg,vase35.jpg,low,NULL
1687412154,5de3f796107a017efcccf36bc3ddbdbd,PennController,5,0,experiment,NULL,Selector,choice,Selection,option2,1687411867996,5f23f9035554f32008f8a35e,5f23f9035554f32008f8a35e,1,vase,critical,A,25,vase15.jpg,vase35.jpg,low,option1;option2
1687412154,5de3f796107a017efcccf36bc3ddbdbd,PennController,5,0,experiment,NULL,PennController,3,_Trial_,End,1687411867998,5f23f9035554f32008f8a35e,5f23f9035554f32008f8a35e,1,vase,critical,A,25,vase15.jpg,vase35.jpg,low,NULL
1687412154,5de3f796107a017efcccf36bc3ddbdbd,PennController,23,0,experiment,NULL,PennController,21,_Trial_,Start,1687411868000,5f23f9035554f32008f8a35e,5f23f9035554f32008f8a35e,19,cup,filler,A,25,cup15.jpg,cup35.jpg,GoalA,NULL
1687412154,5de3f796107a017efcccf36bc3ddbdbd,PennController,23,0,experiment,NULL,PennController,21,_Header_,Start,1687411868000,5f23f9035554f32008f8a35e,5f23f9035554f32008f8a35e,19,cup,filler,A,25,cup15.jpg,cup35.jpg,GoalA,NULL
1687412154,5de3f796107a017efcccf36bc3ddbdbd,PennController,23,0,experiment,NULL,PennController,21,_Header_,End,1687411868000,5f23f9035554f32008f8a35e,5f23f9035554f32008f8a35e,19,cup,filler,A,25,cup15.jpg,cup35.jpg,GoalA,NULL
1687412154,5de3f796107a017efcccf36bc3ddbdbd,PennController,23,0,experiment,NULL,Video,progression,buffer,0,1687411871559,5f23f9035554f32008f8a35e,5f23f9035554f32008f8a35e,19,cup,filler,A,25,cup15.jpg,cup35.jpg,GoalA,NULL
1687412154,5de3f796107a017efcccf36bc3ddbdbd,PennController,23,0,experiment,NULL,Canvas,canvas6,Print,NA,1687411873797,5f23f9035554f32008f8a35e,5f23f9035554f32008f8a35e,19,cup,filler,A,25,cup15.jpg,cup35.jpg,GoalA,NULL
1687412154,5de3f796107a017efcccf36bc3ddbdbd,PennController,23,0,experiment,NULL,Selector,choice,Selection,option2,1687411875483,5f23f9035554f32008f8a35e,5f23f9035554f32008f8a35e,19,cup,filler,A,25,cup15.jpg,cup35.jpg,GoalA,option2;option1
1687412154,5de3f796107a017efcccf36bc3ddbdbd,PennController,23,0,experiment,NULL,PennController,21,_Trial_,End,1687411875485,5f23f9035554f32008f8a35e,5f23f9035554f32008f8a35e,19,cup,filler,A,25,cup15.jpg,cup35.jpg,GoalA,NULL
1687412154,5de3f796107a017efcccf36bc3ddbdbd,PennController,21,0,experiment,NULL,PennController,19,_Trial_,Start,1687411875486,5f23f9035554f32008f8a35e,5f23f9035554f32008f8a35e,17,roll,critical,A,50,roll40.jpg,roll60.jpg,low,NULL
1687412154,5de3f796107a017efcccf36bc3ddbdbd,PennController,21,0,experiment,NULL,PennController,19,_Header_,Start,1687411875486,5f23f9035554f32008f8a35e,5f23f9035554f32008f8a35e,17,roll,critical,A,50,roll40.jpg,roll60.jpg,low,NULL
1687412154,5de3f796107a017efcccf36bc3ddbdbd,PennController,21,0,experiment,NULL,PennController,19,_Header_,End,1687411875486,5f23f9035554f32008f8a35e,5f23f9035554f32008f8a35e,17,roll,critical,A,50,roll40.jpg,roll60.jpg,low,NULL
1687412154,5de3f796107a017efcccf36bc3ddbdbd,PennController,21,0,experiment,NULL,Video,progression,buffer,0,1687411879026,5f23f9035554f32008f8a35e,5f23f9035554f32008f8a35e,17,roll,critical,A,50,roll40.jpg,roll60.jpg,low,NULL
1687412154,5de3f796107a017efcccf36bc3ddbdbd,PennController,21,0,experiment,NULL,Canvas,canvas6,Print,NA,1687411882262,5f23f9035554f32008f8a35e,5f23f9035554f32008f8a35e,17,roll,critical,A,50,roll40.jpg,roll60.jpg,low,NULL
1687412154,5de3f796107a017efcccf36bc3ddbdbd,PennController,21,0,experiment,NULL,Selector,choice,Selection,option1,1687411885019,5f23f9035554f32008f8a35e,5f23f9035554f32008f8a35e,17,roll,critical,A,50,roll40.jpg,roll60.jpg,low,option1;option2
1687412154,5de3f796107a017efcccf36bc3ddbdbd,PennController,21,0,experiment,NULL,PennController,19,_Trial_,End,1687411885023,5f23f9035554f32008f8a35e,5f23f9035554f32008f8a35e,17,roll,critical,A,50,roll40.jpg,roll60.jpg,low,NULL
1687412154,5de3f796107a017efcccf36bc3ddbdbd,PennController,16,0,experiment,NULL,PennController,14,_Trial_,Start,1687411885027,5f23f9035554f32008f8a35e,5f23f9035554f32008f8a35e,12,erase,critical,A,75,erase66.jpg,erase84.jpg,low,NULL
1687412154,5de3f796107a017efcccf36bc3ddbdbd,PennController,16,0,experiment,NULL,PennController,14,_Header_,Start,1687411885027,5f23f9035554f32008f8a35e,5f23f9035554f32008f8a35e,12,erase,critical,A,75,erase66.jpg,erase84.jpg,low,NULL
1687412154,5de3f796107a017efcccf36bc3ddbdbd,PennController,16,0,experiment,NULL,PennController,14,_Header_,End,1687411885027,5f23f9035554f32008f8a35e,5f23f9035554f32008f8a35e,12,erase,critical,A,75,erase66.jpg,erase84.jpg,low,NULL
1687412154,5de3f796107a017efcccf36bc3ddbdbd,PennController,16,0,experiment,NULL,Video,progression,buffer,0,1687411888555,5f23f9035554f32008f8a35e,5f23f9035554f32008f8a35e,12,erase,critical,A,75,erase66.jpg,erase84.jpg,low,NULL
1687412154,5de3f796107a017efcccf36bc3ddbdbd,PennController,16,0,experiment,NULL,Canvas,canvas6,Print,NA,1687411894797,5f23f9035554f32008f8a35e,5f23f9035554f32008f8a35e,12,erase,critical,A,75,erase66.jpg,erase84.jpg,low,NULL
1687412154,5de3f796107a017efcccf36bc3ddbdbd,PennController,16,0,experiment,NULL,Selector,choice,Selection,option2,1687411903459,5f23f9035554f32008f8a35e,5f23f9035554f32008f8a35e,12,erase,critical,A,75,erase66.jpg,erase84.jpg,low,option1;option2
1687412154,5de3f796107a017efcccf36bc3ddbdbd,PennController,16,0,experiment,NULL,PennController,14,_Trial_,End,1687411903460,5f23f9035554f32008f8a35e,5f23f9035554f32008f8a35e,12,erase,critical,A,75,erase66.jpg,erase84.jpg,low,NULL
1687412154,5de3f796107a017efcccf36bc3ddbdbd,PennController,25,0,experiment,NULL,PennController,23,_Trial_,Start,1687411903461,5f23f9035554f32008f8a35e,5f23f9035554f32008f8a35e,21,visit,filler,A,75,visit65.jpg,visit85.jpg,GoalA,NULL
1687412154,5de3f796107a017efcccf36bc3ddbdbd,PennController,25,0,experiment,NULL,PennController,23,_Header_,Start,1687411903461,5f23f9035554f32008f8a35e,5f23f9035554f32008f8a35e,21,visit,filler,A,75,visit65.jpg,visit85.jpg,GoalA,NULL
1687412154,5de3f796107a017efcccf36bc3ddbdbd,PennController,25,0,experiment,NULL,PennController,23,_Header_,End,1687411903461,5f23f9035554f32008f8a35e,5f23f9035554f32008f8a35e,21,visit,filler,A,75,visit65.jpg,visit85.jpg,GoalA,NULL
1687412154,5de3f796107a017efcccf36bc3ddbdbd,PennController,25,0,experiment,NULL,Video,progression,buffer,0,1687411906993,5f23f9035554f32008f8a35e,5f23f9035554f32008f8a35e,21,visit,filler,A,75,visit65.jpg,visit85.jpg,GoalA,NULL
1687412154,5de3f796107a017efcccf36bc3ddbdbd,PennController,25,0,experiment,NULL,Canvas,canvas6,Print,NA,1687411911235,5f23f9035554f32008f8a35e,5f23f9035554f32008f8a35e,21,visit,filler,A,75,visit65.jpg,visit85.jpg,GoalA,NULL
1687412154,5de3f796107a017efcccf36bc3ddbdbd,PennController,25,0,experiment,NULL,Selector,choice,Selection,option2,1687411922449,5f23f9035554f32008f8a35e,5f23f9035554f32008f8a35e,21,visit,filler,A,75,visit65.jpg,visit85.jpg,GoalA,option1;option2
1687412154,5de3f796107a017efcccf36bc3ddbdbd,PennController,25,0,experiment,NULL,PennController,23,_Trial_,End,1687411922450,5f23f9035554f32008f8a35e,5f23f9035554f32008f8a35e,21,visit,filler,A,75,visit65.jpg,visit85.jpg,GoalA,NULL
1687412154,5de3f796107a017efcccf36bc3ddbdbd,PennController,27,0,experiment,NULL,PennController,25,_Trial_,Start,1687411922451,5f23f9035554f32008f8a35e,5f23f9035554f32008f8a35e,23,color,filler,A,50,color40.jpg,color60.jpg,GoalA,NULL
1687412154,5de3f796107a017efcccf36bc3ddbdbd,PennController,27,0,experiment,NULL,PennController,25,_Header_,Start,1687411922451,5f23f9035554f32008f8a35e,5f23f9035554f32008f8a35e,23,color,filler,A,50,color40.jpg,color60.jpg,GoalA,NULL
1687412154,5de3f796107a017efcccf36bc3ddbdbd,PennController,27,0,experiment,NULL,PennController,25,_Header_,End,1687411922451,5f23f9035554f32008f8a35e,5f23f9035554f32008f8a35e,23,color,filler,A,50,color40.jpg,color60.jpg,GoalA,NULL
1687412154,5de3f796107a017efcccf36bc3ddbdbd,PennController,27,0,experiment,NULL,Video,progression,buffer,0,1687411925984,5f23f9035554f32008f8a35e,5f23f9035554f32008f8a35e,23,color,filler,A,50,color40.jpg,color60.jpg,GoalA,NULL
1687412154,5de3f796107a017efcccf36bc3ddbdbd,PennController,27,0,experiment,NULL,Canvas,canvas6,Print,NA,1687411929212,5f23f9035554f32008f8a35e,5f23f9035554f32008f8a35e,23,color,filler,A,50,color40.jpg,color60.jpg,GoalA,NULL
1687412154,5de3f796107a017efcccf36bc3ddbdbd,PennController,27,0,experiment,NULL,Selector,choice,Selection,option2,1687411934513,5f23f9035554f32008f8a35e,5f23f9035554f32008f8a35e,23,color,filler,A,50,color40.jpg,color60.jpg,GoalA,option1;option2
1687412154,5de3f796107a017efcccf36bc3ddbdbd,PennController,27,0,experiment,NULL,PennController,25,_Trial_,End,1687411934514,5f23f9035554f32008f8a35e,5f23f9035554f32008f8a35e,23,color,filler,A,50,color40.jpg,color60.jpg,GoalA,NULL
1687412154,5de3f796107a017efcccf36bc3ddbdbd,PennController,13,0,experiment,NULL,PennController,11,_Trial_,Start,1687411934515,5f23f9035554f32008f8a35e,5f23f9035554f32008f8a35e,9,cake,critical,A,75,cake66.jpg,cake84.jpg,low,NULL
1687412154,5de3f796107a017efcccf36bc3ddbdbd,PennController,13,0,experiment,NULL,PennController,11,_Header_,Start,1687411934515,5f23f9035554f32008f8a35e,5f23f9035554f32008f8a35e,9,cake,critical,A,75,cake66.jpg,cake84.jpg,low,NULL
1687412154,5de3f796107a017efcccf36bc3ddbdbd,PennController,13,0,experiment,NULL,PennController,11,_Header_,End,1687411934515,5f23f9035554f32008f8a35e,5f23f9035554f32008f8a35e,9,cake,critical,A,75,cake66.jpg,cake84.jpg,low,NULL
1687412154,5de3f796107a017efcccf36bc3ddbdbd,PennController,13,0,experiment,NULL,Video,progression,buffer,0,1687411938064,5f23f9035554f32008f8a35e,5f23f9035554f32008f8a35e,9,cake,critical,A,75,cake66.jpg,cake84.jpg,low,NULL
1687412154,5de3f796107a017efcccf36bc3ddbdbd,PennController,13,0,experiment,NULL,Canvas,canvas6,Print,NA,1687411944298,5f23f9035554f32008f8a35e,5f23f9035554f32008f8a35e,9,cake,critical,A,75,cake66.jpg,cake84.jpg,low,NULL
1687412154,5de3f796107a017efcccf36bc3ddbdbd,PennController,13,0,experiment,NULL,Selector,choice,Selection,option2,1687411945425,5f23f9035554f32008f8a35e,5f23f9035554f32008f8a35e,9,cake,critical,A,75,cake66.jpg,cake84.jpg,low,option2;option1
1687412154,5de3f796107a017efcccf36bc3ddbdbd,PennController,13,0,experiment,NULL,PennController,11,_Trial_,End,1687411945426,5f23f9035554f32008f8a35e,5f23f9035554f32008f8a35e,9,cake,critical,A,75,cake66.jpg,cake84.jpg,low,NULL
1687412154,5de3f796107a017efcccf36bc3ddbdbd,PennController,24,0,experiment,NULL,PennController,22,_Trial_,Start,1687411945427,5f23f9035554f32008f8a35e,5f23f9035554f32008f8a35e,20,cat,filler,A,50,cat40.jpg,cat60.jpg,GoalB,NULL
1687412154,5de3f796107a017efcccf36bc3ddbdbd,PennController,24,0,experiment,NULL,PennController,22,_Header_,Start,1687411945427,5f23f9035554f32008f8a35e,5f23f9035554f32008f8a35e,20,cat,filler,A,50,cat40.jpg,cat60.jpg,GoalB,NULL
1687412154,5de3f796107a017efcccf36bc3ddbdbd,PennController,24,0,experiment,NULL,PennController,22,_Header_,End,1687411945427,5f23f9035554f32008f8a35e,5f23f9035554f32008f8a35e,20,cat,filler,A,50,cat40.jpg,cat60.jpg,GoalB,NULL
1687412154,5de3f796107a017efcccf36bc3ddbdbd,PennController,24,0,experiment,NULL,Video,progression,buffer,0,1687411948968,5f23f9035554f32008f8a35e,5f23f9035554f32008f8a35e,20,cat,filler,A,50,cat40.jpg,cat60.jpg,GoalB,NULL
1687412154,5de3f796107a017efcccf36bc3ddbdbd,PennController,24,0,experiment,NULL,Canvas,canvas6,Print,NA,1687411952199,5f23f9035554f32008f8a35e,5f23f9035554f32008f8a35e,20,cat,filler,A,50,cat40.jpg,cat60.jpg,GoalB,NULL
1687412154,5de3f796107a017efcccf36bc3ddbdbd,PennController,24,0,experiment,NULL,Selector,choice,Selection,option2,1687411953383,5f23f9035554f32008f8a35e,5f23f9035554f32008f8a35e,20,cat,filler,A,50,cat40.jpg,cat60.jpg,GoalB,option1;option2
1687412154,5de3f796107a017efcccf36bc3ddbdbd,PennController,24,0,experiment,NULL,PennController,22,_Trial_,End,1687411953385,5f23f9035554f32008f8a35e,5f23f9035554f32008f8a35e,20,cat,filler,A,50,cat40.jpg,cat60.jpg,GoalB,NULL
1687412154,5de3f796107a017efcccf36bc3ddbdbd,PennController,29,0,experiment,NULL,PennController,27,_Trial_,Start,1687411953386,5f23f9035554f32008f8a35e,5f23f9035554f32008f8a35e,25,house,filler,A,25,house15.jpg,house35.jpg,GoalA,NULL
1687412154,5de3f796107a017efcccf36bc3ddbdbd,PennController,29,0,experiment,NULL,PennController,27,_Header_,Start,1687411953386,5f23f9035554f32008f8a35e,5f23f9035554f32008f8a35e,25,house,filler,A,25,house15.jpg,house35.jpg,GoalA,NULL
1687412154,5de3f796107a017efcccf36bc3ddbdbd,PennController,29,0,experiment,NULL,PennController,27,_Header_,End,1687411953386,5f23f9035554f32008f8a35e,5f23f9035554f32008f8a35e,25,house,filler,A,25,house15.jpg,house35.jpg,GoalA,NULL
1687412154,5de3f796107a017efcccf36bc3ddbdbd,PennController,29,0,experiment,NULL,Video,progression,buffer,0,1687411956918,5f23f9035554f32008f8a35e,5f23f9035554f32008f8a35e,25,house,filler,A,25,house15.jpg,house35.jpg,GoalA,NULL
1687412154,5de3f796107a017efcccf36bc3ddbdbd,PennController,29,0,experiment,NULL,Canvas,canvas6,Print,NA,1687411959152,5f23f9035554f32008f8a35e,5f23f9035554f32008f8a35e,25,house,filler,A,25,house15.jpg,house35.jpg,GoalA,NULL
1687412154,5de3f796107a017efcccf36bc3ddbdbd,PennController,29,0,experiment,NULL,Selector,choice,Selection,option2,1687411960170,5f23f9035554f32008f8a35e,5f23f9035554f32008f8a35e,25,house,filler,A,25,house15.jpg,house35.jpg,GoalA,option2;option1
1687412154,5de3f796107a017efcccf36bc3ddbdbd,PennController,29,0,experiment,NULL,PennController,27,_Trial_,End,1687411960171,5f23f9035554f32008f8a35e,5f23f9035554f32008f8a35e,25,house,filler,A,25,house15.jpg,house35.jpg,GoalA,NULL
1687412154,5de3f796107a017efcccf36bc3ddbdbd,PennController,31,0,experiment,NULL,PennController,29,_Trial_,Start,1687411960172,5f23f9035554f32008f8a35e,5f23f9035554f32008f8a35e,27,square,filler,A,75,square65.jpg,square85.jpg,GoalA,NULL
1687412154,5de3f796107a017efcccf36bc3ddbdbd,PennController,31,0,experiment,NULL,PennController,29,_Header_,Start,1687411960172,5f23f9035554f32008f8a35e,5f23f9035554f32008f8a35e,27,square,filler,A,75,square65.jpg,square85.jpg,GoalA,NULL
1687412154,5de3f796107a017efcccf36bc3ddbdbd,PennController,31,0,experiment,NULL,PennController,29,_Header_,End,1687411960172,5f23f9035554f32008f8a35e,5f23f9035554f32008f8a35e,27,square,filler,A,75,square65.jpg,square85.jpg,GoalA,NULL
1687412154,5de3f796107a017efcccf36bc3ddbdbd,PennController,31,0,experiment,NULL,Video,progression,buffer,0,1687411963709,5f23f9035554f32008f8a35e,5f23f9035554f32008f8a35e,27,square,filler,A,75,square65.jpg,square85.jpg,GoalA,NULL
1687412154,5de3f796107a017efcccf36bc3ddbdbd,PennController,31,0,experiment,NULL,Canvas,canvas6,Print,NA,1687411967938,5f23f9035554f32008f8a35e,5f23f9035554f32008f8a35e,27,square,filler,A,75,square65.jpg,square85.jpg,GoalA,NULL
1687412154,5de3f796107a017efcccf36bc3ddbdbd,PennController,31,0,experiment,NULL,Selector,choice,Selection,option1,1687411969769,5f23f9035554f32008f8a35e,5f23f9035554f32008f8a35e,27,square,filler,A,75,square65.jpg,square85.jpg,GoalA,option2;option1
1687412154,5de3f796107a017efcccf36bc3ddbdbd,PennController,31,0,experiment,NULL,PennController,29,_Trial_,End,1687411969770,5f23f9035554f32008f8a35e,5f23f9035554f32008f8a35e,27,square,filler,A,75,square65.jpg,square85.jpg,GoalA,NULL
1687412154,5de3f796107a017efcccf36bc3ddbdbd,PennController,7,0,experiment,NULL,PennController,5,_Trial_,Start,1687411969770,5f23f9035554f32008f8a35e,5f23f9035554f32008f8a35e,3,clean,critical,A,75,clean65.jpg,clean85.jpg,low,NULL
1687412154,5de3f796107a017efcccf36bc3ddbdbd,PennController,7,0,experiment,NULL,PennController,5,_Header_,Start,1687411969770,5f23f9035554f32008f8a35e,5f23f9035554f32008f8a35e,3,clean,critical,A,75,clean65.jpg,clean85.jpg,low,NULL
1687412154,5de3f796107a017efcccf36bc3ddbdbd,PennController,7,0,experiment,NULL,PennController,5,_Header_,End,1687411969770,5f23f9035554f32008f8a35e,5f23f9035554f32008f8a35e,3,clean,critical,A,75,clean65.jpg,clean85.jpg,low,NULL
1687412154,5de3f796107a017efcccf36bc3ddbdbd,PennController,7,0,experiment,NULL,Video,progression,buffer,0,1687411973291,5f23f9035554f32008f8a35e,5f23f9035554f32008f8a35e,3,clean,critical,A,75,clean65.jpg,clean85.jpg,low,NULL
1687412154,5de3f796107a017efcccf36bc3ddbdbd,PennController,7,0,experiment,NULL,Canvas,canvas6,Print,NA,1687411977529,5f23f9035554f32008f8a35e,5f23f9035554f32008f8a35e,3,clean,critical,A,75,clean65.jpg,clean85.jpg,low,NULL
1687412154,5de3f796107a017efcccf36bc3ddbdbd,PennController,7,0,experiment,NULL,Selector,choice,Selection,option1,1687411978604,5f23f9035554f32008f8a35e,5f23f9035554f32008f8a35e,3,clean,critical,A,75,clean65.jpg,clean85.jpg,low,option1;option2
1687412154,5de3f796107a017efcccf36bc3ddbdbd,PennController,7,0,experiment,NULL,PennController,5,_Trial_,End,1687411978606,5f23f9035554f32008f8a35e,5f23f9035554f32008f8a35e,3,clean,critical,A,75,clean65.jpg,clean85.jpg,low,NULL
1687412154,5de3f796107a017efcccf36bc3ddbdbd,PennController,14,0,experiment,NULL,PennController,12,_Trial_,Start,1687411978606,5f23f9035554f32008f8a35e,5f23f9035554f32008f8a35e,10,train,critical,A,25,train15.jpg,train35.jpg,low,NULL
1687412154,5de3f796107a017efcccf36bc3ddbdbd,PennController,14,0,experiment,NULL,PennController,12,_Header_,Start,1687411978606,5f23f9035554f32008f8a35e,5f23f9035554f32008f8a35e,10,train,critical,A,25,train15.jpg,train35.jpg,low,NULL
1687412154,5de3f796107a017efcccf36bc3ddbdbd,PennController,14,0,experiment,NULL,PennController,12,_Header_,End,1687411978606,5f23f9035554f32008f8a35e,5f23f9035554f32008f8a35e,10,train,critical,A,25,train15.jpg,train35.jpg,low,NULL
1687412154,5de3f796107a017efcccf36bc3ddbdbd,PennController,14,0,experiment,NULL,Video,progression,buffer,0,1687411982145,5f23f9035554f32008f8a35e,5f23f9035554f32008f8a35e,10,train,critical,A,25,train15.jpg,train35.jpg,low,NULL
1687412154,5de3f796107a017efcccf36bc3ddbdbd,PennController,14,0,experiment,NULL,Canvas,canvas6,Print,NA,1687411984384,5f23f9035554f32008f8a35e,5f23f9035554f32008f8a35e,10,train,critical,A,25,train15.jpg,train35.jpg,low,NULL
1687412154,5de3f796107a017efcccf36bc3ddbdbd,PennController,14,0,experiment,NULL,Selector,choice,Selection,option2,1687411992816,5f23f9035554f32008f8a35e,5f23f9035554f32008f8a35e,10,train,critical,A,25,train15.jpg,train35.jpg,low,option1;option2
1687412154,5de3f796107a017efcccf36bc3ddbdbd,PennController,14,0,experiment,NULL,PennController,12,_Trial_,End,1687411992817,5f23f9035554f32008f8a35e,5f23f9035554f32008f8a35e,10,train,critical,A,25,train15.jpg,train35.jpg,low,NULL
1687412154,5de3f796107a017efcccf36bc3ddbdbd,PennController,28,0,experiment,NULL,PennController,26,_Trial_,Start,1687411992818,5f23f9035554f32008f8a35e,5f23f9035554f32008f8a35e,24,match,filler,A,75,match65.jpg,match85.jpg,GoalB,NULL
1687412154,5de3f796107a017efcccf36bc3ddbdbd,PennController,28,0,experiment,NULL,PennController,26,_Header_,Start,1687411992818,5f23f9035554f32008f8a35e,5f23f9035554f32008f8a35e,24,match,filler,A,75,match65.jpg,match85.jpg,GoalB,NULL
1687412154,5de3f796107a017efcccf36bc3ddbdbd,PennController,28,0,experiment,NULL,PennController,26,_Header_,End,1687411992818,5f23f9035554f32008f8a35e,5f23f9035554f32008f8a35e,24,match,filler,A,75,match65.jpg,match85.jpg,GoalB,NULL
1687412154,5de3f796107a017efcccf36bc3ddbdbd,PennController,28,0,experiment,NULL,Video,progression,buffer,0,1687411996348,5f23f9035554f32008f8a35e,5f23f9035554f32008f8a35e,24,match,filler,A,75,match65.jpg,match85.jpg,GoalB,NULL
1687412154,5de3f796107a017efcccf36bc3ddbdbd,PennController,28,0,experiment,NULL,Canvas,canvas6,Print,NA,1687412000600,5f23f9035554f32008f8a35e,5f23f9035554f32008f8a35e,24,match,filler,A,75,match65.jpg,match85.jpg,GoalB,NULL
1687412154,5de3f796107a017efcccf36bc3ddbdbd,PennController,28,0,experiment,NULL,Selector,choice,Selection,option2,1687412002682,5f23f9035554f32008f8a35e,5f23f9035554f32008f8a35e,24,match,filler,A,75,match65.jpg,match85.jpg,GoalB,option1;option2
1687412154,5de3f796107a017efcccf36bc3ddbdbd,PennController,28,0,experiment,NULL,PennController,26,_Trial_,End,1687412002683,5f23f9035554f32008f8a35e,5f23f9035554f32008f8a35e,24,match,filler,A,75,match65.jpg,match85.jpg,GoalB,NULL
1687412154,5de3f796107a017efcccf36bc3ddbdbd,PennController,18,0,experiment,NULL,PennController,16,_Trial_,Start,1687412002683,5f23f9035554f32008f8a35e,5f23f9035554f32008f8a35e,14,cover,critical,A,50,cover42.jpg,cover60.jpg,low,NULL
1687412154,5de3f796107a017efcccf36bc3ddbdbd,PennController,18,0,experiment,NULL,PennController,16,_Header_,Start,1687412002683,5f23f9035554f32008f8a35e,5f23f9035554f32008f8a35e,14,cover,critical,A,50,cover42.jpg,cover60.jpg,low,NULL
1687412154,5de3f796107a017efcccf36bc3ddbdbd,PennController,18,0,experiment,NULL,PennController,16,_Header_,End,1687412002683,5f23f9035554f32008f8a35e,5f23f9035554f32008f8a35e,14,cover,critical,A,50,cover42.jpg,cover60.jpg,low,NULL
1687412154,5de3f796107a017efcccf36bc3ddbdbd,PennController,18,0,experiment,NULL,Video,progression,buffer,0,1687412006223,5f23f9035554f32008f8a35e,5f23f9035554f32008f8a35e,14,cover,critical,A,50,cover42.jpg,cover60.jpg,low,NULL
1687412154,5de3f796107a017efcccf36bc3ddbdbd,PennController,18,0,experiment,NULL,Canvas,canvas6,Print,NA,1687412010856,5f23f9035554f32008f8a35e,5f23f9035554f32008f8a35e,14,cover,critical,A,50,cover42.jpg,cover60.jpg,low,NULL
1687412154,5de3f796107a017efcccf36bc3ddbdbd,PennController,18,0,experiment,NULL,Selector,choice,Selection,option1,1687412011995,5f23f9035554f32008f8a35e,5f23f9035554f32008f8a35e,14,cover,critical,A,50,cover42.jpg,cover60.jpg,low,option2;option1
1687412154,5de3f796107a017efcccf36bc3ddbdbd,PennController,18,0,experiment,NULL,PennController,16,_Trial_,End,1687412011995,5f23f9035554f32008f8a35e,5f23f9035554f32008f8a35e,14,cover,critical,A,50,cover42.jpg,cover60.jpg,low,NULL
1687412154,5de3f796107a017efcccf36bc3ddbdbd,PennController,22,0,experiment,NULL,PennController,20,_Trial_,Start,1687412011996,5f23f9035554f32008f8a35e,5f23f9035554f32008f8a35e,18,ball,critical,A,75,ball65.jpg,ball85.jpg,low,NULL
1687412154,5de3f796107a017efcccf36bc3ddbdbd,PennController,22,0,experiment,NULL,PennController,20,_Header_,Start,1687412011996,5f23f9035554f32008f8a35e,5f23f9035554f32008f8a35e,18,ball,critical,A,75,ball65.jpg,ball85.jpg,low,NULL
1687412154,5de3f796107a017efcccf36bc3ddbdbd,PennController,22,0,experiment,NULL,PennController,20,_Header_,End,1687412011996,5f23f9035554f32008f8a35e,5f23f9035554f32008f8a35e,18,ball,critical,A,75,ball65.jpg,ball85.jpg,low,NULL
1687412154,5de3f796107a017efcccf36bc3ddbdbd,PennController,22,0,experiment,NULL,Video,progression,buffer,0,1687412015515,5f23f9035554f32008f8a35e,5f23f9035554f32008f8a35e,18,ball,critical,A,75,ball65.jpg,ball85.jpg,low,NULL
1687412154,5de3f796107a017efcccf36bc3ddbdbd,PennController,22,0,experiment,NULL,Canvas,canvas6,Print,NA,1687412019757,5f23f9035554f32008f8a35e,5f23f9035554f32008f8a35e,18,ball,critical,A,75,ball65.jpg,ball85.jpg,low,NULL
1687412154,5de3f796107a017efcccf36bc3ddbdbd,PennController,22,0,experiment,NULL,Selector,choice,Selection,option2,1687412023617,5f23f9035554f32008f8a35e,5f23f9035554f32008f8a35e,18,ball,critical,A,75,ball65.jpg,ball85.jpg,low,option2;option1
1687412154,5de3f796107a017efcccf36bc3ddbdbd,PennController,22,0,experiment,NULL,PennController,20,_Trial_,End,1687412023618,5f23f9035554f32008f8a35e,5f23f9035554f32008f8a35e,18,ball,critical,A,75,ball65.jpg,ball85.jpg,low,NULL
1687412154,5de3f796107a017efcccf36bc3ddbdbd,PennController,15,0,experiment,NULL,PennController,13,_Trial_,Start,1687412023618,5f23f9035554f32008f8a35e,5f23f9035554f32008f8a35e,11,beads,critical,A,50,beads40.jpg,beads60.jpg,low,NULL
1687412154,5de3f796107a017efcccf36bc3ddbdbd,PennController,15,0,experiment,NULL,PennController,13,_Header_,Start,1687412023618,5f23f9035554f32008f8a35e,5f23f9035554f32008f8a35e,11,beads,critical,A,50,beads40.jpg,beads60.jpg,low,NULL
1687412154,5de3f796107a017efcccf36bc3ddbdbd,PennController,15,0,experiment,NULL,PennController,13,_Header_,End,1687412023619,5f23f9035554f32008f8a35e,5f23f9035554f32008f8a35e,11,beads,critical,A,50,beads40.jpg,beads60.jpg,low,NULL
1687412154,5de3f796107a017efcccf36bc3ddbdbd,PennController,15,0,experiment,NULL,Video,progression,buffer,0,1687412027155,5f23f9035554f32008f8a35e,5f23f9035554f32008f8a35e,11,beads,critical,A,50,beads40.jpg,beads60.jpg,low,NULL
1687412154,5de3f796107a017efcccf36bc3ddbdbd,PennController,15,0,experiment,NULL,Canvas,canvas6,Print,NA,1687412030389,5f23f9035554f32008f8a35e,5f23f9035554f32008f8a35e,11,beads,critical,A,50,beads40.jpg,beads60.jpg,low,NULL
1687412154,5de3f796107a017efcccf36bc3ddbdbd,PennController,15,0,experiment,NULL,Selector,choice,Selection,option2,1687412031711,5f23f9035554f32008f8a35e,5f23f9035554f32008f8a35e,11,beads,critical,A,50,beads40.jpg,beads60.jpg,low,option2;option1
1687412154,5de3f796107a017efcccf36bc3ddbdbd,PennController,15,0,experiment,NULL,PennController,13,_Trial_,End,1687412031712,5f23f9035554f32008f8a35e,5f23f9035554f32008f8a35e,11,beads,critical,A,50,beads40.jpg,beads60.jpg,low,NULL
1687412154,5de3f796107a017efcccf36bc3ddbdbd,PennController,17,0,experiment,NULL,PennController,15,_Trial_,Start,1687412031713,5f23f9035554f32008f8a35e,5f23f9035554f32008f8a35e,13,mix,critical,A,25,mix15.jpg,mix35.jpg,low,NULL
1687412154,5de3f796107a017efcccf36bc3ddbdbd,PennController,17,0,experiment,NULL,PennController,15,_Header_,Start,1687412031713,5f23f9035554f32008f8a35e,5f23f9035554f32008f8a35e,13,mix,critical,A,25,mix15.jpg,mix35.jpg,low,NULL
1687412154,5de3f796107a017efcccf36bc3ddbdbd,PennController,17,0,experiment,NULL,PennController,15,_Header_,End,1687412031713,5f23f9035554f32008f8a35e,5f23f9035554f32008f8a35e,13,mix,critical,A,25,mix15.jpg,mix35.jpg,low,NULL
1687412154,5de3f796107a017efcccf36bc3ddbdbd,PennController,17,0,experiment,NULL,Video,progression,buffer,0,1687412035251,5f23f9035554f32008f8a35e,5f23f9035554f32008f8a35e,13,mix,critical,A,25,mix15.jpg,mix35.jpg,low,NULL
1687412154,5de3f796107a017efcccf36bc3ddbdbd,PennController,17,0,experiment,NULL,Canvas,canvas6,Print,NA,1687412037488,5f23f9035554f32008f8a35e,5f23f9035554f32008f8a35e,13,mix,critical,A,25,mix15.jpg,mix35.jpg,low,NULL
1687412154,5de3f796107a017efcccf36bc3ddbdbd,PennController,17,0,experiment,NULL,Selector,choice,Selection,option1,1687412039267,5f23f9035554f32008f8a35e,5f23f9035554f32008f8a35e,13,mix,critical,A,25,mix15.jpg,mix35.jpg,low,option1;option2
1687412154,5de3f796107a017efcccf36bc3ddbdbd,PennController,17,0,experiment,NULL,PennController,15,_Trial_,End,1687412039268,5f23f9035554f32008f8a35e,5f23f9035554f32008f8a35e,13,mix,critical,A,25,mix15.jpg,mix35.jpg,low,NULL
1687412154,5de3f796107a017efcccf36bc3ddbdbd,PennController,33,0,experiment,NULL,PennController,31,_Trial_,Start,1687412039269,5f23f9035554f32008f8a35e,5f23f9035554f32008f8a35e,29,frog,filler,A,50,frog40.jpg,frog60.jpg,GoalA,NULL
1687412154,5de3f796107a017efcccf36bc3ddbdbd,PennController,33,0,experiment,NULL,PennController,31,_Header_,Start,1687412039269,5f23f9035554f32008f8a35e,5f23f9035554f32008f8a35e,29,frog,filler,A,50,frog40.jpg,frog60.jpg,GoalA,NULL
1687412154,5de3f796107a017efcccf36bc3ddbdbd,PennController,33,0,experiment,NULL,PennController,31,_Header_,End,1687412039269,5f23f9035554f32008f8a35e,5f23f9035554f32008f8a35e,29,frog,filler,A,50,frog40.jpg,frog60.jpg,GoalA,NULL
1687412154,5de3f796107a017efcccf36bc3ddbdbd,PennController,33,0,experiment,NULL,Video,progression,buffer,0,1687412042792,5f23f9035554f32008f8a35e,5f23f9035554f32008f8a35e,29,frog,filler,A,50,frog40.jpg,frog60.jpg,GoalA,NULL
1687412154,5de3f796107a017efcccf36bc3ddbdbd,PennController,33,0,experiment,NULL,Canvas,canvas6,Print,NA,1687412046042,5f23f9035554f32008f8a35e,5f23f9035554f32008f8a35e,29,frog,filler,A,50,frog40.jpg,frog60.jpg,GoalA,NULL
1687412154,5de3f796107a017efcccf36bc3ddbdbd,PennController,33,0,experiment,NULL,Selector,choice,Selection,option2,1687412047340,5f23f9035554f32008f8a35e,5f23f9035554f32008f8a35e,29,frog,filler,A,50,frog40.jpg,frog60.jpg,GoalA,option2;option1
1687412154,5de3f796107a017efcccf36bc3ddbdbd,PennController,33,0,experiment,NULL,PennController,31,_Trial_,End,1687412047341,5f23f9035554f32008f8a35e,5f23f9035554f32008f8a35e,29,frog,filler,A,50,frog40.jpg,frog60.jpg,GoalA,NULL
1687412154,5de3f796107a017efcccf36bc3ddbdbd,PennController,19,0,experiment,NULL,PennController,17,_Trial_,Start,1687412047341,5f23f9035554f32008f8a35e,5f23f9035554f32008f8a35e,15,zip,critical,A,75,zip65.jpg,zip85.jpg,low,NULL
1687412154,5de3f796107a017efcccf36bc3ddbdbd,PennController,19,0,experiment,NULL,PennController,17,_Header_,Start,1687412047341,5f23f9035554f32008f8a35e,5f23f9035554f32008f8a35e,15,zip,critical,A,75,zip65.jpg,zip85.jpg,low,NULL
1687412154,5de3f796107a017efcccf36bc3ddbdbd,PennController,19,0,experiment,NULL,PennController,17,_Header_,End,1687412047342,5f23f9035554f32008f8a35e,5f23f9035554f32008f8a35e,15,zip,critical,A,75,zip65.jpg,zip85.jpg,low,NULL
1687412154,5de3f796107a017efcccf36bc3ddbdbd,PennController,19,0,experiment,NULL,Video,progression,buffer,0,1687412050871,5f23f9035554f32008f8a35e,5f23f9035554f32008f8a35e,15,zip,critical,A,75,zip65.jpg,zip85.jpg,low,NULL
1687412154,5de3f796107a017efcccf36bc3ddbdbd,PennController,19,0,experiment,NULL,Canvas,canvas6,Print,NA,1687412054319,5f23f9035554f32008f8a35e,5f23f9035554f32008f8a35e,15,zip,critical,A,75,zip65.jpg,zip85.jpg,low,NULL
1687412154,5de3f796107a017efcccf36bc3ddbdbd,PennController,19,0,experiment,NULL,Selector,choice,Selection,option1,1687412058198,5f23f9035554f32008f8a35e,5f23f9035554f32008f8a35e,15,zip,critical,A,75,zip65.jpg,zip85.jpg,low,option1;option2
1687412154,5de3f796107a017efcccf36bc3ddbdbd,PennController,19,0,experiment,NULL,PennController,17,_Trial_,End,1687412058201,5f23f9035554f32008f8a35e,5f23f9035554f32008f8a35e,15,zip,critical,A,75,zip65.jpg,zip85.jpg,low,NULL
1687412154,5de3f796107a017efcccf36bc3ddbdbd,PennController,32,0,experiment,NULL,PennController,30,_Trial_,Start,1687412058204,5f23f9035554f32008f8a35e,5f23f9035554f32008f8a35e,28,sort,filler,A,25,sort15.jpg,sort35.jpg,GoalB,NULL
1687412154,5de3f796107a017efcccf36bc3ddbdbd,PennController,32,0,experiment,NULL,PennController,30,_Header_,Start,1687412058204,5f23f9035554f32008f8a35e,5f23f9035554f32008f8a35e,28,sort,filler,A,25,sort15.jpg,sort35.jpg,GoalB,NULL
1687412154,5de3f796107a017efcccf36bc3ddbdbd,PennController,32,0,experiment,NULL,PennController,30,_Header_,End,1687412058204,5f23f9035554f32008f8a35e,5f23f9035554f32008f8a35e,28,sort,filler,A,25,sort15.jpg,sort35.jpg,GoalB,NULL
1687412154,5de3f796107a017efcccf36bc3ddbdbd,PennController,32,0,experiment,NULL,Video,progression,buffer,0,1687412061736,5f23f9035554f32008f8a35e,5f23f9035554f32008f8a35e,28,sort,filler,A,25,sort15.jpg,sort35.jpg,GoalB,NULL
1687412154,5de3f796107a017efcccf36bc3ddbdbd,PennController,32,0,experiment,NULL,Canvas,canvas6,Print,NA,1687412063976,5f23f9035554f32008f8a35e,5f23f9035554f32008f8a35e,28,sort,filler,A,25,sort15.jpg,sort35.jpg,GoalB,NULL
1687412154,5de3f796107a017efcccf36bc3ddbdbd,PennController,32,0,experiment,NULL,Selector,choice,Selection,option2,1687412066794,5f23f9035554f32008f8a35e,5f23f9035554f32008f8a35e,28,sort,filler,A,25,sort15.jpg,sort35.jpg,GoalB,option2;option1
1687412154,5de3f796107a017efcccf36bc3ddbdbd,PennController,32,0,experiment,NULL,PennController,30,_Trial_,End,1687412066795,5f23f9035554f32008f8a35e,5f23f9035554f32008f8a35e,28,sort,filler,A,25,sort15.jpg,sort35.jpg,GoalB,NULL
1687412154,5de3f796107a017efcccf36bc3ddbdbd,PennController,9,0,experiment,NULL,PennController,7,_Trial_,Start,1687412066796,5f23f9035554f32008f8a35e,5f23f9035554f32008f8a35e,5,book,critical,A,50,book40.jpg,book60.jpg,low,NULL
1687412154,5de3f796107a017efcccf36bc3ddbdbd,PennController,9,0,experiment,NULL,PennController,7,_Header_,Start,1687412066796,5f23f9035554f32008f8a35e,5f23f9035554f32008f8a35e,5,book,critical,A,50,book40.jpg,book60.jpg,low,NULL
1687412154,5de3f796107a017efcccf36bc3ddbdbd,PennController,9,0,experiment,NULL,PennController,7,_Header_,End,1687412066796,5f23f9035554f32008f8a35e,5f23f9035554f32008f8a35e,5,book,critical,A,50,book40.jpg,book60.jpg,low,NULL
1687412154,5de3f796107a017efcccf36bc3ddbdbd,PennController,9,0,experiment,NULL,Video,progression,buffer,0,1687412070324,5f23f9035554f32008f8a35e,5f23f9035554f32008f8a35e,5,book,critical,A,50,book40.jpg,book60.jpg,low,NULL
1687412154,5de3f796107a017efcccf36bc3ddbdbd,PennController,9,0,experiment,NULL,Canvas,canvas6,Print,NA,1687412073567,5f23f9035554f32008f8a35e,5f23f9035554f32008f8a35e,5,book,critical,A,50,book40.jpg,book60.jpg,low,NULL
1687412154,5de3f796107a017efcccf36bc3ddbdbd,PennController,9,0,experiment,NULL,Selector,choice,Selection,option2,1687412075518,5f23f9035554f32008f8a35e,5f23f9035554f32008f8a35e,5,book,critical,A,50,book40.jpg,book60.jpg,low,option2;option1
1687412154,5de3f796107a017efcccf36bc3ddbdbd,PennController,9,0,experiment,NULL,PennController,7,_Trial_,End,1687412075519,5f23f9035554f32008f8a35e,5f23f9035554f32008f8a35e,5,book,critical,A,50,book40.jpg,book60.jpg,low,NULL
1687412154,5de3f796107a017efcccf36bc3ddbdbd,PennController,8,0,experiment,NULL,PennController,6,_Trial_,Start,1687412075521,5f23f9035554f32008f8a35e,5f23f9035554f32008f8a35e,4,candy,critical,A,25,candy15.jpg,candy35.jpg,low,NULL
1687412154,5de3f796107a017efcccf36bc3ddbdbd,PennController,8,0,experiment,NULL,PennController,6,_Header_,Start,1687412075521,5f23f9035554f32008f8a35e,5f23f9035554f32008f8a35e,4,candy,critical,A,25,candy15.jpg,candy35.jpg,low,NULL
1687412154,5de3f796107a017efcccf36bc3ddbdbd,PennController,8,0,experiment,NULL,PennController,6,_Header_,End,1687412075521,5f23f9035554f32008f8a35e,5f23f9035554f32008f8a35e,4,candy,critical,A,25,candy15.jpg,candy35.jpg,low,NULL
1687412154,5de3f796107a017efcccf36bc3ddbdbd,PennController,8,0,experiment,NULL,Video,progression,buffer,0,1687412079075,5f23f9035554f32008f8a35e,5f23f9035554f32008f8a35e,4,candy,critical,A,25,candy15.jpg,candy35.jpg,low,NULL
1687412154,5de3f796107a017efcccf36bc3ddbdbd,PennController,8,0,experiment,NULL,Canvas,canvas6,Print,NA,1687412081319,5f23f9035554f32008f8a35e,5f23f9035554f32008f8a35e,4,candy,critical,A,25,candy15.jpg,candy35.jpg,low,NULL
1687412154,5de3f796107a017efcccf36bc3ddbdbd,PennController,8,0,experiment,NULL,Selector,choice,Selection,option2,1687412082314,5f23f9035554f32008f8a35e,5f23f9035554f32008f8a35e,4,candy,critical,A,25,candy15.jpg,candy35.jpg,low,option2;option1
1687412154,5de3f796107a017efcccf36bc3ddbdbd,PennController,8,0,experiment,NULL,PennController,6,_Trial_,End,1687412082315,5f23f9035554f32008f8a35e,5f23f9035554f32008f8a35e,4,candy,critical,A,25,candy15.jpg,candy35.jpg,low,NULL
1687412154,5de3f796107a017efcccf36bc3ddbdbd,PennController,10,0,experiment,NULL,PennController,8,_Trial_,Start,1687412082316,5f23f9035554f32008f8a35e,5f23f9035554f32008f8a35e,6,flower,critical,A,75,flower65.jpg,flower85.jpg,low,NULL
1687412154,5de3f796107a017efcccf36bc3ddbdbd,PennController,10,0,experiment,NULL,PennController,8,_Header_,Start,1687412082316,5f23f9035554f32008f8a35e,5f23f9035554f32008f8a35e,6,flower,critical,A,75,flower65.jpg,flower85.jpg,low,NULL
1687412154,5de3f796107a017efcccf36bc3ddbdbd,PennController,10,0,experiment,NULL,PennController,8,_Header_,End,1687412082316,5f23f9035554f32008f8a35e,5f23f9035554f32008f8a35e,6,flower,critical,A,75,flower65.jpg,flower85.jpg,low,NULL
1687412154,5de3f796107a017efcccf36bc3ddbdbd,PennController,10,0,experiment,NULL,Video,progression,buffer,0,1687412085835,5f23f9035554f32008f8a35e,5f23f9035554f32008f8a35e,6,flower,critical,A,75,flower65.jpg,flower85.jpg,low,NULL
1687412154,5de3f796107a017efcccf36bc3ddbdbd,PennController,10,0,experiment,NULL,Canvas,canvas6,Print,NA,1687412090071,5f23f9035554f32008f8a35e,5f23f9035554f32008f8a35e,6,flower,critical,A,75,flower65.jpg,flower85.jpg,low,NULL
1687412154,5de3f796107a017efcccf36bc3ddbdbd,PennController,10,0,experiment,NULL,Selector,choice,Selection,option2,1687412095172,5f23f9035554f32008f8a35e,5f23f9035554f32008f8a35e,6,flower,critical,A,75,flower65.jpg,flower85.jpg,low,option2;option1
1687412154,5de3f796107a017efcccf36bc3ddbdbd,PennController,10,0,experiment,NULL,PennController,8,_Trial_,End,1687412095173,5f23f9035554f32008f8a35e,5f23f9035554f32008f8a35e,6,flower,critical,A,75,flower65.jpg,flower85.jpg,low,NULL
1687412154,5de3f796107a017efcccf36bc3ddbdbd,PennController,26,0,experiment,NULL,PennController,24,_Trial_,Start,1687412095173,5f23f9035554f32008f8a35e,5f23f9035554f32008f8a35e,22,wall,filler,A,25,wall15.jpg,wall35.jpg,GoalB,NULL
1687412154,5de3f796107a017efcccf36bc3ddbdbd,PennController,26,0,experiment,NULL,PennController,24,_Header_,Start,1687412095173,5f23f9035554f32008f8a35e,5f23f9035554f32008f8a35e,22,wall,filler,A,25,wall15.jpg,wall35.jpg,GoalB,NULL
1687412154,5de3f796107a017efcccf36bc3ddbdbd,PennController,26,0,experiment,NULL,PennController,24,_Header_,End,1687412095174,5f23f9035554f32008f8a35e,5f23f9035554f32008f8a35e,22,wall,filler,A,25,wall15.jpg,wall35.jpg,GoalB,NULL
1687412154,5de3f796107a017efcccf36bc3ddbdbd,PennController,26,0,experiment,NULL,Video,progression,buffer,0,1687412098707,5f23f9035554f32008f8a35e,5f23f9035554f32008f8a35e,22,wall,filler,A,25,wall15.jpg,wall35.jpg,GoalB,NULL
1687412154,5de3f796107a017efcccf36bc3ddbdbd,PennController,26,0,experiment,NULL,Canvas,canvas6,Print,NA,1687412100955,5f23f9035554f32008f8a35e,5f23f9035554f32008f8a35e,22,wall,filler,A,25,wall15.jpg,wall35.jpg,GoalB,NULL
1687412154,5de3f796107a017efcccf36bc3ddbdbd,PennController,26,0,experiment,NULL,Selector,choice,Selection,option2,1687412102725,5f23f9035554f32008f8a35e,5f23f9035554f32008f8a35e,22,wall,filler,A,25,wall15.jpg,wall35.jpg,GoalB,option2;option1
1687412154,5de3f796107a017efcccf36bc3ddbdbd,PennController,26,0,experiment,NULL,PennController,24,_Trial_,End,1687412102727,5f23f9035554f32008f8a35e,5f23f9035554f32008f8a35e,22,wall,filler,A,25,wall15.jpg,wall35.jpg,GoalB,NULL
1687412154,5de3f796107a017efcccf36bc3ddbdbd,PennController,30,0,experiment,NULL,PennController,28,_Trial_,Start,1687412102727,5f23f9035554f32008f8a35e,5f23f9035554f32008f8a35e,26,sandwich,filler,A,50,sandwich40.jpg,sandwich60.jpg,GoalB,NULL
1687412154,5de3f796107a017efcccf36bc3ddbdbd,PennController,30,0,experiment,NULL,PennController,28,_Header_,Start,1687412102727,5f23f9035554f32008f8a35e,5f23f9035554f32008f8a35e,26,sandwich,filler,A,50,sandwich40.jpg,sandwich60.jpg,GoalB,NULL
1687412154,5de3f796107a017efcccf36bc3ddbdbd,PennController,30,0,experiment,NULL,PennController,28,_Header_,End,1687412102727,5f23f9035554f32008f8a35e,5f23f9035554f32008f8a35e,26,sandwich,filler,A,50,sandwich40.jpg,sandwich60.jpg,GoalB,NULL
1687412154,5de3f796107a017efcccf36bc3ddbdbd,PennController,30,0,experiment,NULL,Video,progression,buffer,0,1687412106248,5f23f9035554f32008f8a35e,5f23f9035554f32008f8a35e,26,sandwich,filler,A,50,sandwich40.jpg,sandwich60.jpg,GoalB,NULL
1687412154,5de3f796107a017efcccf36bc3ddbdbd,PennController,30,0,experiment,NULL,Canvas,canvas6,Print,NA,1687412109479,5f23f9035554f32008f8a35e,5f23f9035554f32008f8a35e,26,sandwich,filler,A,50,sandwich40.jpg,sandwich60.jpg,GoalB,NULL
1687412154,5de3f796107a017efcccf36bc3ddbdbd,PennController,30,0,experiment,NULL,Selector,choice,Selection,option1,1687412114327,5f23f9035554f32008f8a35e,5f23f9035554f32008f8a35e,26,sandwich,filler,A,50,sandwich40.jpg,sandwich60.jpg,GoalB,option2;option1
1687412154,5de3f796107a017efcccf36bc3ddbdbd,PennController,30,0,experiment,NULL,PennController,28,_Trial_,End,1687412114327,5f23f9035554f32008f8a35e,5f23f9035554f32008f8a35e,26,sandwich,filler,A,50,sandwich40.jpg,sandwich60.jpg,GoalB,NULL
1687412154,5de3f796107a017efcccf36bc3ddbdbd,PennController,11,0,experiment,NULL,PennController,9,_Trial_,Start,1687412114327,5f23f9035554f32008f8a35e,5f23f9035554f32008f8a35e,7,stack,critical,A,25,stack15.jpg,stack35.jpg,low,NULL
1687412154,5de3f796107a017efcccf36bc3ddbdbd,PennController,11,0,experiment,NULL,PennController,9,_Header_,Start,1687412114327,5f23f9035554f32008f8a35e,5f23f9035554f32008f8a35e,7,stack,critical,A,25,stack15.jpg,stack35.jpg,low,NULL
1687412154,5de3f796107a017efcccf36bc3ddbdbd,PennController,11,0,experiment,NULL,PennController,9,_Header_,End,1687412114327,5f23f9035554f32008f8a35e,5f23f9035554f32008f8a35e,7,stack,critical,A,25,stack15.jpg,stack35.jpg,low,NULL
1687412154,5de3f796107a017efcccf36bc3ddbdbd,PennController,11,0,experiment,NULL,Video,progression,buffer,0,1687412117863,5f23f9035554f32008f8a35e,5f23f9035554f32008f8a35e,7,stack,critical,A,25,stack15.jpg,stack35.jpg,low,NULL
1687412154,5de3f796107a017efcccf36bc3ddbdbd,PennController,11,0,experiment,NULL,Canvas,canvas6,Print,NA,1687412120096,5f23f9035554f32008f8a35e,5f23f9035554f32008f8a35e,7,stack,critical,A,25,stack15.jpg,stack35.jpg,low,NULL
1687412154,5de3f796107a017efcccf36bc3ddbdbd,PennController,11,0,experiment,NULL,Selector,choice,Selection,option1,1687412122992,5f23f9035554f32008f8a35e,5f23f9035554f32008f8a35e,7,stack,critical,A,25,stack15.jpg,stack35.jpg,low,option1;option2
1687412154,5de3f796107a017efcccf36bc3ddbdbd,PennController,11,0,experiment,NULL,PennController,9,_Trial_,End,1687412122994,5f23f9035554f32008f8a35e,5f23f9035554f32008f8a35e,7,stack,critical,A,25,stack15.jpg,stack35.jpg,low,NULL
1687412154,5de3f796107a017efcccf36bc3ddbdbd,PennController,12,0,experiment,NULL,PennController,10,_Trial_,Start,1687412122996,5f23f9035554f32008f8a35e,5f23f9035554f32008f8a35e,8,cucumber,critical,A,50,cucumber42.jpg,cucumber60.jpg,low,NULL
1687412154,5de3f796107a017efcccf36bc3ddbdbd,PennController,12,0,experiment,NULL,PennController,10,_Header_,Start,1687412122996,5f23f9035554f32008f8a35e,5f23f9035554f32008f8a35e,8,cucumber,critical,A,50,cucumber42.jpg,cucumber60.jpg,low,NULL
1687412154,5de3f796107a017efcccf36bc3ddbdbd,PennController,12,0,experiment,NULL,PennController,10,_Header_,End,1687412122996,5f23f9035554f32008f8a35e,5f23f9035554f32008f8a35e,8,cucumber,critical,A,50,cucumber42.jpg,cucumber60.jpg,low,NULL
1687412154,5de3f796107a017efcccf36bc3ddbdbd,PennController,12,0,experiment,NULL,Video,progression,buffer,0,1687412126522,5f23f9035554f32008f8a35e,5f23f9035554f32008f8a35e,8,cucumber,critical,A,50,cucumber42.jpg,cucumber60.jpg,low,NULL
1687412154,5de3f796107a017efcccf36bc3ddbdbd,PennController,12,0,experiment,NULL,Canvas,canvas6,Print,NA,1687412131157,5f23f9035554f32008f8a35e,5f23f9035554f32008f8a35e,8,cucumber,critical,A,50,cucumber42.jpg,cucumber60.jpg,low,NULL
1687412154,5de3f796107a017efcccf36bc3ddbdbd,PennController,12,0,experiment,NULL,Selector,choice,Selection,option2,1687412133383,5f23f9035554f32008f8a35e,5f23f9035554f32008f8a35e,8,cucumber,critical,A,50,cucumber42.jpg,cucumber60.jpg,low,option2;option1
1687412154,5de3f796107a017efcccf36bc3ddbdbd,PennController,12,0,experiment,NULL,PennController,10,_Trial_,End,1687412133384,5f23f9035554f32008f8a35e,5f23f9035554f32008f8a35e,8,cucumber,critical,A,50,cucumber42.jpg,cucumber60.jpg,low,NULL
1687412154,5de3f796107a017efcccf36bc3ddbdbd,PennController,20,0,experiment,NULL,PennController,18,_Trial_,Start,1687412133385,5f23f9035554f32008f8a35e,5f23f9035554f32008f8a35e,16,blinds,critical,A,25,blinds15.jpg,blinds33.jpg,low,NULL
1687412154,5de3f796107a017efcccf36bc3ddbdbd,PennController,20,0,experiment,NULL,PennController,18,_Header_,Start,1687412133385,5f23f9035554f32008f8a35e,5f23f9035554f32008f8a35e,16,blinds,critical,A,25,blinds15.jpg,blinds33.jpg,low,NULL
1687412154,5de3f796107a017efcccf36bc3ddbdbd,PennController,20,0,experiment,NULL,PennController,18,_Header_,End,1687412133385,5f23f9035554f32008f8a35e,5f23f9035554f32008f8a35e,16,blinds,critical,A,25,blinds15.jpg,blinds33.jpg,low,NULL
1687412154,5de3f796107a017efcccf36bc3ddbdbd,PennController,20,0,experiment,NULL,Video,progression,buffer,0,1687412136911,5f23f9035554f32008f8a35e,5f23f9035554f32008f8a35e,16,blinds,critical,A,25,blinds15.jpg,blinds33.jpg,low,NULL
1687412154,5de3f796107a017efcccf36bc3ddbdbd,PennController,20,0,experiment,NULL,Canvas,canvas6,Print,NA,1687412139760,5f23f9035554f32008f8a35e,5f23f9035554f32008f8a35e,16,blinds,critical,A,25,blinds15.jpg,blinds33.jpg,low,NULL
1687412154,5de3f796107a017efcccf36bc3ddbdbd,PennController,20,0,experiment,NULL,Selector,choice,Selection,option2,1687412140907,5f23f9035554f32008f8a35e,5f23f9035554f32008f8a35e,16,blinds,critical,A,25,blinds15.jpg,blinds33.jpg,low,option1;option2
1687412154,5de3f796107a017efcccf36bc3ddbdbd,PennController,20,0,experiment,NULL,PennController,18,_Trial_,End,1687412140907,5f23f9035554f32008f8a35e,5f23f9035554f32008f8a35e,16,blinds,critical,A,25,blinds15.jpg,blinds33.jpg,low,NULL
1687412154,5de3f796107a017efcccf36bc3ddbdbd,PennController,6,0,experiment,NULL,PennController,4,_Trial_,Start,1687412140908,5f23f9035554f32008f8a35e,5f23f9035554f32008f8a35e,2,door,critical,A,50,door40.jpg,door60.jpg,low,NULL
1687412154,5de3f796107a017efcccf36bc3ddbdbd,PennController,6,0,experiment,NULL,PennController,4,_Header_,Start,1687412140908,5f23f9035554f32008f8a35e,5f23f9035554f32008f8a35e,2,door,critical,A,50,door40.jpg,door60.jpg,low,NULL
1687412154,5de3f796107a017efcccf36bc3ddbdbd,PennController,6,0,experiment,NULL,PennController,4,_Header_,End,1687412140908,5f23f9035554f32008f8a35e,5f23f9035554f32008f8a35e,2,door,critical,A,50,door40.jpg,door60.jpg,low,NULL
1687412154,5de3f796107a017efcccf36bc3ddbdbd,PennController,6,0,experiment,NULL,Video,progression,buffer,0,1687412144446,5f23f9035554f32008f8a35e,5f23f9035554f32008f8a35e,2,door,critical,A,50,door40.jpg,door60.jpg,low,NULL
1687412154,5de3f796107a017efcccf36bc3ddbdbd,PennController,6,0,experiment,NULL,Canvas,canvas6,Print,NA,1687412147681,5f23f9035554f32008f8a35e,5f23f9035554f32008f8a35e,2,door,critical,A,50,door40.jpg,door60.jpg,low,NULL
1687412154,5de3f796107a017efcccf36bc3ddbdbd,PennController,6,0,experiment,NULL,Selector,choice,Selection,option2,1687412154728,5f23f9035554f32008f8a35e,5f23f9035554f32008f8a35e,2,door,critical,A,50,door40.jpg,door60.jpg,low,option2;option1
1687412154,5de3f796107a017efcccf36bc3ddbdbd,PennController,6,0,experiment,NULL,PennController,4,_Trial_,End,1687412154729,5f23f9035554f32008f8a35e,5f23f9035554f32008f8a35e,2,door,critical,A,50,door40.jpg,door60.jpg,low,NULL
