#
# Results on Tuesday June 20 2023 18:57:00 UTC
# USER AGENT: Mozilla/5.0 (Windows NT 10.0; Win64; x64) AppleWebKit/537.36 (KHTML, like Gecko) Chrome/114.0.0.0 Safari/537.36
# Design number was non-random = 3
#
# Columns below this comment are as follows:
# 1. Results reception time.
# 2. MD5 hash of participant's IP address.
# 3. Controller name.
# 4. Order number of item.
# 5. Inner element number.
# 6. Label.
# 7. Latin Square Group.
# 8. PennElementType.
# 9. PennElementName.
# 10. Parameter.
# 11. Value.
# 12. EventTime.
# 13. PROLIFIC_ID.
# 14. Comments.
1687287420,0217d6d84393b677ce339258dc6317a3,PennController,2,0,consent,NULL,PennController,0,_Trial_,Start,1687287071473,5d403ca7738a5b001995f974,NULL
1687287420,0217d6d84393b677ce339258dc6317a3,PennController,2,0,consent,NULL,PennController,0,_Header_,Start,1687287071473,5d403ca7738a5b001995f974,NULL
1687287420,0217d6d84393b677ce339258dc6317a3,PennController,2,0,consent,NULL,PennController,0,_Header_,End,1687287071474,5d403ca7738a5b001995f974,NULL
1687287420,0217d6d84393b677ce339258dc6317a3,PennController,2,0,consent,NULL,PennController,0,_Trial_,End,1687287091131,5d403ca7738a5b001995f974,NULL
# Columns below this comment are as follows:
# 14. ID.
# 15. Comments.
1687287420,0217d6d84393b677ce339258dc6317a3,PennController,3,0,intro,NULL,PennController,1,_Trial_,Start,1687287091136,5d403ca7738a5b001995f974,5d403ca7738a5b001995f974,NULL
1687287420,0217d6d84393b677ce339258dc6317a3,PennController,3,0,intro,NULL,PennController,1,_Header_,Start,1687287091136,5d403ca7738a5b001995f974,5d403ca7738a5b001995f974,NULL
1687287420,0217d6d84393b677ce339258dc6317a3,PennController,3,0,intro,NULL,PennController,1,_Header_,End,1687287091136,5d403ca7738a5b001995f974,5d403ca7738a5b001995f974,NULL
1687287420,0217d6d84393b677ce339258dc6317a3,PennController,3,0,intro,NULL,PennController,1,_Trial_,End,1687287109917,5d403ca7738a5b001995f974,5d403ca7738a5b001995f974,NULL
# Columns below this comment are as follows:
# 15. item_number.
# 16. item.
# 17. type.
# 18. Group.
# 19. prog.
# 20. prev_image.
# 21. next_image.
# 22. height.
# 23. Comments.
1687287420,0217d6d84393b677ce339258dc6317a3,PennController,6,0,experiment,NULL,PennController,5,_Trial_,Start,1687287109923,5d403ca7738a5b001995f974,5d403ca7738a5b001995f974,3,clean,critical,D,75,clean65.jpg,clean85.jpg,high,NULL
1687287420,0217d6d84393b677ce339258dc6317a3,PennController,6,0,experiment,NULL,PennController,5,_Header_,Start,1687287109923,5d403ca7738a5b001995f974,5d403ca7738a5b001995f974,3,clean,critical,D,75,clean65.jpg,clean85.jpg,high,NULL
1687287420,0217d6d84393b677ce339258dc6317a3,PennController,6,0,experiment,NULL,PennController,5,_Header_,End,1687287109923,5d403ca7738a5b001995f974,5d403ca7738a5b001995f974,3,clean,critical,D,75,clean65.jpg,clean85.jpg,high,NULL
1687287420,0217d6d84393b677ce339258dc6317a3,PennController,6,0,experiment,NULL,Canvas,canvas6,Print,NA,1687287117674,5d403ca7738a5b001995f974,5d403ca7738a5b001995f974,3,clean,critical,D,75,clean65.jpg,clean85.jpg,high,NULL
1687287420,0217d6d84393b677ce339258dc6317a3,PennController,6,0,experiment,NULL,Video,progression,buffer,0.016,1687287113498,5d403ca7738a5b001995f974,5d403ca7738a5b001995f974,3,clean,critical,D,75,clean65.jpg,clean85.jpg,high,NULL
1687287420,0217d6d84393b677ce339258dc6317a3,PennController,6,0,experiment,NULL,Selector,choice,Selection,option2,1687287122855,5d403ca7738a5b001995f974,5d403ca7738a5b001995f974,3,clean,critical,D,75,clean65.jpg,clean85.jpg,high,option1;option2
1687287420,0217d6d84393b677ce339258dc6317a3,PennController,6,0,experiment,NULL,PennController,5,_Trial_,End,1687287122859,5d403ca7738a5b001995f974,5d403ca7738a5b001995f974,3,clean,critical,D,75,clean65.jpg,clean85.jpg,high,NULL
1687287420,0217d6d84393b677ce339258dc6317a3,PennController,14,0,experiment,NULL,PennController,13,_Trial_,Start,1687287122863,5d403ca7738a5b001995f974,5d403ca7738a5b001995f974,11,beads,critical,D,50,beads40.jpg,beads60.jpg,high,NULL
1687287420,0217d6d84393b677ce339258dc6317a3,PennController,14,0,experiment,NULL,PennController,13,_Header_,Start,1687287122864,5d403ca7738a5b001995f974,5d403ca7738a5b001995f974,11,beads,critical,D,50,beads40.jpg,beads60.jpg,high,NULL
1687287420,0217d6d84393b677ce339258dc6317a3,PennController,14,0,experiment,NULL,PennController,13,_Header_,End,1687287122864,5d403ca7738a5b001995f974,5d403ca7738a5b001995f974,11,beads,critical,D,50,beads40.jpg,beads60.jpg,high,NULL
1687287420,0217d6d84393b677ce339258dc6317a3,PennController,14,0,experiment,NULL,Canvas,canvas6,Print,NA,1687287129599,5d403ca7738a5b001995f974,5d403ca7738a5b001995f974,11,beads,critical,D,50,beads40.jpg,beads60.jpg,high,NULL
1687287420,0217d6d84393b677ce339258dc6317a3,PennController,14,0,experiment,NULL,Video,progression,buffer,0.015,1687287126408,5d403ca7738a5b001995f974,5d403ca7738a5b001995f974,11,beads,critical,D,50,beads40.jpg,beads60.jpg,high,NULL
1687287420,0217d6d84393b677ce339258dc6317a3,PennController,14,0,experiment,NULL,Selector,choice,Selection,option2,1687287134078,5d403ca7738a5b001995f974,5d403ca7738a5b001995f974,11,beads,critical,D,50,beads40.jpg,beads60.jpg,high,option1;option2
1687287420,0217d6d84393b677ce339258dc6317a3,PennController,14,0,experiment,NULL,PennController,13,_Trial_,End,1687287134081,5d403ca7738a5b001995f974,5d403ca7738a5b001995f974,11,beads,critical,D,50,beads40.jpg,beads60.jpg,high,NULL
1687287420,0217d6d84393b677ce339258dc6317a3,PennController,22,0,experiment,NULL,PennController,21,_Trial_,Start,1687287134085,5d403ca7738a5b001995f974,5d403ca7738a5b001995f974,19,cup,filler,D,25,cup15.jpg,cup35.jpg,GoalB,NULL
1687287420,0217d6d84393b677ce339258dc6317a3,PennController,22,0,experiment,NULL,PennController,21,_Header_,Start,1687287134085,5d403ca7738a5b001995f974,5d403ca7738a5b001995f974,19,cup,filler,D,25,cup15.jpg,cup35.jpg,GoalB,NULL
1687287420,0217d6d84393b677ce339258dc6317a3,PennController,22,0,experiment,NULL,PennController,21,_Header_,End,1687287134085,5d403ca7738a5b001995f974,5d403ca7738a5b001995f974,19,cup,filler,D,25,cup15.jpg,cup35.jpg,GoalB,NULL
1687287420,0217d6d84393b677ce339258dc6317a3,PennController,22,0,experiment,NULL,Canvas,canvas6,Print,NA,1687287139769,5d403ca7738a5b001995f974,5d403ca7738a5b001995f974,19,cup,filler,D,25,cup15.jpg,cup35.jpg,GoalB,NULL
1687287420,0217d6d84393b677ce339258dc6317a3,PennController,22,0,experiment,NULL,Video,progression,buffer,0.007,1687287137624,5d403ca7738a5b001995f974,5d403ca7738a5b001995f974,19,cup,filler,D,25,cup15.jpg,cup35.jpg,GoalB,NULL
1687287420,0217d6d84393b677ce339258dc6317a3,PennController,22,0,experiment,NULL,Selector,choice,Selection,option2,1687287143300,5d403ca7738a5b001995f974,5d403ca7738a5b001995f974,19,cup,filler,D,25,cup15.jpg,cup35.jpg,GoalB,option2;option1
1687287420,0217d6d84393b677ce339258dc6317a3,PennController,22,0,experiment,NULL,PennController,21,_Trial_,End,1687287143304,5d403ca7738a5b001995f974,5d403ca7738a5b001995f974,19,cup,filler,D,25,cup15.jpg,cup35.jpg,GoalB,NULL
1687287420,0217d6d84393b677ce339258dc6317a3,PennController,23,0,experiment,NULL,PennController,22,_Trial_,Start,1687287143308,5d403ca7738a5b001995f974,5d403ca7738a5b001995f974,20,cat,filler,D,50,cat40.jpg,cat60.jpg,GoalA,NULL
1687287420,0217d6d84393b677ce339258dc6317a3,PennController,23,0,experiment,NULL,PennController,22,_Header_,Start,1687287143308,5d403ca7738a5b001995f974,5d403ca7738a5b001995f974,20,cat,filler,D,50,cat40.jpg,cat60.jpg,GoalA,NULL
1687287420,0217d6d84393b677ce339258dc6317a3,PennController,23,0,experiment,NULL,PennController,22,_Header_,End,1687287143308,5d403ca7738a5b001995f974,5d403ca7738a5b001995f974,20,cat,filler,D,50,cat40.jpg,cat60.jpg,GoalA,NULL
1687287420,0217d6d84393b677ce339258dc6317a3,PennController,23,0,experiment,NULL,Canvas,canvas6,Print,NA,1687287150014,5d403ca7738a5b001995f974,5d403ca7738a5b001995f974,20,cat,filler,D,50,cat40.jpg,cat60.jpg,GoalA,NULL
1687287420,0217d6d84393b677ce339258dc6317a3,PennController,23,0,experiment,NULL,Video,progression,buffer,0.007,1687287146845,5d403ca7738a5b001995f974,5d403ca7738a5b001995f974,20,cat,filler,D,50,cat40.jpg,cat60.jpg,GoalA,NULL
1687287420,0217d6d84393b677ce339258dc6317a3,PennController,23,0,experiment,NULL,Selector,choice,Selection,option2,1687287152205,5d403ca7738a5b001995f974,5d403ca7738a5b001995f974,20,cat,filler,D,50,cat40.jpg,cat60.jpg,GoalA,option1;option2
1687287420,0217d6d84393b677ce339258dc6317a3,PennController,23,0,experiment,NULL,PennController,22,_Trial_,End,1687287152208,5d403ca7738a5b001995f974,5d403ca7738a5b001995f974,20,cat,filler,D,50,cat40.jpg,cat60.jpg,GoalA,NULL
1687287420,0217d6d84393b677ce339258dc6317a3,PennController,7,0,experiment,NULL,PennController,6,_Trial_,Start,1687287152212,5d403ca7738a5b001995f974,5d403ca7738a5b001995f974,4,candy,critical,D,25,candy15.jpg,candy35.jpg,high,NULL
1687287420,0217d6d84393b677ce339258dc6317a3,PennController,7,0,experiment,NULL,PennController,6,_Header_,Start,1687287152212,5d403ca7738a5b001995f974,5d403ca7738a5b001995f974,4,candy,critical,D,25,candy15.jpg,candy35.jpg,high,NULL
1687287420,0217d6d84393b677ce339258dc6317a3,PennController,7,0,experiment,NULL,PennController,6,_Header_,End,1687287152212,5d403ca7738a5b001995f974,5d403ca7738a5b001995f974,4,candy,critical,D,25,candy15.jpg,candy35.jpg,high,NULL
1687287420,0217d6d84393b677ce339258dc6317a3,PennController,7,0,experiment,NULL,Canvas,canvas6,Print,NA,1687287157910,5d403ca7738a5b001995f974,5d403ca7738a5b001995f974,4,candy,critical,D,25,candy15.jpg,candy35.jpg,high,NULL
1687287420,0217d6d84393b677ce339258dc6317a3,PennController,7,0,experiment,NULL,Video,progression,buffer,0.01,1687287155761,5d403ca7738a5b001995f974,5d403ca7738a5b001995f974,4,candy,critical,D,25,candy15.jpg,candy35.jpg,high,NULL
1687287420,0217d6d84393b677ce339258dc6317a3,PennController,7,0,experiment,NULL,Selector,choice,Selection,option2,1687287161846,5d403ca7738a5b001995f974,5d403ca7738a5b001995f974,4,candy,critical,D,25,candy15.jpg,candy35.jpg,high,option1;option2
1687287420,0217d6d84393b677ce339258dc6317a3,PennController,7,0,experiment,NULL,PennController,6,_Trial_,End,1687287161849,5d403ca7738a5b001995f974,5d403ca7738a5b001995f974,4,candy,critical,D,25,candy15.jpg,candy35.jpg,high,NULL
1687287420,0217d6d84393b677ce339258dc6317a3,PennController,30,0,experiment,NULL,PennController,29,_Trial_,Start,1687287161851,5d403ca7738a5b001995f974,5d403ca7738a5b001995f974,27,square,filler,D,75,square65.jpg,square85.jpg,GoalB,NULL
1687287420,0217d6d84393b677ce339258dc6317a3,PennController,30,0,experiment,NULL,PennController,29,_Header_,Start,1687287161851,5d403ca7738a5b001995f974,5d403ca7738a5b001995f974,27,square,filler,D,75,square65.jpg,square85.jpg,GoalB,NULL
1687287420,0217d6d84393b677ce339258dc6317a3,PennController,30,0,experiment,NULL,PennController,29,_Header_,End,1687287161851,5d403ca7738a5b001995f974,5d403ca7738a5b001995f974,27,square,filler,D,75,square65.jpg,square85.jpg,GoalB,NULL
1687287420,0217d6d84393b677ce339258dc6317a3,PennController,30,0,experiment,NULL,Canvas,canvas6,Print,NA,1687287169575,5d403ca7738a5b001995f974,5d403ca7738a5b001995f974,27,square,filler,D,75,square65.jpg,square85.jpg,GoalB,NULL
1687287420,0217d6d84393b677ce339258dc6317a3,PennController,30,0,experiment,NULL,Video,progression,buffer,0.014,1687287165391,5d403ca7738a5b001995f974,5d403ca7738a5b001995f974,27,square,filler,D,75,square65.jpg,square85.jpg,GoalB,NULL
1687287420,0217d6d84393b677ce339258dc6317a3,PennController,30,0,experiment,NULL,Selector,choice,Selection,option1,1687287173254,5d403ca7738a5b001995f974,5d403ca7738a5b001995f974,27,square,filler,D,75,square65.jpg,square85.jpg,GoalB,option1;option2
1687287420,0217d6d84393b677ce339258dc6317a3,PennController,30,0,experiment,NULL,PennController,29,_Trial_,End,1687287173262,5d403ca7738a5b001995f974,5d403ca7738a5b001995f974,27,square,filler,D,75,square65.jpg,square85.jpg,GoalB,NULL
1687287420,0217d6d84393b677ce339258dc6317a3,PennController,9,0,experiment,NULL,PennController,8,_Trial_,Start,1687287173271,5d403ca7738a5b001995f974,5d403ca7738a5b001995f974,6,flower,critical,D,75,flower65.jpg,flower85.jpg,high,NULL
1687287420,0217d6d84393b677ce339258dc6317a3,PennController,9,0,experiment,NULL,PennController,8,_Header_,Start,1687287173271,5d403ca7738a5b001995f974,5d403ca7738a5b001995f974,6,flower,critical,D,75,flower65.jpg,flower85.jpg,high,NULL
1687287420,0217d6d84393b677ce339258dc6317a3,PennController,9,0,experiment,NULL,PennController,8,_Header_,End,1687287173271,5d403ca7738a5b001995f974,5d403ca7738a5b001995f974,6,flower,critical,D,75,flower65.jpg,flower85.jpg,high,NULL
1687287420,0217d6d84393b677ce339258dc6317a3,PennController,9,0,experiment,NULL,Canvas,canvas6,Print,NA,1687287180982,5d403ca7738a5b001995f974,5d403ca7738a5b001995f974,6,flower,critical,D,75,flower65.jpg,flower85.jpg,high,NULL
1687287420,0217d6d84393b677ce339258dc6317a3,PennController,9,0,experiment,NULL,Video,progression,buffer,0.001,1687287176815,5d403ca7738a5b001995f974,5d403ca7738a5b001995f974,6,flower,critical,D,75,flower65.jpg,flower85.jpg,high,NULL
1687287420,0217d6d84393b677ce339258dc6317a3,PennController,9,0,experiment,NULL,Selector,choice,Selection,option1,1687287191390,5d403ca7738a5b001995f974,5d403ca7738a5b001995f974,6,flower,critical,D,75,flower65.jpg,flower85.jpg,high,option1;option2
1687287420,0217d6d84393b677ce339258dc6317a3,PennController,9,0,experiment,NULL,PennController,8,_Trial_,End,1687287191393,5d403ca7738a5b001995f974,5d403ca7738a5b001995f974,6,flower,critical,D,75,flower65.jpg,flower85.jpg,high,NULL
1687287420,0217d6d84393b677ce339258dc6317a3,PennController,5,0,experiment,NULL,PennController,4,_Trial_,Start,1687287191396,5d403ca7738a5b001995f974,5d403ca7738a5b001995f974,2,door,critical,D,50,door40.jpg,door60.jpg,high,NULL
1687287420,0217d6d84393b677ce339258dc6317a3,PennController,5,0,experiment,NULL,PennController,4,_Header_,Start,1687287191396,5d403ca7738a5b001995f974,5d403ca7738a5b001995f974,2,door,critical,D,50,door40.jpg,door60.jpg,high,NULL
1687287420,0217d6d84393b677ce339258dc6317a3,PennController,5,0,experiment,NULL,PennController,4,_Header_,End,1687287191396,5d403ca7738a5b001995f974,5d403ca7738a5b001995f974,2,door,critical,D,50,door40.jpg,door60.jpg,high,NULL
1687287420,0217d6d84393b677ce339258dc6317a3,PennController,5,0,experiment,NULL,Canvas,canvas6,Print,NA,1687287198124,5d403ca7738a5b001995f974,5d403ca7738a5b001995f974,2,door,critical,D,50,door40.jpg,door60.jpg,high,NULL
1687287420,0217d6d84393b677ce339258dc6317a3,PennController,5,0,experiment,NULL,Video,progression,buffer,0,1687287194932,5d403ca7738a5b001995f974,5d403ca7738a5b001995f974,2,door,critical,D,50,door40.jpg,door60.jpg,high,NULL
1687287420,0217d6d84393b677ce339258dc6317a3,PennController,5,0,experiment,NULL,Selector,choice,Selection,option2,1687287200906,5d403ca7738a5b001995f974,5d403ca7738a5b001995f974,2,door,critical,D,50,door40.jpg,door60.jpg,high,option1;option2
1687287420,0217d6d84393b677ce339258dc6317a3,PennController,5,0,experiment,NULL,PennController,4,_Trial_,End,1687287200909,5d403ca7738a5b001995f974,5d403ca7738a5b001995f974,2,door,critical,D,50,door40.jpg,door60.jpg,high,NULL
1687287420,0217d6d84393b677ce339258dc6317a3,PennController,21,0,experiment,NULL,PennController,20,_Trial_,Start,1687287200911,5d403ca7738a5b001995f974,5d403ca7738a5b001995f974,18,ball,critical,D,75,ball65.jpg,ball85.jpg,high,NULL
1687287420,0217d6d84393b677ce339258dc6317a3,PennController,21,0,experiment,NULL,PennController,20,_Header_,Start,1687287200911,5d403ca7738a5b001995f974,5d403ca7738a5b001995f974,18,ball,critical,D,75,ball65.jpg,ball85.jpg,high,NULL
1687287420,0217d6d84393b677ce339258dc6317a3,PennController,21,0,experiment,NULL,PennController,20,_Header_,End,1687287200911,5d403ca7738a5b001995f974,5d403ca7738a5b001995f974,18,ball,critical,D,75,ball65.jpg,ball85.jpg,high,NULL
1687287420,0217d6d84393b677ce339258dc6317a3,PennController,21,0,experiment,NULL,Canvas,canvas6,Print,NA,1687287208624,5d403ca7738a5b001995f974,5d403ca7738a5b001995f974,18,ball,critical,D,75,ball65.jpg,ball85.jpg,high,NULL
1687287420,0217d6d84393b677ce339258dc6317a3,PennController,21,0,experiment,NULL,Video,progression,buffer,0.012,1687287204454,5d403ca7738a5b001995f974,5d403ca7738a5b001995f974,18,ball,critical,D,75,ball65.jpg,ball85.jpg,high,NULL
1687287420,0217d6d84393b677ce339258dc6317a3,PennController,21,0,experiment,NULL,Selector,choice,Selection,option2,1687287211502,5d403ca7738a5b001995f974,5d403ca7738a5b001995f974,18,ball,critical,D,75,ball65.jpg,ball85.jpg,high,option1;option2
1687287420,0217d6d84393b677ce339258dc6317a3,PennController,21,0,experiment,NULL,PennController,20,_Trial_,End,1687287211505,5d403ca7738a5b001995f974,5d403ca7738a5b001995f974,18,ball,critical,D,75,ball65.jpg,ball85.jpg,high,NULL
1687287420,0217d6d84393b677ce339258dc6317a3,PennController,17,0,experiment,NULL,PennController,16,_Trial_,Start,1687287211507,5d403ca7738a5b001995f974,5d403ca7738a5b001995f974,14,cover,critical,D,50,cover42.jpg,cover60.jpg,high,NULL
1687287420,0217d6d84393b677ce339258dc6317a3,PennController,17,0,experiment,NULL,PennController,16,_Header_,Start,1687287211507,5d403ca7738a5b001995f974,5d403ca7738a5b001995f974,14,cover,critical,D,50,cover42.jpg,cover60.jpg,high,NULL
1687287420,0217d6d84393b677ce339258dc6317a3,PennController,17,0,experiment,NULL,PennController,16,_Header_,End,1687287211507,5d403ca7738a5b001995f974,5d403ca7738a5b001995f974,14,cover,critical,D,50,cover42.jpg,cover60.jpg,high,NULL
1687287420,0217d6d84393b677ce339258dc6317a3,PennController,17,0,experiment,NULL,Canvas,canvas6,Print,NA,1687287219658,5d403ca7738a5b001995f974,5d403ca7738a5b001995f974,14,cover,critical,D,50,cover42.jpg,cover60.jpg,high,NULL
1687287420,0217d6d84393b677ce339258dc6317a3,PennController,17,0,experiment,NULL,Video,progression,buffer,0.009,1687287215052,5d403ca7738a5b001995f974,5d403ca7738a5b001995f974,14,cover,critical,D,50,cover42.jpg,cover60.jpg,high,NULL
1687287420,0217d6d84393b677ce339258dc6317a3,PennController,17,0,experiment,NULL,Selector,choice,Selection,option1,1687287226768,5d403ca7738a5b001995f974,5d403ca7738a5b001995f974,14,cover,critical,D,50,cover42.jpg,cover60.jpg,high,option2;option1
1687287420,0217d6d84393b677ce339258dc6317a3,PennController,17,0,experiment,NULL,PennController,16,_Trial_,End,1687287226771,5d403ca7738a5b001995f974,5d403ca7738a5b001995f974,14,cover,critical,D,50,cover42.jpg,cover60.jpg,high,NULL
1687287420,0217d6d84393b677ce339258dc6317a3,PennController,11,0,experiment,NULL,PennController,10,_Trial_,Start,1687287226774,5d403ca7738a5b001995f974,5d403ca7738a5b001995f974,8,cucumber,critical,D,50,cucumber42.jpg,cucumber60.jpg,high,NULL
1687287420,0217d6d84393b677ce339258dc6317a3,PennController,11,0,experiment,NULL,PennController,10,_Header_,Start,1687287226774,5d403ca7738a5b001995f974,5d403ca7738a5b001995f974,8,cucumber,critical,D,50,cucumber42.jpg,cucumber60.jpg,high,NULL
1687287420,0217d6d84393b677ce339258dc6317a3,PennController,11,0,experiment,NULL,PennController,10,_Header_,End,1687287226774,5d403ca7738a5b001995f974,5d403ca7738a5b001995f974,8,cucumber,critical,D,50,cucumber42.jpg,cucumber60.jpg,high,NULL
1687287420,0217d6d84393b677ce339258dc6317a3,PennController,11,0,experiment,NULL,Canvas,canvas6,Print,NA,1687287234883,5d403ca7738a5b001995f974,5d403ca7738a5b001995f974,8,cucumber,critical,D,50,cucumber42.jpg,cucumber60.jpg,high,NULL
1687287420,0217d6d84393b677ce339258dc6317a3,PennController,11,0,experiment,NULL,Video,progression,buffer,0.006,1687287230311,5d403ca7738a5b001995f974,5d403ca7738a5b001995f974,8,cucumber,critical,D,50,cucumber42.jpg,cucumber60.jpg,high,NULL
1687287420,0217d6d84393b677ce339258dc6317a3,PennController,11,0,experiment,NULL,Selector,choice,Selection,option1,1687287240046,5d403ca7738a5b001995f974,5d403ca7738a5b001995f974,8,cucumber,critical,D,50,cucumber42.jpg,cucumber60.jpg,high,option1;option2
1687287420,0217d6d84393b677ce339258dc6317a3,PennController,11,0,experiment,NULL,PennController,10,_Trial_,End,1687287240049,5d403ca7738a5b001995f974,5d403ca7738a5b001995f974,8,cucumber,critical,D,50,cucumber42.jpg,cucumber60.jpg,high,NULL
1687287420,0217d6d84393b677ce339258dc6317a3,PennController,31,0,experiment,NULL,PennController,30,_Trial_,Start,1687287240052,5d403ca7738a5b001995f974,5d403ca7738a5b001995f974,28,sort,filler,D,25,sort15.jpg,sort35.jpg,GoalA,NULL
1687287420,0217d6d84393b677ce339258dc6317a3,PennController,31,0,experiment,NULL,PennController,30,_Header_,Start,1687287240052,5d403ca7738a5b001995f974,5d403ca7738a5b001995f974,28,sort,filler,D,25,sort15.jpg,sort35.jpg,GoalA,NULL
1687287420,0217d6d84393b677ce339258dc6317a3,PennController,31,0,experiment,NULL,PennController,30,_Header_,End,1687287240052,5d403ca7738a5b001995f974,5d403ca7738a5b001995f974,28,sort,filler,D,25,sort15.jpg,sort35.jpg,GoalA,NULL
1687287420,0217d6d84393b677ce339258dc6317a3,PennController,31,0,experiment,NULL,Canvas,canvas6,Print,NA,1687287245739,5d403ca7738a5b001995f974,5d403ca7738a5b001995f974,28,sort,filler,D,25,sort15.jpg,sort35.jpg,GoalA,NULL
1687287420,0217d6d84393b677ce339258dc6317a3,PennController,31,0,experiment,NULL,Video,progression,buffer,0.006,1687287243586,5d403ca7738a5b001995f974,5d403ca7738a5b001995f974,28,sort,filler,D,25,sort15.jpg,sort35.jpg,GoalA,NULL
1687287420,0217d6d84393b677ce339258dc6317a3,PennController,31,0,experiment,NULL,Selector,choice,Selection,option2,1687287251919,5d403ca7738a5b001995f974,5d403ca7738a5b001995f974,28,sort,filler,D,25,sort15.jpg,sort35.jpg,GoalA,option1;option2
1687287420,0217d6d84393b677ce339258dc6317a3,PennController,31,0,experiment,NULL,PennController,30,_Trial_,End,1687287251923,5d403ca7738a5b001995f974,5d403ca7738a5b001995f974,28,sort,filler,D,25,sort15.jpg,sort35.jpg,GoalA,NULL
1687287420,0217d6d84393b677ce339258dc6317a3,PennController,4,0,experiment,NULL,PennController,3,_Trial_,Start,1687287251924,5d403ca7738a5b001995f974,5d403ca7738a5b001995f974,1,vase,critical,D,25,vase15.jpg,vase35.jpg,high,NULL
1687287420,0217d6d84393b677ce339258dc6317a3,PennController,4,0,experiment,NULL,PennController,3,_Header_,Start,1687287251924,5d403ca7738a5b001995f974,5d403ca7738a5b001995f974,1,vase,critical,D,25,vase15.jpg,vase35.jpg,high,NULL
1687287420,0217d6d84393b677ce339258dc6317a3,PennController,4,0,experiment,NULL,PennController,3,_Header_,End,1687287251924,5d403ca7738a5b001995f974,5d403ca7738a5b001995f974,1,vase,critical,D,25,vase15.jpg,vase35.jpg,high,NULL
1687287420,0217d6d84393b677ce339258dc6317a3,PennController,4,0,experiment,NULL,Canvas,canvas6,Print,NA,1687287257654,5d403ca7738a5b001995f974,5d403ca7738a5b001995f974,1,vase,critical,D,25,vase15.jpg,vase35.jpg,high,NULL
1687287420,0217d6d84393b677ce339258dc6317a3,PennController,4,0,experiment,NULL,Video,progression,buffer,0.008,1687287255459,5d403ca7738a5b001995f974,5d403ca7738a5b001995f974,1,vase,critical,D,25,vase15.jpg,vase35.jpg,high,NULL
1687287420,0217d6d84393b677ce339258dc6317a3,PennController,4,0,experiment,NULL,Selector,choice,Selection,option1,1687287260707,5d403ca7738a5b001995f974,5d403ca7738a5b001995f974,1,vase,critical,D,25,vase15.jpg,vase35.jpg,high,option2;option1
1687287420,0217d6d84393b677ce339258dc6317a3,PennController,4,0,experiment,NULL,PennController,3,_Trial_,End,1687287260710,5d403ca7738a5b001995f974,5d403ca7738a5b001995f974,1,vase,critical,D,25,vase15.jpg,vase35.jpg,high,NULL
1687287420,0217d6d84393b677ce339258dc6317a3,PennController,27,0,experiment,NULL,PennController,26,_Trial_,Start,1687287260715,5d403ca7738a5b001995f974,5d403ca7738a5b001995f974,24,match,filler,D,75,match65.jpg,match85.jpg,GoalA,NULL
1687287420,0217d6d84393b677ce339258dc6317a3,PennController,27,0,experiment,NULL,PennController,26,_Header_,Start,1687287260715,5d403ca7738a5b001995f974,5d403ca7738a5b001995f974,24,match,filler,D,75,match65.jpg,match85.jpg,GoalA,NULL
1687287420,0217d6d84393b677ce339258dc6317a3,PennController,27,0,experiment,NULL,PennController,26,_Header_,End,1687287260715,5d403ca7738a5b001995f974,5d403ca7738a5b001995f974,24,match,filler,D,75,match65.jpg,match85.jpg,GoalA,NULL
1687287420,0217d6d84393b677ce339258dc6317a3,PennController,27,0,experiment,NULL,Canvas,canvas6,Print,NA,1687287268401,5d403ca7738a5b001995f974,5d403ca7738a5b001995f974,24,match,filler,D,75,match65.jpg,match85.jpg,GoalA,NULL
1687287420,0217d6d84393b677ce339258dc6317a3,PennController,27,0,experiment,NULL,Video,progression,buffer,0.03,1687287264273,5d403ca7738a5b001995f974,5d403ca7738a5b001995f974,24,match,filler,D,75,match65.jpg,match85.jpg,GoalA,NULL
1687287420,0217d6d84393b677ce339258dc6317a3,PennController,27,0,experiment,NULL,Selector,choice,Selection,option2,1687287273678,5d403ca7738a5b001995f974,5d403ca7738a5b001995f974,24,match,filler,D,75,match65.jpg,match85.jpg,GoalA,option1;option2
1687287420,0217d6d84393b677ce339258dc6317a3,PennController,27,0,experiment,NULL,PennController,26,_Trial_,End,1687287273681,5d403ca7738a5b001995f974,5d403ca7738a5b001995f974,24,match,filler,D,75,match65.jpg,match85.jpg,GoalA,NULL
1687287420,0217d6d84393b677ce339258dc6317a3,PennController,18,0,experiment,NULL,PennController,17,_Trial_,Start,1687287273683,5d403ca7738a5b001995f974,5d403ca7738a5b001995f974,15,zip,critical,D,75,zip65.jpg,zip85.jpg,high,NULL
1687287420,0217d6d84393b677ce339258dc6317a3,PennController,18,0,experiment,NULL,PennController,17,_Header_,Start,1687287273683,5d403ca7738a5b001995f974,5d403ca7738a5b001995f974,15,zip,critical,D,75,zip65.jpg,zip85.jpg,high,NULL
1687287420,0217d6d84393b677ce339258dc6317a3,PennController,18,0,experiment,NULL,PennController,17,_Header_,End,1687287273683,5d403ca7738a5b001995f974,5d403ca7738a5b001995f974,15,zip,critical,D,75,zip65.jpg,zip85.jpg,high,NULL
1687287420,0217d6d84393b677ce339258dc6317a3,PennController,18,0,experiment,NULL,Canvas,canvas6,Print,NA,1687287280568,5d403ca7738a5b001995f974,5d403ca7738a5b001995f974,15,zip,critical,D,75,zip65.jpg,zip85.jpg,high,NULL
1687287420,0217d6d84393b677ce339258dc6317a3,PennController,18,0,experiment,NULL,Video,progression,buffer,0.006,1687287277219,5d403ca7738a5b001995f974,5d403ca7738a5b001995f974,15,zip,critical,D,75,zip65.jpg,zip85.jpg,high,NULL
1687287420,0217d6d84393b677ce339258dc6317a3,PennController,18,0,experiment,NULL,Selector,choice,Selection,option2,1687287283714,5d403ca7738a5b001995f974,5d403ca7738a5b001995f974,15,zip,critical,D,75,zip65.jpg,zip85.jpg,high,option2;option1
1687287420,0217d6d84393b677ce339258dc6317a3,PennController,18,0,experiment,NULL,PennController,17,_Trial_,End,1687287283717,5d403ca7738a5b001995f974,5d403ca7738a5b001995f974,15,zip,critical,D,75,zip65.jpg,zip85.jpg,high,NULL
1687287420,0217d6d84393b677ce339258dc6317a3,PennController,16,0,experiment,NULL,PennController,15,_Trial_,Start,1687287283720,5d403ca7738a5b001995f974,5d403ca7738a5b001995f974,13,mix,critical,D,25,mix15.jpg,mix35.jpg,high,NULL
1687287420,0217d6d84393b677ce339258dc6317a3,PennController,16,0,experiment,NULL,PennController,15,_Header_,Start,1687287283720,5d403ca7738a5b001995f974,5d403ca7738a5b001995f974,13,mix,critical,D,25,mix15.jpg,mix35.jpg,high,NULL
1687287420,0217d6d84393b677ce339258dc6317a3,PennController,16,0,experiment,NULL,PennController,15,_Header_,End,1687287283720,5d403ca7738a5b001995f974,5d403ca7738a5b001995f974,13,mix,critical,D,25,mix15.jpg,mix35.jpg,high,NULL
1687287420,0217d6d84393b677ce339258dc6317a3,PennController,16,0,experiment,NULL,Canvas,canvas6,Print,NA,1687287289421,5d403ca7738a5b001995f974,5d403ca7738a5b001995f974,13,mix,critical,D,25,mix15.jpg,mix35.jpg,high,NULL
1687287420,0217d6d84393b677ce339258dc6317a3,PennController,16,0,experiment,NULL,Video,progression,buffer,0.032,1687287287281,5d403ca7738a5b001995f974,5d403ca7738a5b001995f974,13,mix,critical,D,25,mix15.jpg,mix35.jpg,high,NULL
1687287420,0217d6d84393b677ce339258dc6317a3,PennController,16,0,experiment,NULL,Selector,choice,Selection,option1,1687287293774,5d403ca7738a5b001995f974,5d403ca7738a5b001995f974,13,mix,critical,D,25,mix15.jpg,mix35.jpg,high,option2;option1
1687287420,0217d6d84393b677ce339258dc6317a3,PennController,16,0,experiment,NULL,PennController,15,_Trial_,End,1687287293776,5d403ca7738a5b001995f974,5d403ca7738a5b001995f974,13,mix,critical,D,25,mix15.jpg,mix35.jpg,high,NULL
1687287420,0217d6d84393b677ce339258dc6317a3,PennController,13,0,experiment,NULL,PennController,12,_Trial_,Start,1687287293779,5d403ca7738a5b001995f974,5d403ca7738a5b001995f974,10,train,critical,D,25,train15.jpg,train35.jpg,high,NULL
1687287420,0217d6d84393b677ce339258dc6317a3,PennController,13,0,experiment,NULL,PennController,12,_Header_,Start,1687287293779,5d403ca7738a5b001995f974,5d403ca7738a5b001995f974,10,train,critical,D,25,train15.jpg,train35.jpg,high,NULL
1687287420,0217d6d84393b677ce339258dc6317a3,PennController,13,0,experiment,NULL,PennController,12,_Header_,End,1687287293780,5d403ca7738a5b001995f974,5d403ca7738a5b001995f974,10,train,critical,D,25,train15.jpg,train35.jpg,high,NULL
1687287420,0217d6d84393b677ce339258dc6317a3,PennController,13,0,experiment,NULL,Canvas,canvas6,Print,NA,1687287299484,5d403ca7738a5b001995f974,5d403ca7738a5b001995f974,10,train,critical,D,25,train15.jpg,train35.jpg,high,NULL
1687287420,0217d6d84393b677ce339258dc6317a3,PennController,13,0,experiment,NULL,Video,progression,buffer,0.012,1687287297316,5d403ca7738a5b001995f974,5d403ca7738a5b001995f974,10,train,critical,D,25,train15.jpg,train35.jpg,high,NULL
1687287420,0217d6d84393b677ce339258dc6317a3,PennController,13,0,experiment,NULL,Selector,choice,Selection,option2,1687287302140,5d403ca7738a5b001995f974,5d403ca7738a5b001995f974,10,train,critical,D,25,train15.jpg,train35.jpg,high,option2;option1
1687287420,0217d6d84393b677ce339258dc6317a3,PennController,13,0,experiment,NULL,PennController,12,_Trial_,End,1687287302143,5d403ca7738a5b001995f974,5d403ca7738a5b001995f974,10,train,critical,D,25,train15.jpg,train35.jpg,high,NULL
1687287420,0217d6d84393b677ce339258dc6317a3,PennController,32,0,experiment,NULL,PennController,31,_Trial_,Start,1687287302145,5d403ca7738a5b001995f974,5d403ca7738a5b001995f974,29,frog,filler,D,50,frog40.jpg,frog60.jpg,GoalB,NULL
1687287420,0217d6d84393b677ce339258dc6317a3,PennController,32,0,experiment,NULL,PennController,31,_Header_,Start,1687287302145,5d403ca7738a5b001995f974,5d403ca7738a5b001995f974,29,frog,filler,D,50,frog40.jpg,frog60.jpg,GoalB,NULL
1687287420,0217d6d84393b677ce339258dc6317a3,PennController,32,0,experiment,NULL,PennController,31,_Header_,End,1687287302145,5d403ca7738a5b001995f974,5d403ca7738a5b001995f974,29,frog,filler,D,50,frog40.jpg,frog60.jpg,GoalB,NULL
1687287420,0217d6d84393b677ce339258dc6317a3,PennController,32,0,experiment,NULL,Canvas,canvas6,Print,NA,1687287308825,5d403ca7738a5b001995f974,5d403ca7738a5b001995f974,29,frog,filler,D,50,frog40.jpg,frog60.jpg,GoalB,NULL
1687287420,0217d6d84393b677ce339258dc6317a3,PennController,32,0,experiment,NULL,Video,progression,buffer,0.006,1687287305680,5d403ca7738a5b001995f974,5d403ca7738a5b001995f974,29,frog,filler,D,50,frog40.jpg,frog60.jpg,GoalB,NULL
1687287420,0217d6d84393b677ce339258dc6317a3,PennController,32,0,experiment,NULL,Selector,choice,Selection,option1,1687287311336,5d403ca7738a5b001995f974,5d403ca7738a5b001995f974,29,frog,filler,D,50,frog40.jpg,frog60.jpg,GoalB,option1;option2
1687287420,0217d6d84393b677ce339258dc6317a3,PennController,32,0,experiment,NULL,PennController,31,_Trial_,End,1687287311340,5d403ca7738a5b001995f974,5d403ca7738a5b001995f974,29,frog,filler,D,50,frog40.jpg,frog60.jpg,GoalB,NULL
1687287420,0217d6d84393b677ce339258dc6317a3,PennController,19,0,experiment,NULL,PennController,18,_Trial_,Start,1687287311341,5d403ca7738a5b001995f974,5d403ca7738a5b001995f974,16,blinds,critical,D,25,blinds15.jpg,blinds33.jpg,high,NULL
1687287420,0217d6d84393b677ce339258dc6317a3,PennController,19,0,experiment,NULL,PennController,18,_Header_,Start,1687287311341,5d403ca7738a5b001995f974,5d403ca7738a5b001995f974,16,blinds,critical,D,25,blinds15.jpg,blinds33.jpg,high,NULL
1687287420,0217d6d84393b677ce339258dc6317a3,PennController,19,0,experiment,NULL,PennController,18,_Header_,End,1687287311341,5d403ca7738a5b001995f974,5d403ca7738a5b001995f974,16,blinds,critical,D,25,blinds15.jpg,blinds33.jpg,high,NULL
1687287420,0217d6d84393b677ce339258dc6317a3,PennController,19,0,experiment,NULL,Canvas,canvas6,Print,NA,1687287317648,5d403ca7738a5b001995f974,5d403ca7738a5b001995f974,16,blinds,critical,D,25,blinds15.jpg,blinds33.jpg,high,NULL
1687287420,0217d6d84393b677ce339258dc6317a3,PennController,19,0,experiment,NULL,Video,progression,buffer,0.009,1687287314874,5d403ca7738a5b001995f974,5d403ca7738a5b001995f974,16,blinds,critical,D,25,blinds15.jpg,blinds33.jpg,high,NULL
1687287420,0217d6d84393b677ce339258dc6317a3,PennController,19,0,experiment,NULL,Selector,choice,Selection,option2,1687287319814,5d403ca7738a5b001995f974,5d403ca7738a5b001995f974,16,blinds,critical,D,25,blinds15.jpg,blinds33.jpg,high,option2;option1
1687287420,0217d6d84393b677ce339258dc6317a3,PennController,19,0,experiment,NULL,PennController,18,_Trial_,End,1687287319818,5d403ca7738a5b001995f974,5d403ca7738a5b001995f974,16,blinds,critical,D,25,blinds15.jpg,blinds33.jpg,high,NULL
1687287420,0217d6d84393b677ce339258dc6317a3,PennController,20,0,experiment,NULL,PennController,19,_Trial_,Start,1687287319821,5d403ca7738a5b001995f974,5d403ca7738a5b001995f974,17,roll,critical,D,50,roll40.jpg,roll60.jpg,high,NULL
1687287420,0217d6d84393b677ce339258dc6317a3,PennController,20,0,experiment,NULL,PennController,19,_Header_,Start,1687287319821,5d403ca7738a5b001995f974,5d403ca7738a5b001995f974,17,roll,critical,D,50,roll40.jpg,roll60.jpg,high,NULL
1687287420,0217d6d84393b677ce339258dc6317a3,PennController,20,0,experiment,NULL,PennController,19,_Header_,End,1687287319821,5d403ca7738a5b001995f974,5d403ca7738a5b001995f974,17,roll,critical,D,50,roll40.jpg,roll60.jpg,high,NULL
1687287420,0217d6d84393b677ce339258dc6317a3,PennController,20,0,experiment,NULL,Canvas,canvas6,Print,NA,1687287326511,5d403ca7738a5b001995f974,5d403ca7738a5b001995f974,17,roll,critical,D,50,roll40.jpg,roll60.jpg,high,NULL
1687287420,0217d6d84393b677ce339258dc6317a3,PennController,20,0,experiment,NULL,Video,progression,buffer,0.013,1687287323362,5d403ca7738a5b001995f974,5d403ca7738a5b001995f974,17,roll,critical,D,50,roll40.jpg,roll60.jpg,high,NULL
1687287420,0217d6d84393b677ce339258dc6317a3,PennController,20,0,experiment,NULL,Selector,choice,Selection,option2,1687287329342,5d403ca7738a5b001995f974,5d403ca7738a5b001995f974,17,roll,critical,D,50,roll40.jpg,roll60.jpg,high,option1;option2
1687287420,0217d6d84393b677ce339258dc6317a3,PennController,20,0,experiment,NULL,PennController,19,_Trial_,End,1687287329345,5d403ca7738a5b001995f974,5d403ca7738a5b001995f974,17,roll,critical,D,50,roll40.jpg,roll60.jpg,high,NULL
1687287420,0217d6d84393b677ce339258dc6317a3,PennController,25,0,experiment,NULL,PennController,24,_Trial_,Start,1687287329348,5d403ca7738a5b001995f974,5d403ca7738a5b001995f974,22,wall,filler,D,25,wall15.jpg,wall35.jpg,GoalA,NULL
1687287420,0217d6d84393b677ce339258dc6317a3,PennController,25,0,experiment,NULL,PennController,24,_Header_,Start,1687287329348,5d403ca7738a5b001995f974,5d403ca7738a5b001995f974,22,wall,filler,D,25,wall15.jpg,wall35.jpg,GoalA,NULL
1687287420,0217d6d84393b677ce339258dc6317a3,PennController,25,0,experiment,NULL,PennController,24,_Header_,End,1687287329348,5d403ca7738a5b001995f974,5d403ca7738a5b001995f974,22,wall,filler,D,25,wall15.jpg,wall35.jpg,GoalA,NULL
1687287420,0217d6d84393b677ce339258dc6317a3,PennController,25,0,experiment,NULL,Canvas,canvas6,Print,NA,1687287335080,5d403ca7738a5b001995f974,5d403ca7738a5b001995f974,22,wall,filler,D,25,wall15.jpg,wall35.jpg,GoalA,NULL
1687287420,0217d6d84393b677ce339258dc6317a3,PennController,25,0,experiment,NULL,Video,progression,buffer,0.012,1687287332893,5d403ca7738a5b001995f974,5d403ca7738a5b001995f974,22,wall,filler,D,25,wall15.jpg,wall35.jpg,GoalA,NULL
1687287420,0217d6d84393b677ce339258dc6317a3,PennController,25,0,experiment,NULL,Selector,choice,Selection,option2,1687287337279,5d403ca7738a5b001995f974,5d403ca7738a5b001995f974,22,wall,filler,D,25,wall15.jpg,wall35.jpg,GoalA,option1;option2
1687287420,0217d6d84393b677ce339258dc6317a3,PennController,25,0,experiment,NULL,PennController,24,_Trial_,End,1687287337283,5d403ca7738a5b001995f974,5d403ca7738a5b001995f974,22,wall,filler,D,25,wall15.jpg,wall35.jpg,GoalA,NULL
1687287420,0217d6d84393b677ce339258dc6317a3,PennController,24,0,experiment,NULL,PennController,23,_Trial_,Start,1687287337285,5d403ca7738a5b001995f974,5d403ca7738a5b001995f974,21,visit,filler,D,75,visit65.jpg,visit85.jpg,GoalB,NULL
1687287420,0217d6d84393b677ce339258dc6317a3,PennController,24,0,experiment,NULL,PennController,23,_Header_,Start,1687287337285,5d403ca7738a5b001995f974,5d403ca7738a5b001995f974,21,visit,filler,D,75,visit65.jpg,visit85.jpg,GoalB,NULL
1687287420,0217d6d84393b677ce339258dc6317a3,PennController,24,0,experiment,NULL,PennController,23,_Header_,End,1687287337286,5d403ca7738a5b001995f974,5d403ca7738a5b001995f974,21,visit,filler,D,75,visit65.jpg,visit85.jpg,GoalB,NULL
1687287420,0217d6d84393b677ce339258dc6317a3,PennController,24,0,experiment,NULL,Canvas,canvas6,Print,NA,1687287345004,5d403ca7738a5b001995f974,5d403ca7738a5b001995f974,21,visit,filler,D,75,visit65.jpg,visit85.jpg,GoalB,NULL
1687287420,0217d6d84393b677ce339258dc6317a3,PennController,24,0,experiment,NULL,Video,progression,buffer,0.008,1687287340821,5d403ca7738a5b001995f974,5d403ca7738a5b001995f974,21,visit,filler,D,75,visit65.jpg,visit85.jpg,GoalB,NULL
1687287420,0217d6d84393b677ce339258dc6317a3,PennController,24,0,experiment,NULL,Selector,choice,Selection,option2,1687287347339,5d403ca7738a5b001995f974,5d403ca7738a5b001995f974,21,visit,filler,D,75,visit65.jpg,visit85.jpg,GoalB,option2;option1
1687287420,0217d6d84393b677ce339258dc6317a3,PennController,24,0,experiment,NULL,PennController,23,_Trial_,End,1687287347342,5d403ca7738a5b001995f974,5d403ca7738a5b001995f974,21,visit,filler,D,75,visit65.jpg,visit85.jpg,GoalB,NULL
1687287420,0217d6d84393b677ce339258dc6317a3,PennController,12,0,experiment,NULL,PennController,11,_Trial_,Start,1687287347347,5d403ca7738a5b001995f974,5d403ca7738a5b001995f974,9,cake,critical,D,75,cake66.jpg,cake84.jpg,high,NULL
1687287420,0217d6d84393b677ce339258dc6317a3,PennController,12,0,experiment,NULL,PennController,11,_Header_,Start,1687287347347,5d403ca7738a5b001995f974,5d403ca7738a5b001995f974,9,cake,critical,D,75,cake66.jpg,cake84.jpg,high,NULL
1687287420,0217d6d84393b677ce339258dc6317a3,PennController,12,0,experiment,NULL,PennController,11,_Header_,End,1687287347347,5d403ca7738a5b001995f974,5d403ca7738a5b001995f974,9,cake,critical,D,75,cake66.jpg,cake84.jpg,high,NULL
1687287420,0217d6d84393b677ce339258dc6317a3,PennController,12,0,experiment,NULL,Canvas,canvas6,Print,NA,1687287357030,5d403ca7738a5b001995f974,5d403ca7738a5b001995f974,9,cake,critical,D,75,cake66.jpg,cake84.jpg,high,NULL
1687287420,0217d6d84393b677ce339258dc6317a3,PennController,12,0,experiment,NULL,Video,progression,buffer,0.012,1687287350883,5d403ca7738a5b001995f974,5d403ca7738a5b001995f974,9,cake,critical,D,75,cake66.jpg,cake84.jpg,high,NULL
1687287420,0217d6d84393b677ce339258dc6317a3,PennController,12,0,experiment,NULL,Selector,choice,Selection,option2,1687287359489,5d403ca7738a5b001995f974,5d403ca7738a5b001995f974,9,cake,critical,D,75,cake66.jpg,cake84.jpg,high,option2;option1
1687287420,0217d6d84393b677ce339258dc6317a3,PennController,12,0,experiment,NULL,PennController,11,_Trial_,End,1687287359491,5d403ca7738a5b001995f974,5d403ca7738a5b001995f974,9,cake,critical,D,75,cake66.jpg,cake84.jpg,high,NULL
1687287420,0217d6d84393b677ce339258dc6317a3,PennController,28,0,experiment,NULL,PennController,27,_Trial_,Start,1687287359493,5d403ca7738a5b001995f974,5d403ca7738a5b001995f974,25,house,filler,D,25,house15.jpg,house35.jpg,GoalB,NULL
1687287420,0217d6d84393b677ce339258dc6317a3,PennController,28,0,experiment,NULL,PennController,27,_Header_,Start,1687287359493,5d403ca7738a5b001995f974,5d403ca7738a5b001995f974,25,house,filler,D,25,house15.jpg,house35.jpg,GoalB,NULL
1687287420,0217d6d84393b677ce339258dc6317a3,PennController,28,0,experiment,NULL,PennController,27,_Header_,End,1687287359493,5d403ca7738a5b001995f974,5d403ca7738a5b001995f974,25,house,filler,D,25,house15.jpg,house35.jpg,GoalB,NULL
1687287420,0217d6d84393b677ce339258dc6317a3,PennController,28,0,experiment,NULL,Canvas,canvas6,Print,NA,1687287365178,5d403ca7738a5b001995f974,5d403ca7738a5b001995f974,25,house,filler,D,25,house15.jpg,house35.jpg,GoalB,NULL
1687287420,0217d6d84393b677ce339258dc6317a3,PennController,28,0,experiment,NULL,Video,progression,buffer,0.006,1687287363022,5d403ca7738a5b001995f974,5d403ca7738a5b001995f974,25,house,filler,D,25,house15.jpg,house35.jpg,GoalB,NULL
1687287420,0217d6d84393b677ce339258dc6317a3,PennController,28,0,experiment,NULL,Selector,choice,Selection,option2,1687287367222,5d403ca7738a5b001995f974,5d403ca7738a5b001995f974,25,house,filler,D,25,house15.jpg,house35.jpg,GoalB,option1;option2
1687287420,0217d6d84393b677ce339258dc6317a3,PennController,28,0,experiment,NULL,PennController,27,_Trial_,End,1687287367225,5d403ca7738a5b001995f974,5d403ca7738a5b001995f974,25,house,filler,D,25,house15.jpg,house35.jpg,GoalB,NULL
1687287420,0217d6d84393b677ce339258dc6317a3,PennController,29,0,experiment,NULL,PennController,28,_Trial_,Start,1687287367227,5d403ca7738a5b001995f974,5d403ca7738a5b001995f974,26,sandwich,filler,D,50,sandwich40.jpg,sandwich60.jpg,GoalA,NULL
1687287420,0217d6d84393b677ce339258dc6317a3,PennController,29,0,experiment,NULL,PennController,28,_Header_,Start,1687287367227,5d403ca7738a5b001995f974,5d403ca7738a5b001995f974,26,sandwich,filler,D,50,sandwich40.jpg,sandwich60.jpg,GoalA,NULL
1687287420,0217d6d84393b677ce339258dc6317a3,PennController,29,0,experiment,NULL,PennController,28,_Header_,End,1687287367227,5d403ca7738a5b001995f974,5d403ca7738a5b001995f974,26,sandwich,filler,D,50,sandwich40.jpg,sandwich60.jpg,GoalA,NULL
1687287420,0217d6d84393b677ce339258dc6317a3,PennController,29,0,experiment,NULL,Canvas,canvas6,Print,NA,1687287373975,5d403ca7738a5b001995f974,5d403ca7738a5b001995f974,26,sandwich,filler,D,50,sandwich40.jpg,sandwich60.jpg,GoalA,NULL
1687287420,0217d6d84393b677ce339258dc6317a3,PennController,29,0,experiment,NULL,Video,progression,buffer,0.008,1687287370769,5d403ca7738a5b001995f974,5d403ca7738a5b001995f974,26,sandwich,filler,D,50,sandwich40.jpg,sandwich60.jpg,GoalA,NULL
1687287420,0217d6d84393b677ce339258dc6317a3,PennController,29,0,experiment,NULL,Selector,choice,Selection,option1,1687287376785,5d403ca7738a5b001995f974,5d403ca7738a5b001995f974,26,sandwich,filler,D,50,sandwich40.jpg,sandwich60.jpg,GoalA,option2;option1
1687287420,0217d6d84393b677ce339258dc6317a3,PennController,29,0,experiment,NULL,PennController,28,_Trial_,End,1687287376788,5d403ca7738a5b001995f974,5d403ca7738a5b001995f974,26,sandwich,filler,D,50,sandwich40.jpg,sandwich60.jpg,GoalA,NULL
1687287420,0217d6d84393b677ce339258dc6317a3,PennController,10,0,experiment,NULL,PennController,9,_Trial_,Start,1687287376791,5d403ca7738a5b001995f974,5d403ca7738a5b001995f974,7,stack,critical,D,25,stack15.jpg,stack35.jpg,high,NULL
1687287420,0217d6d84393b677ce339258dc6317a3,PennController,10,0,experiment,NULL,PennController,9,_Header_,Start,1687287376791,5d403ca7738a5b001995f974,5d403ca7738a5b001995f974,7,stack,critical,D,25,stack15.jpg,stack35.jpg,high,NULL
1687287420,0217d6d84393b677ce339258dc6317a3,PennController,10,0,experiment,NULL,PennController,9,_Header_,End,1687287376791,5d403ca7738a5b001995f974,5d403ca7738a5b001995f974,7,stack,critical,D,25,stack15.jpg,stack35.jpg,high,NULL
1687287420,0217d6d84393b677ce339258dc6317a3,PennController,10,0,experiment,NULL,Canvas,canvas6,Print,NA,1687287382499,5d403ca7738a5b001995f974,5d403ca7738a5b001995f974,7,stack,critical,D,25,stack15.jpg,stack35.jpg,high,NULL
1687287420,0217d6d84393b677ce339258dc6317a3,PennController,10,0,experiment,NULL,Video,progression,buffer,0.009,1687287380324,5d403ca7738a5b001995f974,5d403ca7738a5b001995f974,7,stack,critical,D,25,stack15.jpg,stack35.jpg,high,NULL
1687287420,0217d6d84393b677ce339258dc6317a3,PennController,10,0,experiment,NULL,Selector,choice,Selection,option1,1687287386939,5d403ca7738a5b001995f974,5d403ca7738a5b001995f974,7,stack,critical,D,25,stack15.jpg,stack35.jpg,high,option1;option2
1687287420,0217d6d84393b677ce339258dc6317a3,PennController,10,0,experiment,NULL,PennController,9,_Trial_,End,1687287386941,5d403ca7738a5b001995f974,5d403ca7738a5b001995f974,7,stack,critical,D,25,stack15.jpg,stack35.jpg,high,NULL
1687287420,0217d6d84393b677ce339258dc6317a3,PennController,8,0,experiment,NULL,PennController,7,_Trial_,Start,1687287386943,5d403ca7738a5b001995f974,5d403ca7738a5b001995f974,5,book,critical,D,50,book40.jpg,book60.jpg,high,NULL
1687287420,0217d6d84393b677ce339258dc6317a3,PennController,8,0,experiment,NULL,PennController,7,_Header_,Start,1687287386943,5d403ca7738a5b001995f974,5d403ca7738a5b001995f974,5,book,critical,D,50,book40.jpg,book60.jpg,high,NULL
1687287420,0217d6d84393b677ce339258dc6317a3,PennController,8,0,experiment,NULL,PennController,7,_Header_,End,1687287386943,5d403ca7738a5b001995f974,5d403ca7738a5b001995f974,5,book,critical,D,50,book40.jpg,book60.jpg,high,NULL
1687287420,0217d6d84393b677ce339258dc6317a3,PennController,8,0,experiment,NULL,Canvas,canvas6,Print,NA,1687287393645,5d403ca7738a5b001995f974,5d403ca7738a5b001995f974,5,book,critical,D,50,book40.jpg,book60.jpg,high,NULL
1687287420,0217d6d84393b677ce339258dc6317a3,PennController,8,0,experiment,NULL,Video,progression,buffer,0.01,1687287390480,5d403ca7738a5b001995f974,5d403ca7738a5b001995f974,5,book,critical,D,50,book40.jpg,book60.jpg,high,NULL
1687287420,0217d6d84393b677ce339258dc6317a3,PennController,8,0,experiment,NULL,Selector,choice,Selection,option1,1687287396943,5d403ca7738a5b001995f974,5d403ca7738a5b001995f974,5,book,critical,D,50,book40.jpg,book60.jpg,high,option2;option1
1687287420,0217d6d84393b677ce339258dc6317a3,PennController,8,0,experiment,NULL,PennController,7,_Trial_,End,1687287396947,5d403ca7738a5b001995f974,5d403ca7738a5b001995f974,5,book,critical,D,50,book40.jpg,book60.jpg,high,NULL
1687287420,0217d6d84393b677ce339258dc6317a3,PennController,26,0,experiment,NULL,PennController,25,_Trial_,Start,1687287396949,5d403ca7738a5b001995f974,5d403ca7738a5b001995f974,23,color,filler,D,50,color40.jpg,color60.jpg,GoalB,NULL
1687287420,0217d6d84393b677ce339258dc6317a3,PennController,26,0,experiment,NULL,PennController,25,_Header_,Start,1687287396949,5d403ca7738a5b001995f974,5d403ca7738a5b001995f974,23,color,filler,D,50,color40.jpg,color60.jpg,GoalB,NULL
1687287420,0217d6d84393b677ce339258dc6317a3,PennController,26,0,experiment,NULL,PennController,25,_Header_,End,1687287396949,5d403ca7738a5b001995f974,5d403ca7738a5b001995f974,23,color,filler,D,50,color40.jpg,color60.jpg,GoalB,NULL
1687287420,0217d6d84393b677ce339258dc6317a3,PennController,26,0,experiment,NULL,Canvas,canvas6,Print,NA,1687287403651,5d403ca7738a5b001995f974,5d403ca7738a5b001995f974,23,color,filler,D,50,color40.jpg,color60.jpg,GoalB,NULL
1687287420,0217d6d84393b677ce339258dc6317a3,PennController,26,0,experiment,NULL,Video,progression,buffer,0.007,1687287400482,5d403ca7738a5b001995f974,5d403ca7738a5b001995f974,23,color,filler,D,50,color40.jpg,color60.jpg,GoalB,NULL
1687287420,0217d6d84393b677ce339258dc6317a3,PennController,26,0,experiment,NULL,Selector,choice,Selection,option1,1687287407139,5d403ca7738a5b001995f974,5d403ca7738a5b001995f974,23,color,filler,D,50,color40.jpg,color60.jpg,GoalB,option2;option1
1687287420,0217d6d84393b677ce339258dc6317a3,PennController,26,0,experiment,NULL,PennController,25,_Trial_,End,1687287407142,5d403ca7738a5b001995f974,5d403ca7738a5b001995f974,23,color,filler,D,50,color40.jpg,color60.jpg,GoalB,NULL
1687287420,0217d6d84393b677ce339258dc6317a3,PennController,15,0,experiment,NULL,PennController,14,_Trial_,Start,1687287407144,5d403ca7738a5b001995f974,5d403ca7738a5b001995f974,12,erase,critical,D,75,erase66.jpg,erase84.jpg,high,NULL
1687287420,0217d6d84393b677ce339258dc6317a3,PennController,15,0,experiment,NULL,PennController,14,_Header_,Start,1687287407144,5d403ca7738a5b001995f974,5d403ca7738a5b001995f974,12,erase,critical,D,75,erase66.jpg,erase84.jpg,high,NULL
1687287420,0217d6d84393b677ce339258dc6317a3,PennController,15,0,experiment,NULL,PennController,14,_Header_,End,1687287407144,5d403ca7738a5b001995f974,5d403ca7738a5b001995f974,12,erase,critical,D,75,erase66.jpg,erase84.jpg,high,NULL
1687287420,0217d6d84393b677ce339258dc6317a3,PennController,15,0,experiment,NULL,Canvas,canvas6,Print,NA,1687287416866,5d403ca7738a5b001995f974,5d403ca7738a5b001995f974,12,erase,critical,D,75,erase66.jpg,erase84.jpg,high,NULL
1687287420,0217d6d84393b677ce339258dc6317a3,PennController,15,0,experiment,NULL,Video,progression,buffer,0.006,1687287410674,5d403ca7738a5b001995f974,5d403ca7738a5b001995f974,12,erase,critical,D,75,erase66.jpg,erase84.jpg,high,NULL
1687287420,0217d6d84393b677ce339258dc6317a3,PennController,15,0,experiment,NULL,Selector,choice,Selection,option2,1687287419008,5d403ca7738a5b001995f974,5d403ca7738a5b001995f974,12,erase,critical,D,75,erase66.jpg,erase84.jpg,high,option2;option1
1687287420,0217d6d84393b677ce339258dc6317a3,PennController,15,0,experiment,NULL,PennController,14,_Trial_,End,1687287419011,5d403ca7738a5b001995f974,5d403ca7738a5b001995f974,12,erase,critical,D,75,erase66.jpg,erase84.jpg,high,NULL
