#
# Results on Tuesday June 20 2023 18:55:59 UTC
# USER AGENT: Mozilla/5.0 (Windows NT 10.0; Win64; x64) AppleWebKit/537.36 (KHTML, like Gecko) Chrome/114.0.0.0 Safari/537.36
# Design number was non-random = 3
#
# Columns below this comment are as follows:
# 1. Results reception time.
# 2. MD5 hash of participant's IP address.
# 3. Controller name.
# 4. Order number of item.
# 5. Inner element number.
# 6. Label.
# 7. Latin Square Group.
# 8. PennElementType.
# 9. PennElementName.
# 10. Parameter.
# 11. Value.
# 12. EventTime.
# 13. PROLIFIC_ID.
# 14. Comments.
1687287359,00cabc22f18aa9e9761b4793d43497fc,PennController,2,0,consent,NULL,PennController,0,_Trial_,Start,1687287070245,5fb43d1ad84de30d1cf25a6d,NULL
1687287359,00cabc22f18aa9e9761b4793d43497fc,PennController,2,0,consent,NULL,PennController,0,_Header_,Start,1687287070245,5fb43d1ad84de30d1cf25a6d,NULL
1687287359,00cabc22f18aa9e9761b4793d43497fc,PennController,2,0,consent,NULL,PennController,0,_Header_,End,1687287070245,5fb43d1ad84de30d1cf25a6d,NULL
1687287359,00cabc22f18aa9e9761b4793d43497fc,PennController,2,0,consent,NULL,PennController,0,_Trial_,End,1687287073490,5fb43d1ad84de30d1cf25a6d,NULL
# Columns below this comment are as follows:
# 14. ID.
# 15. Comments.
1687287359,00cabc22f18aa9e9761b4793d43497fc,PennController,3,0,intro,NULL,PennController,1,_Trial_,Start,1687287073491,5fb43d1ad84de30d1cf25a6d,5fb43d1ad84de30d1cf25a6d,NULL
1687287359,00cabc22f18aa9e9761b4793d43497fc,PennController,3,0,intro,NULL,PennController,1,_Header_,Start,1687287073491,5fb43d1ad84de30d1cf25a6d,5fb43d1ad84de30d1cf25a6d,NULL
1687287359,00cabc22f18aa9e9761b4793d43497fc,PennController,3,0,intro,NULL,PennController,1,_Header_,End,1687287073491,5fb43d1ad84de30d1cf25a6d,5fb43d1ad84de30d1cf25a6d,NULL
1687287359,00cabc22f18aa9e9761b4793d43497fc,PennController,3,0,intro,NULL,PennController,1,_Trial_,End,1687287076552,5fb43d1ad84de30d1cf25a6d,5fb43d1ad84de30d1cf25a6d,NULL
# Columns below this comment are as follows:
# 15. item_number.
# 16. item.
# 17. type.
# 18. Group.
# 19. prog.
# 20. prev_image.
# 21. next_image.
# 22. height.
# 23. Comments.
1687287359,00cabc22f18aa9e9761b4793d43497fc,PennController,13,0,experiment,NULL,PennController,12,_Trial_,Start,1687287076554,5fb43d1ad84de30d1cf25a6d,5fb43d1ad84de30d1cf25a6d,10,train,critical,D,25,train15.jpg,train35.jpg,high,NULL
1687287359,00cabc22f18aa9e9761b4793d43497fc,PennController,13,0,experiment,NULL,PennController,12,_Header_,Start,1687287076554,5fb43d1ad84de30d1cf25a6d,5fb43d1ad84de30d1cf25a6d,10,train,critical,D,25,train15.jpg,train35.jpg,high,NULL
1687287359,00cabc22f18aa9e9761b4793d43497fc,PennController,13,0,experiment,NULL,PennController,12,_Header_,End,1687287076554,5fb43d1ad84de30d1cf25a6d,5fb43d1ad84de30d1cf25a6d,10,train,critical,D,25,train15.jpg,train35.jpg,high,NULL
1687287359,00cabc22f18aa9e9761b4793d43497fc,PennController,13,0,experiment,NULL,Canvas,canvas6,Print,NA,1687287082236,5fb43d1ad84de30d1cf25a6d,5fb43d1ad84de30d1cf25a6d,10,train,critical,D,25,train15.jpg,train35.jpg,high,NULL
1687287359,00cabc22f18aa9e9761b4793d43497fc,PennController,13,0,experiment,NULL,Video,progression,buffer,0.001539,1687287080074,5fb43d1ad84de30d1cf25a6d,5fb43d1ad84de30d1cf25a6d,10,train,critical,D,25,train15.jpg,train35.jpg,high,NULL
1687287359,00cabc22f18aa9e9761b4793d43497fc,PennController,13,0,experiment,NULL,Selector,choice,Selection,option2,1687287087831,5fb43d1ad84de30d1cf25a6d,5fb43d1ad84de30d1cf25a6d,10,train,critical,D,25,train15.jpg,train35.jpg,high,option2;option1
1687287359,00cabc22f18aa9e9761b4793d43497fc,PennController,13,0,experiment,NULL,PennController,12,_Trial_,End,1687287087832,5fb43d1ad84de30d1cf25a6d,5fb43d1ad84de30d1cf25a6d,10,train,critical,D,25,train15.jpg,train35.jpg,high,NULL
1687287359,00cabc22f18aa9e9761b4793d43497fc,PennController,8,0,experiment,NULL,PennController,7,_Trial_,Start,1687287087833,5fb43d1ad84de30d1cf25a6d,5fb43d1ad84de30d1cf25a6d,5,book,critical,D,50,book40.jpg,book60.jpg,high,NULL
1687287359,00cabc22f18aa9e9761b4793d43497fc,PennController,8,0,experiment,NULL,PennController,7,_Header_,Start,1687287087833,5fb43d1ad84de30d1cf25a6d,5fb43d1ad84de30d1cf25a6d,5,book,critical,D,50,book40.jpg,book60.jpg,high,NULL
1687287359,00cabc22f18aa9e9761b4793d43497fc,PennController,8,0,experiment,NULL,PennController,7,_Header_,End,1687287087833,5fb43d1ad84de30d1cf25a6d,5fb43d1ad84de30d1cf25a6d,5,book,critical,D,50,book40.jpg,book60.jpg,high,NULL
1687287359,00cabc22f18aa9e9761b4793d43497fc,PennController,8,0,experiment,NULL,Canvas,canvas6,Print,NA,1687287094516,5fb43d1ad84de30d1cf25a6d,5fb43d1ad84de30d1cf25a6d,5,book,critical,D,50,book40.jpg,book60.jpg,high,NULL
1687287359,00cabc22f18aa9e9761b4793d43497fc,PennController,8,0,experiment,NULL,Video,progression,buffer,0.001585,1687287091348,5fb43d1ad84de30d1cf25a6d,5fb43d1ad84de30d1cf25a6d,5,book,critical,D,50,book40.jpg,book60.jpg,high,NULL
1687287359,00cabc22f18aa9e9761b4793d43497fc,PennController,8,0,experiment,NULL,Selector,choice,Selection,option2,1687287100151,5fb43d1ad84de30d1cf25a6d,5fb43d1ad84de30d1cf25a6d,5,book,critical,D,50,book40.jpg,book60.jpg,high,option2;option1
1687287359,00cabc22f18aa9e9761b4793d43497fc,PennController,8,0,experiment,NULL,PennController,7,_Trial_,End,1687287100152,5fb43d1ad84de30d1cf25a6d,5fb43d1ad84de30d1cf25a6d,5,book,critical,D,50,book40.jpg,book60.jpg,high,NULL
1687287359,00cabc22f18aa9e9761b4793d43497fc,PennController,30,0,experiment,NULL,PennController,29,_Trial_,Start,1687287100153,5fb43d1ad84de30d1cf25a6d,5fb43d1ad84de30d1cf25a6d,27,square,filler,D,75,square65.jpg,square85.jpg,GoalB,NULL
1687287359,00cabc22f18aa9e9761b4793d43497fc,PennController,30,0,experiment,NULL,PennController,29,_Header_,Start,1687287100153,5fb43d1ad84de30d1cf25a6d,5fb43d1ad84de30d1cf25a6d,27,square,filler,D,75,square65.jpg,square85.jpg,GoalB,NULL
1687287359,00cabc22f18aa9e9761b4793d43497fc,PennController,30,0,experiment,NULL,PennController,29,_Header_,End,1687287100153,5fb43d1ad84de30d1cf25a6d,5fb43d1ad84de30d1cf25a6d,27,square,filler,D,75,square65.jpg,square85.jpg,GoalB,NULL
1687287359,00cabc22f18aa9e9761b4793d43497fc,PennController,30,0,experiment,NULL,Canvas,canvas6,Print,NA,1687287107835,5fb43d1ad84de30d1cf25a6d,5fb43d1ad84de30d1cf25a6d,27,square,filler,D,75,square65.jpg,square85.jpg,GoalB,NULL
1687287359,00cabc22f18aa9e9761b4793d43497fc,PennController,30,0,experiment,NULL,Video,progression,buffer,0.001141,1687287103667,5fb43d1ad84de30d1cf25a6d,5fb43d1ad84de30d1cf25a6d,27,square,filler,D,75,square65.jpg,square85.jpg,GoalB,NULL
1687287359,00cabc22f18aa9e9761b4793d43497fc,PennController,30,0,experiment,NULL,Selector,choice,Selection,option1,1687287109502,5fb43d1ad84de30d1cf25a6d,5fb43d1ad84de30d1cf25a6d,27,square,filler,D,75,square65.jpg,square85.jpg,GoalB,option2;option1
1687287359,00cabc22f18aa9e9761b4793d43497fc,PennController,30,0,experiment,NULL,PennController,29,_Trial_,End,1687287109502,5fb43d1ad84de30d1cf25a6d,5fb43d1ad84de30d1cf25a6d,27,square,filler,D,75,square65.jpg,square85.jpg,GoalB,NULL
1687287359,00cabc22f18aa9e9761b4793d43497fc,PennController,29,0,experiment,NULL,PennController,28,_Trial_,Start,1687287109503,5fb43d1ad84de30d1cf25a6d,5fb43d1ad84de30d1cf25a6d,26,sandwich,filler,D,50,sandwich40.jpg,sandwich60.jpg,GoalA,NULL
1687287359,00cabc22f18aa9e9761b4793d43497fc,PennController,29,0,experiment,NULL,PennController,28,_Header_,Start,1687287109503,5fb43d1ad84de30d1cf25a6d,5fb43d1ad84de30d1cf25a6d,26,sandwich,filler,D,50,sandwich40.jpg,sandwich60.jpg,GoalA,NULL
1687287359,00cabc22f18aa9e9761b4793d43497fc,PennController,29,0,experiment,NULL,PennController,28,_Header_,End,1687287109503,5fb43d1ad84de30d1cf25a6d,5fb43d1ad84de30d1cf25a6d,26,sandwich,filler,D,50,sandwich40.jpg,sandwich60.jpg,GoalA,NULL
1687287359,00cabc22f18aa9e9761b4793d43497fc,PennController,29,0,experiment,NULL,Canvas,canvas6,Print,NA,1687287116189,5fb43d1ad84de30d1cf25a6d,5fb43d1ad84de30d1cf25a6d,26,sandwich,filler,D,50,sandwich40.jpg,sandwich60.jpg,GoalA,NULL
1687287359,00cabc22f18aa9e9761b4793d43497fc,PennController,29,0,experiment,NULL,Video,progression,buffer,0.001177,1687287113019,5fb43d1ad84de30d1cf25a6d,5fb43d1ad84de30d1cf25a6d,26,sandwich,filler,D,50,sandwich40.jpg,sandwich60.jpg,GoalA,NULL
1687287359,00cabc22f18aa9e9761b4793d43497fc,PennController,29,0,experiment,NULL,Selector,choice,Selection,option1,1687287117569,5fb43d1ad84de30d1cf25a6d,5fb43d1ad84de30d1cf25a6d,26,sandwich,filler,D,50,sandwich40.jpg,sandwich60.jpg,GoalA,option2;option1
1687287359,00cabc22f18aa9e9761b4793d43497fc,PennController,29,0,experiment,NULL,PennController,28,_Trial_,End,1687287117569,5fb43d1ad84de30d1cf25a6d,5fb43d1ad84de30d1cf25a6d,26,sandwich,filler,D,50,sandwich40.jpg,sandwich60.jpg,GoalA,NULL
1687287359,00cabc22f18aa9e9761b4793d43497fc,PennController,15,0,experiment,NULL,PennController,14,_Trial_,Start,1687287117570,5fb43d1ad84de30d1cf25a6d,5fb43d1ad84de30d1cf25a6d,12,erase,critical,D,75,erase66.jpg,erase84.jpg,high,NULL
1687287359,00cabc22f18aa9e9761b4793d43497fc,PennController,15,0,experiment,NULL,PennController,14,_Header_,Start,1687287117570,5fb43d1ad84de30d1cf25a6d,5fb43d1ad84de30d1cf25a6d,12,erase,critical,D,75,erase66.jpg,erase84.jpg,high,NULL
1687287359,00cabc22f18aa9e9761b4793d43497fc,PennController,15,0,experiment,NULL,PennController,14,_Header_,End,1687287117570,5fb43d1ad84de30d1cf25a6d,5fb43d1ad84de30d1cf25a6d,12,erase,critical,D,75,erase66.jpg,erase84.jpg,high,NULL
1687287359,00cabc22f18aa9e9761b4793d43497fc,PennController,15,0,experiment,NULL,Canvas,canvas6,Print,NA,1687287127248,5fb43d1ad84de30d1cf25a6d,5fb43d1ad84de30d1cf25a6d,12,erase,critical,D,75,erase66.jpg,erase84.jpg,high,NULL
1687287359,00cabc22f18aa9e9761b4793d43497fc,PennController,15,0,experiment,NULL,Video,progression,buffer,0.001411,1687287121084,5fb43d1ad84de30d1cf25a6d,5fb43d1ad84de30d1cf25a6d,12,erase,critical,D,75,erase66.jpg,erase84.jpg,high,NULL
1687287359,00cabc22f18aa9e9761b4793d43497fc,PennController,15,0,experiment,NULL,Selector,choice,Selection,option1,1687287131774,5fb43d1ad84de30d1cf25a6d,5fb43d1ad84de30d1cf25a6d,12,erase,critical,D,75,erase66.jpg,erase84.jpg,high,option2;option1
1687287359,00cabc22f18aa9e9761b4793d43497fc,PennController,15,0,experiment,NULL,PennController,14,_Trial_,End,1687287131775,5fb43d1ad84de30d1cf25a6d,5fb43d1ad84de30d1cf25a6d,12,erase,critical,D,75,erase66.jpg,erase84.jpg,high,NULL
1687287359,00cabc22f18aa9e9761b4793d43497fc,PennController,10,0,experiment,NULL,PennController,9,_Trial_,Start,1687287131775,5fb43d1ad84de30d1cf25a6d,5fb43d1ad84de30d1cf25a6d,7,stack,critical,D,25,stack15.jpg,stack35.jpg,high,NULL
1687287359,00cabc22f18aa9e9761b4793d43497fc,PennController,10,0,experiment,NULL,PennController,9,_Header_,Start,1687287131775,5fb43d1ad84de30d1cf25a6d,5fb43d1ad84de30d1cf25a6d,7,stack,critical,D,25,stack15.jpg,stack35.jpg,high,NULL
1687287359,00cabc22f18aa9e9761b4793d43497fc,PennController,10,0,experiment,NULL,PennController,9,_Header_,End,1687287131775,5fb43d1ad84de30d1cf25a6d,5fb43d1ad84de30d1cf25a6d,7,stack,critical,D,25,stack15.jpg,stack35.jpg,high,NULL
1687287359,00cabc22f18aa9e9761b4793d43497fc,PennController,10,0,experiment,NULL,Canvas,canvas6,Print,NA,1687287137449,5fb43d1ad84de30d1cf25a6d,5fb43d1ad84de30d1cf25a6d,7,stack,critical,D,25,stack15.jpg,stack35.jpg,high,NULL
1687287359,00cabc22f18aa9e9761b4793d43497fc,PennController,10,0,experiment,NULL,Video,progression,buffer,0.00142,1687287135292,5fb43d1ad84de30d1cf25a6d,5fb43d1ad84de30d1cf25a6d,7,stack,critical,D,25,stack15.jpg,stack35.jpg,high,NULL
1687287359,00cabc22f18aa9e9761b4793d43497fc,PennController,10,0,experiment,NULL,Selector,choice,Selection,option1,1687287139402,5fb43d1ad84de30d1cf25a6d,5fb43d1ad84de30d1cf25a6d,7,stack,critical,D,25,stack15.jpg,stack35.jpg,high,option1;option2
1687287359,00cabc22f18aa9e9761b4793d43497fc,PennController,10,0,experiment,NULL,PennController,9,_Trial_,End,1687287139403,5fb43d1ad84de30d1cf25a6d,5fb43d1ad84de30d1cf25a6d,7,stack,critical,D,25,stack15.jpg,stack35.jpg,high,NULL
1687287359,00cabc22f18aa9e9761b4793d43497fc,PennController,21,0,experiment,NULL,PennController,20,_Trial_,Start,1687287139404,5fb43d1ad84de30d1cf25a6d,5fb43d1ad84de30d1cf25a6d,18,ball,critical,D,75,ball65.jpg,ball85.jpg,high,NULL
1687287359,00cabc22f18aa9e9761b4793d43497fc,PennController,21,0,experiment,NULL,PennController,20,_Header_,Start,1687287139404,5fb43d1ad84de30d1cf25a6d,5fb43d1ad84de30d1cf25a6d,18,ball,critical,D,75,ball65.jpg,ball85.jpg,high,NULL
1687287359,00cabc22f18aa9e9761b4793d43497fc,PennController,21,0,experiment,NULL,PennController,20,_Header_,End,1687287139404,5fb43d1ad84de30d1cf25a6d,5fb43d1ad84de30d1cf25a6d,18,ball,critical,D,75,ball65.jpg,ball85.jpg,high,NULL
1687287359,00cabc22f18aa9e9761b4793d43497fc,PennController,21,0,experiment,NULL,Canvas,canvas6,Print,NA,1687287147084,5fb43d1ad84de30d1cf25a6d,5fb43d1ad84de30d1cf25a6d,18,ball,critical,D,75,ball65.jpg,ball85.jpg,high,NULL
1687287359,00cabc22f18aa9e9761b4793d43497fc,PennController,21,0,experiment,NULL,Video,progression,buffer,0.001105,1687287142917,5fb43d1ad84de30d1cf25a6d,5fb43d1ad84de30d1cf25a6d,18,ball,critical,D,75,ball65.jpg,ball85.jpg,high,NULL
1687287359,00cabc22f18aa9e9761b4793d43497fc,PennController,21,0,experiment,NULL,Selector,choice,Selection,option1,1687287148750,5fb43d1ad84de30d1cf25a6d,5fb43d1ad84de30d1cf25a6d,18,ball,critical,D,75,ball65.jpg,ball85.jpg,high,option2;option1
1687287359,00cabc22f18aa9e9761b4793d43497fc,PennController,21,0,experiment,NULL,PennController,20,_Trial_,End,1687287148751,5fb43d1ad84de30d1cf25a6d,5fb43d1ad84de30d1cf25a6d,18,ball,critical,D,75,ball65.jpg,ball85.jpg,high,NULL
1687287359,00cabc22f18aa9e9761b4793d43497fc,PennController,14,0,experiment,NULL,PennController,13,_Trial_,Start,1687287148751,5fb43d1ad84de30d1cf25a6d,5fb43d1ad84de30d1cf25a6d,11,beads,critical,D,50,beads40.jpg,beads60.jpg,high,NULL
1687287359,00cabc22f18aa9e9761b4793d43497fc,PennController,14,0,experiment,NULL,PennController,13,_Header_,Start,1687287148751,5fb43d1ad84de30d1cf25a6d,5fb43d1ad84de30d1cf25a6d,11,beads,critical,D,50,beads40.jpg,beads60.jpg,high,NULL
1687287359,00cabc22f18aa9e9761b4793d43497fc,PennController,14,0,experiment,NULL,PennController,13,_Header_,End,1687287148751,5fb43d1ad84de30d1cf25a6d,5fb43d1ad84de30d1cf25a6d,11,beads,critical,D,50,beads40.jpg,beads60.jpg,high,NULL
1687287359,00cabc22f18aa9e9761b4793d43497fc,PennController,14,0,experiment,NULL,Canvas,canvas6,Print,NA,1687287155434,5fb43d1ad84de30d1cf25a6d,5fb43d1ad84de30d1cf25a6d,11,beads,critical,D,50,beads40.jpg,beads60.jpg,high,NULL
1687287359,00cabc22f18aa9e9761b4793d43497fc,PennController,14,0,experiment,NULL,Video,progression,buffer,0.001193,1687287152263,5fb43d1ad84de30d1cf25a6d,5fb43d1ad84de30d1cf25a6d,11,beads,critical,D,50,beads40.jpg,beads60.jpg,high,NULL
1687287359,00cabc22f18aa9e9761b4793d43497fc,PennController,14,0,experiment,NULL,Selector,choice,Selection,option1,1687287157356,5fb43d1ad84de30d1cf25a6d,5fb43d1ad84de30d1cf25a6d,11,beads,critical,D,50,beads40.jpg,beads60.jpg,high,option2;option1
1687287359,00cabc22f18aa9e9761b4793d43497fc,PennController,14,0,experiment,NULL,PennController,13,_Trial_,End,1687287157356,5fb43d1ad84de30d1cf25a6d,5fb43d1ad84de30d1cf25a6d,11,beads,critical,D,50,beads40.jpg,beads60.jpg,high,NULL
1687287359,00cabc22f18aa9e9761b4793d43497fc,PennController,19,0,experiment,NULL,PennController,18,_Trial_,Start,1687287157357,5fb43d1ad84de30d1cf25a6d,5fb43d1ad84de30d1cf25a6d,16,blinds,critical,D,25,blinds15.jpg,blinds33.jpg,high,NULL
1687287359,00cabc22f18aa9e9761b4793d43497fc,PennController,19,0,experiment,NULL,PennController,18,_Header_,Start,1687287157357,5fb43d1ad84de30d1cf25a6d,5fb43d1ad84de30d1cf25a6d,16,blinds,critical,D,25,blinds15.jpg,blinds33.jpg,high,NULL
1687287359,00cabc22f18aa9e9761b4793d43497fc,PennController,19,0,experiment,NULL,PennController,18,_Header_,End,1687287157357,5fb43d1ad84de30d1cf25a6d,5fb43d1ad84de30d1cf25a6d,16,blinds,critical,D,25,blinds15.jpg,blinds33.jpg,high,NULL
1687287359,00cabc22f18aa9e9761b4793d43497fc,PennController,19,0,experiment,NULL,Canvas,canvas6,Print,NA,1687287163635,5fb43d1ad84de30d1cf25a6d,5fb43d1ad84de30d1cf25a6d,16,blinds,critical,D,25,blinds15.jpg,blinds33.jpg,high,NULL
1687287359,00cabc22f18aa9e9761b4793d43497fc,PennController,19,0,experiment,NULL,Video,progression,buffer,0.001306,1687287160870,5fb43d1ad84de30d1cf25a6d,5fb43d1ad84de30d1cf25a6d,16,blinds,critical,D,25,blinds15.jpg,blinds33.jpg,high,NULL
1687287359,00cabc22f18aa9e9761b4793d43497fc,PennController,19,0,experiment,NULL,Selector,choice,Selection,option1,1687287167249,5fb43d1ad84de30d1cf25a6d,5fb43d1ad84de30d1cf25a6d,16,blinds,critical,D,25,blinds15.jpg,blinds33.jpg,high,option2;option1
1687287359,00cabc22f18aa9e9761b4793d43497fc,PennController,19,0,experiment,NULL,PennController,18,_Trial_,End,1687287167249,5fb43d1ad84de30d1cf25a6d,5fb43d1ad84de30d1cf25a6d,16,blinds,critical,D,25,blinds15.jpg,blinds33.jpg,high,NULL
1687287359,00cabc22f18aa9e9761b4793d43497fc,PennController,16,0,experiment,NULL,PennController,15,_Trial_,Start,1687287167250,5fb43d1ad84de30d1cf25a6d,5fb43d1ad84de30d1cf25a6d,13,mix,critical,D,25,mix15.jpg,mix35.jpg,high,NULL
1687287359,00cabc22f18aa9e9761b4793d43497fc,PennController,16,0,experiment,NULL,PennController,15,_Header_,Start,1687287167250,5fb43d1ad84de30d1cf25a6d,5fb43d1ad84de30d1cf25a6d,13,mix,critical,D,25,mix15.jpg,mix35.jpg,high,NULL
1687287359,00cabc22f18aa9e9761b4793d43497fc,PennController,16,0,experiment,NULL,PennController,15,_Header_,End,1687287167250,5fb43d1ad84de30d1cf25a6d,5fb43d1ad84de30d1cf25a6d,13,mix,critical,D,25,mix15.jpg,mix35.jpg,high,NULL
1687287359,00cabc22f18aa9e9761b4793d43497fc,PennController,16,0,experiment,NULL,Canvas,canvas6,Print,NA,1687287172932,5fb43d1ad84de30d1cf25a6d,5fb43d1ad84de30d1cf25a6d,13,mix,critical,D,25,mix15.jpg,mix35.jpg,high,NULL
1687287359,00cabc22f18aa9e9761b4793d43497fc,PennController,16,0,experiment,NULL,Video,progression,buffer,0.001315,1687287170766,5fb43d1ad84de30d1cf25a6d,5fb43d1ad84de30d1cf25a6d,13,mix,critical,D,25,mix15.jpg,mix35.jpg,high,NULL
1687287359,00cabc22f18aa9e9761b4793d43497fc,PennController,16,0,experiment,NULL,Selector,choice,Selection,option1,1687287174357,5fb43d1ad84de30d1cf25a6d,5fb43d1ad84de30d1cf25a6d,13,mix,critical,D,25,mix15.jpg,mix35.jpg,high,option1;option2
1687287359,00cabc22f18aa9e9761b4793d43497fc,PennController,16,0,experiment,NULL,PennController,15,_Trial_,End,1687287174358,5fb43d1ad84de30d1cf25a6d,5fb43d1ad84de30d1cf25a6d,13,mix,critical,D,25,mix15.jpg,mix35.jpg,high,NULL
1687287359,00cabc22f18aa9e9761b4793d43497fc,PennController,28,0,experiment,NULL,PennController,27,_Trial_,Start,1687287174358,5fb43d1ad84de30d1cf25a6d,5fb43d1ad84de30d1cf25a6d,25,house,filler,D,25,house15.jpg,house35.jpg,GoalB,NULL
1687287359,00cabc22f18aa9e9761b4793d43497fc,PennController,28,0,experiment,NULL,PennController,27,_Header_,Start,1687287174358,5fb43d1ad84de30d1cf25a6d,5fb43d1ad84de30d1cf25a6d,25,house,filler,D,25,house15.jpg,house35.jpg,GoalB,NULL
1687287359,00cabc22f18aa9e9761b4793d43497fc,PennController,28,0,experiment,NULL,PennController,27,_Header_,End,1687287174358,5fb43d1ad84de30d1cf25a6d,5fb43d1ad84de30d1cf25a6d,25,house,filler,D,25,house15.jpg,house35.jpg,GoalB,NULL
1687287359,00cabc22f18aa9e9761b4793d43497fc,PennController,28,0,experiment,NULL,Canvas,canvas6,Print,NA,1687287180034,5fb43d1ad84de30d1cf25a6d,5fb43d1ad84de30d1cf25a6d,25,house,filler,D,25,house15.jpg,house35.jpg,GoalB,NULL
1687287359,00cabc22f18aa9e9761b4793d43497fc,PennController,28,0,experiment,NULL,Video,progression,buffer,0.001217,1687287177871,5fb43d1ad84de30d1cf25a6d,5fb43d1ad84de30d1cf25a6d,25,house,filler,D,25,house15.jpg,house35.jpg,GoalB,NULL
1687287359,00cabc22f18aa9e9761b4793d43497fc,PennController,28,0,experiment,NULL,Selector,choice,Selection,option2,1687287182255,5fb43d1ad84de30d1cf25a6d,5fb43d1ad84de30d1cf25a6d,25,house,filler,D,25,house15.jpg,house35.jpg,GoalB,option2;option1
1687287359,00cabc22f18aa9e9761b4793d43497fc,PennController,28,0,experiment,NULL,PennController,27,_Trial_,End,1687287182256,5fb43d1ad84de30d1cf25a6d,5fb43d1ad84de30d1cf25a6d,25,house,filler,D,25,house15.jpg,house35.jpg,GoalB,NULL
1687287359,00cabc22f18aa9e9761b4793d43497fc,PennController,24,0,experiment,NULL,PennController,23,_Trial_,Start,1687287182256,5fb43d1ad84de30d1cf25a6d,5fb43d1ad84de30d1cf25a6d,21,visit,filler,D,75,visit65.jpg,visit85.jpg,GoalB,NULL
1687287359,00cabc22f18aa9e9761b4793d43497fc,PennController,24,0,experiment,NULL,PennController,23,_Header_,Start,1687287182256,5fb43d1ad84de30d1cf25a6d,5fb43d1ad84de30d1cf25a6d,21,visit,filler,D,75,visit65.jpg,visit85.jpg,GoalB,NULL
1687287359,00cabc22f18aa9e9761b4793d43497fc,PennController,24,0,experiment,NULL,PennController,23,_Header_,End,1687287182256,5fb43d1ad84de30d1cf25a6d,5fb43d1ad84de30d1cf25a6d,21,visit,filler,D,75,visit65.jpg,visit85.jpg,GoalB,NULL
1687287359,00cabc22f18aa9e9761b4793d43497fc,PennController,24,0,experiment,NULL,Canvas,canvas6,Print,NA,1687287189932,5fb43d1ad84de30d1cf25a6d,5fb43d1ad84de30d1cf25a6d,21,visit,filler,D,75,visit65.jpg,visit85.jpg,GoalB,NULL
1687287359,00cabc22f18aa9e9761b4793d43497fc,PennController,24,0,experiment,NULL,Video,progression,buffer,0.001121,1687287185771,5fb43d1ad84de30d1cf25a6d,5fb43d1ad84de30d1cf25a6d,21,visit,filler,D,75,visit65.jpg,visit85.jpg,GoalB,NULL
1687287359,00cabc22f18aa9e9761b4793d43497fc,PennController,24,0,experiment,NULL,Selector,choice,Selection,option2,1687287192878,5fb43d1ad84de30d1cf25a6d,5fb43d1ad84de30d1cf25a6d,21,visit,filler,D,75,visit65.jpg,visit85.jpg,GoalB,option2;option1
1687287359,00cabc22f18aa9e9761b4793d43497fc,PennController,24,0,experiment,NULL,PennController,23,_Trial_,End,1687287192879,5fb43d1ad84de30d1cf25a6d,5fb43d1ad84de30d1cf25a6d,21,visit,filler,D,75,visit65.jpg,visit85.jpg,GoalB,NULL
1687287359,00cabc22f18aa9e9761b4793d43497fc,PennController,7,0,experiment,NULL,PennController,6,_Trial_,Start,1687287192880,5fb43d1ad84de30d1cf25a6d,5fb43d1ad84de30d1cf25a6d,4,candy,critical,D,25,candy15.jpg,candy35.jpg,high,NULL
1687287359,00cabc22f18aa9e9761b4793d43497fc,PennController,7,0,experiment,NULL,PennController,6,_Header_,Start,1687287192880,5fb43d1ad84de30d1cf25a6d,5fb43d1ad84de30d1cf25a6d,4,candy,critical,D,25,candy15.jpg,candy35.jpg,high,NULL
1687287359,00cabc22f18aa9e9761b4793d43497fc,PennController,7,0,experiment,NULL,PennController,6,_Header_,End,1687287192880,5fb43d1ad84de30d1cf25a6d,5fb43d1ad84de30d1cf25a6d,4,candy,critical,D,25,candy15.jpg,candy35.jpg,high,NULL
1687287359,00cabc22f18aa9e9761b4793d43497fc,PennController,7,0,experiment,NULL,Canvas,canvas6,Print,NA,1687287198548,5fb43d1ad84de30d1cf25a6d,5fb43d1ad84de30d1cf25a6d,4,candy,critical,D,25,candy15.jpg,candy35.jpg,high,NULL
1687287359,00cabc22f18aa9e9761b4793d43497fc,PennController,7,0,experiment,NULL,Video,progression,buffer,0.001249,1687287196390,5fb43d1ad84de30d1cf25a6d,5fb43d1ad84de30d1cf25a6d,4,candy,critical,D,25,candy15.jpg,candy35.jpg,high,NULL
1687287359,00cabc22f18aa9e9761b4793d43497fc,PennController,7,0,experiment,NULL,Selector,choice,Selection,option2,1687287200600,5fb43d1ad84de30d1cf25a6d,5fb43d1ad84de30d1cf25a6d,4,candy,critical,D,25,candy15.jpg,candy35.jpg,high,option2;option1
1687287359,00cabc22f18aa9e9761b4793d43497fc,PennController,7,0,experiment,NULL,PennController,6,_Trial_,End,1687287200601,5fb43d1ad84de30d1cf25a6d,5fb43d1ad84de30d1cf25a6d,4,candy,critical,D,25,candy15.jpg,candy35.jpg,high,NULL
1687287359,00cabc22f18aa9e9761b4793d43497fc,PennController,25,0,experiment,NULL,PennController,24,_Trial_,Start,1687287200601,5fb43d1ad84de30d1cf25a6d,5fb43d1ad84de30d1cf25a6d,22,wall,filler,D,25,wall15.jpg,wall35.jpg,GoalA,NULL
1687287359,00cabc22f18aa9e9761b4793d43497fc,PennController,25,0,experiment,NULL,PennController,24,_Header_,Start,1687287200601,5fb43d1ad84de30d1cf25a6d,5fb43d1ad84de30d1cf25a6d,22,wall,filler,D,25,wall15.jpg,wall35.jpg,GoalA,NULL
1687287359,00cabc22f18aa9e9761b4793d43497fc,PennController,25,0,experiment,NULL,PennController,24,_Header_,End,1687287200601,5fb43d1ad84de30d1cf25a6d,5fb43d1ad84de30d1cf25a6d,22,wall,filler,D,25,wall15.jpg,wall35.jpg,GoalA,NULL
1687287359,00cabc22f18aa9e9761b4793d43497fc,PennController,25,0,experiment,NULL,Canvas,canvas6,Print,NA,1687287206282,5fb43d1ad84de30d1cf25a6d,5fb43d1ad84de30d1cf25a6d,22,wall,filler,D,25,wall15.jpg,wall35.jpg,GoalA,NULL
1687287359,00cabc22f18aa9e9761b4793d43497fc,PennController,25,0,experiment,NULL,Video,progression,buffer,0.001348,1687287204119,5fb43d1ad84de30d1cf25a6d,5fb43d1ad84de30d1cf25a6d,22,wall,filler,D,25,wall15.jpg,wall35.jpg,GoalA,NULL
1687287359,00cabc22f18aa9e9761b4793d43497fc,PennController,25,0,experiment,NULL,Selector,choice,Selection,option2,1687287208826,5fb43d1ad84de30d1cf25a6d,5fb43d1ad84de30d1cf25a6d,22,wall,filler,D,25,wall15.jpg,wall35.jpg,GoalA,option1;option2
1687287359,00cabc22f18aa9e9761b4793d43497fc,PennController,25,0,experiment,NULL,PennController,24,_Trial_,End,1687287208827,5fb43d1ad84de30d1cf25a6d,5fb43d1ad84de30d1cf25a6d,22,wall,filler,D,25,wall15.jpg,wall35.jpg,GoalA,NULL
1687287359,00cabc22f18aa9e9761b4793d43497fc,PennController,22,0,experiment,NULL,PennController,21,_Trial_,Start,1687287208828,5fb43d1ad84de30d1cf25a6d,5fb43d1ad84de30d1cf25a6d,19,cup,filler,D,25,cup15.jpg,cup35.jpg,GoalB,NULL
1687287359,00cabc22f18aa9e9761b4793d43497fc,PennController,22,0,experiment,NULL,PennController,21,_Header_,Start,1687287208828,5fb43d1ad84de30d1cf25a6d,5fb43d1ad84de30d1cf25a6d,19,cup,filler,D,25,cup15.jpg,cup35.jpg,GoalB,NULL
1687287359,00cabc22f18aa9e9761b4793d43497fc,PennController,22,0,experiment,NULL,PennController,21,_Header_,End,1687287208828,5fb43d1ad84de30d1cf25a6d,5fb43d1ad84de30d1cf25a6d,19,cup,filler,D,25,cup15.jpg,cup35.jpg,GoalB,NULL
1687287359,00cabc22f18aa9e9761b4793d43497fc,PennController,22,0,experiment,NULL,Canvas,canvas6,Print,NA,1687287214499,5fb43d1ad84de30d1cf25a6d,5fb43d1ad84de30d1cf25a6d,19,cup,filler,D,25,cup15.jpg,cup35.jpg,GoalB,NULL
1687287359,00cabc22f18aa9e9761b4793d43497fc,PennController,22,0,experiment,NULL,Video,progression,buffer,0.001158,1687287212339,5fb43d1ad84de30d1cf25a6d,5fb43d1ad84de30d1cf25a6d,19,cup,filler,D,25,cup15.jpg,cup35.jpg,GoalB,NULL
1687287359,00cabc22f18aa9e9761b4793d43497fc,PennController,22,0,experiment,NULL,Selector,choice,Selection,option2,1687287218618,5fb43d1ad84de30d1cf25a6d,5fb43d1ad84de30d1cf25a6d,19,cup,filler,D,25,cup15.jpg,cup35.jpg,GoalB,option2;option1
1687287359,00cabc22f18aa9e9761b4793d43497fc,PennController,22,0,experiment,NULL,PennController,21,_Trial_,End,1687287218619,5fb43d1ad84de30d1cf25a6d,5fb43d1ad84de30d1cf25a6d,19,cup,filler,D,25,cup15.jpg,cup35.jpg,GoalB,NULL
1687287359,00cabc22f18aa9e9761b4793d43497fc,PennController,9,0,experiment,NULL,PennController,8,_Trial_,Start,1687287218620,5fb43d1ad84de30d1cf25a6d,5fb43d1ad84de30d1cf25a6d,6,flower,critical,D,75,flower65.jpg,flower85.jpg,high,NULL
1687287359,00cabc22f18aa9e9761b4793d43497fc,PennController,9,0,experiment,NULL,PennController,8,_Header_,Start,1687287218620,5fb43d1ad84de30d1cf25a6d,5fb43d1ad84de30d1cf25a6d,6,flower,critical,D,75,flower65.jpg,flower85.jpg,high,NULL
1687287359,00cabc22f18aa9e9761b4793d43497fc,PennController,9,0,experiment,NULL,PennController,8,_Header_,End,1687287218620,5fb43d1ad84de30d1cf25a6d,5fb43d1ad84de30d1cf25a6d,6,flower,critical,D,75,flower65.jpg,flower85.jpg,high,NULL
1687287359,00cabc22f18aa9e9761b4793d43497fc,PennController,9,0,experiment,NULL,Canvas,canvas6,Print,NA,1687287226302,5fb43d1ad84de30d1cf25a6d,5fb43d1ad84de30d1cf25a6d,6,flower,critical,D,75,flower65.jpg,flower85.jpg,high,NULL
1687287359,00cabc22f18aa9e9761b4793d43497fc,PennController,9,0,experiment,NULL,Video,progression,buffer,0.001319,1687287222134,5fb43d1ad84de30d1cf25a6d,5fb43d1ad84de30d1cf25a6d,6,flower,critical,D,75,flower65.jpg,flower85.jpg,high,NULL
1687287359,00cabc22f18aa9e9761b4793d43497fc,PennController,9,0,experiment,NULL,Selector,choice,Selection,option1,1687287228688,5fb43d1ad84de30d1cf25a6d,5fb43d1ad84de30d1cf25a6d,6,flower,critical,D,75,flower65.jpg,flower85.jpg,high,option1;option2
1687287359,00cabc22f18aa9e9761b4793d43497fc,PennController,9,0,experiment,NULL,PennController,8,_Trial_,End,1687287228689,5fb43d1ad84de30d1cf25a6d,5fb43d1ad84de30d1cf25a6d,6,flower,critical,D,75,flower65.jpg,flower85.jpg,high,NULL
1687287359,00cabc22f18aa9e9761b4793d43497fc,PennController,32,0,experiment,NULL,PennController,31,_Trial_,Start,1687287228690,5fb43d1ad84de30d1cf25a6d,5fb43d1ad84de30d1cf25a6d,29,frog,filler,D,50,frog40.jpg,frog60.jpg,GoalB,NULL
1687287359,00cabc22f18aa9e9761b4793d43497fc,PennController,32,0,experiment,NULL,PennController,31,_Header_,Start,1687287228690,5fb43d1ad84de30d1cf25a6d,5fb43d1ad84de30d1cf25a6d,29,frog,filler,D,50,frog40.jpg,frog60.jpg,GoalB,NULL
1687287359,00cabc22f18aa9e9761b4793d43497fc,PennController,32,0,experiment,NULL,PennController,31,_Header_,End,1687287228690,5fb43d1ad84de30d1cf25a6d,5fb43d1ad84de30d1cf25a6d,29,frog,filler,D,50,frog40.jpg,frog60.jpg,GoalB,NULL
1687287359,00cabc22f18aa9e9761b4793d43497fc,PennController,32,0,experiment,NULL,Canvas,canvas6,Print,NA,1687287235364,5fb43d1ad84de30d1cf25a6d,5fb43d1ad84de30d1cf25a6d,29,frog,filler,D,50,frog40.jpg,frog60.jpg,GoalB,NULL
1687287359,00cabc22f18aa9e9761b4793d43497fc,PennController,32,0,experiment,NULL,Video,progression,buffer,0.001215,1687287232208,5fb43d1ad84de30d1cf25a6d,5fb43d1ad84de30d1cf25a6d,29,frog,filler,D,50,frog40.jpg,frog60.jpg,GoalB,NULL
1687287359,00cabc22f18aa9e9761b4793d43497fc,PennController,32,0,experiment,NULL,Selector,choice,Selection,option1,1687287236842,5fb43d1ad84de30d1cf25a6d,5fb43d1ad84de30d1cf25a6d,29,frog,filler,D,50,frog40.jpg,frog60.jpg,GoalB,option1;option2
1687287359,00cabc22f18aa9e9761b4793d43497fc,PennController,32,0,experiment,NULL,PennController,31,_Trial_,End,1687287236843,5fb43d1ad84de30d1cf25a6d,5fb43d1ad84de30d1cf25a6d,29,frog,filler,D,50,frog40.jpg,frog60.jpg,GoalB,NULL
1687287359,00cabc22f18aa9e9761b4793d43497fc,PennController,17,0,experiment,NULL,PennController,16,_Trial_,Start,1687287236843,5fb43d1ad84de30d1cf25a6d,5fb43d1ad84de30d1cf25a6d,14,cover,critical,D,50,cover42.jpg,cover60.jpg,high,NULL
1687287359,00cabc22f18aa9e9761b4793d43497fc,PennController,17,0,experiment,NULL,PennController,16,_Header_,Start,1687287236843,5fb43d1ad84de30d1cf25a6d,5fb43d1ad84de30d1cf25a6d,14,cover,critical,D,50,cover42.jpg,cover60.jpg,high,NULL
1687287359,00cabc22f18aa9e9761b4793d43497fc,PennController,17,0,experiment,NULL,PennController,16,_Header_,End,1687287236843,5fb43d1ad84de30d1cf25a6d,5fb43d1ad84de30d1cf25a6d,14,cover,critical,D,50,cover42.jpg,cover60.jpg,high,NULL
1687287359,00cabc22f18aa9e9761b4793d43497fc,PennController,17,0,experiment,NULL,Canvas,canvas6,Print,NA,1687287244915,5fb43d1ad84de30d1cf25a6d,5fb43d1ad84de30d1cf25a6d,14,cover,critical,D,50,cover42.jpg,cover60.jpg,high,NULL
1687287359,00cabc22f18aa9e9761b4793d43497fc,PennController,17,0,experiment,NULL,Video,progression,buffer,0.00135,1687287240357,5fb43d1ad84de30d1cf25a6d,5fb43d1ad84de30d1cf25a6d,14,cover,critical,D,50,cover42.jpg,cover60.jpg,high,NULL
1687287359,00cabc22f18aa9e9761b4793d43497fc,PennController,17,0,experiment,NULL,Selector,choice,Selection,option1,1687287246500,5fb43d1ad84de30d1cf25a6d,5fb43d1ad84de30d1cf25a6d,14,cover,critical,D,50,cover42.jpg,cover60.jpg,high,option2;option1
1687287359,00cabc22f18aa9e9761b4793d43497fc,PennController,17,0,experiment,NULL,PennController,16,_Trial_,End,1687287246500,5fb43d1ad84de30d1cf25a6d,5fb43d1ad84de30d1cf25a6d,14,cover,critical,D,50,cover42.jpg,cover60.jpg,high,NULL
1687287359,00cabc22f18aa9e9761b4793d43497fc,PennController,12,0,experiment,NULL,PennController,11,_Trial_,Start,1687287246501,5fb43d1ad84de30d1cf25a6d,5fb43d1ad84de30d1cf25a6d,9,cake,critical,D,75,cake66.jpg,cake84.jpg,high,NULL
1687287359,00cabc22f18aa9e9761b4793d43497fc,PennController,12,0,experiment,NULL,PennController,11,_Header_,Start,1687287246501,5fb43d1ad84de30d1cf25a6d,5fb43d1ad84de30d1cf25a6d,9,cake,critical,D,75,cake66.jpg,cake84.jpg,high,NULL
1687287359,00cabc22f18aa9e9761b4793d43497fc,PennController,12,0,experiment,NULL,PennController,11,_Header_,End,1687287246501,5fb43d1ad84de30d1cf25a6d,5fb43d1ad84de30d1cf25a6d,9,cake,critical,D,75,cake66.jpg,cake84.jpg,high,NULL
1687287359,00cabc22f18aa9e9761b4793d43497fc,PennController,12,0,experiment,NULL,Canvas,canvas6,Print,NA,1687287256182,5fb43d1ad84de30d1cf25a6d,5fb43d1ad84de30d1cf25a6d,9,cake,critical,D,75,cake66.jpg,cake84.jpg,high,NULL
1687287359,00cabc22f18aa9e9761b4793d43497fc,PennController,12,0,experiment,NULL,Video,progression,buffer,0.001604,1687287250015,5fb43d1ad84de30d1cf25a6d,5fb43d1ad84de30d1cf25a6d,9,cake,critical,D,75,cake66.jpg,cake84.jpg,high,NULL
1687287359,00cabc22f18aa9e9761b4793d43497fc,PennController,12,0,experiment,NULL,Selector,choice,Selection,option1,1687287258969,5fb43d1ad84de30d1cf25a6d,5fb43d1ad84de30d1cf25a6d,9,cake,critical,D,75,cake66.jpg,cake84.jpg,high,option2;option1
1687287359,00cabc22f18aa9e9761b4793d43497fc,PennController,12,0,experiment,NULL,PennController,11,_Trial_,End,1687287258970,5fb43d1ad84de30d1cf25a6d,5fb43d1ad84de30d1cf25a6d,9,cake,critical,D,75,cake66.jpg,cake84.jpg,high,NULL
1687287359,00cabc22f18aa9e9761b4793d43497fc,PennController,31,0,experiment,NULL,PennController,30,_Trial_,Start,1687287258970,5fb43d1ad84de30d1cf25a6d,5fb43d1ad84de30d1cf25a6d,28,sort,filler,D,25,sort15.jpg,sort35.jpg,GoalA,NULL
1687287359,00cabc22f18aa9e9761b4793d43497fc,PennController,31,0,experiment,NULL,PennController,30,_Header_,Start,1687287258970,5fb43d1ad84de30d1cf25a6d,5fb43d1ad84de30d1cf25a6d,28,sort,filler,D,25,sort15.jpg,sort35.jpg,GoalA,NULL
1687287359,00cabc22f18aa9e9761b4793d43497fc,PennController,31,0,experiment,NULL,PennController,30,_Header_,End,1687287258970,5fb43d1ad84de30d1cf25a6d,5fb43d1ad84de30d1cf25a6d,28,sort,filler,D,25,sort15.jpg,sort35.jpg,GoalA,NULL
1687287359,00cabc22f18aa9e9761b4793d43497fc,PennController,31,0,experiment,NULL,Canvas,canvas6,Print,NA,1687287264652,5fb43d1ad84de30d1cf25a6d,5fb43d1ad84de30d1cf25a6d,28,sort,filler,D,25,sort15.jpg,sort35.jpg,GoalA,NULL
1687287359,00cabc22f18aa9e9761b4793d43497fc,PennController,31,0,experiment,NULL,Video,progression,buffer,0.001253,1687287262486,5fb43d1ad84de30d1cf25a6d,5fb43d1ad84de30d1cf25a6d,28,sort,filler,D,25,sort15.jpg,sort35.jpg,GoalA,NULL
1687287359,00cabc22f18aa9e9761b4793d43497fc,PennController,31,0,experiment,NULL,Selector,choice,Selection,option1,1687287266198,5fb43d1ad84de30d1cf25a6d,5fb43d1ad84de30d1cf25a6d,28,sort,filler,D,25,sort15.jpg,sort35.jpg,GoalA,option2;option1
1687287359,00cabc22f18aa9e9761b4793d43497fc,PennController,31,0,experiment,NULL,PennController,30,_Trial_,End,1687287266198,5fb43d1ad84de30d1cf25a6d,5fb43d1ad84de30d1cf25a6d,28,sort,filler,D,25,sort15.jpg,sort35.jpg,GoalA,NULL
1687287359,00cabc22f18aa9e9761b4793d43497fc,PennController,27,0,experiment,NULL,PennController,26,_Trial_,Start,1687287266199,5fb43d1ad84de30d1cf25a6d,5fb43d1ad84de30d1cf25a6d,24,match,filler,D,75,match65.jpg,match85.jpg,GoalA,NULL
1687287359,00cabc22f18aa9e9761b4793d43497fc,PennController,27,0,experiment,NULL,PennController,26,_Header_,Start,1687287266199,5fb43d1ad84de30d1cf25a6d,5fb43d1ad84de30d1cf25a6d,24,match,filler,D,75,match65.jpg,match85.jpg,GoalA,NULL
1687287359,00cabc22f18aa9e9761b4793d43497fc,PennController,27,0,experiment,NULL,PennController,26,_Header_,End,1687287266199,5fb43d1ad84de30d1cf25a6d,5fb43d1ad84de30d1cf25a6d,24,match,filler,D,75,match65.jpg,match85.jpg,GoalA,NULL
1687287359,00cabc22f18aa9e9761b4793d43497fc,PennController,27,0,experiment,NULL,Canvas,canvas6,Print,NA,1687287273886,5fb43d1ad84de30d1cf25a6d,5fb43d1ad84de30d1cf25a6d,24,match,filler,D,75,match65.jpg,match85.jpg,GoalA,NULL
1687287359,00cabc22f18aa9e9761b4793d43497fc,PennController,27,0,experiment,NULL,Video,progression,buffer,0.001612,1687287269715,5fb43d1ad84de30d1cf25a6d,5fb43d1ad84de30d1cf25a6d,24,match,filler,D,75,match65.jpg,match85.jpg,GoalA,NULL
1687287359,00cabc22f18aa9e9761b4793d43497fc,PennController,27,0,experiment,NULL,Selector,choice,Selection,option2,1687287278995,5fb43d1ad84de30d1cf25a6d,5fb43d1ad84de30d1cf25a6d,24,match,filler,D,75,match65.jpg,match85.jpg,GoalA,option1;option2
1687287359,00cabc22f18aa9e9761b4793d43497fc,PennController,27,0,experiment,NULL,PennController,26,_Trial_,End,1687287278995,5fb43d1ad84de30d1cf25a6d,5fb43d1ad84de30d1cf25a6d,24,match,filler,D,75,match65.jpg,match85.jpg,GoalA,NULL
1687287359,00cabc22f18aa9e9761b4793d43497fc,PennController,5,0,experiment,NULL,PennController,4,_Trial_,Start,1687287278996,5fb43d1ad84de30d1cf25a6d,5fb43d1ad84de30d1cf25a6d,2,door,critical,D,50,door40.jpg,door60.jpg,high,NULL
1687287359,00cabc22f18aa9e9761b4793d43497fc,PennController,5,0,experiment,NULL,PennController,4,_Header_,Start,1687287278996,5fb43d1ad84de30d1cf25a6d,5fb43d1ad84de30d1cf25a6d,2,door,critical,D,50,door40.jpg,door60.jpg,high,NULL
1687287359,00cabc22f18aa9e9761b4793d43497fc,PennController,5,0,experiment,NULL,PennController,4,_Header_,End,1687287278996,5fb43d1ad84de30d1cf25a6d,5fb43d1ad84de30d1cf25a6d,2,door,critical,D,50,door40.jpg,door60.jpg,high,NULL
1687287359,00cabc22f18aa9e9761b4793d43497fc,PennController,5,0,experiment,NULL,Canvas,canvas6,Print,NA,1687287285702,5fb43d1ad84de30d1cf25a6d,5fb43d1ad84de30d1cf25a6d,2,door,critical,D,50,door40.jpg,door60.jpg,high,NULL
1687287359,00cabc22f18aa9e9761b4793d43497fc,PennController,5,0,experiment,NULL,Video,progression,buffer,0,1687287282514,5fb43d1ad84de30d1cf25a6d,5fb43d1ad84de30d1cf25a6d,2,door,critical,D,50,door40.jpg,door60.jpg,high,NULL
1687287359,00cabc22f18aa9e9761b4793d43497fc,PennController,5,0,experiment,NULL,Selector,choice,Selection,option2,1687287287693,5fb43d1ad84de30d1cf25a6d,5fb43d1ad84de30d1cf25a6d,2,door,critical,D,50,door40.jpg,door60.jpg,high,option1;option2
1687287359,00cabc22f18aa9e9761b4793d43497fc,PennController,5,0,experiment,NULL,PennController,4,_Trial_,End,1687287287693,5fb43d1ad84de30d1cf25a6d,5fb43d1ad84de30d1cf25a6d,2,door,critical,D,50,door40.jpg,door60.jpg,high,NULL
1687287359,00cabc22f18aa9e9761b4793d43497fc,PennController,11,0,experiment,NULL,PennController,10,_Trial_,Start,1687287287694,5fb43d1ad84de30d1cf25a6d,5fb43d1ad84de30d1cf25a6d,8,cucumber,critical,D,50,cucumber42.jpg,cucumber60.jpg,high,NULL
1687287359,00cabc22f18aa9e9761b4793d43497fc,PennController,11,0,experiment,NULL,PennController,10,_Header_,Start,1687287287694,5fb43d1ad84de30d1cf25a6d,5fb43d1ad84de30d1cf25a6d,8,cucumber,critical,D,50,cucumber42.jpg,cucumber60.jpg,high,NULL
1687287359,00cabc22f18aa9e9761b4793d43497fc,PennController,11,0,experiment,NULL,PennController,10,_Header_,End,1687287287694,5fb43d1ad84de30d1cf25a6d,5fb43d1ad84de30d1cf25a6d,8,cucumber,critical,D,50,cucumber42.jpg,cucumber60.jpg,high,NULL
1687287359,00cabc22f18aa9e9761b4793d43497fc,PennController,11,0,experiment,NULL,Canvas,canvas6,Print,NA,1687287295767,5fb43d1ad84de30d1cf25a6d,5fb43d1ad84de30d1cf25a6d,8,cucumber,critical,D,50,cucumber42.jpg,cucumber60.jpg,high,NULL
1687287359,00cabc22f18aa9e9761b4793d43497fc,PennController,11,0,experiment,NULL,Video,progression,buffer,0.00195,1687287291211,5fb43d1ad84de30d1cf25a6d,5fb43d1ad84de30d1cf25a6d,8,cucumber,critical,D,50,cucumber42.jpg,cucumber60.jpg,high,NULL
1687287359,00cabc22f18aa9e9761b4793d43497fc,PennController,11,0,experiment,NULL,Selector,choice,Selection,option1,1687287297499,5fb43d1ad84de30d1cf25a6d,5fb43d1ad84de30d1cf25a6d,8,cucumber,critical,D,50,cucumber42.jpg,cucumber60.jpg,high,option2;option1
1687287359,00cabc22f18aa9e9761b4793d43497fc,PennController,11,0,experiment,NULL,PennController,10,_Trial_,End,1687287297499,5fb43d1ad84de30d1cf25a6d,5fb43d1ad84de30d1cf25a6d,8,cucumber,critical,D,50,cucumber42.jpg,cucumber60.jpg,high,NULL
1687287359,00cabc22f18aa9e9761b4793d43497fc,PennController,20,0,experiment,NULL,PennController,19,_Trial_,Start,1687287297500,5fb43d1ad84de30d1cf25a6d,5fb43d1ad84de30d1cf25a6d,17,roll,critical,D,50,roll40.jpg,roll60.jpg,high,NULL
1687287359,00cabc22f18aa9e9761b4793d43497fc,PennController,20,0,experiment,NULL,PennController,19,_Header_,Start,1687287297500,5fb43d1ad84de30d1cf25a6d,5fb43d1ad84de30d1cf25a6d,17,roll,critical,D,50,roll40.jpg,roll60.jpg,high,NULL
1687287359,00cabc22f18aa9e9761b4793d43497fc,PennController,20,0,experiment,NULL,PennController,19,_Header_,End,1687287297500,5fb43d1ad84de30d1cf25a6d,5fb43d1ad84de30d1cf25a6d,17,roll,critical,D,50,roll40.jpg,roll60.jpg,high,NULL
1687287359,00cabc22f18aa9e9761b4793d43497fc,PennController,20,0,experiment,NULL,Canvas,canvas6,Print,NA,1687287304165,5fb43d1ad84de30d1cf25a6d,5fb43d1ad84de30d1cf25a6d,17,roll,critical,D,50,roll40.jpg,roll60.jpg,high,NULL
1687287359,00cabc22f18aa9e9761b4793d43497fc,PennController,20,0,experiment,NULL,Video,progression,buffer,0.001915,1687287301012,5fb43d1ad84de30d1cf25a6d,5fb43d1ad84de30d1cf25a6d,17,roll,critical,D,50,roll40.jpg,roll60.jpg,high,NULL
1687287359,00cabc22f18aa9e9761b4793d43497fc,PennController,20,0,experiment,NULL,Selector,choice,Selection,option2,1687287306325,5fb43d1ad84de30d1cf25a6d,5fb43d1ad84de30d1cf25a6d,17,roll,critical,D,50,roll40.jpg,roll60.jpg,high,option2;option1
1687287359,00cabc22f18aa9e9761b4793d43497fc,PennController,20,0,experiment,NULL,PennController,19,_Trial_,End,1687287306325,5fb43d1ad84de30d1cf25a6d,5fb43d1ad84de30d1cf25a6d,17,roll,critical,D,50,roll40.jpg,roll60.jpg,high,NULL
1687287359,00cabc22f18aa9e9761b4793d43497fc,PennController,4,0,experiment,NULL,PennController,3,_Trial_,Start,1687287306326,5fb43d1ad84de30d1cf25a6d,5fb43d1ad84de30d1cf25a6d,1,vase,critical,D,25,vase15.jpg,vase35.jpg,high,NULL
1687287359,00cabc22f18aa9e9761b4793d43497fc,PennController,4,0,experiment,NULL,PennController,3,_Header_,Start,1687287306326,5fb43d1ad84de30d1cf25a6d,5fb43d1ad84de30d1cf25a6d,1,vase,critical,D,25,vase15.jpg,vase35.jpg,high,NULL
1687287359,00cabc22f18aa9e9761b4793d43497fc,PennController,4,0,experiment,NULL,PennController,3,_Header_,End,1687287306326,5fb43d1ad84de30d1cf25a6d,5fb43d1ad84de30d1cf25a6d,1,vase,critical,D,25,vase15.jpg,vase35.jpg,high,NULL
1687287359,00cabc22f18aa9e9761b4793d43497fc,PennController,4,0,experiment,NULL,Canvas,canvas6,Print,NA,1687287312002,5fb43d1ad84de30d1cf25a6d,5fb43d1ad84de30d1cf25a6d,1,vase,critical,D,25,vase15.jpg,vase35.jpg,high,NULL
1687287359,00cabc22f18aa9e9761b4793d43497fc,PennController,4,0,experiment,NULL,Video,progression,buffer,0.001352,1687287309838,5fb43d1ad84de30d1cf25a6d,5fb43d1ad84de30d1cf25a6d,1,vase,critical,D,25,vase15.jpg,vase35.jpg,high,NULL
1687287359,00cabc22f18aa9e9761b4793d43497fc,PennController,4,0,experiment,NULL,Selector,choice,Selection,option1,1687287316566,5fb43d1ad84de30d1cf25a6d,5fb43d1ad84de30d1cf25a6d,1,vase,critical,D,25,vase15.jpg,vase35.jpg,high,option1;option2
1687287359,00cabc22f18aa9e9761b4793d43497fc,PennController,4,0,experiment,NULL,PennController,3,_Trial_,End,1687287316567,5fb43d1ad84de30d1cf25a6d,5fb43d1ad84de30d1cf25a6d,1,vase,critical,D,25,vase15.jpg,vase35.jpg,high,NULL
1687287359,00cabc22f18aa9e9761b4793d43497fc,PennController,26,0,experiment,NULL,PennController,25,_Trial_,Start,1687287316568,5fb43d1ad84de30d1cf25a6d,5fb43d1ad84de30d1cf25a6d,23,color,filler,D,50,color40.jpg,color60.jpg,GoalB,NULL
1687287359,00cabc22f18aa9e9761b4793d43497fc,PennController,26,0,experiment,NULL,PennController,25,_Header_,Start,1687287316568,5fb43d1ad84de30d1cf25a6d,5fb43d1ad84de30d1cf25a6d,23,color,filler,D,50,color40.jpg,color60.jpg,GoalB,NULL
1687287359,00cabc22f18aa9e9761b4793d43497fc,PennController,26,0,experiment,NULL,PennController,25,_Header_,End,1687287316568,5fb43d1ad84de30d1cf25a6d,5fb43d1ad84de30d1cf25a6d,23,color,filler,D,50,color40.jpg,color60.jpg,GoalB,NULL
1687287359,00cabc22f18aa9e9761b4793d43497fc,PennController,26,0,experiment,NULL,Canvas,canvas6,Print,NA,1687287323250,5fb43d1ad84de30d1cf25a6d,5fb43d1ad84de30d1cf25a6d,23,color,filler,D,50,color40.jpg,color60.jpg,GoalB,NULL
1687287359,00cabc22f18aa9e9761b4793d43497fc,PennController,26,0,experiment,NULL,Video,progression,buffer,0.001741,1687287320081,5fb43d1ad84de30d1cf25a6d,5fb43d1ad84de30d1cf25a6d,23,color,filler,D,50,color40.jpg,color60.jpg,GoalB,NULL
1687287359,00cabc22f18aa9e9761b4793d43497fc,PennController,26,0,experiment,NULL,Selector,choice,Selection,option1,1687287326249,5fb43d1ad84de30d1cf25a6d,5fb43d1ad84de30d1cf25a6d,23,color,filler,D,50,color40.jpg,color60.jpg,GoalB,option2;option1
1687287359,00cabc22f18aa9e9761b4793d43497fc,PennController,26,0,experiment,NULL,PennController,25,_Trial_,End,1687287326250,5fb43d1ad84de30d1cf25a6d,5fb43d1ad84de30d1cf25a6d,23,color,filler,D,50,color40.jpg,color60.jpg,GoalB,NULL
1687287359,00cabc22f18aa9e9761b4793d43497fc,PennController,23,0,experiment,NULL,PennController,22,_Trial_,Start,1687287326251,5fb43d1ad84de30d1cf25a6d,5fb43d1ad84de30d1cf25a6d,20,cat,filler,D,50,cat40.jpg,cat60.jpg,GoalA,NULL
1687287359,00cabc22f18aa9e9761b4793d43497fc,PennController,23,0,experiment,NULL,PennController,22,_Header_,Start,1687287326251,5fb43d1ad84de30d1cf25a6d,5fb43d1ad84de30d1cf25a6d,20,cat,filler,D,50,cat40.jpg,cat60.jpg,GoalA,NULL
1687287359,00cabc22f18aa9e9761b4793d43497fc,PennController,23,0,experiment,NULL,PennController,22,_Header_,End,1687287326251,5fb43d1ad84de30d1cf25a6d,5fb43d1ad84de30d1cf25a6d,20,cat,filler,D,50,cat40.jpg,cat60.jpg,GoalA,NULL
1687287359,00cabc22f18aa9e9761b4793d43497fc,PennController,23,0,experiment,NULL,Canvas,canvas6,Print,NA,1687287332933,5fb43d1ad84de30d1cf25a6d,5fb43d1ad84de30d1cf25a6d,20,cat,filler,D,50,cat40.jpg,cat60.jpg,GoalA,NULL
1687287359,00cabc22f18aa9e9761b4793d43497fc,PennController,23,0,experiment,NULL,Video,progression,buffer,0.001106,1687287329766,5fb43d1ad84de30d1cf25a6d,5fb43d1ad84de30d1cf25a6d,20,cat,filler,D,50,cat40.jpg,cat60.jpg,GoalA,NULL
1687287359,00cabc22f18aa9e9761b4793d43497fc,PennController,23,0,experiment,NULL,Selector,choice,Selection,option2,1687287335210,5fb43d1ad84de30d1cf25a6d,5fb43d1ad84de30d1cf25a6d,20,cat,filler,D,50,cat40.jpg,cat60.jpg,GoalA,option1;option2
1687287359,00cabc22f18aa9e9761b4793d43497fc,PennController,23,0,experiment,NULL,PennController,22,_Trial_,End,1687287335211,5fb43d1ad84de30d1cf25a6d,5fb43d1ad84de30d1cf25a6d,20,cat,filler,D,50,cat40.jpg,cat60.jpg,GoalA,NULL
1687287359,00cabc22f18aa9e9761b4793d43497fc,PennController,6,0,experiment,NULL,PennController,5,_Trial_,Start,1687287335212,5fb43d1ad84de30d1cf25a6d,5fb43d1ad84de30d1cf25a6d,3,clean,critical,D,75,clean65.jpg,clean85.jpg,high,NULL
1687287359,00cabc22f18aa9e9761b4793d43497fc,PennController,6,0,experiment,NULL,PennController,5,_Header_,Start,1687287335212,5fb43d1ad84de30d1cf25a6d,5fb43d1ad84de30d1cf25a6d,3,clean,critical,D,75,clean65.jpg,clean85.jpg,high,NULL
1687287359,00cabc22f18aa9e9761b4793d43497fc,PennController,6,0,experiment,NULL,PennController,5,_Header_,End,1687287335212,5fb43d1ad84de30d1cf25a6d,5fb43d1ad84de30d1cf25a6d,3,clean,critical,D,75,clean65.jpg,clean85.jpg,high,NULL
1687287359,00cabc22f18aa9e9761b4793d43497fc,PennController,6,0,experiment,NULL,Canvas,canvas6,Print,NA,1687287342884,5fb43d1ad84de30d1cf25a6d,5fb43d1ad84de30d1cf25a6d,3,clean,critical,D,75,clean65.jpg,clean85.jpg,high,NULL
1687287359,00cabc22f18aa9e9761b4793d43497fc,PennController,6,0,experiment,NULL,Video,progression,buffer,0.001799,1687287338723,5fb43d1ad84de30d1cf25a6d,5fb43d1ad84de30d1cf25a6d,3,clean,critical,D,75,clean65.jpg,clean85.jpg,high,NULL
1687287359,00cabc22f18aa9e9761b4793d43497fc,PennController,6,0,experiment,NULL,Selector,choice,Selection,option1,1687287346656,5fb43d1ad84de30d1cf25a6d,5fb43d1ad84de30d1cf25a6d,3,clean,critical,D,75,clean65.jpg,clean85.jpg,high,option2;option1
1687287359,00cabc22f18aa9e9761b4793d43497fc,PennController,6,0,experiment,NULL,PennController,5,_Trial_,End,1687287346657,5fb43d1ad84de30d1cf25a6d,5fb43d1ad84de30d1cf25a6d,3,clean,critical,D,75,clean65.jpg,clean85.jpg,high,NULL
1687287359,00cabc22f18aa9e9761b4793d43497fc,PennController,18,0,experiment,NULL,PennController,17,_Trial_,Start,1687287346657,5fb43d1ad84de30d1cf25a6d,5fb43d1ad84de30d1cf25a6d,15,zip,critical,D,75,zip65.jpg,zip85.jpg,high,NULL
1687287359,00cabc22f18aa9e9761b4793d43497fc,PennController,18,0,experiment,NULL,PennController,17,_Header_,Start,1687287346657,5fb43d1ad84de30d1cf25a6d,5fb43d1ad84de30d1cf25a6d,15,zip,critical,D,75,zip65.jpg,zip85.jpg,high,NULL
1687287359,00cabc22f18aa9e9761b4793d43497fc,PennController,18,0,experiment,NULL,PennController,17,_Header_,End,1687287346657,5fb43d1ad84de30d1cf25a6d,5fb43d1ad84de30d1cf25a6d,15,zip,critical,D,75,zip65.jpg,zip85.jpg,high,NULL
1687287359,00cabc22f18aa9e9761b4793d43497fc,PennController,18,0,experiment,NULL,Canvas,canvas6,Print,NA,1687287353534,5fb43d1ad84de30d1cf25a6d,5fb43d1ad84de30d1cf25a6d,15,zip,critical,D,75,zip65.jpg,zip85.jpg,high,NULL
1687287359,00cabc22f18aa9e9761b4793d43497fc,PennController,18,0,experiment,NULL,Video,progression,buffer,0.001075,1687287350167,5fb43d1ad84de30d1cf25a6d,5fb43d1ad84de30d1cf25a6d,15,zip,critical,D,75,zip65.jpg,zip85.jpg,high,NULL
1687287359,00cabc22f18aa9e9761b4793d43497fc,PennController,18,0,experiment,NULL,Selector,choice,Selection,option2,1687287357146,5fb43d1ad84de30d1cf25a6d,5fb43d1ad84de30d1cf25a6d,15,zip,critical,D,75,zip65.jpg,zip85.jpg,high,option1;option2
1687287359,00cabc22f18aa9e9761b4793d43497fc,PennController,18,0,experiment,NULL,PennController,17,_Trial_,End,1687287357147,5fb43d1ad84de30d1cf25a6d,5fb43d1ad84de30d1cf25a6d,15,zip,critical,D,75,zip65.jpg,zip85.jpg,high,NULL
