#
# Results on Wednesday June 21 2023 19:56:55 UTC
# USER AGENT: Mozilla/5.0 (Windows NT 10.0; Win64; x64) AppleWebKit/537.36 (KHTML, like Gecko) Chrome/114.0.0.0 Safari/537.36
# Design number was non-random = 67
#
# Columns below this comment are as follows:
# 1. Results reception time.
# 2. MD5 hash of participant's IP address.
# 3. Controller name.
# 4. Order number of item.
# 5. Inner element number.
# 6. Label.
# 7. Latin Square Group.
# 8. PennElementType.
# 9. PennElementName.
# 10. Parameter.
# 11. Value.
# 12. EventTime.
# 13. PROLIFIC_ID.
# 14. Comments.
1687377415,3283c532430b6ea4040b03639f039b47,PennController,3,0,consent,NULL,PennController,0,_Trial_,Start,1687377107848,5ed01428f407c70d93c4b38d,NULL
1687377415,3283c532430b6ea4040b03639f039b47,PennController,3,0,consent,NULL,PennController,0,_Header_,Start,1687377107849,5ed01428f407c70d93c4b38d,NULL
1687377415,3283c532430b6ea4040b03639f039b47,PennController,3,0,consent,NULL,PennController,0,_Header_,End,1687377107849,5ed01428f407c70d93c4b38d,NULL
1687377415,3283c532430b6ea4040b03639f039b47,PennController,3,0,consent,NULL,PennController,0,_Trial_,End,1687377124564,5ed01428f407c70d93c4b38d,NULL
# Columns below this comment are as follows:
# 14. ID.
# 15. Comments.
1687377415,3283c532430b6ea4040b03639f039b47,PennController,4,0,intro,NULL,PennController,1,_Trial_,Start,1687377124569,5ed01428f407c70d93c4b38d,5ed01428f407c70d93c4b38d,NULL
1687377415,3283c532430b6ea4040b03639f039b47,PennController,4,0,intro,NULL,PennController,1,_Header_,Start,1687377124569,5ed01428f407c70d93c4b38d,5ed01428f407c70d93c4b38d,NULL
1687377415,3283c532430b6ea4040b03639f039b47,PennController,4,0,intro,NULL,PennController,1,_Header_,End,1687377124569,5ed01428f407c70d93c4b38d,5ed01428f407c70d93c4b38d,NULL
1687377415,3283c532430b6ea4040b03639f039b47,PennController,4,0,intro,NULL,PennController,1,_Trial_,End,1687377140566,5ed01428f407c70d93c4b38d,5ed01428f407c70d93c4b38d,NULL
# Columns below this comment are as follows:
# 15. item_number.
# 16. item.
# 17. type.
# 18. Group.
# 19. prog.
# 20. prev_image.
# 21. next_image.
# 22. height.
# 23. Comments.
1687377415,3283c532430b6ea4040b03639f039b47,PennController,6,0,experiment,NULL,PennController,4,_Trial_,Start,1687377140568,5ed01428f407c70d93c4b38d,5ed01428f407c70d93c4b38d,2,door,critical,F,25,door15.jpg,door35.jpg,high,NULL
1687377415,3283c532430b6ea4040b03639f039b47,PennController,6,0,experiment,NULL,PennController,4,_Header_,Start,1687377140568,5ed01428f407c70d93c4b38d,5ed01428f407c70d93c4b38d,2,door,critical,F,25,door15.jpg,door35.jpg,high,NULL
1687377415,3283c532430b6ea4040b03639f039b47,PennController,6,0,experiment,NULL,PennController,4,_Header_,End,1687377140568,5ed01428f407c70d93c4b38d,5ed01428f407c70d93c4b38d,2,door,critical,F,25,door15.jpg,door35.jpg,high,NULL
1687377415,3283c532430b6ea4040b03639f039b47,PennController,6,0,experiment,NULL,Canvas,canvas6,Print,NA,1687377146344,5ed01428f407c70d93c4b38d,5ed01428f407c70d93c4b38d,2,door,critical,F,25,door15.jpg,door35.jpg,high,NULL
1687377415,3283c532430b6ea4040b03639f039b47,PennController,6,0,experiment,NULL,Video,progression,buffer,0.010005,1687377144159,5ed01428f407c70d93c4b38d,5ed01428f407c70d93c4b38d,2,door,critical,F,25,door15.jpg,door35.jpg,high,NULL
1687377415,3283c532430b6ea4040b03639f039b47,PennController,6,0,experiment,NULL,Selector,choice,Selection,option1,1687377151823,5ed01428f407c70d93c4b38d,5ed01428f407c70d93c4b38d,2,door,critical,F,25,door15.jpg,door35.jpg,high,option1;option2
1687377415,3283c532430b6ea4040b03639f039b47,PennController,6,0,experiment,NULL,PennController,4,_Trial_,End,1687377151828,5ed01428f407c70d93c4b38d,5ed01428f407c70d93c4b38d,2,door,critical,F,25,door15.jpg,door35.jpg,high,NULL
1687377415,3283c532430b6ea4040b03639f039b47,PennController,14,0,experiment,NULL,PennController,12,_Trial_,Start,1687377151833,5ed01428f407c70d93c4b38d,5ed01428f407c70d93c4b38d,10,train,critical,F,75,train65.jpg,train85.jpg,high,NULL
1687377415,3283c532430b6ea4040b03639f039b47,PennController,14,0,experiment,NULL,PennController,12,_Header_,Start,1687377151833,5ed01428f407c70d93c4b38d,5ed01428f407c70d93c4b38d,10,train,critical,F,75,train65.jpg,train85.jpg,high,NULL
1687377415,3283c532430b6ea4040b03639f039b47,PennController,14,0,experiment,NULL,PennController,12,_Header_,End,1687377151833,5ed01428f407c70d93c4b38d,5ed01428f407c70d93c4b38d,10,train,critical,F,75,train65.jpg,train85.jpg,high,NULL
1687377415,3283c532430b6ea4040b03639f039b47,PennController,14,0,experiment,NULL,Canvas,canvas6,Print,NA,1687377159547,5ed01428f407c70d93c4b38d,5ed01428f407c70d93c4b38d,10,train,critical,F,75,train65.jpg,train85.jpg,high,NULL
1687377415,3283c532430b6ea4040b03639f039b47,PennController,14,0,experiment,NULL,Video,progression,buffer,0.005555,1687377155375,5ed01428f407c70d93c4b38d,5ed01428f407c70d93c4b38d,10,train,critical,F,75,train65.jpg,train85.jpg,high,NULL
1687377415,3283c532430b6ea4040b03639f039b47,PennController,14,0,experiment,NULL,Selector,choice,Selection,option1,1687377160921,5ed01428f407c70d93c4b38d,5ed01428f407c70d93c4b38d,10,train,critical,F,75,train65.jpg,train85.jpg,high,option2;option1
1687377415,3283c532430b6ea4040b03639f039b47,PennController,14,0,experiment,NULL,PennController,12,_Trial_,End,1687377160926,5ed01428f407c70d93c4b38d,5ed01428f407c70d93c4b38d,10,train,critical,F,75,train65.jpg,train85.jpg,high,NULL
1687377415,3283c532430b6ea4040b03639f039b47,PennController,29,0,experiment,NULL,PennController,27,_Trial_,Start,1687377160931,5ed01428f407c70d93c4b38d,5ed01428f407c70d93c4b38d,25,house,filler,F,75,house65.jpg,house85.jpg,GoalB,NULL
1687377415,3283c532430b6ea4040b03639f039b47,PennController,29,0,experiment,NULL,PennController,27,_Header_,Start,1687377160931,5ed01428f407c70d93c4b38d,5ed01428f407c70d93c4b38d,25,house,filler,F,75,house65.jpg,house85.jpg,GoalB,NULL
1687377415,3283c532430b6ea4040b03639f039b47,PennController,29,0,experiment,NULL,PennController,27,_Header_,End,1687377160931,5ed01428f407c70d93c4b38d,5ed01428f407c70d93c4b38d,25,house,filler,F,75,house65.jpg,house85.jpg,GoalB,NULL
1687377415,3283c532430b6ea4040b03639f039b47,PennController,29,0,experiment,NULL,Canvas,canvas6,Print,NA,1687377168670,5ed01428f407c70d93c4b38d,5ed01428f407c70d93c4b38d,25,house,filler,F,75,house65.jpg,house85.jpg,GoalB,NULL
1687377415,3283c532430b6ea4040b03639f039b47,PennController,29,0,experiment,NULL,Video,progression,buffer,0.010703,1687377164499,5ed01428f407c70d93c4b38d,5ed01428f407c70d93c4b38d,25,house,filler,F,75,house65.jpg,house85.jpg,GoalB,NULL
1687377415,3283c532430b6ea4040b03639f039b47,PennController,29,0,experiment,NULL,Selector,choice,Selection,option2,1687377174507,5ed01428f407c70d93c4b38d,5ed01428f407c70d93c4b38d,25,house,filler,F,75,house65.jpg,house85.jpg,GoalB,option2;option1
1687377415,3283c532430b6ea4040b03639f039b47,PennController,29,0,experiment,NULL,PennController,27,_Trial_,End,1687377174510,5ed01428f407c70d93c4b38d,5ed01428f407c70d93c4b38d,25,house,filler,F,75,house65.jpg,house85.jpg,GoalB,NULL
1687377415,3283c532430b6ea4040b03639f039b47,PennController,19,0,experiment,NULL,PennController,17,_Trial_,Start,1687377174517,5ed01428f407c70d93c4b38d,5ed01428f407c70d93c4b38d,15,zip,critical,F,50,zip40.jpg,zip60.jpg,high,NULL
1687377415,3283c532430b6ea4040b03639f039b47,PennController,19,0,experiment,NULL,PennController,17,_Header_,Start,1687377174517,5ed01428f407c70d93c4b38d,5ed01428f407c70d93c4b38d,15,zip,critical,F,50,zip40.jpg,zip60.jpg,high,NULL
1687377415,3283c532430b6ea4040b03639f039b47,PennController,19,0,experiment,NULL,PennController,17,_Header_,End,1687377174518,5ed01428f407c70d93c4b38d,5ed01428f407c70d93c4b38d,15,zip,critical,F,50,zip40.jpg,zip60.jpg,high,NULL
1687377415,3283c532430b6ea4040b03639f039b47,PennController,19,0,experiment,NULL,Canvas,canvas6,Print,NA,1687377181231,5ed01428f407c70d93c4b38d,5ed01428f407c70d93c4b38d,15,zip,critical,F,50,zip40.jpg,zip60.jpg,high,NULL
1687377415,3283c532430b6ea4040b03639f039b47,PennController,19,0,experiment,NULL,Video,progression,buffer,0.014564,1687377178075,5ed01428f407c70d93c4b38d,5ed01428f407c70d93c4b38d,15,zip,critical,F,50,zip40.jpg,zip60.jpg,high,NULL
1687377415,3283c532430b6ea4040b03639f039b47,PennController,19,0,experiment,NULL,Selector,choice,Selection,option2,1687377183641,5ed01428f407c70d93c4b38d,5ed01428f407c70d93c4b38d,15,zip,critical,F,50,zip40.jpg,zip60.jpg,high,option1;option2
1687377415,3283c532430b6ea4040b03639f039b47,PennController,19,0,experiment,NULL,PennController,17,_Trial_,End,1687377183644,5ed01428f407c70d93c4b38d,5ed01428f407c70d93c4b38d,15,zip,critical,F,50,zip40.jpg,zip60.jpg,high,NULL
1687377415,3283c532430b6ea4040b03639f039b47,PennController,15,0,experiment,NULL,PennController,13,_Trial_,Start,1687377183652,5ed01428f407c70d93c4b38d,5ed01428f407c70d93c4b38d,11,beads,critical,F,25,beads15.jpg,beads35.jpg,high,NULL
1687377415,3283c532430b6ea4040b03639f039b47,PennController,15,0,experiment,NULL,PennController,13,_Header_,Start,1687377183652,5ed01428f407c70d93c4b38d,5ed01428f407c70d93c4b38d,11,beads,critical,F,25,beads15.jpg,beads35.jpg,high,NULL
1687377415,3283c532430b6ea4040b03639f039b47,PennController,15,0,experiment,NULL,PennController,13,_Header_,End,1687377183652,5ed01428f407c70d93c4b38d,5ed01428f407c70d93c4b38d,11,beads,critical,F,25,beads15.jpg,beads35.jpg,high,NULL
1687377415,3283c532430b6ea4040b03639f039b47,PennController,15,0,experiment,NULL,Canvas,canvas6,Print,NA,1687377189354,5ed01428f407c70d93c4b38d,5ed01428f407c70d93c4b38d,11,beads,critical,F,25,beads15.jpg,beads35.jpg,high,NULL
1687377415,3283c532430b6ea4040b03639f039b47,PennController,15,0,experiment,NULL,Video,progression,buffer,0.013112,1687377187206,5ed01428f407c70d93c4b38d,5ed01428f407c70d93c4b38d,11,beads,critical,F,25,beads15.jpg,beads35.jpg,high,NULL
1687377415,3283c532430b6ea4040b03639f039b47,PennController,15,0,experiment,NULL,Selector,choice,Selection,option2,1687377191098,5ed01428f407c70d93c4b38d,5ed01428f407c70d93c4b38d,11,beads,critical,F,25,beads15.jpg,beads35.jpg,high,option1;option2
1687377415,3283c532430b6ea4040b03639f039b47,PennController,15,0,experiment,NULL,PennController,13,_Trial_,End,1687377191099,5ed01428f407c70d93c4b38d,5ed01428f407c70d93c4b38d,11,beads,critical,F,25,beads15.jpg,beads35.jpg,high,NULL
1687377415,3283c532430b6ea4040b03639f039b47,PennController,31,0,experiment,NULL,PennController,29,_Trial_,Start,1687377191100,5ed01428f407c70d93c4b38d,5ed01428f407c70d93c4b38d,27,square,filler,F,50,square40.jpg,square60.jpg,GoalB,NULL
1687377415,3283c532430b6ea4040b03639f039b47,PennController,31,0,experiment,NULL,PennController,29,_Header_,Start,1687377191100,5ed01428f407c70d93c4b38d,5ed01428f407c70d93c4b38d,27,square,filler,F,50,square40.jpg,square60.jpg,GoalB,NULL
1687377415,3283c532430b6ea4040b03639f039b47,PennController,31,0,experiment,NULL,PennController,29,_Header_,End,1687377191100,5ed01428f407c70d93c4b38d,5ed01428f407c70d93c4b38d,27,square,filler,F,50,square40.jpg,square60.jpg,GoalB,NULL
1687377415,3283c532430b6ea4040b03639f039b47,PennController,31,0,experiment,NULL,Canvas,canvas6,Print,NA,1687377197827,5ed01428f407c70d93c4b38d,5ed01428f407c70d93c4b38d,27,square,filler,F,50,square40.jpg,square60.jpg,GoalB,NULL
1687377415,3283c532430b6ea4040b03639f039b47,PennController,31,0,experiment,NULL,Video,progression,buffer,0.014828,1687377194662,5ed01428f407c70d93c4b38d,5ed01428f407c70d93c4b38d,27,square,filler,F,50,square40.jpg,square60.jpg,GoalB,NULL
1687377415,3283c532430b6ea4040b03639f039b47,PennController,31,0,experiment,NULL,Selector,choice,Selection,option2,1687377199336,5ed01428f407c70d93c4b38d,5ed01428f407c70d93c4b38d,27,square,filler,F,50,square40.jpg,square60.jpg,GoalB,option1;option2
1687377415,3283c532430b6ea4040b03639f039b47,PennController,31,0,experiment,NULL,PennController,29,_Trial_,End,1687377199340,5ed01428f407c70d93c4b38d,5ed01428f407c70d93c4b38d,27,square,filler,F,50,square40.jpg,square60.jpg,GoalB,NULL
1687377415,3283c532430b6ea4040b03639f039b47,PennController,16,0,experiment,NULL,PennController,14,_Trial_,Start,1687377199345,5ed01428f407c70d93c4b38d,5ed01428f407c70d93c4b38d,12,erase,critical,F,50,erase42.jpg,erase60.jpg,high,NULL
1687377415,3283c532430b6ea4040b03639f039b47,PennController,16,0,experiment,NULL,PennController,14,_Header_,Start,1687377199345,5ed01428f407c70d93c4b38d,5ed01428f407c70d93c4b38d,12,erase,critical,F,50,erase42.jpg,erase60.jpg,high,NULL
1687377415,3283c532430b6ea4040b03639f039b47,PennController,16,0,experiment,NULL,PennController,14,_Header_,End,1687377199345,5ed01428f407c70d93c4b38d,5ed01428f407c70d93c4b38d,12,erase,critical,F,50,erase42.jpg,erase60.jpg,high,NULL
1687377415,3283c532430b6ea4040b03639f039b47,PennController,16,0,experiment,NULL,Canvas,canvas6,Print,NA,1687377207479,5ed01428f407c70d93c4b38d,5ed01428f407c70d93c4b38d,12,erase,critical,F,50,erase42.jpg,erase60.jpg,high,NULL
1687377415,3283c532430b6ea4040b03639f039b47,PennController,16,0,experiment,NULL,Video,progression,buffer,0.012814,1687377202905,5ed01428f407c70d93c4b38d,5ed01428f407c70d93c4b38d,12,erase,critical,F,50,erase42.jpg,erase60.jpg,high,NULL
1687377415,3283c532430b6ea4040b03639f039b47,PennController,16,0,experiment,NULL,Selector,choice,Selection,option2,1687377209725,5ed01428f407c70d93c4b38d,5ed01428f407c70d93c4b38d,12,erase,critical,F,50,erase42.jpg,erase60.jpg,high,option2;option1
1687377415,3283c532430b6ea4040b03639f039b47,PennController,16,0,experiment,NULL,PennController,14,_Trial_,End,1687377209728,5ed01428f407c70d93c4b38d,5ed01428f407c70d93c4b38d,12,erase,critical,F,50,erase42.jpg,erase60.jpg,high,NULL
1687377415,3283c532430b6ea4040b03639f039b47,PennController,9,0,experiment,NULL,PennController,7,_Trial_,Start,1687377209732,5ed01428f407c70d93c4b38d,5ed01428f407c70d93c4b38d,5,book,critical,F,25,book15.jpg,book35.jpg,high,NULL
1687377415,3283c532430b6ea4040b03639f039b47,PennController,9,0,experiment,NULL,PennController,7,_Header_,Start,1687377209732,5ed01428f407c70d93c4b38d,5ed01428f407c70d93c4b38d,5,book,critical,F,25,book15.jpg,book35.jpg,high,NULL
1687377415,3283c532430b6ea4040b03639f039b47,PennController,9,0,experiment,NULL,PennController,7,_Header_,End,1687377209732,5ed01428f407c70d93c4b38d,5ed01428f407c70d93c4b38d,5,book,critical,F,25,book15.jpg,book35.jpg,high,NULL
1687377415,3283c532430b6ea4040b03639f039b47,PennController,9,0,experiment,NULL,Canvas,canvas6,Print,NA,1687377215445,5ed01428f407c70d93c4b38d,5ed01428f407c70d93c4b38d,5,book,critical,F,25,book15.jpg,book35.jpg,high,NULL
1687377415,3283c532430b6ea4040b03639f039b47,PennController,9,0,experiment,NULL,Video,progression,buffer,0.010189,1687377213278,5ed01428f407c70d93c4b38d,5ed01428f407c70d93c4b38d,5,book,critical,F,25,book15.jpg,book35.jpg,high,NULL
1687377415,3283c532430b6ea4040b03639f039b47,PennController,9,0,experiment,NULL,Selector,choice,Selection,option2,1687377218522,5ed01428f407c70d93c4b38d,5ed01428f407c70d93c4b38d,5,book,critical,F,25,book15.jpg,book35.jpg,high,option2;option1
1687377415,3283c532430b6ea4040b03639f039b47,PennController,9,0,experiment,NULL,PennController,7,_Trial_,End,1687377218526,5ed01428f407c70d93c4b38d,5ed01428f407c70d93c4b38d,5,book,critical,F,25,book15.jpg,book35.jpg,high,NULL
1687377415,3283c532430b6ea4040b03639f039b47,PennController,25,0,experiment,NULL,PennController,23,_Trial_,Start,1687377218529,5ed01428f407c70d93c4b38d,5ed01428f407c70d93c4b38d,21,visit,filler,F,50,visit40.jpg,visit60.jpg,GoalB,NULL
1687377415,3283c532430b6ea4040b03639f039b47,PennController,25,0,experiment,NULL,PennController,23,_Header_,Start,1687377218529,5ed01428f407c70d93c4b38d,5ed01428f407c70d93c4b38d,21,visit,filler,F,50,visit40.jpg,visit60.jpg,GoalB,NULL
1687377415,3283c532430b6ea4040b03639f039b47,PennController,25,0,experiment,NULL,PennController,23,_Header_,End,1687377218529,5ed01428f407c70d93c4b38d,5ed01428f407c70d93c4b38d,21,visit,filler,F,50,visit40.jpg,visit60.jpg,GoalB,NULL
1687377415,3283c532430b6ea4040b03639f039b47,PennController,25,0,experiment,NULL,Canvas,canvas6,Print,NA,1687377225233,5ed01428f407c70d93c4b38d,5ed01428f407c70d93c4b38d,21,visit,filler,F,50,visit40.jpg,visit60.jpg,GoalB,NULL
1687377415,3283c532430b6ea4040b03639f039b47,PennController,25,0,experiment,NULL,Video,progression,buffer,0.009766,1687377222078,5ed01428f407c70d93c4b38d,5ed01428f407c70d93c4b38d,21,visit,filler,F,50,visit40.jpg,visit60.jpg,GoalB,NULL
1687377415,3283c532430b6ea4040b03639f039b47,PennController,25,0,experiment,NULL,Selector,choice,Selection,option1,1687377228034,5ed01428f407c70d93c4b38d,5ed01428f407c70d93c4b38d,21,visit,filler,F,50,visit40.jpg,visit60.jpg,GoalB,option1;option2
1687377415,3283c532430b6ea4040b03639f039b47,PennController,25,0,experiment,NULL,PennController,23,_Trial_,End,1687377228040,5ed01428f407c70d93c4b38d,5ed01428f407c70d93c4b38d,21,visit,filler,F,50,visit40.jpg,visit60.jpg,GoalB,NULL
1687377415,3283c532430b6ea4040b03639f039b47,PennController,24,0,experiment,NULL,PennController,22,_Trial_,Start,1687377228045,5ed01428f407c70d93c4b38d,5ed01428f407c70d93c4b38d,20,cat,filler,F,25,cat15.jpg,cat35.jpg,GoalA,NULL
1687377415,3283c532430b6ea4040b03639f039b47,PennController,24,0,experiment,NULL,PennController,22,_Header_,Start,1687377228045,5ed01428f407c70d93c4b38d,5ed01428f407c70d93c4b38d,20,cat,filler,F,25,cat15.jpg,cat35.jpg,GoalA,NULL
1687377415,3283c532430b6ea4040b03639f039b47,PennController,24,0,experiment,NULL,PennController,22,_Header_,End,1687377228045,5ed01428f407c70d93c4b38d,5ed01428f407c70d93c4b38d,20,cat,filler,F,25,cat15.jpg,cat35.jpg,GoalA,NULL
1687377415,3283c532430b6ea4040b03639f039b47,PennController,24,0,experiment,NULL,Canvas,canvas6,Print,NA,1687377233772,5ed01428f407c70d93c4b38d,5ed01428f407c70d93c4b38d,20,cat,filler,F,25,cat15.jpg,cat35.jpg,GoalA,NULL
1687377415,3283c532430b6ea4040b03639f039b47,PennController,24,0,experiment,NULL,Video,progression,buffer,0.010217,1687377231596,5ed01428f407c70d93c4b38d,5ed01428f407c70d93c4b38d,20,cat,filler,F,25,cat15.jpg,cat35.jpg,GoalA,NULL
1687377415,3283c532430b6ea4040b03639f039b47,PennController,24,0,experiment,NULL,Selector,choice,Selection,option2,1687377236499,5ed01428f407c70d93c4b38d,5ed01428f407c70d93c4b38d,20,cat,filler,F,25,cat15.jpg,cat35.jpg,GoalA,option2;option1
1687377415,3283c532430b6ea4040b03639f039b47,PennController,24,0,experiment,NULL,PennController,22,_Trial_,End,1687377236503,5ed01428f407c70d93c4b38d,5ed01428f407c70d93c4b38d,20,cat,filler,F,25,cat15.jpg,cat35.jpg,GoalA,NULL
1687377415,3283c532430b6ea4040b03639f039b47,PennController,8,0,experiment,NULL,PennController,6,_Trial_,Start,1687377236507,5ed01428f407c70d93c4b38d,5ed01428f407c70d93c4b38d,4,candy,critical,F,75,candy65.jpg,candy85.jpg,high,NULL
1687377415,3283c532430b6ea4040b03639f039b47,PennController,8,0,experiment,NULL,PennController,6,_Header_,Start,1687377236507,5ed01428f407c70d93c4b38d,5ed01428f407c70d93c4b38d,4,candy,critical,F,75,candy65.jpg,candy85.jpg,high,NULL
1687377415,3283c532430b6ea4040b03639f039b47,PennController,8,0,experiment,NULL,PennController,6,_Header_,End,1687377236507,5ed01428f407c70d93c4b38d,5ed01428f407c70d93c4b38d,4,candy,critical,F,75,candy65.jpg,candy85.jpg,high,NULL
1687377415,3283c532430b6ea4040b03639f039b47,PennController,8,0,experiment,NULL,Canvas,canvas6,Print,NA,1687377244236,5ed01428f407c70d93c4b38d,5ed01428f407c70d93c4b38d,4,candy,critical,F,75,candy65.jpg,candy85.jpg,high,NULL
1687377415,3283c532430b6ea4040b03639f039b47,PennController,8,0,experiment,NULL,Video,progression,buffer,0.01211,1687377240064,5ed01428f407c70d93c4b38d,5ed01428f407c70d93c4b38d,4,candy,critical,F,75,candy65.jpg,candy85.jpg,high,NULL
1687377415,3283c532430b6ea4040b03639f039b47,PennController,8,0,experiment,NULL,Selector,choice,Selection,option2,1687377246297,5ed01428f407c70d93c4b38d,5ed01428f407c70d93c4b38d,4,candy,critical,F,75,candy65.jpg,candy85.jpg,high,option2;option1
1687377415,3283c532430b6ea4040b03639f039b47,PennController,8,0,experiment,NULL,PennController,6,_Trial_,End,1687377246302,5ed01428f407c70d93c4b38d,5ed01428f407c70d93c4b38d,4,candy,critical,F,75,candy65.jpg,candy85.jpg,high,NULL
1687377415,3283c532430b6ea4040b03639f039b47,PennController,23,0,experiment,NULL,PennController,21,_Trial_,Start,1687377246307,5ed01428f407c70d93c4b38d,5ed01428f407c70d93c4b38d,19,cup,filler,F,75,cup65.jpg,cup85.jpg,GoalB,NULL
1687377415,3283c532430b6ea4040b03639f039b47,PennController,23,0,experiment,NULL,PennController,21,_Header_,Start,1687377246307,5ed01428f407c70d93c4b38d,5ed01428f407c70d93c4b38d,19,cup,filler,F,75,cup65.jpg,cup85.jpg,GoalB,NULL
1687377415,3283c532430b6ea4040b03639f039b47,PennController,23,0,experiment,NULL,PennController,21,_Header_,End,1687377246307,5ed01428f407c70d93c4b38d,5ed01428f407c70d93c4b38d,19,cup,filler,F,75,cup65.jpg,cup85.jpg,GoalB,NULL
1687377415,3283c532430b6ea4040b03639f039b47,PennController,23,0,experiment,NULL,Canvas,canvas6,Print,NA,1687377254023,5ed01428f407c70d93c4b38d,5ed01428f407c70d93c4b38d,19,cup,filler,F,75,cup65.jpg,cup85.jpg,GoalB,NULL
1687377415,3283c532430b6ea4040b03639f039b47,PennController,23,0,experiment,NULL,Video,progression,buffer,0.003348,1687377249851,5ed01428f407c70d93c4b38d,5ed01428f407c70d93c4b38d,19,cup,filler,F,75,cup65.jpg,cup85.jpg,GoalB,NULL
1687377415,3283c532430b6ea4040b03639f039b47,PennController,23,0,experiment,NULL,Selector,choice,Selection,option1,1687377255752,5ed01428f407c70d93c4b38d,5ed01428f407c70d93c4b38d,19,cup,filler,F,75,cup65.jpg,cup85.jpg,GoalB,option2;option1
1687377415,3283c532430b6ea4040b03639f039b47,PennController,23,0,experiment,NULL,PennController,21,_Trial_,End,1687377255755,5ed01428f407c70d93c4b38d,5ed01428f407c70d93c4b38d,19,cup,filler,F,75,cup65.jpg,cup85.jpg,GoalB,NULL
1687377415,3283c532430b6ea4040b03639f039b47,PennController,27,0,experiment,NULL,PennController,25,_Trial_,Start,1687377255759,5ed01428f407c70d93c4b38d,5ed01428f407c70d93c4b38d,23,color,filler,F,25,color15.jpg,color35.jpg,GoalB,NULL
1687377415,3283c532430b6ea4040b03639f039b47,PennController,27,0,experiment,NULL,PennController,25,_Header_,Start,1687377255759,5ed01428f407c70d93c4b38d,5ed01428f407c70d93c4b38d,23,color,filler,F,25,color15.jpg,color35.jpg,GoalB,NULL
1687377415,3283c532430b6ea4040b03639f039b47,PennController,27,0,experiment,NULL,PennController,25,_Header_,End,1687377255759,5ed01428f407c70d93c4b38d,5ed01428f407c70d93c4b38d,23,color,filler,F,25,color15.jpg,color35.jpg,GoalB,NULL
1687377415,3283c532430b6ea4040b03639f039b47,PennController,27,0,experiment,NULL,Canvas,canvas6,Print,NA,1687377261485,5ed01428f407c70d93c4b38d,5ed01428f407c70d93c4b38d,23,color,filler,F,25,color15.jpg,color35.jpg,GoalB,NULL
1687377415,3283c532430b6ea4040b03639f039b47,PennController,27,0,experiment,NULL,Video,progression,buffer,0.012305,1687377259314,5ed01428f407c70d93c4b38d,5ed01428f407c70d93c4b38d,23,color,filler,F,25,color15.jpg,color35.jpg,GoalB,NULL
1687377415,3283c532430b6ea4040b03639f039b47,PennController,27,0,experiment,NULL,Selector,choice,Selection,option1,1687377265340,5ed01428f407c70d93c4b38d,5ed01428f407c70d93c4b38d,23,color,filler,F,25,color15.jpg,color35.jpg,GoalB,option2;option1
1687377415,3283c532430b6ea4040b03639f039b47,PennController,27,0,experiment,NULL,PennController,25,_Trial_,End,1687377265344,5ed01428f407c70d93c4b38d,5ed01428f407c70d93c4b38d,23,color,filler,F,25,color15.jpg,color35.jpg,GoalB,NULL
1687377415,3283c532430b6ea4040b03639f039b47,PennController,7,0,experiment,NULL,PennController,5,_Trial_,Start,1687377265347,5ed01428f407c70d93c4b38d,5ed01428f407c70d93c4b38d,3,clean,critical,F,50,clean40.jpg,clean60.jpg,high,NULL
1687377415,3283c532430b6ea4040b03639f039b47,PennController,7,0,experiment,NULL,PennController,5,_Header_,Start,1687377265348,5ed01428f407c70d93c4b38d,5ed01428f407c70d93c4b38d,3,clean,critical,F,50,clean40.jpg,clean60.jpg,high,NULL
1687377415,3283c532430b6ea4040b03639f039b47,PennController,7,0,experiment,NULL,PennController,5,_Header_,End,1687377265348,5ed01428f407c70d93c4b38d,5ed01428f407c70d93c4b38d,3,clean,critical,F,50,clean40.jpg,clean60.jpg,high,NULL
1687377415,3283c532430b6ea4040b03639f039b47,PennController,7,0,experiment,NULL,Canvas,canvas6,Print,NA,1687377272069,5ed01428f407c70d93c4b38d,5ed01428f407c70d93c4b38d,3,clean,critical,F,50,clean40.jpg,clean60.jpg,high,NULL
1687377415,3283c532430b6ea4040b03639f039b47,PennController,7,0,experiment,NULL,Video,progression,buffer,0.014576,1687377268898,5ed01428f407c70d93c4b38d,5ed01428f407c70d93c4b38d,3,clean,critical,F,50,clean40.jpg,clean60.jpg,high,NULL
1687377415,3283c532430b6ea4040b03639f039b47,PennController,7,0,experiment,NULL,Selector,choice,Selection,option2,1687377273864,5ed01428f407c70d93c4b38d,5ed01428f407c70d93c4b38d,3,clean,critical,F,50,clean40.jpg,clean60.jpg,high,option1;option2
1687377415,3283c532430b6ea4040b03639f039b47,PennController,7,0,experiment,NULL,PennController,5,_Trial_,End,1687377273867,5ed01428f407c70d93c4b38d,5ed01428f407c70d93c4b38d,3,clean,critical,F,50,clean40.jpg,clean60.jpg,high,NULL
1687377415,3283c532430b6ea4040b03639f039b47,PennController,12,0,experiment,NULL,PennController,10,_Trial_,Start,1687377273870,5ed01428f407c70d93c4b38d,5ed01428f407c70d93c4b38d,8,cucumber,critical,F,25,cucumber15.jpg,cucumber33.jpg,high,NULL
1687377415,3283c532430b6ea4040b03639f039b47,PennController,12,0,experiment,NULL,PennController,10,_Header_,Start,1687377273870,5ed01428f407c70d93c4b38d,5ed01428f407c70d93c4b38d,8,cucumber,critical,F,25,cucumber15.jpg,cucumber33.jpg,high,NULL
1687377415,3283c532430b6ea4040b03639f039b47,PennController,12,0,experiment,NULL,PennController,10,_Header_,End,1687377273870,5ed01428f407c70d93c4b38d,5ed01428f407c70d93c4b38d,8,cucumber,critical,F,25,cucumber15.jpg,cucumber33.jpg,high,NULL
1687377415,3283c532430b6ea4040b03639f039b47,PennController,12,0,experiment,NULL,Canvas,canvas6,Print,NA,1687377280180,5ed01428f407c70d93c4b38d,5ed01428f407c70d93c4b38d,8,cucumber,critical,F,25,cucumber15.jpg,cucumber33.jpg,high,NULL
1687377415,3283c532430b6ea4040b03639f039b47,PennController,12,0,experiment,NULL,Video,progression,buffer,0.009904,1687377277418,5ed01428f407c70d93c4b38d,5ed01428f407c70d93c4b38d,8,cucumber,critical,F,25,cucumber15.jpg,cucumber33.jpg,high,NULL
1687377415,3283c532430b6ea4040b03639f039b47,PennController,12,0,experiment,NULL,Selector,choice,Selection,option1,1687377283045,5ed01428f407c70d93c4b38d,5ed01428f407c70d93c4b38d,8,cucumber,critical,F,25,cucumber15.jpg,cucumber33.jpg,high,option1;option2
1687377415,3283c532430b6ea4040b03639f039b47,PennController,12,0,experiment,NULL,PennController,10,_Trial_,End,1687377283048,5ed01428f407c70d93c4b38d,5ed01428f407c70d93c4b38d,8,cucumber,critical,F,25,cucumber15.jpg,cucumber33.jpg,high,NULL
1687377415,3283c532430b6ea4040b03639f039b47,PennController,20,0,experiment,NULL,PennController,18,_Trial_,Start,1687377283052,5ed01428f407c70d93c4b38d,5ed01428f407c70d93c4b38d,16,blinds,critical,F,75,blinds66.jpg,blinds84.jpg,high,NULL
1687377415,3283c532430b6ea4040b03639f039b47,PennController,20,0,experiment,NULL,PennController,18,_Header_,Start,1687377283052,5ed01428f407c70d93c4b38d,5ed01428f407c70d93c4b38d,16,blinds,critical,F,75,blinds66.jpg,blinds84.jpg,high,NULL
1687377415,3283c532430b6ea4040b03639f039b47,PennController,20,0,experiment,NULL,PennController,18,_Header_,End,1687377283052,5ed01428f407c70d93c4b38d,5ed01428f407c70d93c4b38d,16,blinds,critical,F,75,blinds66.jpg,blinds84.jpg,high,NULL
1687377415,3283c532430b6ea4040b03639f039b47,PennController,20,0,experiment,NULL,Canvas,canvas6,Print,NA,1687377292780,5ed01428f407c70d93c4b38d,5ed01428f407c70d93c4b38d,16,blinds,critical,F,75,blinds66.jpg,blinds84.jpg,high,NULL
1687377415,3283c532430b6ea4040b03639f039b47,PennController,20,0,experiment,NULL,Video,progression,buffer,0.012608,1687377286610,5ed01428f407c70d93c4b38d,5ed01428f407c70d93c4b38d,16,blinds,critical,F,75,blinds66.jpg,blinds84.jpg,high,NULL
1687377415,3283c532430b6ea4040b03639f039b47,PennController,20,0,experiment,NULL,Selector,choice,Selection,option2,1687377297378,5ed01428f407c70d93c4b38d,5ed01428f407c70d93c4b38d,16,blinds,critical,F,75,blinds66.jpg,blinds84.jpg,high,option1;option2
1687377415,3283c532430b6ea4040b03639f039b47,PennController,20,0,experiment,NULL,PennController,18,_Trial_,End,1687377297381,5ed01428f407c70d93c4b38d,5ed01428f407c70d93c4b38d,16,blinds,critical,F,75,blinds66.jpg,blinds84.jpg,high,NULL
1687377415,3283c532430b6ea4040b03639f039b47,PennController,5,0,experiment,NULL,PennController,3,_Trial_,Start,1687377297385,5ed01428f407c70d93c4b38d,5ed01428f407c70d93c4b38d,1,vase,critical,F,75,vase65.jpg,vase85.jpg,high,NULL
1687377415,3283c532430b6ea4040b03639f039b47,PennController,5,0,experiment,NULL,PennController,3,_Header_,Start,1687377297385,5ed01428f407c70d93c4b38d,5ed01428f407c70d93c4b38d,1,vase,critical,F,75,vase65.jpg,vase85.jpg,high,NULL
1687377415,3283c532430b6ea4040b03639f039b47,PennController,5,0,experiment,NULL,PennController,3,_Header_,End,1687377297385,5ed01428f407c70d93c4b38d,5ed01428f407c70d93c4b38d,1,vase,critical,F,75,vase65.jpg,vase85.jpg,high,NULL
1687377415,3283c532430b6ea4040b03639f039b47,PennController,5,0,experiment,NULL,Canvas,canvas6,Print,NA,1687377305110,5ed01428f407c70d93c4b38d,5ed01428f407c70d93c4b38d,1,vase,critical,F,75,vase65.jpg,vase85.jpg,high,NULL
1687377415,3283c532430b6ea4040b03639f039b47,PennController,5,0,experiment,NULL,Video,progression,buffer,0.012987,1687377300937,5ed01428f407c70d93c4b38d,5ed01428f407c70d93c4b38d,1,vase,critical,F,75,vase65.jpg,vase85.jpg,high,NULL
1687377415,3283c532430b6ea4040b03639f039b47,PennController,5,0,experiment,NULL,Selector,choice,Selection,option2,1687377306664,5ed01428f407c70d93c4b38d,5ed01428f407c70d93c4b38d,1,vase,critical,F,75,vase65.jpg,vase85.jpg,high,option1;option2
1687377415,3283c532430b6ea4040b03639f039b47,PennController,5,0,experiment,NULL,PennController,3,_Trial_,End,1687377306667,5ed01428f407c70d93c4b38d,5ed01428f407c70d93c4b38d,1,vase,critical,F,75,vase65.jpg,vase85.jpg,high,NULL
1687377415,3283c532430b6ea4040b03639f039b47,PennController,21,0,experiment,NULL,PennController,19,_Trial_,Start,1687377306670,5ed01428f407c70d93c4b38d,5ed01428f407c70d93c4b38d,17,roll,critical,F,25,roll15.jpg,roll35.jpg,high,NULL
1687377415,3283c532430b6ea4040b03639f039b47,PennController,21,0,experiment,NULL,PennController,19,_Header_,Start,1687377306670,5ed01428f407c70d93c4b38d,5ed01428f407c70d93c4b38d,17,roll,critical,F,25,roll15.jpg,roll35.jpg,high,NULL
1687377415,3283c532430b6ea4040b03639f039b47,PennController,21,0,experiment,NULL,PennController,19,_Header_,End,1687377306670,5ed01428f407c70d93c4b38d,5ed01428f407c70d93c4b38d,17,roll,critical,F,25,roll15.jpg,roll35.jpg,high,NULL
1687377415,3283c532430b6ea4040b03639f039b47,PennController,21,0,experiment,NULL,Canvas,canvas6,Print,NA,1687377312389,5ed01428f407c70d93c4b38d,5ed01428f407c70d93c4b38d,17,roll,critical,F,25,roll15.jpg,roll35.jpg,high,NULL
1687377415,3283c532430b6ea4040b03639f039b47,PennController,21,0,experiment,NULL,Video,progression,buffer,0.014535,1687377310228,5ed01428f407c70d93c4b38d,5ed01428f407c70d93c4b38d,17,roll,critical,F,25,roll15.jpg,roll35.jpg,high,NULL
1687377415,3283c532430b6ea4040b03639f039b47,PennController,21,0,experiment,NULL,Selector,choice,Selection,option1,1687377314391,5ed01428f407c70d93c4b38d,5ed01428f407c70d93c4b38d,17,roll,critical,F,25,roll15.jpg,roll35.jpg,high,option2;option1
1687377415,3283c532430b6ea4040b03639f039b47,PennController,21,0,experiment,NULL,PennController,19,_Trial_,End,1687377314394,5ed01428f407c70d93c4b38d,5ed01428f407c70d93c4b38d,17,roll,critical,F,25,roll15.jpg,roll35.jpg,high,NULL
1687377415,3283c532430b6ea4040b03639f039b47,PennController,11,0,experiment,NULL,PennController,9,_Trial_,Start,1687377314397,5ed01428f407c70d93c4b38d,5ed01428f407c70d93c4b38d,7,stack,critical,F,75,stack65.jpg,stack85.jpg,high,NULL
1687377415,3283c532430b6ea4040b03639f039b47,PennController,11,0,experiment,NULL,PennController,9,_Header_,Start,1687377314398,5ed01428f407c70d93c4b38d,5ed01428f407c70d93c4b38d,7,stack,critical,F,75,stack65.jpg,stack85.jpg,high,NULL
1687377415,3283c532430b6ea4040b03639f039b47,PennController,11,0,experiment,NULL,PennController,9,_Header_,End,1687377314398,5ed01428f407c70d93c4b38d,5ed01428f407c70d93c4b38d,7,stack,critical,F,75,stack65.jpg,stack85.jpg,high,NULL
1687377415,3283c532430b6ea4040b03639f039b47,PennController,11,0,experiment,NULL,Canvas,canvas6,Print,NA,1687377322125,5ed01428f407c70d93c4b38d,5ed01428f407c70d93c4b38d,7,stack,critical,F,75,stack65.jpg,stack85.jpg,high,NULL
1687377415,3283c532430b6ea4040b03639f039b47,PennController,11,0,experiment,NULL,Video,progression,buffer,0.012617,1687377317957,5ed01428f407c70d93c4b38d,5ed01428f407c70d93c4b38d,7,stack,critical,F,75,stack65.jpg,stack85.jpg,high,NULL
1687377415,3283c532430b6ea4040b03639f039b47,PennController,11,0,experiment,NULL,Selector,choice,Selection,option1,1687377324431,5ed01428f407c70d93c4b38d,5ed01428f407c70d93c4b38d,7,stack,critical,F,75,stack65.jpg,stack85.jpg,high,option2;option1
1687377415,3283c532430b6ea4040b03639f039b47,PennController,11,0,experiment,NULL,PennController,9,_Trial_,End,1687377324434,5ed01428f407c70d93c4b38d,5ed01428f407c70d93c4b38d,7,stack,critical,F,75,stack65.jpg,stack85.jpg,high,NULL
1687377415,3283c532430b6ea4040b03639f039b47,PennController,10,0,experiment,NULL,PennController,8,_Trial_,Start,1687377324440,5ed01428f407c70d93c4b38d,5ed01428f407c70d93c4b38d,6,flower,critical,F,50,flower40.jpg,flower60.jpg,high,NULL
1687377415,3283c532430b6ea4040b03639f039b47,PennController,10,0,experiment,NULL,PennController,8,_Header_,Start,1687377324440,5ed01428f407c70d93c4b38d,5ed01428f407c70d93c4b38d,6,flower,critical,F,50,flower40.jpg,flower60.jpg,high,NULL
1687377415,3283c532430b6ea4040b03639f039b47,PennController,10,0,experiment,NULL,PennController,8,_Header_,End,1687377324440,5ed01428f407c70d93c4b38d,5ed01428f407c70d93c4b38d,6,flower,critical,F,50,flower40.jpg,flower60.jpg,high,NULL
1687377415,3283c532430b6ea4040b03639f039b47,PennController,10,0,experiment,NULL,Canvas,canvas6,Print,NA,1687377331149,5ed01428f407c70d93c4b38d,5ed01428f407c70d93c4b38d,6,flower,critical,F,50,flower40.jpg,flower60.jpg,high,NULL
1687377415,3283c532430b6ea4040b03639f039b47,PennController,10,0,experiment,NULL,Video,progression,buffer,0.012085,1687377327993,5ed01428f407c70d93c4b38d,5ed01428f407c70d93c4b38d,6,flower,critical,F,50,flower40.jpg,flower60.jpg,high,NULL
1687377415,3283c532430b6ea4040b03639f039b47,PennController,10,0,experiment,NULL,Selector,choice,Selection,option1,1687377332838,5ed01428f407c70d93c4b38d,5ed01428f407c70d93c4b38d,6,flower,critical,F,50,flower40.jpg,flower60.jpg,high,option2;option1
1687377415,3283c532430b6ea4040b03639f039b47,PennController,10,0,experiment,NULL,PennController,8,_Trial_,End,1687377332840,5ed01428f407c70d93c4b38d,5ed01428f407c70d93c4b38d,6,flower,critical,F,50,flower40.jpg,flower60.jpg,high,NULL
1687377415,3283c532430b6ea4040b03639f039b47,PennController,32,0,experiment,NULL,PennController,30,_Trial_,Start,1687377332842,5ed01428f407c70d93c4b38d,5ed01428f407c70d93c4b38d,28,sort,filler,F,75,sort65.jpg,sort85.jpg,GoalA,NULL
1687377415,3283c532430b6ea4040b03639f039b47,PennController,32,0,experiment,NULL,PennController,30,_Header_,Start,1687377332842,5ed01428f407c70d93c4b38d,5ed01428f407c70d93c4b38d,28,sort,filler,F,75,sort65.jpg,sort85.jpg,GoalA,NULL
1687377415,3283c532430b6ea4040b03639f039b47,PennController,32,0,experiment,NULL,PennController,30,_Header_,End,1687377332842,5ed01428f407c70d93c4b38d,5ed01428f407c70d93c4b38d,28,sort,filler,F,75,sort65.jpg,sort85.jpg,GoalA,NULL
1687377415,3283c532430b6ea4040b03639f039b47,PennController,32,0,experiment,NULL,Canvas,canvas6,Print,NA,1687377340557,5ed01428f407c70d93c4b38d,5ed01428f407c70d93c4b38d,28,sort,filler,F,75,sort65.jpg,sort85.jpg,GoalA,NULL
1687377415,3283c532430b6ea4040b03639f039b47,PennController,32,0,experiment,NULL,Video,progression,buffer,0.002335,1687377336379,5ed01428f407c70d93c4b38d,5ed01428f407c70d93c4b38d,28,sort,filler,F,75,sort65.jpg,sort85.jpg,GoalA,NULL
1687377415,3283c532430b6ea4040b03639f039b47,PennController,32,0,experiment,NULL,Selector,choice,Selection,option1,1687377343552,5ed01428f407c70d93c4b38d,5ed01428f407c70d93c4b38d,28,sort,filler,F,75,sort65.jpg,sort85.jpg,GoalA,option1;option2
1687377415,3283c532430b6ea4040b03639f039b47,PennController,32,0,experiment,NULL,PennController,30,_Trial_,End,1687377343555,5ed01428f407c70d93c4b38d,5ed01428f407c70d93c4b38d,28,sort,filler,F,75,sort65.jpg,sort85.jpg,GoalA,NULL
1687377415,3283c532430b6ea4040b03639f039b47,PennController,33,0,experiment,NULL,PennController,31,_Trial_,Start,1687377343559,5ed01428f407c70d93c4b38d,5ed01428f407c70d93c4b38d,29,frog,filler,F,25,frog15.jpg,frog35.jpg,GoalB,NULL
1687377415,3283c532430b6ea4040b03639f039b47,PennController,33,0,experiment,NULL,PennController,31,_Header_,Start,1687377343559,5ed01428f407c70d93c4b38d,5ed01428f407c70d93c4b38d,29,frog,filler,F,25,frog15.jpg,frog35.jpg,GoalB,NULL
1687377415,3283c532430b6ea4040b03639f039b47,PennController,33,0,experiment,NULL,PennController,31,_Header_,End,1687377343559,5ed01428f407c70d93c4b38d,5ed01428f407c70d93c4b38d,29,frog,filler,F,25,frog15.jpg,frog35.jpg,GoalB,NULL
1687377415,3283c532430b6ea4040b03639f039b47,PennController,33,0,experiment,NULL,Canvas,canvas6,Print,NA,1687377349283,5ed01428f407c70d93c4b38d,5ed01428f407c70d93c4b38d,29,frog,filler,F,25,frog15.jpg,frog35.jpg,GoalB,NULL
1687377415,3283c532430b6ea4040b03639f039b47,PennController,33,0,experiment,NULL,Video,progression,buffer,0.013611,1687377347116,5ed01428f407c70d93c4b38d,5ed01428f407c70d93c4b38d,29,frog,filler,F,25,frog15.jpg,frog35.jpg,GoalB,NULL
1687377415,3283c532430b6ea4040b03639f039b47,PennController,33,0,experiment,NULL,Selector,choice,Selection,option1,1687377350908,5ed01428f407c70d93c4b38d,5ed01428f407c70d93c4b38d,29,frog,filler,F,25,frog15.jpg,frog35.jpg,GoalB,option1;option2
1687377415,3283c532430b6ea4040b03639f039b47,PennController,33,0,experiment,NULL,PennController,31,_Trial_,End,1687377350911,5ed01428f407c70d93c4b38d,5ed01428f407c70d93c4b38d,29,frog,filler,F,25,frog15.jpg,frog35.jpg,GoalB,NULL
1687377415,3283c532430b6ea4040b03639f039b47,PennController,22,0,experiment,NULL,PennController,20,_Trial_,Start,1687377350916,5ed01428f407c70d93c4b38d,5ed01428f407c70d93c4b38d,18,ball,critical,F,50,ball40.jpg,ball60.jpg,high,NULL
1687377415,3283c532430b6ea4040b03639f039b47,PennController,22,0,experiment,NULL,PennController,20,_Header_,Start,1687377350916,5ed01428f407c70d93c4b38d,5ed01428f407c70d93c4b38d,18,ball,critical,F,50,ball40.jpg,ball60.jpg,high,NULL
1687377415,3283c532430b6ea4040b03639f039b47,PennController,22,0,experiment,NULL,PennController,20,_Header_,End,1687377350916,5ed01428f407c70d93c4b38d,5ed01428f407c70d93c4b38d,18,ball,critical,F,50,ball40.jpg,ball60.jpg,high,NULL
1687377415,3283c532430b6ea4040b03639f039b47,PennController,22,0,experiment,NULL,Canvas,canvas6,Print,NA,1687377357636,5ed01428f407c70d93c4b38d,5ed01428f407c70d93c4b38d,18,ball,critical,F,50,ball40.jpg,ball60.jpg,high,NULL
1687377415,3283c532430b6ea4040b03639f039b47,PennController,22,0,experiment,NULL,Video,progression,buffer,0.014684,1687377354470,5ed01428f407c70d93c4b38d,5ed01428f407c70d93c4b38d,18,ball,critical,F,50,ball40.jpg,ball60.jpg,high,NULL
1687377415,3283c532430b6ea4040b03639f039b47,PennController,22,0,experiment,NULL,Selector,choice,Selection,option2,1687377360618,5ed01428f407c70d93c4b38d,5ed01428f407c70d93c4b38d,18,ball,critical,F,50,ball40.jpg,ball60.jpg,high,option2;option1
1687377415,3283c532430b6ea4040b03639f039b47,PennController,22,0,experiment,NULL,PennController,20,_Trial_,End,1687377360619,5ed01428f407c70d93c4b38d,5ed01428f407c70d93c4b38d,18,ball,critical,F,50,ball40.jpg,ball60.jpg,high,NULL
1687377415,3283c532430b6ea4040b03639f039b47,PennController,13,0,experiment,NULL,PennController,11,_Trial_,Start,1687377360619,5ed01428f407c70d93c4b38d,5ed01428f407c70d93c4b38d,9,cake,critical,F,50,cake42.jpg,cake60.jpg,high,NULL
1687377415,3283c532430b6ea4040b03639f039b47,PennController,13,0,experiment,NULL,PennController,11,_Header_,Start,1687377360619,5ed01428f407c70d93c4b38d,5ed01428f407c70d93c4b38d,9,cake,critical,F,50,cake42.jpg,cake60.jpg,high,NULL
1687377415,3283c532430b6ea4040b03639f039b47,PennController,13,0,experiment,NULL,PennController,11,_Header_,End,1687377360619,5ed01428f407c70d93c4b38d,5ed01428f407c70d93c4b38d,9,cake,critical,F,50,cake42.jpg,cake60.jpg,high,NULL
1687377415,3283c532430b6ea4040b03639f039b47,PennController,13,0,experiment,NULL,Canvas,canvas6,Print,NA,1687377368705,5ed01428f407c70d93c4b38d,5ed01428f407c70d93c4b38d,9,cake,critical,F,50,cake42.jpg,cake60.jpg,high,NULL
1687377415,3283c532430b6ea4040b03639f039b47,PennController,13,0,experiment,NULL,Video,progression,buffer,0.011361,1687377364158,5ed01428f407c70d93c4b38d,5ed01428f407c70d93c4b38d,9,cake,critical,F,50,cake42.jpg,cake60.jpg,high,NULL
1687377415,3283c532430b6ea4040b03639f039b47,PennController,13,0,experiment,NULL,Selector,choice,Selection,option1,1687377371051,5ed01428f407c70d93c4b38d,5ed01428f407c70d93c4b38d,9,cake,critical,F,50,cake42.jpg,cake60.jpg,high,option2;option1
1687377415,3283c532430b6ea4040b03639f039b47,PennController,13,0,experiment,NULL,PennController,11,_Trial_,End,1687377371053,5ed01428f407c70d93c4b38d,5ed01428f407c70d93c4b38d,9,cake,critical,F,50,cake42.jpg,cake60.jpg,high,NULL
1687377415,3283c532430b6ea4040b03639f039b47,PennController,26,0,experiment,NULL,PennController,24,_Trial_,Start,1687377371057,5ed01428f407c70d93c4b38d,5ed01428f407c70d93c4b38d,22,wall,filler,F,75,wall65.jpg,wall85.jpg,GoalA,NULL
1687377415,3283c532430b6ea4040b03639f039b47,PennController,26,0,experiment,NULL,PennController,24,_Header_,Start,1687377371057,5ed01428f407c70d93c4b38d,5ed01428f407c70d93c4b38d,22,wall,filler,F,75,wall65.jpg,wall85.jpg,GoalA,NULL
1687377415,3283c532430b6ea4040b03639f039b47,PennController,26,0,experiment,NULL,PennController,24,_Header_,End,1687377371057,5ed01428f407c70d93c4b38d,5ed01428f407c70d93c4b38d,22,wall,filler,F,75,wall65.jpg,wall85.jpg,GoalA,NULL
1687377415,3283c532430b6ea4040b03639f039b47,PennController,26,0,experiment,NULL,Canvas,canvas6,Print,NA,1687377378765,5ed01428f407c70d93c4b38d,5ed01428f407c70d93c4b38d,22,wall,filler,F,75,wall65.jpg,wall85.jpg,GoalA,NULL
1687377415,3283c532430b6ea4040b03639f039b47,PennController,26,0,experiment,NULL,Video,progression,buffer,0.014856,1687377374611,5ed01428f407c70d93c4b38d,5ed01428f407c70d93c4b38d,22,wall,filler,F,75,wall65.jpg,wall85.jpg,GoalA,NULL
1687377415,3283c532430b6ea4040b03639f039b47,PennController,26,0,experiment,NULL,Selector,choice,Selection,option2,1687377380699,5ed01428f407c70d93c4b38d,5ed01428f407c70d93c4b38d,22,wall,filler,F,75,wall65.jpg,wall85.jpg,GoalA,option1;option2
1687377415,3283c532430b6ea4040b03639f039b47,PennController,26,0,experiment,NULL,PennController,24,_Trial_,End,1687377380702,5ed01428f407c70d93c4b38d,5ed01428f407c70d93c4b38d,22,wall,filler,F,75,wall65.jpg,wall85.jpg,GoalA,NULL
1687377415,3283c532430b6ea4040b03639f039b47,PennController,17,0,experiment,NULL,PennController,15,_Trial_,Start,1687377380705,5ed01428f407c70d93c4b38d,5ed01428f407c70d93c4b38d,13,mix,critical,F,75,mix65.jpg,mix85.jpg,high,NULL
1687377415,3283c532430b6ea4040b03639f039b47,PennController,17,0,experiment,NULL,PennController,15,_Header_,Start,1687377380705,5ed01428f407c70d93c4b38d,5ed01428f407c70d93c4b38d,13,mix,critical,F,75,mix65.jpg,mix85.jpg,high,NULL
1687377415,3283c532430b6ea4040b03639f039b47,PennController,17,0,experiment,NULL,PennController,15,_Header_,End,1687377380705,5ed01428f407c70d93c4b38d,5ed01428f407c70d93c4b38d,13,mix,critical,F,75,mix65.jpg,mix85.jpg,high,NULL
1687377415,3283c532430b6ea4040b03639f039b47,PennController,17,0,experiment,NULL,Canvas,canvas6,Print,NA,1687377388364,5ed01428f407c70d93c4b38d,5ed01428f407c70d93c4b38d,13,mix,critical,F,75,mix65.jpg,mix85.jpg,high,NULL
1687377415,3283c532430b6ea4040b03639f039b47,PennController,17,0,experiment,NULL,Video,progression,buffer,0.019563,1687377384266,5ed01428f407c70d93c4b38d,5ed01428f407c70d93c4b38d,13,mix,critical,F,75,mix65.jpg,mix85.jpg,high,NULL
1687377415,3283c532430b6ea4040b03639f039b47,PennController,17,0,experiment,NULL,Selector,choice,Selection,option1,1687377390356,5ed01428f407c70d93c4b38d,5ed01428f407c70d93c4b38d,13,mix,critical,F,75,mix65.jpg,mix85.jpg,high,option1;option2
1687377415,3283c532430b6ea4040b03639f039b47,PennController,17,0,experiment,NULL,PennController,15,_Trial_,End,1687377390360,5ed01428f407c70d93c4b38d,5ed01428f407c70d93c4b38d,13,mix,critical,F,75,mix65.jpg,mix85.jpg,high,NULL
1687377415,3283c532430b6ea4040b03639f039b47,PennController,30,0,experiment,NULL,PennController,28,_Trial_,Start,1687377390364,5ed01428f407c70d93c4b38d,5ed01428f407c70d93c4b38d,26,sandwich,filler,F,25,sandwich15.jpg,sandwich35.jpg,GoalA,NULL
1687377415,3283c532430b6ea4040b03639f039b47,PennController,30,0,experiment,NULL,PennController,28,_Header_,Start,1687377390364,5ed01428f407c70d93c4b38d,5ed01428f407c70d93c4b38d,26,sandwich,filler,F,25,sandwich15.jpg,sandwich35.jpg,GoalA,NULL
1687377415,3283c532430b6ea4040b03639f039b47,PennController,30,0,experiment,NULL,PennController,28,_Header_,End,1687377390364,5ed01428f407c70d93c4b38d,5ed01428f407c70d93c4b38d,26,sandwich,filler,F,25,sandwich15.jpg,sandwich35.jpg,GoalA,NULL
1687377415,3283c532430b6ea4040b03639f039b47,PennController,30,0,experiment,NULL,Canvas,canvas6,Print,NA,1687377396076,5ed01428f407c70d93c4b38d,5ed01428f407c70d93c4b38d,26,sandwich,filler,F,25,sandwich15.jpg,sandwich35.jpg,GoalA,NULL
1687377415,3283c532430b6ea4040b03639f039b47,PennController,30,0,experiment,NULL,Video,progression,buffer,0.010788,1687377393910,5ed01428f407c70d93c4b38d,5ed01428f407c70d93c4b38d,26,sandwich,filler,F,25,sandwich15.jpg,sandwich35.jpg,GoalA,NULL
1687377415,3283c532430b6ea4040b03639f039b47,PennController,30,0,experiment,NULL,Selector,choice,Selection,option1,1687377397759,5ed01428f407c70d93c4b38d,5ed01428f407c70d93c4b38d,26,sandwich,filler,F,25,sandwich15.jpg,sandwich35.jpg,GoalA,option2;option1
1687377415,3283c532430b6ea4040b03639f039b47,PennController,30,0,experiment,NULL,PennController,28,_Trial_,End,1687377397762,5ed01428f407c70d93c4b38d,5ed01428f407c70d93c4b38d,26,sandwich,filler,F,25,sandwich15.jpg,sandwich35.jpg,GoalA,NULL
1687377415,3283c532430b6ea4040b03639f039b47,PennController,18,0,experiment,NULL,PennController,16,_Trial_,Start,1687377397764,5ed01428f407c70d93c4b38d,5ed01428f407c70d93c4b38d,14,cover,critical,F,25,cover15.jpg,cover33.jpg,high,NULL
1687377415,3283c532430b6ea4040b03639f039b47,PennController,18,0,experiment,NULL,PennController,16,_Header_,Start,1687377397764,5ed01428f407c70d93c4b38d,5ed01428f407c70d93c4b38d,14,cover,critical,F,25,cover15.jpg,cover33.jpg,high,NULL
1687377415,3283c532430b6ea4040b03639f039b47,PennController,18,0,experiment,NULL,PennController,16,_Header_,End,1687377397764,5ed01428f407c70d93c4b38d,5ed01428f407c70d93c4b38d,14,cover,critical,F,25,cover15.jpg,cover33.jpg,high,NULL
1687377415,3283c532430b6ea4040b03639f039b47,PennController,18,0,experiment,NULL,Canvas,canvas6,Print,NA,1687377404072,5ed01428f407c70d93c4b38d,5ed01428f407c70d93c4b38d,14,cover,critical,F,25,cover15.jpg,cover33.jpg,high,NULL
1687377415,3283c532430b6ea4040b03639f039b47,PennController,18,0,experiment,NULL,Video,progression,buffer,0.010383,1687377401310,5ed01428f407c70d93c4b38d,5ed01428f407c70d93c4b38d,14,cover,critical,F,25,cover15.jpg,cover33.jpg,high,NULL
1687377415,3283c532430b6ea4040b03639f039b47,PennController,18,0,experiment,NULL,Selector,choice,Selection,option1,1687377406162,5ed01428f407c70d93c4b38d,5ed01428f407c70d93c4b38d,14,cover,critical,F,25,cover15.jpg,cover33.jpg,high,option1;option2
1687377415,3283c532430b6ea4040b03639f039b47,PennController,18,0,experiment,NULL,PennController,16,_Trial_,End,1687377406165,5ed01428f407c70d93c4b38d,5ed01428f407c70d93c4b38d,14,cover,critical,F,25,cover15.jpg,cover33.jpg,high,NULL
1687377415,3283c532430b6ea4040b03639f039b47,PennController,28,0,experiment,NULL,PennController,26,_Trial_,Start,1687377406168,5ed01428f407c70d93c4b38d,5ed01428f407c70d93c4b38d,24,match,filler,F,50,match40.jpg,match60.jpg,GoalA,NULL
1687377415,3283c532430b6ea4040b03639f039b47,PennController,28,0,experiment,NULL,PennController,26,_Header_,Start,1687377406168,5ed01428f407c70d93c4b38d,5ed01428f407c70d93c4b38d,24,match,filler,F,50,match40.jpg,match60.jpg,GoalA,NULL
1687377415,3283c532430b6ea4040b03639f039b47,PennController,28,0,experiment,NULL,PennController,26,_Header_,End,1687377406168,5ed01428f407c70d93c4b38d,5ed01428f407c70d93c4b38d,24,match,filler,F,50,match40.jpg,match60.jpg,GoalA,NULL
1687377415,3283c532430b6ea4040b03639f039b47,PennController,28,0,experiment,NULL,Canvas,canvas6,Print,NA,1687377412880,5ed01428f407c70d93c4b38d,5ed01428f407c70d93c4b38d,24,match,filler,F,50,match40.jpg,match60.jpg,GoalA,NULL
1687377415,3283c532430b6ea4040b03639f039b47,PennController,28,0,experiment,NULL,Video,progression,buffer,0.016652,1687377409719,5ed01428f407c70d93c4b38d,5ed01428f407c70d93c4b38d,24,match,filler,F,50,match40.jpg,match60.jpg,GoalA,NULL
1687377415,3283c532430b6ea4040b03639f039b47,PennController,28,0,experiment,NULL,Selector,choice,Selection,option1,1687377414842,5ed01428f407c70d93c4b38d,5ed01428f407c70d93c4b38d,24,match,filler,F,50,match40.jpg,match60.jpg,GoalA,option1;option2
1687377415,3283c532430b6ea4040b03639f039b47,PennController,28,0,experiment,NULL,PennController,26,_Trial_,End,1687377414845,5ed01428f407c70d93c4b38d,5ed01428f407c70d93c4b38d,24,match,filler,F,50,match40.jpg,match60.jpg,GoalA,NULL
