#
# Results on Tuesday June 20 2023 18:58:26 UTC
# USER AGENT: Mozilla/5.0 (Windows NT 10.0; Win64; x64) AppleWebKit/537.36 (KHTML, like Gecko) Chrome/113.0.0.0 Safari/537.36
# Design number was non-random = 3
#
# Columns below this comment are as follows:
# 1. Results reception time.
# 2. MD5 hash of participant's IP address.
# 3. Controller name.
# 4. Order number of item.
# 5. Inner element number.
# 6. Label.
# 7. Latin Square Group.
# 8. PennElementType.
# 9. PennElementName.
# 10. Parameter.
# 11. Value.
# 12. EventTime.
# 13. PROLIFIC_ID.
# 14. Comments.
1687287506,8183be70ebf4093b170a53be5b3ba806,PennController,2,0,consent,NULL,PennController,0,_Trial_,Start,1687287010201,5f42e674f6a9ae519c2295b4,NULL
1687287506,8183be70ebf4093b170a53be5b3ba806,PennController,2,0,consent,NULL,PennController,0,_Header_,Start,1687287010201,5f42e674f6a9ae519c2295b4,NULL
1687287506,8183be70ebf4093b170a53be5b3ba806,PennController,2,0,consent,NULL,PennController,0,_Header_,End,1687287010201,5f42e674f6a9ae519c2295b4,NULL
1687287506,8183be70ebf4093b170a53be5b3ba806,PennController,2,0,consent,NULL,PennController,0,_Trial_,End,1687287138045,5f42e674f6a9ae519c2295b4,NULL
# Columns below this comment are as follows:
# 14. ID.
# 15. Comments.
1687287506,8183be70ebf4093b170a53be5b3ba806,PennController,3,0,intro,NULL,PennController,1,_Trial_,Start,1687287138051,5f42e674f6a9ae519c2295b4,5f42e674f6a9ae519c2295b4,NULL
1687287506,8183be70ebf4093b170a53be5b3ba806,PennController,3,0,intro,NULL,PennController,1,_Header_,Start,1687287138051,5f42e674f6a9ae519c2295b4,5f42e674f6a9ae519c2295b4,NULL
1687287506,8183be70ebf4093b170a53be5b3ba806,PennController,3,0,intro,NULL,PennController,1,_Header_,End,1687287138051,5f42e674f6a9ae519c2295b4,5f42e674f6a9ae519c2295b4,NULL
1687287506,8183be70ebf4093b170a53be5b3ba806,PennController,3,0,intro,NULL,PennController,1,_Trial_,End,1687287184145,5f42e674f6a9ae519c2295b4,5f42e674f6a9ae519c2295b4,NULL
# Columns below this comment are as follows:
# 15. item_number.
# 16. item.
# 17. type.
# 18. Group.
# 19. prog.
# 20. prev_image.
# 21. next_image.
# 22. height.
# 23. Comments.
1687287506,8183be70ebf4093b170a53be5b3ba806,PennController,9,0,experiment,NULL,PennController,8,_Trial_,Start,1687287184149,5f42e674f6a9ae519c2295b4,5f42e674f6a9ae519c2295b4,6,flower,critical,D,75,flower65.jpg,flower85.jpg,high,NULL
1687287506,8183be70ebf4093b170a53be5b3ba806,PennController,9,0,experiment,NULL,PennController,8,_Header_,Start,1687287184149,5f42e674f6a9ae519c2295b4,5f42e674f6a9ae519c2295b4,6,flower,critical,D,75,flower65.jpg,flower85.jpg,high,NULL
1687287506,8183be70ebf4093b170a53be5b3ba806,PennController,9,0,experiment,NULL,PennController,8,_Header_,End,1687287184149,5f42e674f6a9ae519c2295b4,5f42e674f6a9ae519c2295b4,6,flower,critical,D,75,flower65.jpg,flower85.jpg,high,NULL
1687287506,8183be70ebf4093b170a53be5b3ba806,PennController,9,0,experiment,NULL,Canvas,canvas6,Print,NA,1687287191854,5f42e674f6a9ae519c2295b4,5f42e674f6a9ae519c2295b4,6,flower,critical,D,75,flower65.jpg,flower85.jpg,high,NULL
1687287506,8183be70ebf4093b170a53be5b3ba806,PennController,9,0,experiment,NULL,Video,progression,buffer,0.004751,1687287187690,5f42e674f6a9ae519c2295b4,5f42e674f6a9ae519c2295b4,6,flower,critical,D,75,flower65.jpg,flower85.jpg,high,NULL
1687287506,8183be70ebf4093b170a53be5b3ba806,PennController,9,0,experiment,NULL,Selector,choice,Selection,option1,1687287198932,5f42e674f6a9ae519c2295b4,5f42e674f6a9ae519c2295b4,6,flower,critical,D,75,flower65.jpg,flower85.jpg,high,option1;option2
1687287506,8183be70ebf4093b170a53be5b3ba806,PennController,9,0,experiment,NULL,PennController,8,_Trial_,End,1687287198934,5f42e674f6a9ae519c2295b4,5f42e674f6a9ae519c2295b4,6,flower,critical,D,75,flower65.jpg,flower85.jpg,high,NULL
1687287506,8183be70ebf4093b170a53be5b3ba806,PennController,23,0,experiment,NULL,PennController,22,_Trial_,Start,1687287198937,5f42e674f6a9ae519c2295b4,5f42e674f6a9ae519c2295b4,20,cat,filler,D,50,cat40.jpg,cat60.jpg,GoalA,NULL
1687287506,8183be70ebf4093b170a53be5b3ba806,PennController,23,0,experiment,NULL,PennController,22,_Header_,Start,1687287198937,5f42e674f6a9ae519c2295b4,5f42e674f6a9ae519c2295b4,20,cat,filler,D,50,cat40.jpg,cat60.jpg,GoalA,NULL
1687287506,8183be70ebf4093b170a53be5b3ba806,PennController,23,0,experiment,NULL,PennController,22,_Header_,End,1687287198937,5f42e674f6a9ae519c2295b4,5f42e674f6a9ae519c2295b4,20,cat,filler,D,50,cat40.jpg,cat60.jpg,GoalA,NULL
1687287506,8183be70ebf4093b170a53be5b3ba806,PennController,23,0,experiment,NULL,Canvas,canvas6,Print,NA,1687287205615,5f42e674f6a9ae519c2295b4,5f42e674f6a9ae519c2295b4,20,cat,filler,D,50,cat40.jpg,cat60.jpg,GoalA,NULL
1687287506,8183be70ebf4093b170a53be5b3ba806,PennController,23,0,experiment,NULL,Video,progression,buffer,0.002874,1687287202457,5f42e674f6a9ae519c2295b4,5f42e674f6a9ae519c2295b4,20,cat,filler,D,50,cat40.jpg,cat60.jpg,GoalA,NULL
1687287506,8183be70ebf4093b170a53be5b3ba806,PennController,23,0,experiment,NULL,Selector,choice,Selection,option1,1687287213067,5f42e674f6a9ae519c2295b4,5f42e674f6a9ae519c2295b4,20,cat,filler,D,50,cat40.jpg,cat60.jpg,GoalA,option2;option1
1687287506,8183be70ebf4093b170a53be5b3ba806,PennController,23,0,experiment,NULL,PennController,22,_Trial_,End,1687287213068,5f42e674f6a9ae519c2295b4,5f42e674f6a9ae519c2295b4,20,cat,filler,D,50,cat40.jpg,cat60.jpg,GoalA,NULL
1687287506,8183be70ebf4093b170a53be5b3ba806,PennController,29,0,experiment,NULL,PennController,28,_Trial_,Start,1687287213070,5f42e674f6a9ae519c2295b4,5f42e674f6a9ae519c2295b4,26,sandwich,filler,D,50,sandwich40.jpg,sandwich60.jpg,GoalA,NULL
1687287506,8183be70ebf4093b170a53be5b3ba806,PennController,29,0,experiment,NULL,PennController,28,_Header_,Start,1687287213070,5f42e674f6a9ae519c2295b4,5f42e674f6a9ae519c2295b4,26,sandwich,filler,D,50,sandwich40.jpg,sandwich60.jpg,GoalA,NULL
1687287506,8183be70ebf4093b170a53be5b3ba806,PennController,29,0,experiment,NULL,PennController,28,_Header_,End,1687287213070,5f42e674f6a9ae519c2295b4,5f42e674f6a9ae519c2295b4,26,sandwich,filler,D,50,sandwich40.jpg,sandwich60.jpg,GoalA,NULL
1687287506,8183be70ebf4093b170a53be5b3ba806,PennController,29,0,experiment,NULL,Canvas,canvas6,Print,NA,1687287219758,5f42e674f6a9ae519c2295b4,5f42e674f6a9ae519c2295b4,26,sandwich,filler,D,50,sandwich40.jpg,sandwich60.jpg,GoalA,NULL
1687287506,8183be70ebf4093b170a53be5b3ba806,PennController,29,0,experiment,NULL,Video,progression,buffer,0.004351,1687287216592,5f42e674f6a9ae519c2295b4,5f42e674f6a9ae519c2295b4,26,sandwich,filler,D,50,sandwich40.jpg,sandwich60.jpg,GoalA,NULL
1687287506,8183be70ebf4093b170a53be5b3ba806,PennController,29,0,experiment,NULL,Selector,choice,Selection,option1,1687287222475,5f42e674f6a9ae519c2295b4,5f42e674f6a9ae519c2295b4,26,sandwich,filler,D,50,sandwich40.jpg,sandwich60.jpg,GoalA,option1;option2
1687287506,8183be70ebf4093b170a53be5b3ba806,PennController,29,0,experiment,NULL,PennController,28,_Trial_,End,1687287222476,5f42e674f6a9ae519c2295b4,5f42e674f6a9ae519c2295b4,26,sandwich,filler,D,50,sandwich40.jpg,sandwich60.jpg,GoalA,NULL
1687287506,8183be70ebf4093b170a53be5b3ba806,PennController,28,0,experiment,NULL,PennController,27,_Trial_,Start,1687287222478,5f42e674f6a9ae519c2295b4,5f42e674f6a9ae519c2295b4,25,house,filler,D,25,house15.jpg,house35.jpg,GoalB,NULL
1687287506,8183be70ebf4093b170a53be5b3ba806,PennController,28,0,experiment,NULL,PennController,27,_Header_,Start,1687287222478,5f42e674f6a9ae519c2295b4,5f42e674f6a9ae519c2295b4,25,house,filler,D,25,house15.jpg,house35.jpg,GoalB,NULL
1687287506,8183be70ebf4093b170a53be5b3ba806,PennController,28,0,experiment,NULL,PennController,27,_Header_,End,1687287222478,5f42e674f6a9ae519c2295b4,5f42e674f6a9ae519c2295b4,25,house,filler,D,25,house15.jpg,house35.jpg,GoalB,NULL
1687287506,8183be70ebf4093b170a53be5b3ba806,PennController,28,0,experiment,NULL,Canvas,canvas6,Print,NA,1687287228154,5f42e674f6a9ae519c2295b4,5f42e674f6a9ae519c2295b4,25,house,filler,D,25,house15.jpg,house35.jpg,GoalB,NULL
1687287506,8183be70ebf4093b170a53be5b3ba806,PennController,28,0,experiment,NULL,Video,progression,buffer,0.002836,1687287225998,5f42e674f6a9ae519c2295b4,5f42e674f6a9ae519c2295b4,25,house,filler,D,25,house15.jpg,house35.jpg,GoalB,NULL
1687287506,8183be70ebf4093b170a53be5b3ba806,PennController,28,0,experiment,NULL,Selector,choice,Selection,option2,1687287230459,5f42e674f6a9ae519c2295b4,5f42e674f6a9ae519c2295b4,25,house,filler,D,25,house15.jpg,house35.jpg,GoalB,option1;option2
1687287506,8183be70ebf4093b170a53be5b3ba806,PennController,28,0,experiment,NULL,PennController,27,_Trial_,End,1687287230460,5f42e674f6a9ae519c2295b4,5f42e674f6a9ae519c2295b4,25,house,filler,D,25,house15.jpg,house35.jpg,GoalB,NULL
1687287506,8183be70ebf4093b170a53be5b3ba806,PennController,14,0,experiment,NULL,PennController,13,_Trial_,Start,1687287230463,5f42e674f6a9ae519c2295b4,5f42e674f6a9ae519c2295b4,11,beads,critical,D,50,beads40.jpg,beads60.jpg,high,NULL
1687287506,8183be70ebf4093b170a53be5b3ba806,PennController,14,0,experiment,NULL,PennController,13,_Header_,Start,1687287230463,5f42e674f6a9ae519c2295b4,5f42e674f6a9ae519c2295b4,11,beads,critical,D,50,beads40.jpg,beads60.jpg,high,NULL
1687287506,8183be70ebf4093b170a53be5b3ba806,PennController,14,0,experiment,NULL,PennController,13,_Header_,End,1687287230463,5f42e674f6a9ae519c2295b4,5f42e674f6a9ae519c2295b4,11,beads,critical,D,50,beads40.jpg,beads60.jpg,high,NULL
1687287506,8183be70ebf4093b170a53be5b3ba806,PennController,14,0,experiment,NULL,Canvas,canvas6,Print,NA,1687287237149,5f42e674f6a9ae519c2295b4,5f42e674f6a9ae519c2295b4,11,beads,critical,D,50,beads40.jpg,beads60.jpg,high,NULL
1687287506,8183be70ebf4093b170a53be5b3ba806,PennController,14,0,experiment,NULL,Video,progression,buffer,0.004258,1687287233985,5f42e674f6a9ae519c2295b4,5f42e674f6a9ae519c2295b4,11,beads,critical,D,50,beads40.jpg,beads60.jpg,high,NULL
1687287506,8183be70ebf4093b170a53be5b3ba806,PennController,14,0,experiment,NULL,Selector,choice,Selection,option1,1687287239819,5f42e674f6a9ae519c2295b4,5f42e674f6a9ae519c2295b4,11,beads,critical,D,50,beads40.jpg,beads60.jpg,high,option1;option2
1687287506,8183be70ebf4093b170a53be5b3ba806,PennController,14,0,experiment,NULL,PennController,13,_Trial_,End,1687287239820,5f42e674f6a9ae519c2295b4,5f42e674f6a9ae519c2295b4,11,beads,critical,D,50,beads40.jpg,beads60.jpg,high,NULL
1687287506,8183be70ebf4093b170a53be5b3ba806,PennController,13,0,experiment,NULL,PennController,12,_Trial_,Start,1687287239821,5f42e674f6a9ae519c2295b4,5f42e674f6a9ae519c2295b4,10,train,critical,D,25,train15.jpg,train35.jpg,high,NULL
1687287506,8183be70ebf4093b170a53be5b3ba806,PennController,13,0,experiment,NULL,PennController,12,_Header_,Start,1687287239821,5f42e674f6a9ae519c2295b4,5f42e674f6a9ae519c2295b4,10,train,critical,D,25,train15.jpg,train35.jpg,high,NULL
1687287506,8183be70ebf4093b170a53be5b3ba806,PennController,13,0,experiment,NULL,PennController,12,_Header_,End,1687287239821,5f42e674f6a9ae519c2295b4,5f42e674f6a9ae519c2295b4,10,train,critical,D,25,train15.jpg,train35.jpg,high,NULL
1687287506,8183be70ebf4093b170a53be5b3ba806,PennController,13,0,experiment,NULL,Canvas,canvas6,Print,NA,1687287245514,5f42e674f6a9ae519c2295b4,5f42e674f6a9ae519c2295b4,10,train,critical,D,25,train15.jpg,train35.jpg,high,NULL
1687287506,8183be70ebf4093b170a53be5b3ba806,PennController,13,0,experiment,NULL,Video,progression,buffer,0.004242,1687287243348,5f42e674f6a9ae519c2295b4,5f42e674f6a9ae519c2295b4,10,train,critical,D,25,train15.jpg,train35.jpg,high,NULL
1687287506,8183be70ebf4093b170a53be5b3ba806,PennController,13,0,experiment,NULL,Selector,choice,Selection,option1,1687287250067,5f42e674f6a9ae519c2295b4,5f42e674f6a9ae519c2295b4,10,train,critical,D,25,train15.jpg,train35.jpg,high,option1;option2
1687287506,8183be70ebf4093b170a53be5b3ba806,PennController,13,0,experiment,NULL,PennController,12,_Trial_,End,1687287250068,5f42e674f6a9ae519c2295b4,5f42e674f6a9ae519c2295b4,10,train,critical,D,25,train15.jpg,train35.jpg,high,NULL
1687287506,8183be70ebf4093b170a53be5b3ba806,PennController,21,0,experiment,NULL,PennController,20,_Trial_,Start,1687287250069,5f42e674f6a9ae519c2295b4,5f42e674f6a9ae519c2295b4,18,ball,critical,D,75,ball65.jpg,ball85.jpg,high,NULL
1687287506,8183be70ebf4093b170a53be5b3ba806,PennController,21,0,experiment,NULL,PennController,20,_Header_,Start,1687287250069,5f42e674f6a9ae519c2295b4,5f42e674f6a9ae519c2295b4,18,ball,critical,D,75,ball65.jpg,ball85.jpg,high,NULL
1687287506,8183be70ebf4093b170a53be5b3ba806,PennController,21,0,experiment,NULL,PennController,20,_Header_,End,1687287250069,5f42e674f6a9ae519c2295b4,5f42e674f6a9ae519c2295b4,18,ball,critical,D,75,ball65.jpg,ball85.jpg,high,NULL
1687287506,8183be70ebf4093b170a53be5b3ba806,PennController,21,0,experiment,NULL,Canvas,canvas6,Print,NA,1687287257741,5f42e674f6a9ae519c2295b4,5f42e674f6a9ae519c2295b4,18,ball,critical,D,75,ball65.jpg,ball85.jpg,high,NULL
1687287506,8183be70ebf4093b170a53be5b3ba806,PennController,21,0,experiment,NULL,Video,progression,buffer,0.002838,1687287253586,5f42e674f6a9ae519c2295b4,5f42e674f6a9ae519c2295b4,18,ball,critical,D,75,ball65.jpg,ball85.jpg,high,NULL
1687287506,8183be70ebf4093b170a53be5b3ba806,PennController,21,0,experiment,NULL,Selector,choice,Selection,option1,1687287260747,5f42e674f6a9ae519c2295b4,5f42e674f6a9ae519c2295b4,18,ball,critical,D,75,ball65.jpg,ball85.jpg,high,option1;option2
1687287506,8183be70ebf4093b170a53be5b3ba806,PennController,21,0,experiment,NULL,PennController,20,_Trial_,End,1687287260748,5f42e674f6a9ae519c2295b4,5f42e674f6a9ae519c2295b4,18,ball,critical,D,75,ball65.jpg,ball85.jpg,high,NULL
1687287506,8183be70ebf4093b170a53be5b3ba806,PennController,26,0,experiment,NULL,PennController,25,_Trial_,Start,1687287260749,5f42e674f6a9ae519c2295b4,5f42e674f6a9ae519c2295b4,23,color,filler,D,50,color40.jpg,color60.jpg,GoalB,NULL
1687287506,8183be70ebf4093b170a53be5b3ba806,PennController,26,0,experiment,NULL,PennController,25,_Header_,Start,1687287260749,5f42e674f6a9ae519c2295b4,5f42e674f6a9ae519c2295b4,23,color,filler,D,50,color40.jpg,color60.jpg,GoalB,NULL
1687287506,8183be70ebf4093b170a53be5b3ba806,PennController,26,0,experiment,NULL,PennController,25,_Header_,End,1687287260749,5f42e674f6a9ae519c2295b4,5f42e674f6a9ae519c2295b4,23,color,filler,D,50,color40.jpg,color60.jpg,GoalB,NULL
1687287506,8183be70ebf4093b170a53be5b3ba806,PennController,26,0,experiment,NULL,Canvas,canvas6,Print,NA,1687287267423,5f42e674f6a9ae519c2295b4,5f42e674f6a9ae519c2295b4,23,color,filler,D,50,color40.jpg,color60.jpg,GoalB,NULL
1687287506,8183be70ebf4093b170a53be5b3ba806,PennController,26,0,experiment,NULL,Video,progression,buffer,0.003298,1687287264263,5f42e674f6a9ae519c2295b4,5f42e674f6a9ae519c2295b4,23,color,filler,D,50,color40.jpg,color60.jpg,GoalB,NULL
1687287506,8183be70ebf4093b170a53be5b3ba806,PennController,26,0,experiment,NULL,Selector,choice,Selection,option1,1687287276139,5f42e674f6a9ae519c2295b4,5f42e674f6a9ae519c2295b4,23,color,filler,D,50,color40.jpg,color60.jpg,GoalB,option1;option2
1687287506,8183be70ebf4093b170a53be5b3ba806,PennController,26,0,experiment,NULL,PennController,25,_Trial_,End,1687287276140,5f42e674f6a9ae519c2295b4,5f42e674f6a9ae519c2295b4,23,color,filler,D,50,color40.jpg,color60.jpg,GoalB,NULL
1687287506,8183be70ebf4093b170a53be5b3ba806,PennController,10,0,experiment,NULL,PennController,9,_Trial_,Start,1687287276141,5f42e674f6a9ae519c2295b4,5f42e674f6a9ae519c2295b4,7,stack,critical,D,25,stack15.jpg,stack35.jpg,high,NULL
1687287506,8183be70ebf4093b170a53be5b3ba806,PennController,10,0,experiment,NULL,PennController,9,_Header_,Start,1687287276141,5f42e674f6a9ae519c2295b4,5f42e674f6a9ae519c2295b4,7,stack,critical,D,25,stack15.jpg,stack35.jpg,high,NULL
1687287506,8183be70ebf4093b170a53be5b3ba806,PennController,10,0,experiment,NULL,PennController,9,_Header_,End,1687287276141,5f42e674f6a9ae519c2295b4,5f42e674f6a9ae519c2295b4,7,stack,critical,D,25,stack15.jpg,stack35.jpg,high,NULL
1687287506,8183be70ebf4093b170a53be5b3ba806,PennController,10,0,experiment,NULL,Canvas,canvas6,Print,NA,1687287281835,5f42e674f6a9ae519c2295b4,5f42e674f6a9ae519c2295b4,7,stack,critical,D,25,stack15.jpg,stack35.jpg,high,NULL
1687287506,8183be70ebf4093b170a53be5b3ba806,PennController,10,0,experiment,NULL,Video,progression,buffer,0.006004,1687287279667,5f42e674f6a9ae519c2295b4,5f42e674f6a9ae519c2295b4,7,stack,critical,D,25,stack15.jpg,stack35.jpg,high,NULL
1687287506,8183be70ebf4093b170a53be5b3ba806,PennController,10,0,experiment,NULL,Selector,choice,Selection,option2,1687287288171,5f42e674f6a9ae519c2295b4,5f42e674f6a9ae519c2295b4,7,stack,critical,D,25,stack15.jpg,stack35.jpg,high,option1;option2
1687287506,8183be70ebf4093b170a53be5b3ba806,PennController,10,0,experiment,NULL,PennController,9,_Trial_,End,1687287288172,5f42e674f6a9ae519c2295b4,5f42e674f6a9ae519c2295b4,7,stack,critical,D,25,stack15.jpg,stack35.jpg,high,NULL
1687287506,8183be70ebf4093b170a53be5b3ba806,PennController,7,0,experiment,NULL,PennController,6,_Trial_,Start,1687287288173,5f42e674f6a9ae519c2295b4,5f42e674f6a9ae519c2295b4,4,candy,critical,D,25,candy15.jpg,candy35.jpg,high,NULL
1687287506,8183be70ebf4093b170a53be5b3ba806,PennController,7,0,experiment,NULL,PennController,6,_Header_,Start,1687287288173,5f42e674f6a9ae519c2295b4,5f42e674f6a9ae519c2295b4,4,candy,critical,D,25,candy15.jpg,candy35.jpg,high,NULL
1687287506,8183be70ebf4093b170a53be5b3ba806,PennController,7,0,experiment,NULL,PennController,6,_Header_,End,1687287288174,5f42e674f6a9ae519c2295b4,5f42e674f6a9ae519c2295b4,4,candy,critical,D,25,candy15.jpg,candy35.jpg,high,NULL
1687287506,8183be70ebf4093b170a53be5b3ba806,PennController,7,0,experiment,NULL,Canvas,canvas6,Print,NA,1687287293860,5f42e674f6a9ae519c2295b4,5f42e674f6a9ae519c2295b4,4,candy,critical,D,25,candy15.jpg,candy35.jpg,high,NULL
1687287506,8183be70ebf4093b170a53be5b3ba806,PennController,7,0,experiment,NULL,Video,progression,buffer,0.00418,1687287291694,5f42e674f6a9ae519c2295b4,5f42e674f6a9ae519c2295b4,4,candy,critical,D,25,candy15.jpg,candy35.jpg,high,NULL
1687287506,8183be70ebf4093b170a53be5b3ba806,PennController,7,0,experiment,NULL,Selector,choice,Selection,option1,1687287297459,5f42e674f6a9ae519c2295b4,5f42e674f6a9ae519c2295b4,4,candy,critical,D,25,candy15.jpg,candy35.jpg,high,option1;option2
1687287506,8183be70ebf4093b170a53be5b3ba806,PennController,7,0,experiment,NULL,PennController,6,_Trial_,End,1687287297460,5f42e674f6a9ae519c2295b4,5f42e674f6a9ae519c2295b4,4,candy,critical,D,25,candy15.jpg,candy35.jpg,high,NULL
1687287506,8183be70ebf4093b170a53be5b3ba806,PennController,24,0,experiment,NULL,PennController,23,_Trial_,Start,1687287297461,5f42e674f6a9ae519c2295b4,5f42e674f6a9ae519c2295b4,21,visit,filler,D,75,visit65.jpg,visit85.jpg,GoalB,NULL
1687287506,8183be70ebf4093b170a53be5b3ba806,PennController,24,0,experiment,NULL,PennController,23,_Header_,Start,1687287297461,5f42e674f6a9ae519c2295b4,5f42e674f6a9ae519c2295b4,21,visit,filler,D,75,visit65.jpg,visit85.jpg,GoalB,NULL
1687287506,8183be70ebf4093b170a53be5b3ba806,PennController,24,0,experiment,NULL,PennController,23,_Header_,End,1687287297461,5f42e674f6a9ae519c2295b4,5f42e674f6a9ae519c2295b4,21,visit,filler,D,75,visit65.jpg,visit85.jpg,GoalB,NULL
1687287506,8183be70ebf4093b170a53be5b3ba806,PennController,24,0,experiment,NULL,Canvas,canvas6,Print,NA,1687287305140,5f42e674f6a9ae519c2295b4,5f42e674f6a9ae519c2295b4,21,visit,filler,D,75,visit65.jpg,visit85.jpg,GoalB,NULL
1687287506,8183be70ebf4093b170a53be5b3ba806,PennController,24,0,experiment,NULL,Video,progression,buffer,0.002749,1687287300979,5f42e674f6a9ae519c2295b4,5f42e674f6a9ae519c2295b4,21,visit,filler,D,75,visit65.jpg,visit85.jpg,GoalB,NULL
1687287506,8183be70ebf4093b170a53be5b3ba806,PennController,24,0,experiment,NULL,Selector,choice,Selection,option2,1687287312155,5f42e674f6a9ae519c2295b4,5f42e674f6a9ae519c2295b4,21,visit,filler,D,75,visit65.jpg,visit85.jpg,GoalB,option1;option2
1687287506,8183be70ebf4093b170a53be5b3ba806,PennController,24,0,experiment,NULL,PennController,23,_Trial_,End,1687287312156,5f42e674f6a9ae519c2295b4,5f42e674f6a9ae519c2295b4,21,visit,filler,D,75,visit65.jpg,visit85.jpg,GoalB,NULL
1687287506,8183be70ebf4093b170a53be5b3ba806,PennController,16,0,experiment,NULL,PennController,15,_Trial_,Start,1687287312157,5f42e674f6a9ae519c2295b4,5f42e674f6a9ae519c2295b4,13,mix,critical,D,25,mix15.jpg,mix35.jpg,high,NULL
1687287506,8183be70ebf4093b170a53be5b3ba806,PennController,16,0,experiment,NULL,PennController,15,_Header_,Start,1687287312157,5f42e674f6a9ae519c2295b4,5f42e674f6a9ae519c2295b4,13,mix,critical,D,25,mix15.jpg,mix35.jpg,high,NULL
1687287506,8183be70ebf4093b170a53be5b3ba806,PennController,16,0,experiment,NULL,PennController,15,_Header_,End,1687287312157,5f42e674f6a9ae519c2295b4,5f42e674f6a9ae519c2295b4,13,mix,critical,D,25,mix15.jpg,mix35.jpg,high,NULL
1687287506,8183be70ebf4093b170a53be5b3ba806,PennController,16,0,experiment,NULL,Canvas,canvas6,Print,NA,1687287317837,5f42e674f6a9ae519c2295b4,5f42e674f6a9ae519c2295b4,13,mix,critical,D,25,mix15.jpg,mix35.jpg,high,NULL
1687287506,8183be70ebf4093b170a53be5b3ba806,PennController,16,0,experiment,NULL,Video,progression,buffer,0.002771,1687287315677,5f42e674f6a9ae519c2295b4,5f42e674f6a9ae519c2295b4,13,mix,critical,D,25,mix15.jpg,mix35.jpg,high,NULL
1687287506,8183be70ebf4093b170a53be5b3ba806,PennController,16,0,experiment,NULL,Selector,choice,Selection,option1,1687287320667,5f42e674f6a9ae519c2295b4,5f42e674f6a9ae519c2295b4,13,mix,critical,D,25,mix15.jpg,mix35.jpg,high,option1;option2
1687287506,8183be70ebf4093b170a53be5b3ba806,PennController,16,0,experiment,NULL,PennController,15,_Trial_,End,1687287320668,5f42e674f6a9ae519c2295b4,5f42e674f6a9ae519c2295b4,13,mix,critical,D,25,mix15.jpg,mix35.jpg,high,NULL
1687287506,8183be70ebf4093b170a53be5b3ba806,PennController,6,0,experiment,NULL,PennController,5,_Trial_,Start,1687287320669,5f42e674f6a9ae519c2295b4,5f42e674f6a9ae519c2295b4,3,clean,critical,D,75,clean65.jpg,clean85.jpg,high,NULL
1687287506,8183be70ebf4093b170a53be5b3ba806,PennController,6,0,experiment,NULL,PennController,5,_Header_,Start,1687287320669,5f42e674f6a9ae519c2295b4,5f42e674f6a9ae519c2295b4,3,clean,critical,D,75,clean65.jpg,clean85.jpg,high,NULL
1687287506,8183be70ebf4093b170a53be5b3ba806,PennController,6,0,experiment,NULL,PennController,5,_Header_,End,1687287320669,5f42e674f6a9ae519c2295b4,5f42e674f6a9ae519c2295b4,3,clean,critical,D,75,clean65.jpg,clean85.jpg,high,NULL
1687287506,8183be70ebf4093b170a53be5b3ba806,PennController,6,0,experiment,NULL,Canvas,canvas6,Print,NA,1687287328349,5f42e674f6a9ae519c2295b4,5f42e674f6a9ae519c2295b4,3,clean,critical,D,75,clean65.jpg,clean85.jpg,high,NULL
1687287506,8183be70ebf4093b170a53be5b3ba806,PennController,6,0,experiment,NULL,Video,progression,buffer,0.003765,1687287324188,5f42e674f6a9ae519c2295b4,5f42e674f6a9ae519c2295b4,3,clean,critical,D,75,clean65.jpg,clean85.jpg,high,NULL
1687287506,8183be70ebf4093b170a53be5b3ba806,PennController,6,0,experiment,NULL,Selector,choice,Selection,option2,1687287330579,5f42e674f6a9ae519c2295b4,5f42e674f6a9ae519c2295b4,3,clean,critical,D,75,clean65.jpg,clean85.jpg,high,option1;option2
1687287506,8183be70ebf4093b170a53be5b3ba806,PennController,6,0,experiment,NULL,PennController,5,_Trial_,End,1687287330580,5f42e674f6a9ae519c2295b4,5f42e674f6a9ae519c2295b4,3,clean,critical,D,75,clean65.jpg,clean85.jpg,high,NULL
1687287506,8183be70ebf4093b170a53be5b3ba806,PennController,12,0,experiment,NULL,PennController,11,_Trial_,Start,1687287330581,5f42e674f6a9ae519c2295b4,5f42e674f6a9ae519c2295b4,9,cake,critical,D,75,cake66.jpg,cake84.jpg,high,NULL
1687287506,8183be70ebf4093b170a53be5b3ba806,PennController,12,0,experiment,NULL,PennController,11,_Header_,Start,1687287330581,5f42e674f6a9ae519c2295b4,5f42e674f6a9ae519c2295b4,9,cake,critical,D,75,cake66.jpg,cake84.jpg,high,NULL
1687287506,8183be70ebf4093b170a53be5b3ba806,PennController,12,0,experiment,NULL,PennController,11,_Header_,End,1687287330581,5f42e674f6a9ae519c2295b4,5f42e674f6a9ae519c2295b4,9,cake,critical,D,75,cake66.jpg,cake84.jpg,high,NULL
1687287506,8183be70ebf4093b170a53be5b3ba806,PennController,12,0,experiment,NULL,Canvas,canvas6,Print,NA,1687287340259,5f42e674f6a9ae519c2295b4,5f42e674f6a9ae519c2295b4,9,cake,critical,D,75,cake66.jpg,cake84.jpg,high,NULL
1687287506,8183be70ebf4093b170a53be5b3ba806,PennController,12,0,experiment,NULL,Video,progression,buffer,0.004297,1687287334101,5f42e674f6a9ae519c2295b4,5f42e674f6a9ae519c2295b4,9,cake,critical,D,75,cake66.jpg,cake84.jpg,high,NULL
1687287506,8183be70ebf4093b170a53be5b3ba806,PennController,12,0,experiment,NULL,Selector,choice,Selection,option1,1687287342763,5f42e674f6a9ae519c2295b4,5f42e674f6a9ae519c2295b4,9,cake,critical,D,75,cake66.jpg,cake84.jpg,high,option2;option1
1687287506,8183be70ebf4093b170a53be5b3ba806,PennController,12,0,experiment,NULL,PennController,11,_Trial_,End,1687287342764,5f42e674f6a9ae519c2295b4,5f42e674f6a9ae519c2295b4,9,cake,critical,D,75,cake66.jpg,cake84.jpg,high,NULL
1687287506,8183be70ebf4093b170a53be5b3ba806,PennController,20,0,experiment,NULL,PennController,19,_Trial_,Start,1687287342765,5f42e674f6a9ae519c2295b4,5f42e674f6a9ae519c2295b4,17,roll,critical,D,50,roll40.jpg,roll60.jpg,high,NULL
1687287506,8183be70ebf4093b170a53be5b3ba806,PennController,20,0,experiment,NULL,PennController,19,_Header_,Start,1687287342765,5f42e674f6a9ae519c2295b4,5f42e674f6a9ae519c2295b4,17,roll,critical,D,50,roll40.jpg,roll60.jpg,high,NULL
1687287506,8183be70ebf4093b170a53be5b3ba806,PennController,20,0,experiment,NULL,PennController,19,_Header_,End,1687287342765,5f42e674f6a9ae519c2295b4,5f42e674f6a9ae519c2295b4,17,roll,critical,D,50,roll40.jpg,roll60.jpg,high,NULL
1687287506,8183be70ebf4093b170a53be5b3ba806,PennController,20,0,experiment,NULL,Canvas,canvas6,Print,NA,1687287349435,5f42e674f6a9ae519c2295b4,5f42e674f6a9ae519c2295b4,17,roll,critical,D,50,roll40.jpg,roll60.jpg,high,NULL
1687287506,8183be70ebf4093b170a53be5b3ba806,PennController,20,0,experiment,NULL,Video,progression,buffer,0.002713,1687287346280,5f42e674f6a9ae519c2295b4,5f42e674f6a9ae519c2295b4,17,roll,critical,D,50,roll40.jpg,roll60.jpg,high,NULL
1687287506,8183be70ebf4093b170a53be5b3ba806,PennController,20,0,experiment,NULL,Selector,choice,Selection,option1,1687287355627,5f42e674f6a9ae519c2295b4,5f42e674f6a9ae519c2295b4,17,roll,critical,D,50,roll40.jpg,roll60.jpg,high,option1;option2
1687287506,8183be70ebf4093b170a53be5b3ba806,PennController,20,0,experiment,NULL,PennController,19,_Trial_,End,1687287355628,5f42e674f6a9ae519c2295b4,5f42e674f6a9ae519c2295b4,17,roll,critical,D,50,roll40.jpg,roll60.jpg,high,NULL
1687287506,8183be70ebf4093b170a53be5b3ba806,PennController,25,0,experiment,NULL,PennController,24,_Trial_,Start,1687287355629,5f42e674f6a9ae519c2295b4,5f42e674f6a9ae519c2295b4,22,wall,filler,D,25,wall15.jpg,wall35.jpg,GoalA,NULL
1687287506,8183be70ebf4093b170a53be5b3ba806,PennController,25,0,experiment,NULL,PennController,24,_Header_,Start,1687287355629,5f42e674f6a9ae519c2295b4,5f42e674f6a9ae519c2295b4,22,wall,filler,D,25,wall15.jpg,wall35.jpg,GoalA,NULL
1687287506,8183be70ebf4093b170a53be5b3ba806,PennController,25,0,experiment,NULL,PennController,24,_Header_,End,1687287355629,5f42e674f6a9ae519c2295b4,5f42e674f6a9ae519c2295b4,22,wall,filler,D,25,wall15.jpg,wall35.jpg,GoalA,NULL
1687287506,8183be70ebf4093b170a53be5b3ba806,PennController,25,0,experiment,NULL,Canvas,canvas6,Print,NA,1687287361315,5f42e674f6a9ae519c2295b4,5f42e674f6a9ae519c2295b4,22,wall,filler,D,25,wall15.jpg,wall35.jpg,GoalA,NULL
1687287506,8183be70ebf4093b170a53be5b3ba806,PennController,25,0,experiment,NULL,Video,progression,buffer,0.00584,1687287359151,5f42e674f6a9ae519c2295b4,5f42e674f6a9ae519c2295b4,22,wall,filler,D,25,wall15.jpg,wall35.jpg,GoalA,NULL
1687287506,8183be70ebf4093b170a53be5b3ba806,PennController,25,0,experiment,NULL,Selector,choice,Selection,option1,1687287363971,5f42e674f6a9ae519c2295b4,5f42e674f6a9ae519c2295b4,22,wall,filler,D,25,wall15.jpg,wall35.jpg,GoalA,option1;option2
1687287506,8183be70ebf4093b170a53be5b3ba806,PennController,25,0,experiment,NULL,PennController,24,_Trial_,End,1687287363972,5f42e674f6a9ae519c2295b4,5f42e674f6a9ae519c2295b4,22,wall,filler,D,25,wall15.jpg,wall35.jpg,GoalA,NULL
1687287506,8183be70ebf4093b170a53be5b3ba806,PennController,11,0,experiment,NULL,PennController,10,_Trial_,Start,1687287363973,5f42e674f6a9ae519c2295b4,5f42e674f6a9ae519c2295b4,8,cucumber,critical,D,50,cucumber42.jpg,cucumber60.jpg,high,NULL
1687287506,8183be70ebf4093b170a53be5b3ba806,PennController,11,0,experiment,NULL,PennController,10,_Header_,Start,1687287363973,5f42e674f6a9ae519c2295b4,5f42e674f6a9ae519c2295b4,8,cucumber,critical,D,50,cucumber42.jpg,cucumber60.jpg,high,NULL
1687287506,8183be70ebf4093b170a53be5b3ba806,PennController,11,0,experiment,NULL,PennController,10,_Header_,End,1687287363973,5f42e674f6a9ae519c2295b4,5f42e674f6a9ae519c2295b4,8,cucumber,critical,D,50,cucumber42.jpg,cucumber60.jpg,high,NULL
1687287506,8183be70ebf4093b170a53be5b3ba806,PennController,11,0,experiment,NULL,Canvas,canvas6,Print,NA,1687287372061,5f42e674f6a9ae519c2295b4,5f42e674f6a9ae519c2295b4,8,cucumber,critical,D,50,cucumber42.jpg,cucumber60.jpg,high,NULL
1687287506,8183be70ebf4093b170a53be5b3ba806,PennController,11,0,experiment,NULL,Video,progression,buffer,0.004212,1687287367496,5f42e674f6a9ae519c2295b4,5f42e674f6a9ae519c2295b4,8,cucumber,critical,D,50,cucumber42.jpg,cucumber60.jpg,high,NULL
1687287506,8183be70ebf4093b170a53be5b3ba806,PennController,11,0,experiment,NULL,Selector,choice,Selection,option1,1687287374970,5f42e674f6a9ae519c2295b4,5f42e674f6a9ae519c2295b4,8,cucumber,critical,D,50,cucumber42.jpg,cucumber60.jpg,high,option1;option2
1687287506,8183be70ebf4093b170a53be5b3ba806,PennController,11,0,experiment,NULL,PennController,10,_Trial_,End,1687287374971,5f42e674f6a9ae519c2295b4,5f42e674f6a9ae519c2295b4,8,cucumber,critical,D,50,cucumber42.jpg,cucumber60.jpg,high,NULL
1687287506,8183be70ebf4093b170a53be5b3ba806,PennController,32,0,experiment,NULL,PennController,31,_Trial_,Start,1687287374972,5f42e674f6a9ae519c2295b4,5f42e674f6a9ae519c2295b4,29,frog,filler,D,50,frog40.jpg,frog60.jpg,GoalB,NULL
1687287506,8183be70ebf4093b170a53be5b3ba806,PennController,32,0,experiment,NULL,PennController,31,_Header_,Start,1687287374972,5f42e674f6a9ae519c2295b4,5f42e674f6a9ae519c2295b4,29,frog,filler,D,50,frog40.jpg,frog60.jpg,GoalB,NULL
1687287506,8183be70ebf4093b170a53be5b3ba806,PennController,32,0,experiment,NULL,PennController,31,_Header_,End,1687287374973,5f42e674f6a9ae519c2295b4,5f42e674f6a9ae519c2295b4,29,frog,filler,D,50,frog40.jpg,frog60.jpg,GoalB,NULL
1687287506,8183be70ebf4093b170a53be5b3ba806,PennController,32,0,experiment,NULL,Canvas,canvas6,Print,NA,1687287381658,5f42e674f6a9ae519c2295b4,5f42e674f6a9ae519c2295b4,29,frog,filler,D,50,frog40.jpg,frog60.jpg,GoalB,NULL
1687287506,8183be70ebf4093b170a53be5b3ba806,PennController,32,0,experiment,NULL,Video,progression,buffer,0.004194,1687287378494,5f42e674f6a9ae519c2295b4,5f42e674f6a9ae519c2295b4,29,frog,filler,D,50,frog40.jpg,frog60.jpg,GoalB,NULL
1687287506,8183be70ebf4093b170a53be5b3ba806,PennController,32,0,experiment,NULL,Selector,choice,Selection,option2,1687287384179,5f42e674f6a9ae519c2295b4,5f42e674f6a9ae519c2295b4,29,frog,filler,D,50,frog40.jpg,frog60.jpg,GoalB,option1;option2
1687287506,8183be70ebf4093b170a53be5b3ba806,PennController,32,0,experiment,NULL,PennController,31,_Trial_,End,1687287384180,5f42e674f6a9ae519c2295b4,5f42e674f6a9ae519c2295b4,29,frog,filler,D,50,frog40.jpg,frog60.jpg,GoalB,NULL
1687287506,8183be70ebf4093b170a53be5b3ba806,PennController,4,0,experiment,NULL,PennController,3,_Trial_,Start,1687287384181,5f42e674f6a9ae519c2295b4,5f42e674f6a9ae519c2295b4,1,vase,critical,D,25,vase15.jpg,vase35.jpg,high,NULL
1687287506,8183be70ebf4093b170a53be5b3ba806,PennController,4,0,experiment,NULL,PennController,3,_Header_,Start,1687287384181,5f42e674f6a9ae519c2295b4,5f42e674f6a9ae519c2295b4,1,vase,critical,D,25,vase15.jpg,vase35.jpg,high,NULL
1687287506,8183be70ebf4093b170a53be5b3ba806,PennController,4,0,experiment,NULL,PennController,3,_Header_,End,1687287384181,5f42e674f6a9ae519c2295b4,5f42e674f6a9ae519c2295b4,1,vase,critical,D,25,vase15.jpg,vase35.jpg,high,NULL
1687287506,8183be70ebf4093b170a53be5b3ba806,PennController,4,0,experiment,NULL,Canvas,canvas6,Print,NA,1687287389853,5f42e674f6a9ae519c2295b4,5f42e674f6a9ae519c2295b4,1,vase,critical,D,25,vase15.jpg,vase35.jpg,high,NULL
1687287506,8183be70ebf4093b170a53be5b3ba806,PennController,4,0,experiment,NULL,Video,progression,buffer,0.002755,1687287387695,5f42e674f6a9ae519c2295b4,5f42e674f6a9ae519c2295b4,1,vase,critical,D,25,vase15.jpg,vase35.jpg,high,NULL
1687287506,8183be70ebf4093b170a53be5b3ba806,PennController,4,0,experiment,NULL,Selector,choice,Selection,option2,1687287391763,5f42e674f6a9ae519c2295b4,5f42e674f6a9ae519c2295b4,1,vase,critical,D,25,vase15.jpg,vase35.jpg,high,option1;option2
1687287506,8183be70ebf4093b170a53be5b3ba806,PennController,4,0,experiment,NULL,PennController,3,_Trial_,End,1687287391764,5f42e674f6a9ae519c2295b4,5f42e674f6a9ae519c2295b4,1,vase,critical,D,25,vase15.jpg,vase35.jpg,high,NULL
1687287506,8183be70ebf4093b170a53be5b3ba806,PennController,8,0,experiment,NULL,PennController,7,_Trial_,Start,1687287391764,5f42e674f6a9ae519c2295b4,5f42e674f6a9ae519c2295b4,5,book,critical,D,50,book40.jpg,book60.jpg,high,NULL
1687287506,8183be70ebf4093b170a53be5b3ba806,PennController,8,0,experiment,NULL,PennController,7,_Header_,Start,1687287391765,5f42e674f6a9ae519c2295b4,5f42e674f6a9ae519c2295b4,5,book,critical,D,50,book40.jpg,book60.jpg,high,NULL
1687287506,8183be70ebf4093b170a53be5b3ba806,PennController,8,0,experiment,NULL,PennController,7,_Header_,End,1687287391765,5f42e674f6a9ae519c2295b4,5f42e674f6a9ae519c2295b4,5,book,critical,D,50,book40.jpg,book60.jpg,high,NULL
1687287506,8183be70ebf4093b170a53be5b3ba806,PennController,8,0,experiment,NULL,Canvas,canvas6,Print,NA,1687287398453,5f42e674f6a9ae519c2295b4,5f42e674f6a9ae519c2295b4,5,book,critical,D,50,book40.jpg,book60.jpg,high,NULL
1687287506,8183be70ebf4093b170a53be5b3ba806,PennController,8,0,experiment,NULL,Video,progression,buffer,0.003971,1687287395283,5f42e674f6a9ae519c2295b4,5f42e674f6a9ae519c2295b4,5,book,critical,D,50,book40.jpg,book60.jpg,high,NULL
1687287506,8183be70ebf4093b170a53be5b3ba806,PennController,8,0,experiment,NULL,Selector,choice,Selection,option1,1687287402042,5f42e674f6a9ae519c2295b4,5f42e674f6a9ae519c2295b4,5,book,critical,D,50,book40.jpg,book60.jpg,high,option2;option1
1687287506,8183be70ebf4093b170a53be5b3ba806,PennController,8,0,experiment,NULL,PennController,7,_Trial_,End,1687287402044,5f42e674f6a9ae519c2295b4,5f42e674f6a9ae519c2295b4,5,book,critical,D,50,book40.jpg,book60.jpg,high,NULL
1687287506,8183be70ebf4093b170a53be5b3ba806,PennController,22,0,experiment,NULL,PennController,21,_Trial_,Start,1687287402045,5f42e674f6a9ae519c2295b4,5f42e674f6a9ae519c2295b4,19,cup,filler,D,25,cup15.jpg,cup35.jpg,GoalB,NULL
1687287506,8183be70ebf4093b170a53be5b3ba806,PennController,22,0,experiment,NULL,PennController,21,_Header_,Start,1687287402045,5f42e674f6a9ae519c2295b4,5f42e674f6a9ae519c2295b4,19,cup,filler,D,25,cup15.jpg,cup35.jpg,GoalB,NULL
1687287506,8183be70ebf4093b170a53be5b3ba806,PennController,22,0,experiment,NULL,PennController,21,_Header_,End,1687287402045,5f42e674f6a9ae519c2295b4,5f42e674f6a9ae519c2295b4,19,cup,filler,D,25,cup15.jpg,cup35.jpg,GoalB,NULL
1687287506,8183be70ebf4093b170a53be5b3ba806,PennController,22,0,experiment,NULL,Canvas,canvas6,Print,NA,1687287407731,5f42e674f6a9ae519c2295b4,5f42e674f6a9ae519c2295b4,19,cup,filler,D,25,cup15.jpg,cup35.jpg,GoalB,NULL
1687287506,8183be70ebf4093b170a53be5b3ba806,PennController,22,0,experiment,NULL,Video,progression,buffer,0.003715,1687287405562,5f42e674f6a9ae519c2295b4,5f42e674f6a9ae519c2295b4,19,cup,filler,D,25,cup15.jpg,cup35.jpg,GoalB,NULL
1687287506,8183be70ebf4093b170a53be5b3ba806,PennController,22,0,experiment,NULL,Selector,choice,Selection,option2,1687287410586,5f42e674f6a9ae519c2295b4,5f42e674f6a9ae519c2295b4,19,cup,filler,D,25,cup15.jpg,cup35.jpg,GoalB,option2;option1
1687287506,8183be70ebf4093b170a53be5b3ba806,PennController,22,0,experiment,NULL,PennController,21,_Trial_,End,1687287410587,5f42e674f6a9ae519c2295b4,5f42e674f6a9ae519c2295b4,19,cup,filler,D,25,cup15.jpg,cup35.jpg,GoalB,NULL
1687287506,8183be70ebf4093b170a53be5b3ba806,PennController,19,0,experiment,NULL,PennController,18,_Trial_,Start,1687287410588,5f42e674f6a9ae519c2295b4,5f42e674f6a9ae519c2295b4,16,blinds,critical,D,25,blinds15.jpg,blinds33.jpg,high,NULL
1687287506,8183be70ebf4093b170a53be5b3ba806,PennController,19,0,experiment,NULL,PennController,18,_Header_,Start,1687287410588,5f42e674f6a9ae519c2295b4,5f42e674f6a9ae519c2295b4,16,blinds,critical,D,25,blinds15.jpg,blinds33.jpg,high,NULL
1687287506,8183be70ebf4093b170a53be5b3ba806,PennController,19,0,experiment,NULL,PennController,18,_Header_,End,1687287410588,5f42e674f6a9ae519c2295b4,5f42e674f6a9ae519c2295b4,16,blinds,critical,D,25,blinds15.jpg,blinds33.jpg,high,NULL
1687287506,8183be70ebf4093b170a53be5b3ba806,PennController,19,0,experiment,NULL,Canvas,canvas6,Print,NA,1687287416877,5f42e674f6a9ae519c2295b4,5f42e674f6a9ae519c2295b4,16,blinds,critical,D,25,blinds15.jpg,blinds33.jpg,high,NULL
1687287506,8183be70ebf4093b170a53be5b3ba806,PennController,19,0,experiment,NULL,Video,progression,buffer,0.003902,1687287414107,5f42e674f6a9ae519c2295b4,5f42e674f6a9ae519c2295b4,16,blinds,critical,D,25,blinds15.jpg,blinds33.jpg,high,NULL
1687287506,8183be70ebf4093b170a53be5b3ba806,PennController,19,0,experiment,NULL,Selector,choice,Selection,option1,1687287419458,5f42e674f6a9ae519c2295b4,5f42e674f6a9ae519c2295b4,16,blinds,critical,D,25,blinds15.jpg,blinds33.jpg,high,option2;option1
1687287506,8183be70ebf4093b170a53be5b3ba806,PennController,19,0,experiment,NULL,PennController,18,_Trial_,End,1687287419459,5f42e674f6a9ae519c2295b4,5f42e674f6a9ae519c2295b4,16,blinds,critical,D,25,blinds15.jpg,blinds33.jpg,high,NULL
1687287506,8183be70ebf4093b170a53be5b3ba806,PennController,30,0,experiment,NULL,PennController,29,_Trial_,Start,1687287419460,5f42e674f6a9ae519c2295b4,5f42e674f6a9ae519c2295b4,27,square,filler,D,75,square65.jpg,square85.jpg,GoalB,NULL
1687287506,8183be70ebf4093b170a53be5b3ba806,PennController,30,0,experiment,NULL,PennController,29,_Header_,Start,1687287419460,5f42e674f6a9ae519c2295b4,5f42e674f6a9ae519c2295b4,27,square,filler,D,75,square65.jpg,square85.jpg,GoalB,NULL
1687287506,8183be70ebf4093b170a53be5b3ba806,PennController,30,0,experiment,NULL,PennController,29,_Header_,End,1687287419460,5f42e674f6a9ae519c2295b4,5f42e674f6a9ae519c2295b4,27,square,filler,D,75,square65.jpg,square85.jpg,GoalB,NULL
1687287506,8183be70ebf4093b170a53be5b3ba806,PennController,30,0,experiment,NULL,Canvas,canvas6,Print,NA,1687287427138,5f42e674f6a9ae519c2295b4,5f42e674f6a9ae519c2295b4,27,square,filler,D,75,square65.jpg,square85.jpg,GoalB,NULL
1687287506,8183be70ebf4093b170a53be5b3ba806,PennController,30,0,experiment,NULL,Video,progression,buffer,0.002957,1687287422979,5f42e674f6a9ae519c2295b4,5f42e674f6a9ae519c2295b4,27,square,filler,D,75,square65.jpg,square85.jpg,GoalB,NULL
1687287506,8183be70ebf4093b170a53be5b3ba806,PennController,30,0,experiment,NULL,Selector,choice,Selection,option1,1687287429938,5f42e674f6a9ae519c2295b4,5f42e674f6a9ae519c2295b4,27,square,filler,D,75,square65.jpg,square85.jpg,GoalB,option1;option2
1687287506,8183be70ebf4093b170a53be5b3ba806,PennController,30,0,experiment,NULL,PennController,29,_Trial_,End,1687287429939,5f42e674f6a9ae519c2295b4,5f42e674f6a9ae519c2295b4,27,square,filler,D,75,square65.jpg,square85.jpg,GoalB,NULL
1687287506,8183be70ebf4093b170a53be5b3ba806,PennController,15,0,experiment,NULL,PennController,14,_Trial_,Start,1687287429940,5f42e674f6a9ae519c2295b4,5f42e674f6a9ae519c2295b4,12,erase,critical,D,75,erase66.jpg,erase84.jpg,high,NULL
1687287506,8183be70ebf4093b170a53be5b3ba806,PennController,15,0,experiment,NULL,PennController,14,_Header_,Start,1687287429940,5f42e674f6a9ae519c2295b4,5f42e674f6a9ae519c2295b4,12,erase,critical,D,75,erase66.jpg,erase84.jpg,high,NULL
1687287506,8183be70ebf4093b170a53be5b3ba806,PennController,15,0,experiment,NULL,PennController,14,_Header_,End,1687287429940,5f42e674f6a9ae519c2295b4,5f42e674f6a9ae519c2295b4,12,erase,critical,D,75,erase66.jpg,erase84.jpg,high,NULL
1687287506,8183be70ebf4093b170a53be5b3ba806,PennController,15,0,experiment,NULL,Canvas,canvas6,Print,NA,1687287439618,5f42e674f6a9ae519c2295b4,5f42e674f6a9ae519c2295b4,12,erase,critical,D,75,erase66.jpg,erase84.jpg,high,NULL
1687287506,8183be70ebf4093b170a53be5b3ba806,PennController,15,0,experiment,NULL,Video,progression,buffer,0.002674,1687287433456,5f42e674f6a9ae519c2295b4,5f42e674f6a9ae519c2295b4,12,erase,critical,D,75,erase66.jpg,erase84.jpg,high,NULL
1687287506,8183be70ebf4093b170a53be5b3ba806,PennController,15,0,experiment,NULL,Selector,choice,Selection,option2,1687287441858,5f42e674f6a9ae519c2295b4,5f42e674f6a9ae519c2295b4,12,erase,critical,D,75,erase66.jpg,erase84.jpg,high,option2;option1
1687287506,8183be70ebf4093b170a53be5b3ba806,PennController,15,0,experiment,NULL,PennController,14,_Trial_,End,1687287441860,5f42e674f6a9ae519c2295b4,5f42e674f6a9ae519c2295b4,12,erase,critical,D,75,erase66.jpg,erase84.jpg,high,NULL
1687287506,8183be70ebf4093b170a53be5b3ba806,PennController,17,0,experiment,NULL,PennController,16,_Trial_,Start,1687287441863,5f42e674f6a9ae519c2295b4,5f42e674f6a9ae519c2295b4,14,cover,critical,D,50,cover42.jpg,cover60.jpg,high,NULL
1687287506,8183be70ebf4093b170a53be5b3ba806,PennController,17,0,experiment,NULL,PennController,16,_Header_,Start,1687287441863,5f42e674f6a9ae519c2295b4,5f42e674f6a9ae519c2295b4,14,cover,critical,D,50,cover42.jpg,cover60.jpg,high,NULL
1687287506,8183be70ebf4093b170a53be5b3ba806,PennController,17,0,experiment,NULL,PennController,16,_Header_,End,1687287441863,5f42e674f6a9ae519c2295b4,5f42e674f6a9ae519c2295b4,14,cover,critical,D,50,cover42.jpg,cover60.jpg,high,NULL
1687287506,8183be70ebf4093b170a53be5b3ba806,PennController,17,0,experiment,NULL,Canvas,canvas6,Print,NA,1687287449945,5f42e674f6a9ae519c2295b4,5f42e674f6a9ae519c2295b4,14,cover,critical,D,50,cover42.jpg,cover60.jpg,high,NULL
1687287506,8183be70ebf4093b170a53be5b3ba806,PennController,17,0,experiment,NULL,Video,progression,buffer,0.002665,1687287445383,5f42e674f6a9ae519c2295b4,5f42e674f6a9ae519c2295b4,14,cover,critical,D,50,cover42.jpg,cover60.jpg,high,NULL
1687287506,8183be70ebf4093b170a53be5b3ba806,PennController,17,0,experiment,NULL,Selector,choice,Selection,option1,1687287453898,5f42e674f6a9ae519c2295b4,5f42e674f6a9ae519c2295b4,14,cover,critical,D,50,cover42.jpg,cover60.jpg,high,option2;option1
1687287506,8183be70ebf4093b170a53be5b3ba806,PennController,17,0,experiment,NULL,PennController,16,_Trial_,End,1687287453899,5f42e674f6a9ae519c2295b4,5f42e674f6a9ae519c2295b4,14,cover,critical,D,50,cover42.jpg,cover60.jpg,high,NULL
1687287506,8183be70ebf4093b170a53be5b3ba806,PennController,18,0,experiment,NULL,PennController,17,_Trial_,Start,1687287453900,5f42e674f6a9ae519c2295b4,5f42e674f6a9ae519c2295b4,15,zip,critical,D,75,zip65.jpg,zip85.jpg,high,NULL
1687287506,8183be70ebf4093b170a53be5b3ba806,PennController,18,0,experiment,NULL,PennController,17,_Header_,Start,1687287453900,5f42e674f6a9ae519c2295b4,5f42e674f6a9ae519c2295b4,15,zip,critical,D,75,zip65.jpg,zip85.jpg,high,NULL
1687287506,8183be70ebf4093b170a53be5b3ba806,PennController,18,0,experiment,NULL,PennController,17,_Header_,End,1687287453901,5f42e674f6a9ae519c2295b4,5f42e674f6a9ae519c2295b4,15,zip,critical,D,75,zip65.jpg,zip85.jpg,high,NULL
1687287506,8183be70ebf4093b170a53be5b3ba806,PennController,18,0,experiment,NULL,Canvas,canvas6,Print,NA,1687287460792,5f42e674f6a9ae519c2295b4,5f42e674f6a9ae519c2295b4,15,zip,critical,D,75,zip65.jpg,zip85.jpg,high,NULL
1687287506,8183be70ebf4093b170a53be5b3ba806,PennController,18,0,experiment,NULL,Video,progression,buffer,0.00273,1687287457425,5f42e674f6a9ae519c2295b4,5f42e674f6a9ae519c2295b4,15,zip,critical,D,75,zip65.jpg,zip85.jpg,high,NULL
1687287506,8183be70ebf4093b170a53be5b3ba806,PennController,18,0,experiment,NULL,Selector,choice,Selection,option2,1687287469402,5f42e674f6a9ae519c2295b4,5f42e674f6a9ae519c2295b4,15,zip,critical,D,75,zip65.jpg,zip85.jpg,high,option2;option1
1687287506,8183be70ebf4093b170a53be5b3ba806,PennController,18,0,experiment,NULL,PennController,17,_Trial_,End,1687287469403,5f42e674f6a9ae519c2295b4,5f42e674f6a9ae519c2295b4,15,zip,critical,D,75,zip65.jpg,zip85.jpg,high,NULL
1687287506,8183be70ebf4093b170a53be5b3ba806,PennController,27,0,experiment,NULL,PennController,26,_Trial_,Start,1687287469404,5f42e674f6a9ae519c2295b4,5f42e674f6a9ae519c2295b4,24,match,filler,D,75,match65.jpg,match85.jpg,GoalA,NULL
1687287506,8183be70ebf4093b170a53be5b3ba806,PennController,27,0,experiment,NULL,PennController,26,_Header_,Start,1687287469404,5f42e674f6a9ae519c2295b4,5f42e674f6a9ae519c2295b4,24,match,filler,D,75,match65.jpg,match85.jpg,GoalA,NULL
1687287506,8183be70ebf4093b170a53be5b3ba806,PennController,27,0,experiment,NULL,PennController,26,_Header_,End,1687287469404,5f42e674f6a9ae519c2295b4,5f42e674f6a9ae519c2295b4,24,match,filler,D,75,match65.jpg,match85.jpg,GoalA,NULL
1687287506,8183be70ebf4093b170a53be5b3ba806,PennController,27,0,experiment,NULL,Canvas,canvas6,Print,NA,1687287477083,5f42e674f6a9ae519c2295b4,5f42e674f6a9ae519c2295b4,24,match,filler,D,75,match65.jpg,match85.jpg,GoalA,NULL
1687287506,8183be70ebf4093b170a53be5b3ba806,PennController,27,0,experiment,NULL,Video,progression,buffer,0.002696,1687287472922,5f42e674f6a9ae519c2295b4,5f42e674f6a9ae519c2295b4,24,match,filler,D,75,match65.jpg,match85.jpg,GoalA,NULL
1687287506,8183be70ebf4093b170a53be5b3ba806,PennController,27,0,experiment,NULL,Selector,choice,Selection,option1,1687287482898,5f42e674f6a9ae519c2295b4,5f42e674f6a9ae519c2295b4,24,match,filler,D,75,match65.jpg,match85.jpg,GoalA,option1;option2
1687287506,8183be70ebf4093b170a53be5b3ba806,PennController,27,0,experiment,NULL,PennController,26,_Trial_,End,1687287482900,5f42e674f6a9ae519c2295b4,5f42e674f6a9ae519c2295b4,24,match,filler,D,75,match65.jpg,match85.jpg,GoalA,NULL
1687287506,8183be70ebf4093b170a53be5b3ba806,PennController,5,0,experiment,NULL,PennController,4,_Trial_,Start,1687287482901,5f42e674f6a9ae519c2295b4,5f42e674f6a9ae519c2295b4,2,door,critical,D,50,door40.jpg,door60.jpg,high,NULL
1687287506,8183be70ebf4093b170a53be5b3ba806,PennController,5,0,experiment,NULL,PennController,4,_Header_,Start,1687287482901,5f42e674f6a9ae519c2295b4,5f42e674f6a9ae519c2295b4,2,door,critical,D,50,door40.jpg,door60.jpg,high,NULL
1687287506,8183be70ebf4093b170a53be5b3ba806,PennController,5,0,experiment,NULL,PennController,4,_Header_,End,1687287482901,5f42e674f6a9ae519c2295b4,5f42e674f6a9ae519c2295b4,2,door,critical,D,50,door40.jpg,door60.jpg,high,NULL
1687287506,8183be70ebf4093b170a53be5b3ba806,PennController,5,0,experiment,NULL,Canvas,canvas6,Print,NA,1687287489581,5f42e674f6a9ae519c2295b4,5f42e674f6a9ae519c2295b4,2,door,critical,D,50,door40.jpg,door60.jpg,high,NULL
1687287506,8183be70ebf4093b170a53be5b3ba806,PennController,5,0,experiment,NULL,Video,progression,buffer,0.002663,1687287486419,5f42e674f6a9ae519c2295b4,5f42e674f6a9ae519c2295b4,2,door,critical,D,50,door40.jpg,door60.jpg,high,NULL
1687287506,8183be70ebf4093b170a53be5b3ba806,PennController,5,0,experiment,NULL,Selector,choice,Selection,option2,1687287494770,5f42e674f6a9ae519c2295b4,5f42e674f6a9ae519c2295b4,2,door,critical,D,50,door40.jpg,door60.jpg,high,option1;option2
1687287506,8183be70ebf4093b170a53be5b3ba806,PennController,5,0,experiment,NULL,PennController,4,_Trial_,End,1687287494771,5f42e674f6a9ae519c2295b4,5f42e674f6a9ae519c2295b4,2,door,critical,D,50,door40.jpg,door60.jpg,high,NULL
1687287506,8183be70ebf4093b170a53be5b3ba806,PennController,31,0,experiment,NULL,PennController,30,_Trial_,Start,1687287494773,5f42e674f6a9ae519c2295b4,5f42e674f6a9ae519c2295b4,28,sort,filler,D,25,sort15.jpg,sort35.jpg,GoalA,NULL
1687287506,8183be70ebf4093b170a53be5b3ba806,PennController,31,0,experiment,NULL,PennController,30,_Header_,Start,1687287494773,5f42e674f6a9ae519c2295b4,5f42e674f6a9ae519c2295b4,28,sort,filler,D,25,sort15.jpg,sort35.jpg,GoalA,NULL
1687287506,8183be70ebf4093b170a53be5b3ba806,PennController,31,0,experiment,NULL,PennController,30,_Header_,End,1687287494773,5f42e674f6a9ae519c2295b4,5f42e674f6a9ae519c2295b4,28,sort,filler,D,25,sort15.jpg,sort35.jpg,GoalA,NULL
1687287506,8183be70ebf4093b170a53be5b3ba806,PennController,31,0,experiment,NULL,Canvas,canvas6,Print,NA,1687287500458,5f42e674f6a9ae519c2295b4,5f42e674f6a9ae519c2295b4,28,sort,filler,D,25,sort15.jpg,sort35.jpg,GoalA,NULL
1687287506,8183be70ebf4093b170a53be5b3ba806,PennController,31,0,experiment,NULL,Video,progression,buffer,0.002704,1687287498294,5f42e674f6a9ae519c2295b4,5f42e674f6a9ae519c2295b4,28,sort,filler,D,25,sort15.jpg,sort35.jpg,GoalA,NULL
1687287506,8183be70ebf4093b170a53be5b3ba806,PennController,31,0,experiment,NULL,Selector,choice,Selection,option1,1687287504858,5f42e674f6a9ae519c2295b4,5f42e674f6a9ae519c2295b4,28,sort,filler,D,25,sort15.jpg,sort35.jpg,GoalA,option1;option2
1687287506,8183be70ebf4093b170a53be5b3ba806,PennController,31,0,experiment,NULL,PennController,30,_Trial_,End,1687287504859,5f42e674f6a9ae519c2295b4,5f42e674f6a9ae519c2295b4,28,sort,filler,D,25,sort15.jpg,sort35.jpg,GoalA,NULL
