#
# Results on Tuesday June 20 2023 18:55:59 UTC
# USER AGENT: Mozilla/5.0 (Windows NT 10.0; Win64; x64) AppleWebKit/537.36 (KHTML, like Gecko) Chrome/114.0.0.0 Safari/537.36
# Design number was non-random = 3
#
# Columns below this comment are as follows:
# 1. Results reception time.
# 2. MD5 hash of participant's IP address.
# 3. Controller name.
# 4. Order number of item.
# 5. Inner element number.
# 6. Label.
# 7. Latin Square Group.
# 8. PennElementType.
# 9. PennElementName.
# 10. Parameter.
# 11. Value.
# 12. EventTime.
# 13. PROLIFIC_ID.
# 14. Comments.
1687287359,48f0804868e57c530ab84fb197341331,PennController,2,0,consent,NULL,PennController,0,_Trial_,Start,1687287057700,613af0bd1ff8c576ff8cafbe,NULL
1687287359,48f0804868e57c530ab84fb197341331,PennController,2,0,consent,NULL,PennController,0,_Header_,Start,1687287057700,613af0bd1ff8c576ff8cafbe,NULL
1687287359,48f0804868e57c530ab84fb197341331,PennController,2,0,consent,NULL,PennController,0,_Header_,End,1687287057701,613af0bd1ff8c576ff8cafbe,NULL
1687287359,48f0804868e57c530ab84fb197341331,PennController,2,0,consent,NULL,PennController,0,_Trial_,End,1687287063980,613af0bd1ff8c576ff8cafbe,NULL
# Columns below this comment are as follows:
# 14. ID.
# 15. Comments.
1687287359,48f0804868e57c530ab84fb197341331,PennController,3,0,intro,NULL,PennController,1,_Trial_,Start,1687287063983,613af0bd1ff8c576ff8cafbe,613af0bd1ff8c576ff8cafbe,NULL
1687287359,48f0804868e57c530ab84fb197341331,PennController,3,0,intro,NULL,PennController,1,_Header_,Start,1687287063983,613af0bd1ff8c576ff8cafbe,613af0bd1ff8c576ff8cafbe,NULL
1687287359,48f0804868e57c530ab84fb197341331,PennController,3,0,intro,NULL,PennController,1,_Header_,End,1687287063983,613af0bd1ff8c576ff8cafbe,613af0bd1ff8c576ff8cafbe,NULL
1687287359,48f0804868e57c530ab84fb197341331,PennController,3,0,intro,NULL,PennController,1,_Trial_,End,1687287073332,613af0bd1ff8c576ff8cafbe,613af0bd1ff8c576ff8cafbe,NULL
# Columns below this comment are as follows:
# 15. item_number.
# 16. item.
# 17. type.
# 18. Group.
# 19. prog.
# 20. prev_image.
# 21. next_image.
# 22. height.
# 23. Comments.
1687287359,48f0804868e57c530ab84fb197341331,PennController,6,0,experiment,NULL,PennController,5,_Trial_,Start,1687287073342,613af0bd1ff8c576ff8cafbe,613af0bd1ff8c576ff8cafbe,3,clean,critical,D,75,clean65.jpg,clean85.jpg,high,NULL
1687287359,48f0804868e57c530ab84fb197341331,PennController,6,0,experiment,NULL,PennController,5,_Header_,Start,1687287073342,613af0bd1ff8c576ff8cafbe,613af0bd1ff8c576ff8cafbe,3,clean,critical,D,75,clean65.jpg,clean85.jpg,high,NULL
1687287359,48f0804868e57c530ab84fb197341331,PennController,6,0,experiment,NULL,PennController,5,_Header_,End,1687287073343,613af0bd1ff8c576ff8cafbe,613af0bd1ff8c576ff8cafbe,3,clean,critical,D,75,clean65.jpg,clean85.jpg,high,NULL
1687287359,48f0804868e57c530ab84fb197341331,PennController,6,0,experiment,NULL,Canvas,canvas6,Print,NA,1687287081118,613af0bd1ff8c576ff8cafbe,613af0bd1ff8c576ff8cafbe,3,clean,critical,D,75,clean65.jpg,clean85.jpg,high,NULL
1687287359,48f0804868e57c530ab84fb197341331,PennController,6,0,experiment,NULL,Video,progression,buffer,0.009013,1687287076912,613af0bd1ff8c576ff8cafbe,613af0bd1ff8c576ff8cafbe,3,clean,critical,D,75,clean65.jpg,clean85.jpg,high,NULL
1687287359,48f0804868e57c530ab84fb197341331,PennController,6,0,experiment,NULL,Selector,choice,Selection,option2,1687287087571,613af0bd1ff8c576ff8cafbe,613af0bd1ff8c576ff8cafbe,3,clean,critical,D,75,clean65.jpg,clean85.jpg,high,option2;option1
1687287359,48f0804868e57c530ab84fb197341331,PennController,6,0,experiment,NULL,PennController,5,_Trial_,End,1687287087573,613af0bd1ff8c576ff8cafbe,613af0bd1ff8c576ff8cafbe,3,clean,critical,D,75,clean65.jpg,clean85.jpg,high,NULL
1687287359,48f0804868e57c530ab84fb197341331,PennController,20,0,experiment,NULL,PennController,19,_Trial_,Start,1687287087575,613af0bd1ff8c576ff8cafbe,613af0bd1ff8c576ff8cafbe,17,roll,critical,D,50,roll40.jpg,roll60.jpg,high,NULL
1687287359,48f0804868e57c530ab84fb197341331,PennController,20,0,experiment,NULL,PennController,19,_Header_,Start,1687287087575,613af0bd1ff8c576ff8cafbe,613af0bd1ff8c576ff8cafbe,17,roll,critical,D,50,roll40.jpg,roll60.jpg,high,NULL
1687287359,48f0804868e57c530ab84fb197341331,PennController,20,0,experiment,NULL,PennController,19,_Header_,End,1687287087575,613af0bd1ff8c576ff8cafbe,613af0bd1ff8c576ff8cafbe,17,roll,critical,D,50,roll40.jpg,roll60.jpg,high,NULL
1687287359,48f0804868e57c530ab84fb197341331,PennController,20,0,experiment,NULL,Canvas,canvas6,Print,NA,1687287094292,613af0bd1ff8c576ff8cafbe,613af0bd1ff8c576ff8cafbe,17,roll,critical,D,50,roll40.jpg,roll60.jpg,high,NULL
1687287359,48f0804868e57c530ab84fb197341331,PennController,20,0,experiment,NULL,Video,progression,buffer,0.014928,1687287091123,613af0bd1ff8c576ff8cafbe,613af0bd1ff8c576ff8cafbe,17,roll,critical,D,50,roll40.jpg,roll60.jpg,high,NULL
1687287359,48f0804868e57c530ab84fb197341331,PennController,20,0,experiment,NULL,Selector,choice,Selection,option1,1687287095611,613af0bd1ff8c576ff8cafbe,613af0bd1ff8c576ff8cafbe,17,roll,critical,D,50,roll40.jpg,roll60.jpg,high,option2;option1
1687287359,48f0804868e57c530ab84fb197341331,PennController,20,0,experiment,NULL,PennController,19,_Trial_,End,1687287095613,613af0bd1ff8c576ff8cafbe,613af0bd1ff8c576ff8cafbe,17,roll,critical,D,50,roll40.jpg,roll60.jpg,high,NULL
1687287359,48f0804868e57c530ab84fb197341331,PennController,16,0,experiment,NULL,PennController,15,_Trial_,Start,1687287095615,613af0bd1ff8c576ff8cafbe,613af0bd1ff8c576ff8cafbe,13,mix,critical,D,25,mix15.jpg,mix35.jpg,high,NULL
1687287359,48f0804868e57c530ab84fb197341331,PennController,16,0,experiment,NULL,PennController,15,_Header_,Start,1687287095615,613af0bd1ff8c576ff8cafbe,613af0bd1ff8c576ff8cafbe,13,mix,critical,D,25,mix15.jpg,mix35.jpg,high,NULL
1687287359,48f0804868e57c530ab84fb197341331,PennController,16,0,experiment,NULL,PennController,15,_Header_,End,1687287095615,613af0bd1ff8c576ff8cafbe,613af0bd1ff8c576ff8cafbe,13,mix,critical,D,25,mix15.jpg,mix35.jpg,high,NULL
1687287359,48f0804868e57c530ab84fb197341331,PennController,16,0,experiment,NULL,Canvas,canvas6,Print,NA,1687287101359,613af0bd1ff8c576ff8cafbe,613af0bd1ff8c576ff8cafbe,13,mix,critical,D,25,mix15.jpg,mix35.jpg,high,NULL
1687287359,48f0804868e57c530ab84fb197341331,PennController,16,0,experiment,NULL,Video,progression,buffer,0.018801,1687287099183,613af0bd1ff8c576ff8cafbe,613af0bd1ff8c576ff8cafbe,13,mix,critical,D,25,mix15.jpg,mix35.jpg,high,NULL
1687287359,48f0804868e57c530ab84fb197341331,PennController,16,0,experiment,NULL,Selector,choice,Selection,option2,1687287102785,613af0bd1ff8c576ff8cafbe,613af0bd1ff8c576ff8cafbe,13,mix,critical,D,25,mix15.jpg,mix35.jpg,high,option1;option2
1687287359,48f0804868e57c530ab84fb197341331,PennController,16,0,experiment,NULL,PennController,15,_Trial_,End,1687287102787,613af0bd1ff8c576ff8cafbe,613af0bd1ff8c576ff8cafbe,13,mix,critical,D,25,mix15.jpg,mix35.jpg,high,NULL
1687287359,48f0804868e57c530ab84fb197341331,PennController,22,0,experiment,NULL,PennController,21,_Trial_,Start,1687287102789,613af0bd1ff8c576ff8cafbe,613af0bd1ff8c576ff8cafbe,19,cup,filler,D,25,cup15.jpg,cup35.jpg,GoalB,NULL
1687287359,48f0804868e57c530ab84fb197341331,PennController,22,0,experiment,NULL,PennController,21,_Header_,Start,1687287102789,613af0bd1ff8c576ff8cafbe,613af0bd1ff8c576ff8cafbe,19,cup,filler,D,25,cup15.jpg,cup35.jpg,GoalB,NULL
1687287359,48f0804868e57c530ab84fb197341331,PennController,22,0,experiment,NULL,PennController,21,_Header_,End,1687287102789,613af0bd1ff8c576ff8cafbe,613af0bd1ff8c576ff8cafbe,19,cup,filler,D,25,cup15.jpg,cup35.jpg,GoalB,NULL
1687287359,48f0804868e57c530ab84fb197341331,PennController,22,0,experiment,NULL,Canvas,canvas6,Print,NA,1687287108518,613af0bd1ff8c576ff8cafbe,613af0bd1ff8c576ff8cafbe,19,cup,filler,D,25,cup15.jpg,cup35.jpg,GoalB,NULL
1687287359,48f0804868e57c530ab84fb197341331,PennController,22,0,experiment,NULL,Video,progression,buffer,0.014671,1687287106350,613af0bd1ff8c576ff8cafbe,613af0bd1ff8c576ff8cafbe,19,cup,filler,D,25,cup15.jpg,cup35.jpg,GoalB,NULL
1687287359,48f0804868e57c530ab84fb197341331,PennController,22,0,experiment,NULL,Selector,choice,Selection,option2,1687287110116,613af0bd1ff8c576ff8cafbe,613af0bd1ff8c576ff8cafbe,19,cup,filler,D,25,cup15.jpg,cup35.jpg,GoalB,option2;option1
1687287359,48f0804868e57c530ab84fb197341331,PennController,22,0,experiment,NULL,PennController,21,_Trial_,End,1687287110118,613af0bd1ff8c576ff8cafbe,613af0bd1ff8c576ff8cafbe,19,cup,filler,D,25,cup15.jpg,cup35.jpg,GoalB,NULL
1687287359,48f0804868e57c530ab84fb197341331,PennController,25,0,experiment,NULL,PennController,24,_Trial_,Start,1687287110120,613af0bd1ff8c576ff8cafbe,613af0bd1ff8c576ff8cafbe,22,wall,filler,D,25,wall15.jpg,wall35.jpg,GoalA,NULL
1687287359,48f0804868e57c530ab84fb197341331,PennController,25,0,experiment,NULL,PennController,24,_Header_,Start,1687287110120,613af0bd1ff8c576ff8cafbe,613af0bd1ff8c576ff8cafbe,22,wall,filler,D,25,wall15.jpg,wall35.jpg,GoalA,NULL
1687287359,48f0804868e57c530ab84fb197341331,PennController,25,0,experiment,NULL,PennController,24,_Header_,End,1687287110120,613af0bd1ff8c576ff8cafbe,613af0bd1ff8c576ff8cafbe,22,wall,filler,D,25,wall15.jpg,wall35.jpg,GoalA,NULL
1687287359,48f0804868e57c530ab84fb197341331,PennController,25,0,experiment,NULL,Canvas,canvas6,Print,NA,1687287115840,613af0bd1ff8c576ff8cafbe,613af0bd1ff8c576ff8cafbe,22,wall,filler,D,25,wall15.jpg,wall35.jpg,GoalA,NULL
1687287359,48f0804868e57c530ab84fb197341331,PennController,25,0,experiment,NULL,Video,progression,buffer,0.014454,1687287113675,613af0bd1ff8c576ff8cafbe,613af0bd1ff8c576ff8cafbe,22,wall,filler,D,25,wall15.jpg,wall35.jpg,GoalA,NULL
1687287359,48f0804868e57c530ab84fb197341331,PennController,25,0,experiment,NULL,Selector,choice,Selection,option2,1687287122771,613af0bd1ff8c576ff8cafbe,613af0bd1ff8c576ff8cafbe,22,wall,filler,D,25,wall15.jpg,wall35.jpg,GoalA,option2;option1
1687287359,48f0804868e57c530ab84fb197341331,PennController,25,0,experiment,NULL,PennController,24,_Trial_,End,1687287122773,613af0bd1ff8c576ff8cafbe,613af0bd1ff8c576ff8cafbe,22,wall,filler,D,25,wall15.jpg,wall35.jpg,GoalA,NULL
1687287359,48f0804868e57c530ab84fb197341331,PennController,5,0,experiment,NULL,PennController,4,_Trial_,Start,1687287122774,613af0bd1ff8c576ff8cafbe,613af0bd1ff8c576ff8cafbe,2,door,critical,D,50,door40.jpg,door60.jpg,high,NULL
1687287359,48f0804868e57c530ab84fb197341331,PennController,5,0,experiment,NULL,PennController,4,_Header_,Start,1687287122774,613af0bd1ff8c576ff8cafbe,613af0bd1ff8c576ff8cafbe,2,door,critical,D,50,door40.jpg,door60.jpg,high,NULL
1687287359,48f0804868e57c530ab84fb197341331,PennController,5,0,experiment,NULL,PennController,4,_Header_,End,1687287122774,613af0bd1ff8c576ff8cafbe,613af0bd1ff8c576ff8cafbe,2,door,critical,D,50,door40.jpg,door60.jpg,high,NULL
1687287359,48f0804868e57c530ab84fb197341331,PennController,5,0,experiment,NULL,Canvas,canvas6,Print,NA,1687287129549,613af0bd1ff8c576ff8cafbe,613af0bd1ff8c576ff8cafbe,2,door,critical,D,50,door40.jpg,door60.jpg,high,NULL
1687287359,48f0804868e57c530ab84fb197341331,PennController,5,0,experiment,NULL,Video,progression,buffer,0,1687287126328,613af0bd1ff8c576ff8cafbe,613af0bd1ff8c576ff8cafbe,2,door,critical,D,50,door40.jpg,door60.jpg,high,NULL
1687287359,48f0804868e57c530ab84fb197341331,PennController,5,0,experiment,NULL,Selector,choice,Selection,option2,1687287131386,613af0bd1ff8c576ff8cafbe,613af0bd1ff8c576ff8cafbe,2,door,critical,D,50,door40.jpg,door60.jpg,high,option1;option2
1687287359,48f0804868e57c530ab84fb197341331,PennController,5,0,experiment,NULL,PennController,4,_Trial_,End,1687287131388,613af0bd1ff8c576ff8cafbe,613af0bd1ff8c576ff8cafbe,2,door,critical,D,50,door40.jpg,door60.jpg,high,NULL
1687287359,48f0804868e57c530ab84fb197341331,PennController,31,0,experiment,NULL,PennController,30,_Trial_,Start,1687287131389,613af0bd1ff8c576ff8cafbe,613af0bd1ff8c576ff8cafbe,28,sort,filler,D,25,sort15.jpg,sort35.jpg,GoalA,NULL
1687287359,48f0804868e57c530ab84fb197341331,PennController,31,0,experiment,NULL,PennController,30,_Header_,Start,1687287131389,613af0bd1ff8c576ff8cafbe,613af0bd1ff8c576ff8cafbe,28,sort,filler,D,25,sort15.jpg,sort35.jpg,GoalA,NULL
1687287359,48f0804868e57c530ab84fb197341331,PennController,31,0,experiment,NULL,PennController,30,_Header_,End,1687287131389,613af0bd1ff8c576ff8cafbe,613af0bd1ff8c576ff8cafbe,28,sort,filler,D,25,sort15.jpg,sort35.jpg,GoalA,NULL
1687287359,48f0804868e57c530ab84fb197341331,PennController,31,0,experiment,NULL,Canvas,canvas6,Print,NA,1687287137113,613af0bd1ff8c576ff8cafbe,613af0bd1ff8c576ff8cafbe,28,sort,filler,D,25,sort15.jpg,sort35.jpg,GoalA,NULL
1687287359,48f0804868e57c530ab84fb197341331,PennController,31,0,experiment,NULL,Video,progression,buffer,0.016663,1687287134946,613af0bd1ff8c576ff8cafbe,613af0bd1ff8c576ff8cafbe,28,sort,filler,D,25,sort15.jpg,sort35.jpg,GoalA,NULL
1687287359,48f0804868e57c530ab84fb197341331,PennController,31,0,experiment,NULL,Selector,choice,Selection,option2,1687287138925,613af0bd1ff8c576ff8cafbe,613af0bd1ff8c576ff8cafbe,28,sort,filler,D,25,sort15.jpg,sort35.jpg,GoalA,option1;option2
1687287359,48f0804868e57c530ab84fb197341331,PennController,31,0,experiment,NULL,PennController,30,_Trial_,End,1687287138926,613af0bd1ff8c576ff8cafbe,613af0bd1ff8c576ff8cafbe,28,sort,filler,D,25,sort15.jpg,sort35.jpg,GoalA,NULL
1687287359,48f0804868e57c530ab84fb197341331,PennController,13,0,experiment,NULL,PennController,12,_Trial_,Start,1687287138927,613af0bd1ff8c576ff8cafbe,613af0bd1ff8c576ff8cafbe,10,train,critical,D,25,train15.jpg,train35.jpg,high,NULL
1687287359,48f0804868e57c530ab84fb197341331,PennController,13,0,experiment,NULL,PennController,12,_Header_,Start,1687287138927,613af0bd1ff8c576ff8cafbe,613af0bd1ff8c576ff8cafbe,10,train,critical,D,25,train15.jpg,train35.jpg,high,NULL
1687287359,48f0804868e57c530ab84fb197341331,PennController,13,0,experiment,NULL,PennController,12,_Header_,End,1687287138927,613af0bd1ff8c576ff8cafbe,613af0bd1ff8c576ff8cafbe,10,train,critical,D,25,train15.jpg,train35.jpg,high,NULL
1687287359,48f0804868e57c530ab84fb197341331,PennController,13,0,experiment,NULL,Canvas,canvas6,Print,NA,1687287144661,613af0bd1ff8c576ff8cafbe,613af0bd1ff8c576ff8cafbe,10,train,critical,D,25,train15.jpg,train35.jpg,high,NULL
1687287359,48f0804868e57c530ab84fb197341331,PennController,13,0,experiment,NULL,Video,progression,buffer,0.011648,1687287142485,613af0bd1ff8c576ff8cafbe,613af0bd1ff8c576ff8cafbe,10,train,critical,D,25,train15.jpg,train35.jpg,high,NULL
1687287359,48f0804868e57c530ab84fb197341331,PennController,13,0,experiment,NULL,Selector,choice,Selection,option1,1687287149760,613af0bd1ff8c576ff8cafbe,613af0bd1ff8c576ff8cafbe,10,train,critical,D,25,train15.jpg,train35.jpg,high,option2;option1
1687287359,48f0804868e57c530ab84fb197341331,PennController,13,0,experiment,NULL,PennController,12,_Trial_,End,1687287149762,613af0bd1ff8c576ff8cafbe,613af0bd1ff8c576ff8cafbe,10,train,critical,D,25,train15.jpg,train35.jpg,high,NULL
1687287359,48f0804868e57c530ab84fb197341331,PennController,32,0,experiment,NULL,PennController,31,_Trial_,Start,1687287149763,613af0bd1ff8c576ff8cafbe,613af0bd1ff8c576ff8cafbe,29,frog,filler,D,50,frog40.jpg,frog60.jpg,GoalB,NULL
1687287359,48f0804868e57c530ab84fb197341331,PennController,32,0,experiment,NULL,PennController,31,_Header_,Start,1687287149763,613af0bd1ff8c576ff8cafbe,613af0bd1ff8c576ff8cafbe,29,frog,filler,D,50,frog40.jpg,frog60.jpg,GoalB,NULL
1687287359,48f0804868e57c530ab84fb197341331,PennController,32,0,experiment,NULL,PennController,31,_Header_,End,1687287149763,613af0bd1ff8c576ff8cafbe,613af0bd1ff8c576ff8cafbe,29,frog,filler,D,50,frog40.jpg,frog60.jpg,GoalB,NULL
1687287359,48f0804868e57c530ab84fb197341331,PennController,32,0,experiment,NULL,Canvas,canvas6,Print,NA,1687287156501,613af0bd1ff8c576ff8cafbe,613af0bd1ff8c576ff8cafbe,29,frog,filler,D,50,frog40.jpg,frog60.jpg,GoalB,NULL
1687287359,48f0804868e57c530ab84fb197341331,PennController,32,0,experiment,NULL,Video,progression,buffer,0.017332,1687287153333,613af0bd1ff8c576ff8cafbe,613af0bd1ff8c576ff8cafbe,29,frog,filler,D,50,frog40.jpg,frog60.jpg,GoalB,NULL
1687287359,48f0804868e57c530ab84fb197341331,PennController,32,0,experiment,NULL,Selector,choice,Selection,option1,1687287158139,613af0bd1ff8c576ff8cafbe,613af0bd1ff8c576ff8cafbe,29,frog,filler,D,50,frog40.jpg,frog60.jpg,GoalB,option1;option2
1687287359,48f0804868e57c530ab84fb197341331,PennController,32,0,experiment,NULL,PennController,31,_Trial_,End,1687287158140,613af0bd1ff8c576ff8cafbe,613af0bd1ff8c576ff8cafbe,29,frog,filler,D,50,frog40.jpg,frog60.jpg,GoalB,NULL
1687287359,48f0804868e57c530ab84fb197341331,PennController,29,0,experiment,NULL,PennController,28,_Trial_,Start,1687287158141,613af0bd1ff8c576ff8cafbe,613af0bd1ff8c576ff8cafbe,26,sandwich,filler,D,50,sandwich40.jpg,sandwich60.jpg,GoalA,NULL
1687287359,48f0804868e57c530ab84fb197341331,PennController,29,0,experiment,NULL,PennController,28,_Header_,Start,1687287158141,613af0bd1ff8c576ff8cafbe,613af0bd1ff8c576ff8cafbe,26,sandwich,filler,D,50,sandwich40.jpg,sandwich60.jpg,GoalA,NULL
1687287359,48f0804868e57c530ab84fb197341331,PennController,29,0,experiment,NULL,PennController,28,_Header_,End,1687287158141,613af0bd1ff8c576ff8cafbe,613af0bd1ff8c576ff8cafbe,26,sandwich,filler,D,50,sandwich40.jpg,sandwich60.jpg,GoalA,NULL
1687287359,48f0804868e57c530ab84fb197341331,PennController,29,0,experiment,NULL,Canvas,canvas6,Print,NA,1687287164853,613af0bd1ff8c576ff8cafbe,613af0bd1ff8c576ff8cafbe,26,sandwich,filler,D,50,sandwich40.jpg,sandwich60.jpg,GoalA,NULL
1687287359,48f0804868e57c530ab84fb197341331,PennController,29,0,experiment,NULL,Video,progression,buffer,0.00451,1687287161674,613af0bd1ff8c576ff8cafbe,613af0bd1ff8c576ff8cafbe,26,sandwich,filler,D,50,sandwich40.jpg,sandwich60.jpg,GoalA,NULL
1687287359,48f0804868e57c530ab84fb197341331,PennController,29,0,experiment,NULL,Selector,choice,Selection,option2,1687287166651,613af0bd1ff8c576ff8cafbe,613af0bd1ff8c576ff8cafbe,26,sandwich,filler,D,50,sandwich40.jpg,sandwich60.jpg,GoalA,option2;option1
1687287359,48f0804868e57c530ab84fb197341331,PennController,29,0,experiment,NULL,PennController,28,_Trial_,End,1687287166652,613af0bd1ff8c576ff8cafbe,613af0bd1ff8c576ff8cafbe,26,sandwich,filler,D,50,sandwich40.jpg,sandwich60.jpg,GoalA,NULL
1687287359,48f0804868e57c530ab84fb197341331,PennController,8,0,experiment,NULL,PennController,7,_Trial_,Start,1687287166654,613af0bd1ff8c576ff8cafbe,613af0bd1ff8c576ff8cafbe,5,book,critical,D,50,book40.jpg,book60.jpg,high,NULL
1687287359,48f0804868e57c530ab84fb197341331,PennController,8,0,experiment,NULL,PennController,7,_Header_,Start,1687287166654,613af0bd1ff8c576ff8cafbe,613af0bd1ff8c576ff8cafbe,5,book,critical,D,50,book40.jpg,book60.jpg,high,NULL
1687287359,48f0804868e57c530ab84fb197341331,PennController,8,0,experiment,NULL,PennController,7,_Header_,End,1687287166654,613af0bd1ff8c576ff8cafbe,613af0bd1ff8c576ff8cafbe,5,book,critical,D,50,book40.jpg,book60.jpg,high,NULL
1687287359,48f0804868e57c530ab84fb197341331,PennController,8,0,experiment,NULL,Canvas,canvas6,Print,NA,1687287173377,613af0bd1ff8c576ff8cafbe,613af0bd1ff8c576ff8cafbe,5,book,critical,D,50,book40.jpg,book60.jpg,high,NULL
1687287359,48f0804868e57c530ab84fb197341331,PennController,8,0,experiment,NULL,Video,progression,buffer,0.016783,1687287170221,613af0bd1ff8c576ff8cafbe,613af0bd1ff8c576ff8cafbe,5,book,critical,D,50,book40.jpg,book60.jpg,high,NULL
1687287359,48f0804868e57c530ab84fb197341331,PennController,8,0,experiment,NULL,Selector,choice,Selection,option1,1687287179283,613af0bd1ff8c576ff8cafbe,613af0bd1ff8c576ff8cafbe,5,book,critical,D,50,book40.jpg,book60.jpg,high,option1;option2
1687287359,48f0804868e57c530ab84fb197341331,PennController,8,0,experiment,NULL,PennController,7,_Trial_,End,1687287179284,613af0bd1ff8c576ff8cafbe,613af0bd1ff8c576ff8cafbe,5,book,critical,D,50,book40.jpg,book60.jpg,high,NULL
1687287359,48f0804868e57c530ab84fb197341331,PennController,17,0,experiment,NULL,PennController,16,_Trial_,Start,1687287179285,613af0bd1ff8c576ff8cafbe,613af0bd1ff8c576ff8cafbe,14,cover,critical,D,50,cover42.jpg,cover60.jpg,high,NULL
1687287359,48f0804868e57c530ab84fb197341331,PennController,17,0,experiment,NULL,PennController,16,_Header_,Start,1687287179285,613af0bd1ff8c576ff8cafbe,613af0bd1ff8c576ff8cafbe,14,cover,critical,D,50,cover42.jpg,cover60.jpg,high,NULL
1687287359,48f0804868e57c530ab84fb197341331,PennController,17,0,experiment,NULL,PennController,16,_Header_,End,1687287179285,613af0bd1ff8c576ff8cafbe,613af0bd1ff8c576ff8cafbe,14,cover,critical,D,50,cover42.jpg,cover60.jpg,high,NULL
1687287359,48f0804868e57c530ab84fb197341331,PennController,17,0,experiment,NULL,Canvas,canvas6,Print,NA,1687287187413,613af0bd1ff8c576ff8cafbe,613af0bd1ff8c576ff8cafbe,14,cover,critical,D,50,cover42.jpg,cover60.jpg,high,NULL
1687287359,48f0804868e57c530ab84fb197341331,PennController,17,0,experiment,NULL,Video,progression,buffer,0.022972,1687287182855,613af0bd1ff8c576ff8cafbe,613af0bd1ff8c576ff8cafbe,14,cover,critical,D,50,cover42.jpg,cover60.jpg,high,NULL
1687287359,48f0804868e57c530ab84fb197341331,PennController,17,0,experiment,NULL,Selector,choice,Selection,option2,1687287195662,613af0bd1ff8c576ff8cafbe,613af0bd1ff8c576ff8cafbe,14,cover,critical,D,50,cover42.jpg,cover60.jpg,high,option2;option1
1687287359,48f0804868e57c530ab84fb197341331,PennController,17,0,experiment,NULL,PennController,16,_Trial_,End,1687287195663,613af0bd1ff8c576ff8cafbe,613af0bd1ff8c576ff8cafbe,14,cover,critical,D,50,cover42.jpg,cover60.jpg,high,NULL
1687287359,48f0804868e57c530ab84fb197341331,PennController,11,0,experiment,NULL,PennController,10,_Trial_,Start,1687287195664,613af0bd1ff8c576ff8cafbe,613af0bd1ff8c576ff8cafbe,8,cucumber,critical,D,50,cucumber42.jpg,cucumber60.jpg,high,NULL
1687287359,48f0804868e57c530ab84fb197341331,PennController,11,0,experiment,NULL,PennController,10,_Header_,Start,1687287195664,613af0bd1ff8c576ff8cafbe,613af0bd1ff8c576ff8cafbe,8,cucumber,critical,D,50,cucumber42.jpg,cucumber60.jpg,high,NULL
1687287359,48f0804868e57c530ab84fb197341331,PennController,11,0,experiment,NULL,PennController,10,_Header_,End,1687287195664,613af0bd1ff8c576ff8cafbe,613af0bd1ff8c576ff8cafbe,8,cucumber,critical,D,50,cucumber42.jpg,cucumber60.jpg,high,NULL
1687287359,48f0804868e57c530ab84fb197341331,PennController,11,0,experiment,NULL,Canvas,canvas6,Print,NA,1687287203792,613af0bd1ff8c576ff8cafbe,613af0bd1ff8c576ff8cafbe,8,cucumber,critical,D,50,cucumber42.jpg,cucumber60.jpg,high,NULL
1687287359,48f0804868e57c530ab84fb197341331,PennController,11,0,experiment,NULL,Video,progression,buffer,0.017724,1687287199233,613af0bd1ff8c576ff8cafbe,613af0bd1ff8c576ff8cafbe,8,cucumber,critical,D,50,cucumber42.jpg,cucumber60.jpg,high,NULL
1687287359,48f0804868e57c530ab84fb197341331,PennController,11,0,experiment,NULL,Selector,choice,Selection,option2,1687287205879,613af0bd1ff8c576ff8cafbe,613af0bd1ff8c576ff8cafbe,8,cucumber,critical,D,50,cucumber42.jpg,cucumber60.jpg,high,option1;option2
1687287359,48f0804868e57c530ab84fb197341331,PennController,11,0,experiment,NULL,PennController,10,_Trial_,End,1687287205880,613af0bd1ff8c576ff8cafbe,613af0bd1ff8c576ff8cafbe,8,cucumber,critical,D,50,cucumber42.jpg,cucumber60.jpg,high,NULL
1687287359,48f0804868e57c530ab84fb197341331,PennController,12,0,experiment,NULL,PennController,11,_Trial_,Start,1687287205881,613af0bd1ff8c576ff8cafbe,613af0bd1ff8c576ff8cafbe,9,cake,critical,D,75,cake66.jpg,cake84.jpg,high,NULL
1687287359,48f0804868e57c530ab84fb197341331,PennController,12,0,experiment,NULL,PennController,11,_Header_,Start,1687287205881,613af0bd1ff8c576ff8cafbe,613af0bd1ff8c576ff8cafbe,9,cake,critical,D,75,cake66.jpg,cake84.jpg,high,NULL
1687287359,48f0804868e57c530ab84fb197341331,PennController,12,0,experiment,NULL,PennController,11,_Header_,End,1687287205881,613af0bd1ff8c576ff8cafbe,613af0bd1ff8c576ff8cafbe,9,cake,critical,D,75,cake66.jpg,cake84.jpg,high,NULL
1687287359,48f0804868e57c530ab84fb197341331,PennController,12,0,experiment,NULL,Canvas,canvas6,Print,NA,1687287215613,613af0bd1ff8c576ff8cafbe,613af0bd1ff8c576ff8cafbe,9,cake,critical,D,75,cake66.jpg,cake84.jpg,high,NULL
1687287359,48f0804868e57c530ab84fb197341331,PennController,12,0,experiment,NULL,Video,progression,buffer,0.014639,1687287209434,613af0bd1ff8c576ff8cafbe,613af0bd1ff8c576ff8cafbe,9,cake,critical,D,75,cake66.jpg,cake84.jpg,high,NULL
1687287359,48f0804868e57c530ab84fb197341331,PennController,12,0,experiment,NULL,Selector,choice,Selection,option2,1687287217085,613af0bd1ff8c576ff8cafbe,613af0bd1ff8c576ff8cafbe,9,cake,critical,D,75,cake66.jpg,cake84.jpg,high,option2;option1
1687287359,48f0804868e57c530ab84fb197341331,PennController,12,0,experiment,NULL,PennController,11,_Trial_,End,1687287217086,613af0bd1ff8c576ff8cafbe,613af0bd1ff8c576ff8cafbe,9,cake,critical,D,75,cake66.jpg,cake84.jpg,high,NULL
1687287359,48f0804868e57c530ab84fb197341331,PennController,10,0,experiment,NULL,PennController,9,_Trial_,Start,1687287217087,613af0bd1ff8c576ff8cafbe,613af0bd1ff8c576ff8cafbe,7,stack,critical,D,25,stack15.jpg,stack35.jpg,high,NULL
1687287359,48f0804868e57c530ab84fb197341331,PennController,10,0,experiment,NULL,PennController,9,_Header_,Start,1687287217087,613af0bd1ff8c576ff8cafbe,613af0bd1ff8c576ff8cafbe,7,stack,critical,D,25,stack15.jpg,stack35.jpg,high,NULL
1687287359,48f0804868e57c530ab84fb197341331,PennController,10,0,experiment,NULL,PennController,9,_Header_,End,1687287217087,613af0bd1ff8c576ff8cafbe,613af0bd1ff8c576ff8cafbe,7,stack,critical,D,25,stack15.jpg,stack35.jpg,high,NULL
1687287359,48f0804868e57c530ab84fb197341331,PennController,10,0,experiment,NULL,Canvas,canvas6,Print,NA,1687287222802,613af0bd1ff8c576ff8cafbe,613af0bd1ff8c576ff8cafbe,7,stack,critical,D,25,stack15.jpg,stack35.jpg,high,NULL
1687287359,48f0804868e57c530ab84fb197341331,PennController,10,0,experiment,NULL,Video,progression,buffer,0.008061,1687287220628,613af0bd1ff8c576ff8cafbe,613af0bd1ff8c576ff8cafbe,7,stack,critical,D,25,stack15.jpg,stack35.jpg,high,NULL
1687287359,48f0804868e57c530ab84fb197341331,PennController,10,0,experiment,NULL,Selector,choice,Selection,option2,1687287225163,613af0bd1ff8c576ff8cafbe,613af0bd1ff8c576ff8cafbe,7,stack,critical,D,25,stack15.jpg,stack35.jpg,high,option2;option1
1687287359,48f0804868e57c530ab84fb197341331,PennController,10,0,experiment,NULL,PennController,9,_Trial_,End,1687287225165,613af0bd1ff8c576ff8cafbe,613af0bd1ff8c576ff8cafbe,7,stack,critical,D,25,stack15.jpg,stack35.jpg,high,NULL
1687287359,48f0804868e57c530ab84fb197341331,PennController,24,0,experiment,NULL,PennController,23,_Trial_,Start,1687287225167,613af0bd1ff8c576ff8cafbe,613af0bd1ff8c576ff8cafbe,21,visit,filler,D,75,visit65.jpg,visit85.jpg,GoalB,NULL
1687287359,48f0804868e57c530ab84fb197341331,PennController,24,0,experiment,NULL,PennController,23,_Header_,Start,1687287225167,613af0bd1ff8c576ff8cafbe,613af0bd1ff8c576ff8cafbe,21,visit,filler,D,75,visit65.jpg,visit85.jpg,GoalB,NULL
1687287359,48f0804868e57c530ab84fb197341331,PennController,24,0,experiment,NULL,PennController,23,_Header_,End,1687287225167,613af0bd1ff8c576ff8cafbe,613af0bd1ff8c576ff8cafbe,21,visit,filler,D,75,visit65.jpg,visit85.jpg,GoalB,NULL
1687287359,48f0804868e57c530ab84fb197341331,PennController,24,0,experiment,NULL,Canvas,canvas6,Print,NA,1687287232888,613af0bd1ff8c576ff8cafbe,613af0bd1ff8c576ff8cafbe,21,visit,filler,D,75,visit65.jpg,visit85.jpg,GoalB,NULL
1687287359,48f0804868e57c530ab84fb197341331,PennController,24,0,experiment,NULL,Video,progression,buffer,0.022858,1687287228744,613af0bd1ff8c576ff8cafbe,613af0bd1ff8c576ff8cafbe,21,visit,filler,D,75,visit65.jpg,visit85.jpg,GoalB,NULL
1687287359,48f0804868e57c530ab84fb197341331,PennController,24,0,experiment,NULL,Selector,choice,Selection,option2,1687287234124,613af0bd1ff8c576ff8cafbe,613af0bd1ff8c576ff8cafbe,21,visit,filler,D,75,visit65.jpg,visit85.jpg,GoalB,option2;option1
1687287359,48f0804868e57c530ab84fb197341331,PennController,24,0,experiment,NULL,PennController,23,_Trial_,End,1687287234125,613af0bd1ff8c576ff8cafbe,613af0bd1ff8c576ff8cafbe,21,visit,filler,D,75,visit65.jpg,visit85.jpg,GoalB,NULL
1687287359,48f0804868e57c530ab84fb197341331,PennController,15,0,experiment,NULL,PennController,14,_Trial_,Start,1687287234127,613af0bd1ff8c576ff8cafbe,613af0bd1ff8c576ff8cafbe,12,erase,critical,D,75,erase66.jpg,erase84.jpg,high,NULL
1687287359,48f0804868e57c530ab84fb197341331,PennController,15,0,experiment,NULL,PennController,14,_Header_,Start,1687287234127,613af0bd1ff8c576ff8cafbe,613af0bd1ff8c576ff8cafbe,12,erase,critical,D,75,erase66.jpg,erase84.jpg,high,NULL
1687287359,48f0804868e57c530ab84fb197341331,PennController,15,0,experiment,NULL,PennController,14,_Header_,End,1687287234127,613af0bd1ff8c576ff8cafbe,613af0bd1ff8c576ff8cafbe,12,erase,critical,D,75,erase66.jpg,erase84.jpg,high,NULL
1687287359,48f0804868e57c530ab84fb197341331,PennController,15,0,experiment,NULL,Canvas,canvas6,Print,NA,1687287243851,613af0bd1ff8c576ff8cafbe,613af0bd1ff8c576ff8cafbe,12,erase,critical,D,75,erase66.jpg,erase84.jpg,high,NULL
1687287359,48f0804868e57c530ab84fb197341331,PennController,15,0,experiment,NULL,Video,progression,buffer,0.020396,1687287237688,613af0bd1ff8c576ff8cafbe,613af0bd1ff8c576ff8cafbe,12,erase,critical,D,75,erase66.jpg,erase84.jpg,high,NULL
1687287359,48f0804868e57c530ab84fb197341331,PennController,15,0,experiment,NULL,Selector,choice,Selection,option2,1687287245345,613af0bd1ff8c576ff8cafbe,613af0bd1ff8c576ff8cafbe,12,erase,critical,D,75,erase66.jpg,erase84.jpg,high,option2;option1
1687287359,48f0804868e57c530ab84fb197341331,PennController,15,0,experiment,NULL,PennController,14,_Trial_,End,1687287245346,613af0bd1ff8c576ff8cafbe,613af0bd1ff8c576ff8cafbe,12,erase,critical,D,75,erase66.jpg,erase84.jpg,high,NULL
1687287359,48f0804868e57c530ab84fb197341331,PennController,27,0,experiment,NULL,PennController,26,_Trial_,Start,1687287245347,613af0bd1ff8c576ff8cafbe,613af0bd1ff8c576ff8cafbe,24,match,filler,D,75,match65.jpg,match85.jpg,GoalA,NULL
1687287359,48f0804868e57c530ab84fb197341331,PennController,27,0,experiment,NULL,PennController,26,_Header_,Start,1687287245347,613af0bd1ff8c576ff8cafbe,613af0bd1ff8c576ff8cafbe,24,match,filler,D,75,match65.jpg,match85.jpg,GoalA,NULL
1687287359,48f0804868e57c530ab84fb197341331,PennController,27,0,experiment,NULL,PennController,26,_Header_,End,1687287245347,613af0bd1ff8c576ff8cafbe,613af0bd1ff8c576ff8cafbe,24,match,filler,D,75,match65.jpg,match85.jpg,GoalA,NULL
1687287359,48f0804868e57c530ab84fb197341331,PennController,27,0,experiment,NULL,Canvas,canvas6,Print,NA,1687287253082,613af0bd1ff8c576ff8cafbe,613af0bd1ff8c576ff8cafbe,24,match,filler,D,75,match65.jpg,match85.jpg,GoalA,NULL
1687287359,48f0804868e57c530ab84fb197341331,PennController,27,0,experiment,NULL,Video,progression,buffer,0.014534,1687287248914,613af0bd1ff8c576ff8cafbe,613af0bd1ff8c576ff8cafbe,24,match,filler,D,75,match65.jpg,match85.jpg,GoalA,NULL
1687287359,48f0804868e57c530ab84fb197341331,PennController,27,0,experiment,NULL,Selector,choice,Selection,option2,1687287264497,613af0bd1ff8c576ff8cafbe,613af0bd1ff8c576ff8cafbe,24,match,filler,D,75,match65.jpg,match85.jpg,GoalA,option1;option2
1687287359,48f0804868e57c530ab84fb197341331,PennController,27,0,experiment,NULL,PennController,26,_Trial_,End,1687287264498,613af0bd1ff8c576ff8cafbe,613af0bd1ff8c576ff8cafbe,24,match,filler,D,75,match65.jpg,match85.jpg,GoalA,NULL
1687287359,48f0804868e57c530ab84fb197341331,PennController,7,0,experiment,NULL,PennController,6,_Trial_,Start,1687287264500,613af0bd1ff8c576ff8cafbe,613af0bd1ff8c576ff8cafbe,4,candy,critical,D,25,candy15.jpg,candy35.jpg,high,NULL
1687287359,48f0804868e57c530ab84fb197341331,PennController,7,0,experiment,NULL,PennController,6,_Header_,Start,1687287264500,613af0bd1ff8c576ff8cafbe,613af0bd1ff8c576ff8cafbe,4,candy,critical,D,25,candy15.jpg,candy35.jpg,high,NULL
1687287359,48f0804868e57c530ab84fb197341331,PennController,7,0,experiment,NULL,PennController,6,_Header_,End,1687287264500,613af0bd1ff8c576ff8cafbe,613af0bd1ff8c576ff8cafbe,4,candy,critical,D,25,candy15.jpg,candy35.jpg,high,NULL
1687287359,48f0804868e57c530ab84fb197341331,PennController,7,0,experiment,NULL,Canvas,canvas6,Print,NA,1687287270207,613af0bd1ff8c576ff8cafbe,613af0bd1ff8c576ff8cafbe,4,candy,critical,D,25,candy15.jpg,candy35.jpg,high,NULL
1687287359,48f0804868e57c530ab84fb197341331,PennController,7,0,experiment,NULL,Video,progression,buffer,0.008732,1687287268034,613af0bd1ff8c576ff8cafbe,613af0bd1ff8c576ff8cafbe,4,candy,critical,D,25,candy15.jpg,candy35.jpg,high,NULL
1687287359,48f0804868e57c530ab84fb197341331,PennController,7,0,experiment,NULL,Selector,choice,Selection,option1,1687287272142,613af0bd1ff8c576ff8cafbe,613af0bd1ff8c576ff8cafbe,4,candy,critical,D,25,candy15.jpg,candy35.jpg,high,option2;option1
1687287359,48f0804868e57c530ab84fb197341331,PennController,7,0,experiment,NULL,PennController,6,_Trial_,End,1687287272143,613af0bd1ff8c576ff8cafbe,613af0bd1ff8c576ff8cafbe,4,candy,critical,D,25,candy15.jpg,candy35.jpg,high,NULL
1687287359,48f0804868e57c530ab84fb197341331,PennController,21,0,experiment,NULL,PennController,20,_Trial_,Start,1687287272144,613af0bd1ff8c576ff8cafbe,613af0bd1ff8c576ff8cafbe,18,ball,critical,D,75,ball65.jpg,ball85.jpg,high,NULL
1687287359,48f0804868e57c530ab84fb197341331,PennController,21,0,experiment,NULL,PennController,20,_Header_,Start,1687287272144,613af0bd1ff8c576ff8cafbe,613af0bd1ff8c576ff8cafbe,18,ball,critical,D,75,ball65.jpg,ball85.jpg,high,NULL
1687287359,48f0804868e57c530ab84fb197341331,PennController,21,0,experiment,NULL,PennController,20,_Header_,End,1687287272144,613af0bd1ff8c576ff8cafbe,613af0bd1ff8c576ff8cafbe,18,ball,critical,D,75,ball65.jpg,ball85.jpg,high,NULL
1687287359,48f0804868e57c530ab84fb197341331,PennController,21,0,experiment,NULL,Canvas,canvas6,Print,NA,1687287279874,613af0bd1ff8c576ff8cafbe,613af0bd1ff8c576ff8cafbe,18,ball,critical,D,75,ball65.jpg,ball85.jpg,high,NULL
1687287359,48f0804868e57c530ab84fb197341331,PennController,21,0,experiment,NULL,Video,progression,buffer,0.016892,1687287275706,613af0bd1ff8c576ff8cafbe,613af0bd1ff8c576ff8cafbe,18,ball,critical,D,75,ball65.jpg,ball85.jpg,high,NULL
1687287359,48f0804868e57c530ab84fb197341331,PennController,21,0,experiment,NULL,Selector,choice,Selection,option2,1687287281847,613af0bd1ff8c576ff8cafbe,613af0bd1ff8c576ff8cafbe,18,ball,critical,D,75,ball65.jpg,ball85.jpg,high,option1;option2
1687287359,48f0804868e57c530ab84fb197341331,PennController,21,0,experiment,NULL,PennController,20,_Trial_,End,1687287281848,613af0bd1ff8c576ff8cafbe,613af0bd1ff8c576ff8cafbe,18,ball,critical,D,75,ball65.jpg,ball85.jpg,high,NULL
1687287359,48f0804868e57c530ab84fb197341331,PennController,9,0,experiment,NULL,PennController,8,_Trial_,Start,1687287281850,613af0bd1ff8c576ff8cafbe,613af0bd1ff8c576ff8cafbe,6,flower,critical,D,75,flower65.jpg,flower85.jpg,high,NULL
1687287359,48f0804868e57c530ab84fb197341331,PennController,9,0,experiment,NULL,PennController,8,_Header_,Start,1687287281850,613af0bd1ff8c576ff8cafbe,613af0bd1ff8c576ff8cafbe,6,flower,critical,D,75,flower65.jpg,flower85.jpg,high,NULL
1687287359,48f0804868e57c530ab84fb197341331,PennController,9,0,experiment,NULL,PennController,8,_Header_,End,1687287281850,613af0bd1ff8c576ff8cafbe,613af0bd1ff8c576ff8cafbe,6,flower,critical,D,75,flower65.jpg,flower85.jpg,high,NULL
1687287359,48f0804868e57c530ab84fb197341331,PennController,9,0,experiment,NULL,Canvas,canvas6,Print,NA,1687287289578,613af0bd1ff8c576ff8cafbe,613af0bd1ff8c576ff8cafbe,6,flower,critical,D,75,flower65.jpg,flower85.jpg,high,NULL
1687287359,48f0804868e57c530ab84fb197341331,PennController,9,0,experiment,NULL,Video,progression,buffer,0.020536,1687287285414,613af0bd1ff8c576ff8cafbe,613af0bd1ff8c576ff8cafbe,6,flower,critical,D,75,flower65.jpg,flower85.jpg,high,NULL
1687287359,48f0804868e57c530ab84fb197341331,PennController,9,0,experiment,NULL,Selector,choice,Selection,option2,1687287290747,613af0bd1ff8c576ff8cafbe,613af0bd1ff8c576ff8cafbe,6,flower,critical,D,75,flower65.jpg,flower85.jpg,high,option2;option1
1687287359,48f0804868e57c530ab84fb197341331,PennController,9,0,experiment,NULL,PennController,8,_Trial_,End,1687287290748,613af0bd1ff8c576ff8cafbe,613af0bd1ff8c576ff8cafbe,6,flower,critical,D,75,flower65.jpg,flower85.jpg,high,NULL
1687287359,48f0804868e57c530ab84fb197341331,PennController,19,0,experiment,NULL,PennController,18,_Trial_,Start,1687287290749,613af0bd1ff8c576ff8cafbe,613af0bd1ff8c576ff8cafbe,16,blinds,critical,D,25,blinds15.jpg,blinds33.jpg,high,NULL
1687287359,48f0804868e57c530ab84fb197341331,PennController,19,0,experiment,NULL,PennController,18,_Header_,Start,1687287290749,613af0bd1ff8c576ff8cafbe,613af0bd1ff8c576ff8cafbe,16,blinds,critical,D,25,blinds15.jpg,blinds33.jpg,high,NULL
1687287359,48f0804868e57c530ab84fb197341331,PennController,19,0,experiment,NULL,PennController,18,_Header_,End,1687287290749,613af0bd1ff8c576ff8cafbe,613af0bd1ff8c576ff8cafbe,16,blinds,critical,D,25,blinds15.jpg,blinds33.jpg,high,NULL
1687287359,48f0804868e57c530ab84fb197341331,PennController,19,0,experiment,NULL,Canvas,canvas6,Print,NA,1687287297088,613af0bd1ff8c576ff8cafbe,613af0bd1ff8c576ff8cafbe,16,blinds,critical,D,25,blinds15.jpg,blinds33.jpg,high,NULL
1687287359,48f0804868e57c530ab84fb197341331,PennController,19,0,experiment,NULL,Video,progression,buffer,0.0153,1687287294309,613af0bd1ff8c576ff8cafbe,613af0bd1ff8c576ff8cafbe,16,blinds,critical,D,25,blinds15.jpg,blinds33.jpg,high,NULL
1687287359,48f0804868e57c530ab84fb197341331,PennController,19,0,experiment,NULL,Selector,choice,Selection,option2,1687287299533,613af0bd1ff8c576ff8cafbe,613af0bd1ff8c576ff8cafbe,16,blinds,critical,D,25,blinds15.jpg,blinds33.jpg,high,option2;option1
1687287359,48f0804868e57c530ab84fb197341331,PennController,19,0,experiment,NULL,PennController,18,_Trial_,End,1687287299534,613af0bd1ff8c576ff8cafbe,613af0bd1ff8c576ff8cafbe,16,blinds,critical,D,25,blinds15.jpg,blinds33.jpg,high,NULL
1687287359,48f0804868e57c530ab84fb197341331,PennController,26,0,experiment,NULL,PennController,25,_Trial_,Start,1687287299536,613af0bd1ff8c576ff8cafbe,613af0bd1ff8c576ff8cafbe,23,color,filler,D,50,color40.jpg,color60.jpg,GoalB,NULL
1687287359,48f0804868e57c530ab84fb197341331,PennController,26,0,experiment,NULL,PennController,25,_Header_,Start,1687287299536,613af0bd1ff8c576ff8cafbe,613af0bd1ff8c576ff8cafbe,23,color,filler,D,50,color40.jpg,color60.jpg,GoalB,NULL
1687287359,48f0804868e57c530ab84fb197341331,PennController,26,0,experiment,NULL,PennController,25,_Header_,End,1687287299536,613af0bd1ff8c576ff8cafbe,613af0bd1ff8c576ff8cafbe,23,color,filler,D,50,color40.jpg,color60.jpg,GoalB,NULL
1687287359,48f0804868e57c530ab84fb197341331,PennController,26,0,experiment,NULL,Canvas,canvas6,Print,NA,1687287306256,613af0bd1ff8c576ff8cafbe,613af0bd1ff8c576ff8cafbe,23,color,filler,D,50,color40.jpg,color60.jpg,GoalB,NULL
1687287359,48f0804868e57c530ab84fb197341331,PennController,26,0,experiment,NULL,Video,progression,buffer,0.026361,1687287303112,613af0bd1ff8c576ff8cafbe,613af0bd1ff8c576ff8cafbe,23,color,filler,D,50,color40.jpg,color60.jpg,GoalB,NULL
1687287359,48f0804868e57c530ab84fb197341331,PennController,26,0,experiment,NULL,Selector,choice,Selection,option2,1687287309400,613af0bd1ff8c576ff8cafbe,613af0bd1ff8c576ff8cafbe,23,color,filler,D,50,color40.jpg,color60.jpg,GoalB,option2;option1
1687287359,48f0804868e57c530ab84fb197341331,PennController,26,0,experiment,NULL,PennController,25,_Trial_,End,1687287309401,613af0bd1ff8c576ff8cafbe,613af0bd1ff8c576ff8cafbe,23,color,filler,D,50,color40.jpg,color60.jpg,GoalB,NULL
1687287359,48f0804868e57c530ab84fb197341331,PennController,14,0,experiment,NULL,PennController,13,_Trial_,Start,1687287309402,613af0bd1ff8c576ff8cafbe,613af0bd1ff8c576ff8cafbe,11,beads,critical,D,50,beads40.jpg,beads60.jpg,high,NULL
1687287359,48f0804868e57c530ab84fb197341331,PennController,14,0,experiment,NULL,PennController,13,_Header_,Start,1687287309402,613af0bd1ff8c576ff8cafbe,613af0bd1ff8c576ff8cafbe,11,beads,critical,D,50,beads40.jpg,beads60.jpg,high,NULL
1687287359,48f0804868e57c530ab84fb197341331,PennController,14,0,experiment,NULL,PennController,13,_Header_,End,1687287309402,613af0bd1ff8c576ff8cafbe,613af0bd1ff8c576ff8cafbe,11,beads,critical,D,50,beads40.jpg,beads60.jpg,high,NULL
1687287359,48f0804868e57c530ab84fb197341331,PennController,14,0,experiment,NULL,Canvas,canvas6,Print,NA,1687287316133,613af0bd1ff8c576ff8cafbe,613af0bd1ff8c576ff8cafbe,11,beads,critical,D,50,beads40.jpg,beads60.jpg,high,NULL
1687287359,48f0804868e57c530ab84fb197341331,PennController,14,0,experiment,NULL,Video,progression,buffer,0.0202,1687287312964,613af0bd1ff8c576ff8cafbe,613af0bd1ff8c576ff8cafbe,11,beads,critical,D,50,beads40.jpg,beads60.jpg,high,NULL
1687287359,48f0804868e57c530ab84fb197341331,PennController,14,0,experiment,NULL,Selector,choice,Selection,option2,1687287318124,613af0bd1ff8c576ff8cafbe,613af0bd1ff8c576ff8cafbe,11,beads,critical,D,50,beads40.jpg,beads60.jpg,high,option2;option1
1687287359,48f0804868e57c530ab84fb197341331,PennController,14,0,experiment,NULL,PennController,13,_Trial_,End,1687287318125,613af0bd1ff8c576ff8cafbe,613af0bd1ff8c576ff8cafbe,11,beads,critical,D,50,beads40.jpg,beads60.jpg,high,NULL
1687287359,48f0804868e57c530ab84fb197341331,PennController,28,0,experiment,NULL,PennController,27,_Trial_,Start,1687287318126,613af0bd1ff8c576ff8cafbe,613af0bd1ff8c576ff8cafbe,25,house,filler,D,25,house15.jpg,house35.jpg,GoalB,NULL
1687287359,48f0804868e57c530ab84fb197341331,PennController,28,0,experiment,NULL,PennController,27,_Header_,Start,1687287318126,613af0bd1ff8c576ff8cafbe,613af0bd1ff8c576ff8cafbe,25,house,filler,D,25,house15.jpg,house35.jpg,GoalB,NULL
1687287359,48f0804868e57c530ab84fb197341331,PennController,28,0,experiment,NULL,PennController,27,_Header_,End,1687287318126,613af0bd1ff8c576ff8cafbe,613af0bd1ff8c576ff8cafbe,25,house,filler,D,25,house15.jpg,house35.jpg,GoalB,NULL
1687287359,48f0804868e57c530ab84fb197341331,PennController,28,0,experiment,NULL,Canvas,canvas6,Print,NA,1687287323858,613af0bd1ff8c576ff8cafbe,613af0bd1ff8c576ff8cafbe,25,house,filler,D,25,house15.jpg,house35.jpg,GoalB,NULL
1687287359,48f0804868e57c530ab84fb197341331,PennController,28,0,experiment,NULL,Video,progression,buffer,0.018479,1687287321687,613af0bd1ff8c576ff8cafbe,613af0bd1ff8c576ff8cafbe,25,house,filler,D,25,house15.jpg,house35.jpg,GoalB,NULL
1687287359,48f0804868e57c530ab84fb197341331,PennController,28,0,experiment,NULL,Selector,choice,Selection,option2,1687287326800,613af0bd1ff8c576ff8cafbe,613af0bd1ff8c576ff8cafbe,25,house,filler,D,25,house15.jpg,house35.jpg,GoalB,option1;option2
1687287359,48f0804868e57c530ab84fb197341331,PennController,28,0,experiment,NULL,PennController,27,_Trial_,End,1687287326801,613af0bd1ff8c576ff8cafbe,613af0bd1ff8c576ff8cafbe,25,house,filler,D,25,house15.jpg,house35.jpg,GoalB,NULL
1687287359,48f0804868e57c530ab84fb197341331,PennController,23,0,experiment,NULL,PennController,22,_Trial_,Start,1687287326802,613af0bd1ff8c576ff8cafbe,613af0bd1ff8c576ff8cafbe,20,cat,filler,D,50,cat40.jpg,cat60.jpg,GoalA,NULL
1687287359,48f0804868e57c530ab84fb197341331,PennController,23,0,experiment,NULL,PennController,22,_Header_,Start,1687287326802,613af0bd1ff8c576ff8cafbe,613af0bd1ff8c576ff8cafbe,20,cat,filler,D,50,cat40.jpg,cat60.jpg,GoalA,NULL
1687287359,48f0804868e57c530ab84fb197341331,PennController,23,0,experiment,NULL,PennController,22,_Header_,End,1687287326802,613af0bd1ff8c576ff8cafbe,613af0bd1ff8c576ff8cafbe,20,cat,filler,D,50,cat40.jpg,cat60.jpg,GoalA,NULL
1687287359,48f0804868e57c530ab84fb197341331,PennController,23,0,experiment,NULL,Canvas,canvas6,Print,NA,1687287333527,613af0bd1ff8c576ff8cafbe,613af0bd1ff8c576ff8cafbe,20,cat,filler,D,50,cat40.jpg,cat60.jpg,GoalA,NULL
1687287359,48f0804868e57c530ab84fb197341331,PennController,23,0,experiment,NULL,Video,progression,buffer,0.009973,1687287330340,613af0bd1ff8c576ff8cafbe,613af0bd1ff8c576ff8cafbe,20,cat,filler,D,50,cat40.jpg,cat60.jpg,GoalA,NULL
1687287359,48f0804868e57c530ab84fb197341331,PennController,23,0,experiment,NULL,Selector,choice,Selection,option2,1687287334744,613af0bd1ff8c576ff8cafbe,613af0bd1ff8c576ff8cafbe,20,cat,filler,D,50,cat40.jpg,cat60.jpg,GoalA,option2;option1
1687287359,48f0804868e57c530ab84fb197341331,PennController,23,0,experiment,NULL,PennController,22,_Trial_,End,1687287334746,613af0bd1ff8c576ff8cafbe,613af0bd1ff8c576ff8cafbe,20,cat,filler,D,50,cat40.jpg,cat60.jpg,GoalA,NULL
1687287359,48f0804868e57c530ab84fb197341331,PennController,18,0,experiment,NULL,PennController,17,_Trial_,Start,1687287334747,613af0bd1ff8c576ff8cafbe,613af0bd1ff8c576ff8cafbe,15,zip,critical,D,75,zip65.jpg,zip85.jpg,high,NULL
1687287359,48f0804868e57c530ab84fb197341331,PennController,18,0,experiment,NULL,PennController,17,_Header_,Start,1687287334747,613af0bd1ff8c576ff8cafbe,613af0bd1ff8c576ff8cafbe,15,zip,critical,D,75,zip65.jpg,zip85.jpg,high,NULL
1687287359,48f0804868e57c530ab84fb197341331,PennController,18,0,experiment,NULL,PennController,17,_Header_,End,1687287334747,613af0bd1ff8c576ff8cafbe,613af0bd1ff8c576ff8cafbe,15,zip,critical,D,75,zip65.jpg,zip85.jpg,high,NULL
1687287359,48f0804868e57c530ab84fb197341331,PennController,18,0,experiment,NULL,Canvas,canvas6,Print,NA,1687287341675,613af0bd1ff8c576ff8cafbe,613af0bd1ff8c576ff8cafbe,15,zip,critical,D,75,zip65.jpg,zip85.jpg,high,NULL
1687287359,48f0804868e57c530ab84fb197341331,PennController,18,0,experiment,NULL,Video,progression,buffer,0.019087,1687287338308,613af0bd1ff8c576ff8cafbe,613af0bd1ff8c576ff8cafbe,15,zip,critical,D,75,zip65.jpg,zip85.jpg,high,NULL
1687287359,48f0804868e57c530ab84fb197341331,PennController,18,0,experiment,NULL,Selector,choice,Selection,option1,1687287343029,613af0bd1ff8c576ff8cafbe,613af0bd1ff8c576ff8cafbe,15,zip,critical,D,75,zip65.jpg,zip85.jpg,high,option2;option1
1687287359,48f0804868e57c530ab84fb197341331,PennController,18,0,experiment,NULL,PennController,17,_Trial_,End,1687287343030,613af0bd1ff8c576ff8cafbe,613af0bd1ff8c576ff8cafbe,15,zip,critical,D,75,zip65.jpg,zip85.jpg,high,NULL
1687287359,48f0804868e57c530ab84fb197341331,PennController,4,0,experiment,NULL,PennController,3,_Trial_,Start,1687287343031,613af0bd1ff8c576ff8cafbe,613af0bd1ff8c576ff8cafbe,1,vase,critical,D,25,vase15.jpg,vase35.jpg,high,NULL
1687287359,48f0804868e57c530ab84fb197341331,PennController,4,0,experiment,NULL,PennController,3,_Header_,Start,1687287343031,613af0bd1ff8c576ff8cafbe,613af0bd1ff8c576ff8cafbe,1,vase,critical,D,25,vase15.jpg,vase35.jpg,high,NULL
1687287359,48f0804868e57c530ab84fb197341331,PennController,4,0,experiment,NULL,PennController,3,_Header_,End,1687287343031,613af0bd1ff8c576ff8cafbe,613af0bd1ff8c576ff8cafbe,1,vase,critical,D,25,vase15.jpg,vase35.jpg,high,NULL
1687287359,48f0804868e57c530ab84fb197341331,PennController,4,0,experiment,NULL,Canvas,canvas6,Print,NA,1687287348751,613af0bd1ff8c576ff8cafbe,613af0bd1ff8c576ff8cafbe,1,vase,critical,D,25,vase15.jpg,vase35.jpg,high,NULL
1687287359,48f0804868e57c530ab84fb197341331,PennController,4,0,experiment,NULL,Video,progression,buffer,0.021322,1687287346590,613af0bd1ff8c576ff8cafbe,613af0bd1ff8c576ff8cafbe,1,vase,critical,D,25,vase15.jpg,vase35.jpg,high,NULL
1687287359,48f0804868e57c530ab84fb197341331,PennController,4,0,experiment,NULL,Selector,choice,Selection,option2,1687287349743,613af0bd1ff8c576ff8cafbe,613af0bd1ff8c576ff8cafbe,1,vase,critical,D,25,vase15.jpg,vase35.jpg,high,option1;option2
1687287359,48f0804868e57c530ab84fb197341331,PennController,4,0,experiment,NULL,PennController,3,_Trial_,End,1687287349744,613af0bd1ff8c576ff8cafbe,613af0bd1ff8c576ff8cafbe,1,vase,critical,D,25,vase15.jpg,vase35.jpg,high,NULL
1687287359,48f0804868e57c530ab84fb197341331,PennController,30,0,experiment,NULL,PennController,29,_Trial_,Start,1687287349745,613af0bd1ff8c576ff8cafbe,613af0bd1ff8c576ff8cafbe,27,square,filler,D,75,square65.jpg,square85.jpg,GoalB,NULL
1687287359,48f0804868e57c530ab84fb197341331,PennController,30,0,experiment,NULL,PennController,29,_Header_,Start,1687287349745,613af0bd1ff8c576ff8cafbe,613af0bd1ff8c576ff8cafbe,27,square,filler,D,75,square65.jpg,square85.jpg,GoalB,NULL
1687287359,48f0804868e57c530ab84fb197341331,PennController,30,0,experiment,NULL,PennController,29,_Header_,End,1687287349745,613af0bd1ff8c576ff8cafbe,613af0bd1ff8c576ff8cafbe,27,square,filler,D,75,square65.jpg,square85.jpg,GoalB,NULL
1687287359,48f0804868e57c530ab84fb197341331,PennController,30,0,experiment,NULL,Canvas,canvas6,Print,NA,1687287357470,613af0bd1ff8c576ff8cafbe,613af0bd1ff8c576ff8cafbe,27,square,filler,D,75,square65.jpg,square85.jpg,GoalB,NULL
1687287359,48f0804868e57c530ab84fb197341331,PennController,30,0,experiment,NULL,Video,progression,buffer,0.018768,1687287353312,613af0bd1ff8c576ff8cafbe,613af0bd1ff8c576ff8cafbe,27,square,filler,D,75,square65.jpg,square85.jpg,GoalB,NULL
1687287359,48f0804868e57c530ab84fb197341331,PennController,30,0,experiment,NULL,Selector,choice,Selection,option1,1687287358874,613af0bd1ff8c576ff8cafbe,613af0bd1ff8c576ff8cafbe,27,square,filler,D,75,square65.jpg,square85.jpg,GoalB,option2;option1
1687287359,48f0804868e57c530ab84fb197341331,PennController,30,0,experiment,NULL,PennController,29,_Trial_,End,1687287358875,613af0bd1ff8c576ff8cafbe,613af0bd1ff8c576ff8cafbe,27,square,filler,D,75,square65.jpg,square85.jpg,GoalB,NULL
