#
# Results on Tuesday June 20 2023 18:54:39 UTC
# USER AGENT: Mozilla/5.0 (Windows NT 10.0; Win64; x64) AppleWebKit/537.36 (KHTML, like Gecko) Chrome/104.0.0.0 Safari/537.36
# Design number was non-random = 3
#
# Columns below this comment are as follows:
# 1. Results reception time.
# 2. MD5 hash of participant's IP address.
# 3. Controller name.
# 4. Order number of item.
# 5. Inner element number.
# 6. Label.
# 7. Latin Square Group.
# 8. PennElementType.
# 9. PennElementName.
# 10. Parameter.
# 11. Value.
# 12. EventTime.
# 13. PROLIFIC_ID.
# 14. Comments.
1687287279,29b1e2bcd3136aae7425eff81807937f,PennController,2,0,consent,NULL,PennController,0,_Trial_,Start,1687287010635,605d66bc88696c667ac19d99,NULL
1687287279,29b1e2bcd3136aae7425eff81807937f,PennController,2,0,consent,NULL,PennController,0,_Header_,Start,1687287010635,605d66bc88696c667ac19d99,NULL
1687287279,29b1e2bcd3136aae7425eff81807937f,PennController,2,0,consent,NULL,PennController,0,_Header_,End,1687287010635,605d66bc88696c667ac19d99,NULL
1687287279,29b1e2bcd3136aae7425eff81807937f,PennController,2,0,consent,NULL,PennController,0,_Trial_,End,1687287021677,605d66bc88696c667ac19d99,NULL
# Columns below this comment are as follows:
# 14. ID.
# 15. Comments.
1687287279,29b1e2bcd3136aae7425eff81807937f,PennController,3,0,intro,NULL,PennController,1,_Trial_,Start,1687287021682,605d66bc88696c667ac19d99,605d66bc88696c667ac19d99,NULL
1687287279,29b1e2bcd3136aae7425eff81807937f,PennController,3,0,intro,NULL,PennController,1,_Header_,Start,1687287021682,605d66bc88696c667ac19d99,605d66bc88696c667ac19d99,NULL
1687287279,29b1e2bcd3136aae7425eff81807937f,PennController,3,0,intro,NULL,PennController,1,_Header_,End,1687287021682,605d66bc88696c667ac19d99,605d66bc88696c667ac19d99,NULL
1687287279,29b1e2bcd3136aae7425eff81807937f,PennController,3,0,intro,NULL,PennController,1,_Trial_,End,1687287037161,605d66bc88696c667ac19d99,605d66bc88696c667ac19d99,NULL
# Columns below this comment are as follows:
# 15. item_number.
# 16. item.
# 17. type.
# 18. Group.
# 19. prog.
# 20. prev_image.
# 21. next_image.
# 22. height.
# 23. Comments.
1687287279,29b1e2bcd3136aae7425eff81807937f,PennController,30,0,experiment,NULL,PennController,29,_Trial_,Start,1687287037163,605d66bc88696c667ac19d99,605d66bc88696c667ac19d99,27,square,filler,D,75,square65.jpg,square85.jpg,GoalB,NULL
1687287279,29b1e2bcd3136aae7425eff81807937f,PennController,30,0,experiment,NULL,PennController,29,_Header_,Start,1687287037163,605d66bc88696c667ac19d99,605d66bc88696c667ac19d99,27,square,filler,D,75,square65.jpg,square85.jpg,GoalB,NULL
1687287279,29b1e2bcd3136aae7425eff81807937f,PennController,30,0,experiment,NULL,PennController,29,_Header_,End,1687287037163,605d66bc88696c667ac19d99,605d66bc88696c667ac19d99,27,square,filler,D,75,square65.jpg,square85.jpg,GoalB,NULL
1687287279,29b1e2bcd3136aae7425eff81807937f,PennController,30,0,experiment,NULL,Canvas,canvas6,Print,NA,1687287044871,605d66bc88696c667ac19d99,605d66bc88696c667ac19d99,27,square,filler,D,75,square65.jpg,square85.jpg,GoalB,NULL
1687287279,29b1e2bcd3136aae7425eff81807937f,PennController,30,0,experiment,NULL,Video,progression,buffer,0.003899,1687287040697,605d66bc88696c667ac19d99,605d66bc88696c667ac19d99,27,square,filler,D,75,square65.jpg,square85.jpg,GoalB,NULL
1687287279,29b1e2bcd3136aae7425eff81807937f,PennController,30,0,experiment,NULL,Selector,choice,Selection,option1,1687287049569,605d66bc88696c667ac19d99,605d66bc88696c667ac19d99,27,square,filler,D,75,square65.jpg,square85.jpg,GoalB,option2;option1
1687287279,29b1e2bcd3136aae7425eff81807937f,PennController,30,0,experiment,NULL,PennController,29,_Trial_,End,1687287049571,605d66bc88696c667ac19d99,605d66bc88696c667ac19d99,27,square,filler,D,75,square65.jpg,square85.jpg,GoalB,NULL
1687287279,29b1e2bcd3136aae7425eff81807937f,PennController,17,0,experiment,NULL,PennController,16,_Trial_,Start,1687287049573,605d66bc88696c667ac19d99,605d66bc88696c667ac19d99,14,cover,critical,D,50,cover42.jpg,cover60.jpg,high,NULL
1687287279,29b1e2bcd3136aae7425eff81807937f,PennController,17,0,experiment,NULL,PennController,16,_Header_,Start,1687287049573,605d66bc88696c667ac19d99,605d66bc88696c667ac19d99,14,cover,critical,D,50,cover42.jpg,cover60.jpg,high,NULL
1687287279,29b1e2bcd3136aae7425eff81807937f,PennController,17,0,experiment,NULL,PennController,16,_Header_,End,1687287049573,605d66bc88696c667ac19d99,605d66bc88696c667ac19d99,14,cover,critical,D,50,cover42.jpg,cover60.jpg,high,NULL
1687287279,29b1e2bcd3136aae7425eff81807937f,PennController,17,0,experiment,NULL,Canvas,canvas6,Print,NA,1687287057656,605d66bc88696c667ac19d99,605d66bc88696c667ac19d99,14,cover,critical,D,50,cover42.jpg,cover60.jpg,high,NULL
1687287279,29b1e2bcd3136aae7425eff81807937f,PennController,17,0,experiment,NULL,Video,progression,buffer,0.002806,1687287053093,605d66bc88696c667ac19d99,605d66bc88696c667ac19d99,14,cover,critical,D,50,cover42.jpg,cover60.jpg,high,NULL
1687287279,29b1e2bcd3136aae7425eff81807937f,PennController,17,0,experiment,NULL,Selector,choice,Selection,option1,1687287058675,605d66bc88696c667ac19d99,605d66bc88696c667ac19d99,14,cover,critical,D,50,cover42.jpg,cover60.jpg,high,option2;option1
1687287279,29b1e2bcd3136aae7425eff81807937f,PennController,17,0,experiment,NULL,PennController,16,_Trial_,End,1687287058676,605d66bc88696c667ac19d99,605d66bc88696c667ac19d99,14,cover,critical,D,50,cover42.jpg,cover60.jpg,high,NULL
1687287279,29b1e2bcd3136aae7425eff81807937f,PennController,29,0,experiment,NULL,PennController,28,_Trial_,Start,1687287058678,605d66bc88696c667ac19d99,605d66bc88696c667ac19d99,26,sandwich,filler,D,50,sandwich40.jpg,sandwich60.jpg,GoalA,NULL
1687287279,29b1e2bcd3136aae7425eff81807937f,PennController,29,0,experiment,NULL,PennController,28,_Header_,Start,1687287058678,605d66bc88696c667ac19d99,605d66bc88696c667ac19d99,26,sandwich,filler,D,50,sandwich40.jpg,sandwich60.jpg,GoalA,NULL
1687287279,29b1e2bcd3136aae7425eff81807937f,PennController,29,0,experiment,NULL,PennController,28,_Header_,End,1687287058678,605d66bc88696c667ac19d99,605d66bc88696c667ac19d99,26,sandwich,filler,D,50,sandwich40.jpg,sandwich60.jpg,GoalA,NULL
1687287279,29b1e2bcd3136aae7425eff81807937f,PennController,29,0,experiment,NULL,Canvas,canvas6,Print,NA,1687287065361,605d66bc88696c667ac19d99,605d66bc88696c667ac19d99,26,sandwich,filler,D,50,sandwich40.jpg,sandwich60.jpg,GoalA,NULL
1687287279,29b1e2bcd3136aae7425eff81807937f,PennController,29,0,experiment,NULL,Video,progression,buffer,0.004418,1687287062204,605d66bc88696c667ac19d99,605d66bc88696c667ac19d99,26,sandwich,filler,D,50,sandwich40.jpg,sandwich60.jpg,GoalA,NULL
1687287279,29b1e2bcd3136aae7425eff81807937f,PennController,29,0,experiment,NULL,Selector,choice,Selection,option1,1687287066891,605d66bc88696c667ac19d99,605d66bc88696c667ac19d99,26,sandwich,filler,D,50,sandwich40.jpg,sandwich60.jpg,GoalA,option1;option2
1687287279,29b1e2bcd3136aae7425eff81807937f,PennController,29,0,experiment,NULL,PennController,28,_Trial_,End,1687287066892,605d66bc88696c667ac19d99,605d66bc88696c667ac19d99,26,sandwich,filler,D,50,sandwich40.jpg,sandwich60.jpg,GoalA,NULL
1687287279,29b1e2bcd3136aae7425eff81807937f,PennController,13,0,experiment,NULL,PennController,12,_Trial_,Start,1687287066894,605d66bc88696c667ac19d99,605d66bc88696c667ac19d99,10,train,critical,D,25,train15.jpg,train35.jpg,high,NULL
1687287279,29b1e2bcd3136aae7425eff81807937f,PennController,13,0,experiment,NULL,PennController,12,_Header_,Start,1687287066894,605d66bc88696c667ac19d99,605d66bc88696c667ac19d99,10,train,critical,D,25,train15.jpg,train35.jpg,high,NULL
1687287279,29b1e2bcd3136aae7425eff81807937f,PennController,13,0,experiment,NULL,PennController,12,_Header_,End,1687287066894,605d66bc88696c667ac19d99,605d66bc88696c667ac19d99,10,train,critical,D,25,train15.jpg,train35.jpg,high,NULL
1687287279,29b1e2bcd3136aae7425eff81807937f,PennController,13,0,experiment,NULL,Canvas,canvas6,Print,NA,1687287072583,605d66bc88696c667ac19d99,605d66bc88696c667ac19d99,10,train,critical,D,25,train15.jpg,train35.jpg,high,NULL
1687287279,29b1e2bcd3136aae7425eff81807937f,PennController,13,0,experiment,NULL,Video,progression,buffer,0.003379,1687287070418,605d66bc88696c667ac19d99,605d66bc88696c667ac19d99,10,train,critical,D,25,train15.jpg,train35.jpg,high,NULL
1687287279,29b1e2bcd3136aae7425eff81807937f,PennController,13,0,experiment,NULL,Selector,choice,Selection,option2,1687287075029,605d66bc88696c667ac19d99,605d66bc88696c667ac19d99,10,train,critical,D,25,train15.jpg,train35.jpg,high,option2;option1
1687287279,29b1e2bcd3136aae7425eff81807937f,PennController,13,0,experiment,NULL,PennController,12,_Trial_,End,1687287075031,605d66bc88696c667ac19d99,605d66bc88696c667ac19d99,10,train,critical,D,25,train15.jpg,train35.jpg,high,NULL
1687287279,29b1e2bcd3136aae7425eff81807937f,PennController,5,0,experiment,NULL,PennController,4,_Trial_,Start,1687287075032,605d66bc88696c667ac19d99,605d66bc88696c667ac19d99,2,door,critical,D,50,door40.jpg,door60.jpg,high,NULL
1687287279,29b1e2bcd3136aae7425eff81807937f,PennController,5,0,experiment,NULL,PennController,4,_Header_,Start,1687287075032,605d66bc88696c667ac19d99,605d66bc88696c667ac19d99,2,door,critical,D,50,door40.jpg,door60.jpg,high,NULL
1687287279,29b1e2bcd3136aae7425eff81807937f,PennController,5,0,experiment,NULL,PennController,4,_Header_,End,1687287075032,605d66bc88696c667ac19d99,605d66bc88696c667ac19d99,2,door,critical,D,50,door40.jpg,door60.jpg,high,NULL
1687287279,29b1e2bcd3136aae7425eff81807937f,PennController,5,0,experiment,NULL,Canvas,canvas6,Print,NA,1687287081716,605d66bc88696c667ac19d99,605d66bc88696c667ac19d99,2,door,critical,D,50,door40.jpg,door60.jpg,high,NULL
1687287279,29b1e2bcd3136aae7425eff81807937f,PennController,5,0,experiment,NULL,Video,progression,buffer,0.005238,1687287078558,605d66bc88696c667ac19d99,605d66bc88696c667ac19d99,2,door,critical,D,50,door40.jpg,door60.jpg,high,NULL
1687287279,29b1e2bcd3136aae7425eff81807937f,PennController,5,0,experiment,NULL,Selector,choice,Selection,option2,1687287083577,605d66bc88696c667ac19d99,605d66bc88696c667ac19d99,2,door,critical,D,50,door40.jpg,door60.jpg,high,option1;option2
1687287279,29b1e2bcd3136aae7425eff81807937f,PennController,5,0,experiment,NULL,PennController,4,_Trial_,End,1687287083579,605d66bc88696c667ac19d99,605d66bc88696c667ac19d99,2,door,critical,D,50,door40.jpg,door60.jpg,high,NULL
1687287279,29b1e2bcd3136aae7425eff81807937f,PennController,4,0,experiment,NULL,PennController,3,_Trial_,Start,1687287083583,605d66bc88696c667ac19d99,605d66bc88696c667ac19d99,1,vase,critical,D,25,vase15.jpg,vase35.jpg,high,NULL
1687287279,29b1e2bcd3136aae7425eff81807937f,PennController,4,0,experiment,NULL,PennController,3,_Header_,Start,1687287083583,605d66bc88696c667ac19d99,605d66bc88696c667ac19d99,1,vase,critical,D,25,vase15.jpg,vase35.jpg,high,NULL
1687287279,29b1e2bcd3136aae7425eff81807937f,PennController,4,0,experiment,NULL,PennController,3,_Header_,End,1687287083583,605d66bc88696c667ac19d99,605d66bc88696c667ac19d99,1,vase,critical,D,25,vase15.jpg,vase35.jpg,high,NULL
1687287279,29b1e2bcd3136aae7425eff81807937f,PennController,4,0,experiment,NULL,Canvas,canvas6,Print,NA,1687287089270,605d66bc88696c667ac19d99,605d66bc88696c667ac19d99,1,vase,critical,D,25,vase15.jpg,vase35.jpg,high,NULL
1687287279,29b1e2bcd3136aae7425eff81807937f,PennController,4,0,experiment,NULL,Video,progression,buffer,0.002734,1687287087111,605d66bc88696c667ac19d99,605d66bc88696c667ac19d99,1,vase,critical,D,25,vase15.jpg,vase35.jpg,high,NULL
1687287279,29b1e2bcd3136aae7425eff81807937f,PennController,4,0,experiment,NULL,Selector,choice,Selection,option2,1687287090536,605d66bc88696c667ac19d99,605d66bc88696c667ac19d99,1,vase,critical,D,25,vase15.jpg,vase35.jpg,high,option1;option2
1687287279,29b1e2bcd3136aae7425eff81807937f,PennController,4,0,experiment,NULL,PennController,3,_Trial_,End,1687287090538,605d66bc88696c667ac19d99,605d66bc88696c667ac19d99,1,vase,critical,D,25,vase15.jpg,vase35.jpg,high,NULL
1687287279,29b1e2bcd3136aae7425eff81807937f,PennController,18,0,experiment,NULL,PennController,17,_Trial_,Start,1687287090540,605d66bc88696c667ac19d99,605d66bc88696c667ac19d99,15,zip,critical,D,75,zip65.jpg,zip85.jpg,high,NULL
1687287279,29b1e2bcd3136aae7425eff81807937f,PennController,18,0,experiment,NULL,PennController,17,_Header_,Start,1687287090540,605d66bc88696c667ac19d99,605d66bc88696c667ac19d99,15,zip,critical,D,75,zip65.jpg,zip85.jpg,high,NULL
1687287279,29b1e2bcd3136aae7425eff81807937f,PennController,18,0,experiment,NULL,PennController,17,_Header_,End,1687287090540,605d66bc88696c667ac19d99,605d66bc88696c667ac19d99,15,zip,critical,D,75,zip65.jpg,zip85.jpg,high,NULL
1687287279,29b1e2bcd3136aae7425eff81807937f,PennController,18,0,experiment,NULL,Canvas,canvas6,Print,NA,1687287097431,605d66bc88696c667ac19d99,605d66bc88696c667ac19d99,15,zip,critical,D,75,zip65.jpg,zip85.jpg,high,NULL
1687287279,29b1e2bcd3136aae7425eff81807937f,PennController,18,0,experiment,NULL,Video,progression,buffer,0.002899,1687287094066,605d66bc88696c667ac19d99,605d66bc88696c667ac19d99,15,zip,critical,D,75,zip65.jpg,zip85.jpg,high,NULL
1687287279,29b1e2bcd3136aae7425eff81807937f,PennController,18,0,experiment,NULL,Selector,choice,Selection,option1,1687287099094,605d66bc88696c667ac19d99,605d66bc88696c667ac19d99,15,zip,critical,D,75,zip65.jpg,zip85.jpg,high,option2;option1
1687287279,29b1e2bcd3136aae7425eff81807937f,PennController,18,0,experiment,NULL,PennController,17,_Trial_,End,1687287099096,605d66bc88696c667ac19d99,605d66bc88696c667ac19d99,15,zip,critical,D,75,zip65.jpg,zip85.jpg,high,NULL
1687287279,29b1e2bcd3136aae7425eff81807937f,PennController,7,0,experiment,NULL,PennController,6,_Trial_,Start,1687287099098,605d66bc88696c667ac19d99,605d66bc88696c667ac19d99,4,candy,critical,D,25,candy15.jpg,candy35.jpg,high,NULL
1687287279,29b1e2bcd3136aae7425eff81807937f,PennController,7,0,experiment,NULL,PennController,6,_Header_,Start,1687287099098,605d66bc88696c667ac19d99,605d66bc88696c667ac19d99,4,candy,critical,D,25,candy15.jpg,candy35.jpg,high,NULL
1687287279,29b1e2bcd3136aae7425eff81807937f,PennController,7,0,experiment,NULL,PennController,6,_Header_,End,1687287099099,605d66bc88696c667ac19d99,605d66bc88696c667ac19d99,4,candy,critical,D,25,candy15.jpg,candy35.jpg,high,NULL
1687287279,29b1e2bcd3136aae7425eff81807937f,PennController,7,0,experiment,NULL,Canvas,canvas6,Print,NA,1687287104787,605d66bc88696c667ac19d99,605d66bc88696c667ac19d99,4,candy,critical,D,25,candy15.jpg,candy35.jpg,high,NULL
1687287279,29b1e2bcd3136aae7425eff81807937f,PennController,7,0,experiment,NULL,Video,progression,buffer,0.003493,1687287102622,605d66bc88696c667ac19d99,605d66bc88696c667ac19d99,4,candy,critical,D,25,candy15.jpg,candy35.jpg,high,NULL
1687287279,29b1e2bcd3136aae7425eff81807937f,PennController,7,0,experiment,NULL,Selector,choice,Selection,option2,1687287105904,605d66bc88696c667ac19d99,605d66bc88696c667ac19d99,4,candy,critical,D,25,candy15.jpg,candy35.jpg,high,option1;option2
1687287279,29b1e2bcd3136aae7425eff81807937f,PennController,7,0,experiment,NULL,PennController,6,_Trial_,End,1687287105906,605d66bc88696c667ac19d99,605d66bc88696c667ac19d99,4,candy,critical,D,25,candy15.jpg,candy35.jpg,high,NULL
1687287279,29b1e2bcd3136aae7425eff81807937f,PennController,12,0,experiment,NULL,PennController,11,_Trial_,Start,1687287105908,605d66bc88696c667ac19d99,605d66bc88696c667ac19d99,9,cake,critical,D,75,cake66.jpg,cake84.jpg,high,NULL
1687287279,29b1e2bcd3136aae7425eff81807937f,PennController,12,0,experiment,NULL,PennController,11,_Header_,Start,1687287105908,605d66bc88696c667ac19d99,605d66bc88696c667ac19d99,9,cake,critical,D,75,cake66.jpg,cake84.jpg,high,NULL
1687287279,29b1e2bcd3136aae7425eff81807937f,PennController,12,0,experiment,NULL,PennController,11,_Header_,End,1687287105908,605d66bc88696c667ac19d99,605d66bc88696c667ac19d99,9,cake,critical,D,75,cake66.jpg,cake84.jpg,high,NULL
1687287279,29b1e2bcd3136aae7425eff81807937f,PennController,12,0,experiment,NULL,Canvas,canvas6,Print,NA,1687287115602,605d66bc88696c667ac19d99,605d66bc88696c667ac19d99,9,cake,critical,D,75,cake66.jpg,cake84.jpg,high,NULL
1687287279,29b1e2bcd3136aae7425eff81807937f,PennController,12,0,experiment,NULL,Video,progression,buffer,0.00259,1687287109433,605d66bc88696c667ac19d99,605d66bc88696c667ac19d99,9,cake,critical,D,75,cake66.jpg,cake84.jpg,high,NULL
1687287279,29b1e2bcd3136aae7425eff81807937f,PennController,12,0,experiment,NULL,Selector,choice,Selection,option1,1687287116948,605d66bc88696c667ac19d99,605d66bc88696c667ac19d99,9,cake,critical,D,75,cake66.jpg,cake84.jpg,high,option1;option2
1687287279,29b1e2bcd3136aae7425eff81807937f,PennController,12,0,experiment,NULL,PennController,11,_Trial_,End,1687287116950,605d66bc88696c667ac19d99,605d66bc88696c667ac19d99,9,cake,critical,D,75,cake66.jpg,cake84.jpg,high,NULL
1687287279,29b1e2bcd3136aae7425eff81807937f,PennController,27,0,experiment,NULL,PennController,26,_Trial_,Start,1687287116952,605d66bc88696c667ac19d99,605d66bc88696c667ac19d99,24,match,filler,D,75,match65.jpg,match85.jpg,GoalA,NULL
1687287279,29b1e2bcd3136aae7425eff81807937f,PennController,27,0,experiment,NULL,PennController,26,_Header_,Start,1687287116952,605d66bc88696c667ac19d99,605d66bc88696c667ac19d99,24,match,filler,D,75,match65.jpg,match85.jpg,GoalA,NULL
1687287279,29b1e2bcd3136aae7425eff81807937f,PennController,27,0,experiment,NULL,PennController,26,_Header_,End,1687287116953,605d66bc88696c667ac19d99,605d66bc88696c667ac19d99,24,match,filler,D,75,match65.jpg,match85.jpg,GoalA,NULL
1687287279,29b1e2bcd3136aae7425eff81807937f,PennController,27,0,experiment,NULL,Canvas,canvas6,Print,NA,1687287124639,605d66bc88696c667ac19d99,605d66bc88696c667ac19d99,24,match,filler,D,75,match65.jpg,match85.jpg,GoalA,NULL
1687287279,29b1e2bcd3136aae7425eff81807937f,PennController,27,0,experiment,NULL,Video,progression,buffer,0.004241,1687287120481,605d66bc88696c667ac19d99,605d66bc88696c667ac19d99,24,match,filler,D,75,match65.jpg,match85.jpg,GoalA,NULL
1687287279,29b1e2bcd3136aae7425eff81807937f,PennController,27,0,experiment,NULL,Selector,choice,Selection,option1,1687287125832,605d66bc88696c667ac19d99,605d66bc88696c667ac19d99,24,match,filler,D,75,match65.jpg,match85.jpg,GoalA,option2;option1
1687287279,29b1e2bcd3136aae7425eff81807937f,PennController,27,0,experiment,NULL,PennController,26,_Trial_,End,1687287125833,605d66bc88696c667ac19d99,605d66bc88696c667ac19d99,24,match,filler,D,75,match65.jpg,match85.jpg,GoalA,NULL
1687287279,29b1e2bcd3136aae7425eff81807937f,PennController,25,0,experiment,NULL,PennController,24,_Trial_,Start,1687287125834,605d66bc88696c667ac19d99,605d66bc88696c667ac19d99,22,wall,filler,D,25,wall15.jpg,wall35.jpg,GoalA,NULL
1687287279,29b1e2bcd3136aae7425eff81807937f,PennController,25,0,experiment,NULL,PennController,24,_Header_,Start,1687287125834,605d66bc88696c667ac19d99,605d66bc88696c667ac19d99,22,wall,filler,D,25,wall15.jpg,wall35.jpg,GoalA,NULL
1687287279,29b1e2bcd3136aae7425eff81807937f,PennController,25,0,experiment,NULL,PennController,24,_Header_,End,1687287125834,605d66bc88696c667ac19d99,605d66bc88696c667ac19d99,22,wall,filler,D,25,wall15.jpg,wall35.jpg,GoalA,NULL
1687287279,29b1e2bcd3136aae7425eff81807937f,PennController,25,0,experiment,NULL,Canvas,canvas6,Print,NA,1687287131515,605d66bc88696c667ac19d99,605d66bc88696c667ac19d99,22,wall,filler,D,25,wall15.jpg,wall35.jpg,GoalA,NULL
1687287279,29b1e2bcd3136aae7425eff81807937f,PennController,25,0,experiment,NULL,Video,progression,buffer,0.004954,1687287129359,605d66bc88696c667ac19d99,605d66bc88696c667ac19d99,22,wall,filler,D,25,wall15.jpg,wall35.jpg,GoalA,NULL
1687287279,29b1e2bcd3136aae7425eff81807937f,PennController,25,0,experiment,NULL,Selector,choice,Selection,option2,1687287132970,605d66bc88696c667ac19d99,605d66bc88696c667ac19d99,22,wall,filler,D,25,wall15.jpg,wall35.jpg,GoalA,option2;option1
1687287279,29b1e2bcd3136aae7425eff81807937f,PennController,25,0,experiment,NULL,PennController,24,_Trial_,End,1687287132972,605d66bc88696c667ac19d99,605d66bc88696c667ac19d99,22,wall,filler,D,25,wall15.jpg,wall35.jpg,GoalA,NULL
1687287279,29b1e2bcd3136aae7425eff81807937f,PennController,28,0,experiment,NULL,PennController,27,_Trial_,Start,1687287132974,605d66bc88696c667ac19d99,605d66bc88696c667ac19d99,25,house,filler,D,25,house15.jpg,house35.jpg,GoalB,NULL
1687287279,29b1e2bcd3136aae7425eff81807937f,PennController,28,0,experiment,NULL,PennController,27,_Header_,Start,1687287132974,605d66bc88696c667ac19d99,605d66bc88696c667ac19d99,25,house,filler,D,25,house15.jpg,house35.jpg,GoalB,NULL
1687287279,29b1e2bcd3136aae7425eff81807937f,PennController,28,0,experiment,NULL,PennController,27,_Header_,End,1687287132974,605d66bc88696c667ac19d99,605d66bc88696c667ac19d99,25,house,filler,D,25,house15.jpg,house35.jpg,GoalB,NULL
1687287279,29b1e2bcd3136aae7425eff81807937f,PennController,28,0,experiment,NULL,Canvas,canvas6,Print,NA,1687287138654,605d66bc88696c667ac19d99,605d66bc88696c667ac19d99,25,house,filler,D,25,house15.jpg,house35.jpg,GoalB,NULL
1687287279,29b1e2bcd3136aae7425eff81807937f,PennController,28,0,experiment,NULL,Video,progression,buffer,0.002308,1687287136494,605d66bc88696c667ac19d99,605d66bc88696c667ac19d99,25,house,filler,D,25,house15.jpg,house35.jpg,GoalB,NULL
1687287279,29b1e2bcd3136aae7425eff81807937f,PennController,28,0,experiment,NULL,Selector,choice,Selection,option2,1687287140130,605d66bc88696c667ac19d99,605d66bc88696c667ac19d99,25,house,filler,D,25,house15.jpg,house35.jpg,GoalB,option2;option1
1687287279,29b1e2bcd3136aae7425eff81807937f,PennController,28,0,experiment,NULL,PennController,27,_Trial_,End,1687287140131,605d66bc88696c667ac19d99,605d66bc88696c667ac19d99,25,house,filler,D,25,house15.jpg,house35.jpg,GoalB,NULL
1687287279,29b1e2bcd3136aae7425eff81807937f,PennController,19,0,experiment,NULL,PennController,18,_Trial_,Start,1687287140132,605d66bc88696c667ac19d99,605d66bc88696c667ac19d99,16,blinds,critical,D,25,blinds15.jpg,blinds33.jpg,high,NULL
1687287279,29b1e2bcd3136aae7425eff81807937f,PennController,19,0,experiment,NULL,PennController,18,_Header_,Start,1687287140132,605d66bc88696c667ac19d99,605d66bc88696c667ac19d99,16,blinds,critical,D,25,blinds15.jpg,blinds33.jpg,high,NULL
1687287279,29b1e2bcd3136aae7425eff81807937f,PennController,19,0,experiment,NULL,PennController,18,_Header_,End,1687287140132,605d66bc88696c667ac19d99,605d66bc88696c667ac19d99,16,blinds,critical,D,25,blinds15.jpg,blinds33.jpg,high,NULL
1687287279,29b1e2bcd3136aae7425eff81807937f,PennController,19,0,experiment,NULL,Canvas,canvas6,Print,NA,1687287146419,605d66bc88696c667ac19d99,605d66bc88696c667ac19d99,16,blinds,critical,D,25,blinds15.jpg,blinds33.jpg,high,NULL
1687287279,29b1e2bcd3136aae7425eff81807937f,PennController,19,0,experiment,NULL,Video,progression,buffer,0.004255,1687287143658,605d66bc88696c667ac19d99,605d66bc88696c667ac19d99,16,blinds,critical,D,25,blinds15.jpg,blinds33.jpg,high,NULL
1687287279,29b1e2bcd3136aae7425eff81807937f,PennController,19,0,experiment,NULL,Selector,choice,Selection,option2,1687287148905,605d66bc88696c667ac19d99,605d66bc88696c667ac19d99,16,blinds,critical,D,25,blinds15.jpg,blinds33.jpg,high,option2;option1
1687287279,29b1e2bcd3136aae7425eff81807937f,PennController,19,0,experiment,NULL,PennController,18,_Trial_,End,1687287148907,605d66bc88696c667ac19d99,605d66bc88696c667ac19d99,16,blinds,critical,D,25,blinds15.jpg,blinds33.jpg,high,NULL
1687287279,29b1e2bcd3136aae7425eff81807937f,PennController,26,0,experiment,NULL,PennController,25,_Trial_,Start,1687287148908,605d66bc88696c667ac19d99,605d66bc88696c667ac19d99,23,color,filler,D,50,color40.jpg,color60.jpg,GoalB,NULL
1687287279,29b1e2bcd3136aae7425eff81807937f,PennController,26,0,experiment,NULL,PennController,25,_Header_,Start,1687287148908,605d66bc88696c667ac19d99,605d66bc88696c667ac19d99,23,color,filler,D,50,color40.jpg,color60.jpg,GoalB,NULL
1687287279,29b1e2bcd3136aae7425eff81807937f,PennController,26,0,experiment,NULL,PennController,25,_Header_,End,1687287148908,605d66bc88696c667ac19d99,605d66bc88696c667ac19d99,23,color,filler,D,50,color40.jpg,color60.jpg,GoalB,NULL
1687287279,29b1e2bcd3136aae7425eff81807937f,PennController,26,0,experiment,NULL,Canvas,canvas6,Print,NA,1687287155593,605d66bc88696c667ac19d99,605d66bc88696c667ac19d99,23,color,filler,D,50,color40.jpg,color60.jpg,GoalB,NULL
1687287279,29b1e2bcd3136aae7425eff81807937f,PennController,26,0,experiment,NULL,Video,progression,buffer,0.003573,1687287152432,605d66bc88696c667ac19d99,605d66bc88696c667ac19d99,23,color,filler,D,50,color40.jpg,color60.jpg,GoalB,NULL
1687287279,29b1e2bcd3136aae7425eff81807937f,PennController,26,0,experiment,NULL,Selector,choice,Selection,option2,1687287156974,605d66bc88696c667ac19d99,605d66bc88696c667ac19d99,23,color,filler,D,50,color40.jpg,color60.jpg,GoalB,option1;option2
1687287279,29b1e2bcd3136aae7425eff81807937f,PennController,26,0,experiment,NULL,PennController,25,_Trial_,End,1687287156976,605d66bc88696c667ac19d99,605d66bc88696c667ac19d99,23,color,filler,D,50,color40.jpg,color60.jpg,GoalB,NULL
1687287279,29b1e2bcd3136aae7425eff81807937f,PennController,22,0,experiment,NULL,PennController,21,_Trial_,Start,1687287156978,605d66bc88696c667ac19d99,605d66bc88696c667ac19d99,19,cup,filler,D,25,cup15.jpg,cup35.jpg,GoalB,NULL
1687287279,29b1e2bcd3136aae7425eff81807937f,PennController,22,0,experiment,NULL,PennController,21,_Header_,Start,1687287156978,605d66bc88696c667ac19d99,605d66bc88696c667ac19d99,19,cup,filler,D,25,cup15.jpg,cup35.jpg,GoalB,NULL
1687287279,29b1e2bcd3136aae7425eff81807937f,PennController,22,0,experiment,NULL,PennController,21,_Header_,End,1687287156978,605d66bc88696c667ac19d99,605d66bc88696c667ac19d99,19,cup,filler,D,25,cup15.jpg,cup35.jpg,GoalB,NULL
1687287279,29b1e2bcd3136aae7425eff81807937f,PennController,22,0,experiment,NULL,Canvas,canvas6,Print,NA,1687287162669,605d66bc88696c667ac19d99,605d66bc88696c667ac19d99,19,cup,filler,D,25,cup15.jpg,cup35.jpg,GoalB,NULL
1687287279,29b1e2bcd3136aae7425eff81807937f,PennController,22,0,experiment,NULL,Video,progression,buffer,0.00366,1687287160498,605d66bc88696c667ac19d99,605d66bc88696c667ac19d99,19,cup,filler,D,25,cup15.jpg,cup35.jpg,GoalB,NULL
1687287279,29b1e2bcd3136aae7425eff81807937f,PennController,22,0,experiment,NULL,Selector,choice,Selection,option2,1687287163568,605d66bc88696c667ac19d99,605d66bc88696c667ac19d99,19,cup,filler,D,25,cup15.jpg,cup35.jpg,GoalB,option1;option2
1687287279,29b1e2bcd3136aae7425eff81807937f,PennController,22,0,experiment,NULL,PennController,21,_Trial_,End,1687287163570,605d66bc88696c667ac19d99,605d66bc88696c667ac19d99,19,cup,filler,D,25,cup15.jpg,cup35.jpg,GoalB,NULL
1687287279,29b1e2bcd3136aae7425eff81807937f,PennController,16,0,experiment,NULL,PennController,15,_Trial_,Start,1687287163572,605d66bc88696c667ac19d99,605d66bc88696c667ac19d99,13,mix,critical,D,25,mix15.jpg,mix35.jpg,high,NULL
1687287279,29b1e2bcd3136aae7425eff81807937f,PennController,16,0,experiment,NULL,PennController,15,_Header_,Start,1687287163572,605d66bc88696c667ac19d99,605d66bc88696c667ac19d99,13,mix,critical,D,25,mix15.jpg,mix35.jpg,high,NULL
1687287279,29b1e2bcd3136aae7425eff81807937f,PennController,16,0,experiment,NULL,PennController,15,_Header_,End,1687287163572,605d66bc88696c667ac19d99,605d66bc88696c667ac19d99,13,mix,critical,D,25,mix15.jpg,mix35.jpg,high,NULL
1687287279,29b1e2bcd3136aae7425eff81807937f,PennController,16,0,experiment,NULL,Canvas,canvas6,Print,NA,1687287169260,605d66bc88696c667ac19d99,605d66bc88696c667ac19d99,13,mix,critical,D,25,mix15.jpg,mix35.jpg,high,NULL
1687287279,29b1e2bcd3136aae7425eff81807937f,PennController,16,0,experiment,NULL,Video,progression,buffer,0.002413,1687287167096,605d66bc88696c667ac19d99,605d66bc88696c667ac19d99,13,mix,critical,D,25,mix15.jpg,mix35.jpg,high,NULL
1687287279,29b1e2bcd3136aae7425eff81807937f,PennController,16,0,experiment,NULL,Selector,choice,Selection,option1,1687287170070,605d66bc88696c667ac19d99,605d66bc88696c667ac19d99,13,mix,critical,D,25,mix15.jpg,mix35.jpg,high,option2;option1
1687287279,29b1e2bcd3136aae7425eff81807937f,PennController,16,0,experiment,NULL,PennController,15,_Trial_,End,1687287170071,605d66bc88696c667ac19d99,605d66bc88696c667ac19d99,13,mix,critical,D,25,mix15.jpg,mix35.jpg,high,NULL
1687287279,29b1e2bcd3136aae7425eff81807937f,PennController,31,0,experiment,NULL,PennController,30,_Trial_,Start,1687287170072,605d66bc88696c667ac19d99,605d66bc88696c667ac19d99,28,sort,filler,D,25,sort15.jpg,sort35.jpg,GoalA,NULL
1687287279,29b1e2bcd3136aae7425eff81807937f,PennController,31,0,experiment,NULL,PennController,30,_Header_,Start,1687287170072,605d66bc88696c667ac19d99,605d66bc88696c667ac19d99,28,sort,filler,D,25,sort15.jpg,sort35.jpg,GoalA,NULL
1687287279,29b1e2bcd3136aae7425eff81807937f,PennController,31,0,experiment,NULL,PennController,30,_Header_,End,1687287170072,605d66bc88696c667ac19d99,605d66bc88696c667ac19d99,28,sort,filler,D,25,sort15.jpg,sort35.jpg,GoalA,NULL
1687287279,29b1e2bcd3136aae7425eff81807937f,PennController,31,0,experiment,NULL,Canvas,canvas6,Print,NA,1687287175758,605d66bc88696c667ac19d99,605d66bc88696c667ac19d99,28,sort,filler,D,25,sort15.jpg,sort35.jpg,GoalA,NULL
1687287279,29b1e2bcd3136aae7425eff81807937f,PennController,31,0,experiment,NULL,Video,progression,buffer,0.004986,1687287173591,605d66bc88696c667ac19d99,605d66bc88696c667ac19d99,28,sort,filler,D,25,sort15.jpg,sort35.jpg,GoalA,NULL
1687287279,29b1e2bcd3136aae7425eff81807937f,PennController,31,0,experiment,NULL,Selector,choice,Selection,option2,1687287176688,605d66bc88696c667ac19d99,605d66bc88696c667ac19d99,28,sort,filler,D,25,sort15.jpg,sort35.jpg,GoalA,option1;option2
1687287279,29b1e2bcd3136aae7425eff81807937f,PennController,31,0,experiment,NULL,PennController,30,_Trial_,End,1687287176690,605d66bc88696c667ac19d99,605d66bc88696c667ac19d99,28,sort,filler,D,25,sort15.jpg,sort35.jpg,GoalA,NULL
1687287279,29b1e2bcd3136aae7425eff81807937f,PennController,23,0,experiment,NULL,PennController,22,_Trial_,Start,1687287176691,605d66bc88696c667ac19d99,605d66bc88696c667ac19d99,20,cat,filler,D,50,cat40.jpg,cat60.jpg,GoalA,NULL
1687287279,29b1e2bcd3136aae7425eff81807937f,PennController,23,0,experiment,NULL,PennController,22,_Header_,Start,1687287176691,605d66bc88696c667ac19d99,605d66bc88696c667ac19d99,20,cat,filler,D,50,cat40.jpg,cat60.jpg,GoalA,NULL
1687287279,29b1e2bcd3136aae7425eff81807937f,PennController,23,0,experiment,NULL,PennController,22,_Header_,End,1687287176691,605d66bc88696c667ac19d99,605d66bc88696c667ac19d99,20,cat,filler,D,50,cat40.jpg,cat60.jpg,GoalA,NULL
1687287279,29b1e2bcd3136aae7425eff81807937f,PennController,23,0,experiment,NULL,Canvas,canvas6,Print,NA,1687287183383,605d66bc88696c667ac19d99,605d66bc88696c667ac19d99,20,cat,filler,D,50,cat40.jpg,cat60.jpg,GoalA,NULL
1687287279,29b1e2bcd3136aae7425eff81807937f,PennController,23,0,experiment,NULL,Video,progression,buffer,0.005538,1687287180217,605d66bc88696c667ac19d99,605d66bc88696c667ac19d99,20,cat,filler,D,50,cat40.jpg,cat60.jpg,GoalA,NULL
1687287279,29b1e2bcd3136aae7425eff81807937f,PennController,23,0,experiment,NULL,Selector,choice,Selection,option2,1687287184717,605d66bc88696c667ac19d99,605d66bc88696c667ac19d99,20,cat,filler,D,50,cat40.jpg,cat60.jpg,GoalA,option2;option1
1687287279,29b1e2bcd3136aae7425eff81807937f,PennController,23,0,experiment,NULL,PennController,22,_Trial_,End,1687287184719,605d66bc88696c667ac19d99,605d66bc88696c667ac19d99,20,cat,filler,D,50,cat40.jpg,cat60.jpg,GoalA,NULL
1687287279,29b1e2bcd3136aae7425eff81807937f,PennController,9,0,experiment,NULL,PennController,8,_Trial_,Start,1687287184720,605d66bc88696c667ac19d99,605d66bc88696c667ac19d99,6,flower,critical,D,75,flower65.jpg,flower85.jpg,high,NULL
1687287279,29b1e2bcd3136aae7425eff81807937f,PennController,9,0,experiment,NULL,PennController,8,_Header_,Start,1687287184720,605d66bc88696c667ac19d99,605d66bc88696c667ac19d99,6,flower,critical,D,75,flower65.jpg,flower85.jpg,high,NULL
1687287279,29b1e2bcd3136aae7425eff81807937f,PennController,9,0,experiment,NULL,PennController,8,_Header_,End,1687287184720,605d66bc88696c667ac19d99,605d66bc88696c667ac19d99,6,flower,critical,D,75,flower65.jpg,flower85.jpg,high,NULL
1687287279,29b1e2bcd3136aae7425eff81807937f,PennController,9,0,experiment,NULL,Canvas,canvas6,Print,NA,1687287192411,605d66bc88696c667ac19d99,605d66bc88696c667ac19d99,6,flower,critical,D,75,flower65.jpg,flower85.jpg,high,NULL
1687287279,29b1e2bcd3136aae7425eff81807937f,PennController,9,0,experiment,NULL,Video,progression,buffer,0.005392,1687287188245,605d66bc88696c667ac19d99,605d66bc88696c667ac19d99,6,flower,critical,D,75,flower65.jpg,flower85.jpg,high,NULL
1687287279,29b1e2bcd3136aae7425eff81807937f,PennController,9,0,experiment,NULL,Selector,choice,Selection,option2,1687287193568,605d66bc88696c667ac19d99,605d66bc88696c667ac19d99,6,flower,critical,D,75,flower65.jpg,flower85.jpg,high,option2;option1
1687287279,29b1e2bcd3136aae7425eff81807937f,PennController,9,0,experiment,NULL,PennController,8,_Trial_,End,1687287193570,605d66bc88696c667ac19d99,605d66bc88696c667ac19d99,6,flower,critical,D,75,flower65.jpg,flower85.jpg,high,NULL
1687287279,29b1e2bcd3136aae7425eff81807937f,PennController,24,0,experiment,NULL,PennController,23,_Trial_,Start,1687287193571,605d66bc88696c667ac19d99,605d66bc88696c667ac19d99,21,visit,filler,D,75,visit65.jpg,visit85.jpg,GoalB,NULL
1687287279,29b1e2bcd3136aae7425eff81807937f,PennController,24,0,experiment,NULL,PennController,23,_Header_,Start,1687287193571,605d66bc88696c667ac19d99,605d66bc88696c667ac19d99,21,visit,filler,D,75,visit65.jpg,visit85.jpg,GoalB,NULL
1687287279,29b1e2bcd3136aae7425eff81807937f,PennController,24,0,experiment,NULL,PennController,23,_Header_,End,1687287193571,605d66bc88696c667ac19d99,605d66bc88696c667ac19d99,21,visit,filler,D,75,visit65.jpg,visit85.jpg,GoalB,NULL
1687287279,29b1e2bcd3136aae7425eff81807937f,PennController,24,0,experiment,NULL,Canvas,canvas6,Print,NA,1687287201268,605d66bc88696c667ac19d99,605d66bc88696c667ac19d99,21,visit,filler,D,75,visit65.jpg,visit85.jpg,GoalB,NULL
1687287279,29b1e2bcd3136aae7425eff81807937f,PennController,24,0,experiment,NULL,Video,progression,buffer,0.00362,1687287197099,605d66bc88696c667ac19d99,605d66bc88696c667ac19d99,21,visit,filler,D,75,visit65.jpg,visit85.jpg,GoalB,NULL
1687287279,29b1e2bcd3136aae7425eff81807937f,PennController,24,0,experiment,NULL,Selector,choice,Selection,option2,1687287202458,605d66bc88696c667ac19d99,605d66bc88696c667ac19d99,21,visit,filler,D,75,visit65.jpg,visit85.jpg,GoalB,option1;option2
1687287279,29b1e2bcd3136aae7425eff81807937f,PennController,24,0,experiment,NULL,PennController,23,_Trial_,End,1687287202460,605d66bc88696c667ac19d99,605d66bc88696c667ac19d99,21,visit,filler,D,75,visit65.jpg,visit85.jpg,GoalB,NULL
1687287279,29b1e2bcd3136aae7425eff81807937f,PennController,20,0,experiment,NULL,PennController,19,_Trial_,Start,1687287202462,605d66bc88696c667ac19d99,605d66bc88696c667ac19d99,17,roll,critical,D,50,roll40.jpg,roll60.jpg,high,NULL
1687287279,29b1e2bcd3136aae7425eff81807937f,PennController,20,0,experiment,NULL,PennController,19,_Header_,Start,1687287202462,605d66bc88696c667ac19d99,605d66bc88696c667ac19d99,17,roll,critical,D,50,roll40.jpg,roll60.jpg,high,NULL
1687287279,29b1e2bcd3136aae7425eff81807937f,PennController,20,0,experiment,NULL,PennController,19,_Header_,End,1687287202462,605d66bc88696c667ac19d99,605d66bc88696c667ac19d99,17,roll,critical,D,50,roll40.jpg,roll60.jpg,high,NULL
1687287279,29b1e2bcd3136aae7425eff81807937f,PennController,20,0,experiment,NULL,Canvas,canvas6,Print,NA,1687287209142,605d66bc88696c667ac19d99,605d66bc88696c667ac19d99,17,roll,critical,D,50,roll40.jpg,roll60.jpg,high,NULL
1687287279,29b1e2bcd3136aae7425eff81807937f,PennController,20,0,experiment,NULL,Video,progression,buffer,0.002454,1687287205983,605d66bc88696c667ac19d99,605d66bc88696c667ac19d99,17,roll,critical,D,50,roll40.jpg,roll60.jpg,high,NULL
1687287279,29b1e2bcd3136aae7425eff81807937f,PennController,20,0,experiment,NULL,Selector,choice,Selection,option1,1687287210286,605d66bc88696c667ac19d99,605d66bc88696c667ac19d99,17,roll,critical,D,50,roll40.jpg,roll60.jpg,high,option2;option1
1687287279,29b1e2bcd3136aae7425eff81807937f,PennController,20,0,experiment,NULL,PennController,19,_Trial_,End,1687287210288,605d66bc88696c667ac19d99,605d66bc88696c667ac19d99,17,roll,critical,D,50,roll40.jpg,roll60.jpg,high,NULL
1687287279,29b1e2bcd3136aae7425eff81807937f,PennController,10,0,experiment,NULL,PennController,9,_Trial_,Start,1687287210289,605d66bc88696c667ac19d99,605d66bc88696c667ac19d99,7,stack,critical,D,25,stack15.jpg,stack35.jpg,high,NULL
1687287279,29b1e2bcd3136aae7425eff81807937f,PennController,10,0,experiment,NULL,PennController,9,_Header_,Start,1687287210289,605d66bc88696c667ac19d99,605d66bc88696c667ac19d99,7,stack,critical,D,25,stack15.jpg,stack35.jpg,high,NULL
1687287279,29b1e2bcd3136aae7425eff81807937f,PennController,10,0,experiment,NULL,PennController,9,_Header_,End,1687287210289,605d66bc88696c667ac19d99,605d66bc88696c667ac19d99,7,stack,critical,D,25,stack15.jpg,stack35.jpg,high,NULL
1687287279,29b1e2bcd3136aae7425eff81807937f,PennController,10,0,experiment,NULL,Canvas,canvas6,Print,NA,1687287215981,605d66bc88696c667ac19d99,605d66bc88696c667ac19d99,7,stack,critical,D,25,stack15.jpg,stack35.jpg,high,NULL
1687287279,29b1e2bcd3136aae7425eff81807937f,PennController,10,0,experiment,NULL,Video,progression,buffer,0.003648,1687287213814,605d66bc88696c667ac19d99,605d66bc88696c667ac19d99,7,stack,critical,D,25,stack15.jpg,stack35.jpg,high,NULL
1687287279,29b1e2bcd3136aae7425eff81807937f,PennController,10,0,experiment,NULL,Selector,choice,Selection,option1,1687287217460,605d66bc88696c667ac19d99,605d66bc88696c667ac19d99,7,stack,critical,D,25,stack15.jpg,stack35.jpg,high,option1;option2
1687287279,29b1e2bcd3136aae7425eff81807937f,PennController,10,0,experiment,NULL,PennController,9,_Trial_,End,1687287217461,605d66bc88696c667ac19d99,605d66bc88696c667ac19d99,7,stack,critical,D,25,stack15.jpg,stack35.jpg,high,NULL
1687287279,29b1e2bcd3136aae7425eff81807937f,PennController,11,0,experiment,NULL,PennController,10,_Trial_,Start,1687287217463,605d66bc88696c667ac19d99,605d66bc88696c667ac19d99,8,cucumber,critical,D,50,cucumber42.jpg,cucumber60.jpg,high,NULL
1687287279,29b1e2bcd3136aae7425eff81807937f,PennController,11,0,experiment,NULL,PennController,10,_Header_,Start,1687287217463,605d66bc88696c667ac19d99,605d66bc88696c667ac19d99,8,cucumber,critical,D,50,cucumber42.jpg,cucumber60.jpg,high,NULL
1687287279,29b1e2bcd3136aae7425eff81807937f,PennController,11,0,experiment,NULL,PennController,10,_Header_,End,1687287217463,605d66bc88696c667ac19d99,605d66bc88696c667ac19d99,8,cucumber,critical,D,50,cucumber42.jpg,cucumber60.jpg,high,NULL
1687287279,29b1e2bcd3136aae7425eff81807937f,PennController,11,0,experiment,NULL,Canvas,canvas6,Print,NA,1687287225546,605d66bc88696c667ac19d99,605d66bc88696c667ac19d99,8,cucumber,critical,D,50,cucumber42.jpg,cucumber60.jpg,high,NULL
1687287279,29b1e2bcd3136aae7425eff81807937f,PennController,11,0,experiment,NULL,Video,progression,buffer,0.004432,1687287220982,605d66bc88696c667ac19d99,605d66bc88696c667ac19d99,8,cucumber,critical,D,50,cucumber42.jpg,cucumber60.jpg,high,NULL
1687287279,29b1e2bcd3136aae7425eff81807937f,PennController,11,0,experiment,NULL,Selector,choice,Selection,option1,1687287226528,605d66bc88696c667ac19d99,605d66bc88696c667ac19d99,8,cucumber,critical,D,50,cucumber42.jpg,cucumber60.jpg,high,option1;option2
1687287279,29b1e2bcd3136aae7425eff81807937f,PennController,11,0,experiment,NULL,PennController,10,_Trial_,End,1687287226530,605d66bc88696c667ac19d99,605d66bc88696c667ac19d99,8,cucumber,critical,D,50,cucumber42.jpg,cucumber60.jpg,high,NULL
1687287279,29b1e2bcd3136aae7425eff81807937f,PennController,15,0,experiment,NULL,PennController,14,_Trial_,Start,1687287226532,605d66bc88696c667ac19d99,605d66bc88696c667ac19d99,12,erase,critical,D,75,erase66.jpg,erase84.jpg,high,NULL
1687287279,29b1e2bcd3136aae7425eff81807937f,PennController,15,0,experiment,NULL,PennController,14,_Header_,Start,1687287226532,605d66bc88696c667ac19d99,605d66bc88696c667ac19d99,12,erase,critical,D,75,erase66.jpg,erase84.jpg,high,NULL
1687287279,29b1e2bcd3136aae7425eff81807937f,PennController,15,0,experiment,NULL,PennController,14,_Header_,End,1687287226532,605d66bc88696c667ac19d99,605d66bc88696c667ac19d99,12,erase,critical,D,75,erase66.jpg,erase84.jpg,high,NULL
1687287279,29b1e2bcd3136aae7425eff81807937f,PennController,15,0,experiment,NULL,Canvas,canvas6,Print,NA,1687287236218,605d66bc88696c667ac19d99,605d66bc88696c667ac19d99,12,erase,critical,D,75,erase66.jpg,erase84.jpg,high,NULL
1687287279,29b1e2bcd3136aae7425eff81807937f,PennController,15,0,experiment,NULL,Video,progression,buffer,0.002481,1687287230053,605d66bc88696c667ac19d99,605d66bc88696c667ac19d99,12,erase,critical,D,75,erase66.jpg,erase84.jpg,high,NULL
1687287279,29b1e2bcd3136aae7425eff81807937f,PennController,15,0,experiment,NULL,Selector,choice,Selection,option2,1687287237240,605d66bc88696c667ac19d99,605d66bc88696c667ac19d99,12,erase,critical,D,75,erase66.jpg,erase84.jpg,high,option2;option1
1687287279,29b1e2bcd3136aae7425eff81807937f,PennController,15,0,experiment,NULL,PennController,14,_Trial_,End,1687287237241,605d66bc88696c667ac19d99,605d66bc88696c667ac19d99,12,erase,critical,D,75,erase66.jpg,erase84.jpg,high,NULL
1687287279,29b1e2bcd3136aae7425eff81807937f,PennController,21,0,experiment,NULL,PennController,20,_Trial_,Start,1687287237242,605d66bc88696c667ac19d99,605d66bc88696c667ac19d99,18,ball,critical,D,75,ball65.jpg,ball85.jpg,high,NULL
1687287279,29b1e2bcd3136aae7425eff81807937f,PennController,21,0,experiment,NULL,PennController,20,_Header_,Start,1687287237242,605d66bc88696c667ac19d99,605d66bc88696c667ac19d99,18,ball,critical,D,75,ball65.jpg,ball85.jpg,high,NULL
1687287279,29b1e2bcd3136aae7425eff81807937f,PennController,21,0,experiment,NULL,PennController,20,_Header_,End,1687287237242,605d66bc88696c667ac19d99,605d66bc88696c667ac19d99,18,ball,critical,D,75,ball65.jpg,ball85.jpg,high,NULL
1687287279,29b1e2bcd3136aae7425eff81807937f,PennController,21,0,experiment,NULL,Canvas,canvas6,Print,NA,1687287244925,605d66bc88696c667ac19d99,605d66bc88696c667ac19d99,18,ball,critical,D,75,ball65.jpg,ball85.jpg,high,NULL
1687287279,29b1e2bcd3136aae7425eff81807937f,PennController,21,0,experiment,NULL,Video,progression,buffer,0.003754,1687287240767,605d66bc88696c667ac19d99,605d66bc88696c667ac19d99,18,ball,critical,D,75,ball65.jpg,ball85.jpg,high,NULL
1687287279,29b1e2bcd3136aae7425eff81807937f,PennController,21,0,experiment,NULL,Selector,choice,Selection,option2,1687287245897,605d66bc88696c667ac19d99,605d66bc88696c667ac19d99,18,ball,critical,D,75,ball65.jpg,ball85.jpg,high,option2;option1
1687287279,29b1e2bcd3136aae7425eff81807937f,PennController,21,0,experiment,NULL,PennController,20,_Trial_,End,1687287245899,605d66bc88696c667ac19d99,605d66bc88696c667ac19d99,18,ball,critical,D,75,ball65.jpg,ball85.jpg,high,NULL
1687287279,29b1e2bcd3136aae7425eff81807937f,PennController,6,0,experiment,NULL,PennController,5,_Trial_,Start,1687287245900,605d66bc88696c667ac19d99,605d66bc88696c667ac19d99,3,clean,critical,D,75,clean65.jpg,clean85.jpg,high,NULL
1687287279,29b1e2bcd3136aae7425eff81807937f,PennController,6,0,experiment,NULL,PennController,5,_Header_,Start,1687287245900,605d66bc88696c667ac19d99,605d66bc88696c667ac19d99,3,clean,critical,D,75,clean65.jpg,clean85.jpg,high,NULL
1687287279,29b1e2bcd3136aae7425eff81807937f,PennController,6,0,experiment,NULL,PennController,5,_Header_,End,1687287245900,605d66bc88696c667ac19d99,605d66bc88696c667ac19d99,3,clean,critical,D,75,clean65.jpg,clean85.jpg,high,NULL
1687287279,29b1e2bcd3136aae7425eff81807937f,PennController,6,0,experiment,NULL,Canvas,canvas6,Print,NA,1687287253590,605d66bc88696c667ac19d99,605d66bc88696c667ac19d99,3,clean,critical,D,75,clean65.jpg,clean85.jpg,high,NULL
1687287279,29b1e2bcd3136aae7425eff81807937f,PennController,6,0,experiment,NULL,Video,progression,buffer,0.002909,1687287249423,605d66bc88696c667ac19d99,605d66bc88696c667ac19d99,3,clean,critical,D,75,clean65.jpg,clean85.jpg,high,NULL
1687287279,29b1e2bcd3136aae7425eff81807937f,PennController,6,0,experiment,NULL,Selector,choice,Selection,option1,1687287254756,605d66bc88696c667ac19d99,605d66bc88696c667ac19d99,3,clean,critical,D,75,clean65.jpg,clean85.jpg,high,option2;option1
1687287279,29b1e2bcd3136aae7425eff81807937f,PennController,6,0,experiment,NULL,PennController,5,_Trial_,End,1687287254758,605d66bc88696c667ac19d99,605d66bc88696c667ac19d99,3,clean,critical,D,75,clean65.jpg,clean85.jpg,high,NULL
1687287279,29b1e2bcd3136aae7425eff81807937f,PennController,8,0,experiment,NULL,PennController,7,_Trial_,Start,1687287254760,605d66bc88696c667ac19d99,605d66bc88696c667ac19d99,5,book,critical,D,50,book40.jpg,book60.jpg,high,NULL
1687287279,29b1e2bcd3136aae7425eff81807937f,PennController,8,0,experiment,NULL,PennController,7,_Header_,Start,1687287254760,605d66bc88696c667ac19d99,605d66bc88696c667ac19d99,5,book,critical,D,50,book40.jpg,book60.jpg,high,NULL
1687287279,29b1e2bcd3136aae7425eff81807937f,PennController,8,0,experiment,NULL,PennController,7,_Header_,End,1687287254760,605d66bc88696c667ac19d99,605d66bc88696c667ac19d99,5,book,critical,D,50,book40.jpg,book60.jpg,high,NULL
1687287279,29b1e2bcd3136aae7425eff81807937f,PennController,8,0,experiment,NULL,Canvas,canvas6,Print,NA,1687287261445,605d66bc88696c667ac19d99,605d66bc88696c667ac19d99,5,book,critical,D,50,book40.jpg,book60.jpg,high,NULL
1687287279,29b1e2bcd3136aae7425eff81807937f,PennController,8,0,experiment,NULL,Video,progression,buffer,0.002568,1687287258283,605d66bc88696c667ac19d99,605d66bc88696c667ac19d99,5,book,critical,D,50,book40.jpg,book60.jpg,high,NULL
1687287279,29b1e2bcd3136aae7425eff81807937f,PennController,8,0,experiment,NULL,Selector,choice,Selection,option1,1687287262474,605d66bc88696c667ac19d99,605d66bc88696c667ac19d99,5,book,critical,D,50,book40.jpg,book60.jpg,high,option2;option1
1687287279,29b1e2bcd3136aae7425eff81807937f,PennController,8,0,experiment,NULL,PennController,7,_Trial_,End,1687287262476,605d66bc88696c667ac19d99,605d66bc88696c667ac19d99,5,book,critical,D,50,book40.jpg,book60.jpg,high,NULL
1687287279,29b1e2bcd3136aae7425eff81807937f,PennController,32,0,experiment,NULL,PennController,31,_Trial_,Start,1687287262477,605d66bc88696c667ac19d99,605d66bc88696c667ac19d99,29,frog,filler,D,50,frog40.jpg,frog60.jpg,GoalB,NULL
1687287279,29b1e2bcd3136aae7425eff81807937f,PennController,32,0,experiment,NULL,PennController,31,_Header_,Start,1687287262477,605d66bc88696c667ac19d99,605d66bc88696c667ac19d99,29,frog,filler,D,50,frog40.jpg,frog60.jpg,GoalB,NULL
1687287279,29b1e2bcd3136aae7425eff81807937f,PennController,32,0,experiment,NULL,PennController,31,_Header_,End,1687287262477,605d66bc88696c667ac19d99,605d66bc88696c667ac19d99,29,frog,filler,D,50,frog40.jpg,frog60.jpg,GoalB,NULL
1687287279,29b1e2bcd3136aae7425eff81807937f,PennController,32,0,experiment,NULL,Canvas,canvas6,Print,NA,1687287269152,605d66bc88696c667ac19d99,605d66bc88696c667ac19d99,29,frog,filler,D,50,frog40.jpg,frog60.jpg,GoalB,NULL
1687287279,29b1e2bcd3136aae7425eff81807937f,PennController,32,0,experiment,NULL,Video,progression,buffer,0.003066,1687287265995,605d66bc88696c667ac19d99,605d66bc88696c667ac19d99,29,frog,filler,D,50,frog40.jpg,frog60.jpg,GoalB,NULL
1687287279,29b1e2bcd3136aae7425eff81807937f,PennController,32,0,experiment,NULL,Selector,choice,Selection,option2,1687287270494,605d66bc88696c667ac19d99,605d66bc88696c667ac19d99,29,frog,filler,D,50,frog40.jpg,frog60.jpg,GoalB,option2;option1
1687287279,29b1e2bcd3136aae7425eff81807937f,PennController,32,0,experiment,NULL,PennController,31,_Trial_,End,1687287270496,605d66bc88696c667ac19d99,605d66bc88696c667ac19d99,29,frog,filler,D,50,frog40.jpg,frog60.jpg,GoalB,NULL
1687287279,29b1e2bcd3136aae7425eff81807937f,PennController,14,0,experiment,NULL,PennController,13,_Trial_,Start,1687287270498,605d66bc88696c667ac19d99,605d66bc88696c667ac19d99,11,beads,critical,D,50,beads40.jpg,beads60.jpg,high,NULL
1687287279,29b1e2bcd3136aae7425eff81807937f,PennController,14,0,experiment,NULL,PennController,13,_Header_,Start,1687287270498,605d66bc88696c667ac19d99,605d66bc88696c667ac19d99,11,beads,critical,D,50,beads40.jpg,beads60.jpg,high,NULL
1687287279,29b1e2bcd3136aae7425eff81807937f,PennController,14,0,experiment,NULL,PennController,13,_Header_,End,1687287270498,605d66bc88696c667ac19d99,605d66bc88696c667ac19d99,11,beads,critical,D,50,beads40.jpg,beads60.jpg,high,NULL
1687287279,29b1e2bcd3136aae7425eff81807937f,PennController,14,0,experiment,NULL,Canvas,canvas6,Print,NA,1687287277180,605d66bc88696c667ac19d99,605d66bc88696c667ac19d99,11,beads,critical,D,50,beads40.jpg,beads60.jpg,high,NULL
1687287279,29b1e2bcd3136aae7425eff81807937f,PennController,14,0,experiment,NULL,Video,progression,buffer,0.002328,1687287274020,605d66bc88696c667ac19d99,605d66bc88696c667ac19d99,11,beads,critical,D,50,beads40.jpg,beads60.jpg,high,NULL
1687287279,29b1e2bcd3136aae7425eff81807937f,PennController,14,0,experiment,NULL,Selector,choice,Selection,option2,1687287278490,605d66bc88696c667ac19d99,605d66bc88696c667ac19d99,11,beads,critical,D,50,beads40.jpg,beads60.jpg,high,option1;option2
1687287279,29b1e2bcd3136aae7425eff81807937f,PennController,14,0,experiment,NULL,PennController,13,_Trial_,End,1687287278492,605d66bc88696c667ac19d99,605d66bc88696c667ac19d99,11,beads,critical,D,50,beads40.jpg,beads60.jpg,high,NULL
