#
# Results on Monday June 19 2023 15:35:00 UTC
# USER AGENT: Mozilla/5.0 (Windows NT 10.0; Win64; x64) AppleWebKit/537.36 (KHTML, like Gecko) Chrome/114.0.0.0 Safari/537.36
# Design number was non-random = 0
#
# Columns below this comment are as follows:
# 1. Results reception time.
# 2. MD5 hash of participant's IP address.
# 3. Controller name.
# 4. Order number of item.
# 5. Inner element number.
# 6. Label.
# 7. Latin Square Group.
# 8. PennElementType.
# 9. PennElementName.
# 10. Parameter.
# 11. Value.
# 12. EventTime.
# 13. PROLIFIC_ID.
# 14. Comments.
1687188900,6e0951818889afaf0fb3bb4db8e40557,PennController,2,0,consent,NULL,PennController,0,_Trial_,Start,1687188590661,PROLIFIC_ID,NULL
1687188900,6e0951818889afaf0fb3bb4db8e40557,PennController,2,0,consent,NULL,PennController,0,_Header_,Start,1687188590661,PROLIFIC_ID,NULL
1687188900,6e0951818889afaf0fb3bb4db8e40557,PennController,2,0,consent,NULL,PennController,0,_Header_,End,1687188590661,PROLIFIC_ID,NULL
1687188900,6e0951818889afaf0fb3bb4db8e40557,PennController,2,0,consent,NULL,PennController,0,_Trial_,End,1687188593555,PROLIFIC_ID,NULL
# Columns below this comment are as follows:
# 14. ID.
# 15. Comments.
1687188900,6e0951818889afaf0fb3bb4db8e40557,PennController,3,0,intro,NULL,PennController,1,_Trial_,Start,1687188593557,PROLIFIC_ID,stbgtll,NULL
1687188900,6e0951818889afaf0fb3bb4db8e40557,PennController,3,0,intro,NULL,PennController,1,_Header_,Start,1687188593557,PROLIFIC_ID,stbgtll,NULL
1687188900,6e0951818889afaf0fb3bb4db8e40557,PennController,3,0,intro,NULL,PennController,1,_Header_,End,1687188593557,PROLIFIC_ID,stbgtll,NULL
1687188900,6e0951818889afaf0fb3bb4db8e40557,PennController,3,0,intro,NULL,PennController,1,_Trial_,End,1687188597186,PROLIFIC_ID,stbgtll,NULL
# Columns below this comment are as follows:
# 15. item_number.
# 16. item.
# 17. type.
# 18. Group.
# 19. prog.
# 20. prev_image.
# 21. next_image.
# 22. height.
# 23. Comments.
1687188900,6e0951818889afaf0fb3bb4db8e40557,PennController,13,0,experiment,NULL,PennController,12,_Trial_,Start,1687188597187,PROLIFIC_ID,stbgtll,10,train,critical,A,25,train15.jpg,train35.jpg,low,NULL
1687188900,6e0951818889afaf0fb3bb4db8e40557,PennController,13,0,experiment,NULL,PennController,12,_Header_,Start,1687188597187,PROLIFIC_ID,stbgtll,10,train,critical,A,25,train15.jpg,train35.jpg,low,NULL
1687188900,6e0951818889afaf0fb3bb4db8e40557,PennController,13,0,experiment,NULL,PennController,12,_Header_,End,1687188597187,PROLIFIC_ID,stbgtll,10,train,critical,A,25,train15.jpg,train35.jpg,low,NULL
1687188900,6e0951818889afaf0fb3bb4db8e40557,PennController,13,0,experiment,NULL,Canvas,canvas6,Print,NA,1687188602875,PROLIFIC_ID,stbgtll,10,train,critical,A,25,train15.jpg,train35.jpg,low,NULL
1687188900,6e0951818889afaf0fb3bb4db8e40557,PennController,13,0,experiment,NULL,Video,progression,buffer,0.002293,1687188600716,PROLIFIC_ID,stbgtll,10,train,critical,A,25,train15.jpg,train35.jpg,low,NULL
1687188900,6e0951818889afaf0fb3bb4db8e40557,PennController,13,0,experiment,NULL,Selector,choice,Selection,option2,1687188608512,PROLIFIC_ID,stbgtll,10,train,critical,A,25,train15.jpg,train35.jpg,low,option2;option1
1687188900,6e0951818889afaf0fb3bb4db8e40557,PennController,13,0,experiment,NULL,PennController,12,_Trial_,End,1687188608514,PROLIFIC_ID,stbgtll,10,train,critical,A,25,train15.jpg,train35.jpg,low,NULL
1687188900,6e0951818889afaf0fb3bb4db8e40557,PennController,28,0,experiment,NULL,PennController,27,_Trial_,Start,1687188608515,PROLIFIC_ID,stbgtll,25,house,filler,A,25,house15.jpg,house35.jpg,GoalA,NULL
1687188900,6e0951818889afaf0fb3bb4db8e40557,PennController,28,0,experiment,NULL,PennController,27,_Header_,Start,1687188608515,PROLIFIC_ID,stbgtll,25,house,filler,A,25,house15.jpg,house35.jpg,GoalA,NULL
1687188900,6e0951818889afaf0fb3bb4db8e40557,PennController,28,0,experiment,NULL,PennController,27,_Header_,End,1687188608515,PROLIFIC_ID,stbgtll,25,house,filler,A,25,house15.jpg,house35.jpg,GoalA,NULL
1687188900,6e0951818889afaf0fb3bb4db8e40557,PennController,28,0,experiment,NULL,Canvas,canvas6,Print,NA,1687188614193,PROLIFIC_ID,stbgtll,25,house,filler,A,25,house15.jpg,house35.jpg,GoalA,NULL
1687188900,6e0951818889afaf0fb3bb4db8e40557,PennController,28,0,experiment,NULL,Video,progression,buffer,0.003348,1687188612033,PROLIFIC_ID,stbgtll,25,house,filler,A,25,house15.jpg,house35.jpg,GoalA,NULL
1687188900,6e0951818889afaf0fb3bb4db8e40557,PennController,28,0,experiment,NULL,Selector,choice,Selection,option2,1687188615080,PROLIFIC_ID,stbgtll,25,house,filler,A,25,house15.jpg,house35.jpg,GoalA,option2;option1
1687188900,6e0951818889afaf0fb3bb4db8e40557,PennController,28,0,experiment,NULL,PennController,27,_Trial_,End,1687188615081,PROLIFIC_ID,stbgtll,25,house,filler,A,25,house15.jpg,house35.jpg,GoalA,NULL
1687188900,6e0951818889afaf0fb3bb4db8e40557,PennController,31,0,experiment,NULL,PennController,30,_Trial_,Start,1687188615081,PROLIFIC_ID,stbgtll,28,sort,filler,A,25,sort15.jpg,sort35.jpg,GoalB,NULL
1687188900,6e0951818889afaf0fb3bb4db8e40557,PennController,31,0,experiment,NULL,PennController,30,_Header_,Start,1687188615081,PROLIFIC_ID,stbgtll,28,sort,filler,A,25,sort15.jpg,sort35.jpg,GoalB,NULL
1687188900,6e0951818889afaf0fb3bb4db8e40557,PennController,31,0,experiment,NULL,PennController,30,_Header_,End,1687188615081,PROLIFIC_ID,stbgtll,28,sort,filler,A,25,sort15.jpg,sort35.jpg,GoalB,NULL
1687188900,6e0951818889afaf0fb3bb4db8e40557,PennController,31,0,experiment,NULL,Canvas,canvas6,Print,NA,1687188620757,PROLIFIC_ID,stbgtll,28,sort,filler,A,25,sort15.jpg,sort35.jpg,GoalB,NULL
1687188900,6e0951818889afaf0fb3bb4db8e40557,PennController,31,0,experiment,NULL,Video,progression,buffer,0.002233,1687188618600,PROLIFIC_ID,stbgtll,28,sort,filler,A,25,sort15.jpg,sort35.jpg,GoalB,NULL
1687188900,6e0951818889afaf0fb3bb4db8e40557,PennController,31,0,experiment,NULL,Selector,choice,Selection,option1,1687188621383,PROLIFIC_ID,stbgtll,28,sort,filler,A,25,sort15.jpg,sort35.jpg,GoalB,option2;option1
1687188900,6e0951818889afaf0fb3bb4db8e40557,PennController,31,0,experiment,NULL,PennController,30,_Trial_,End,1687188621384,PROLIFIC_ID,stbgtll,28,sort,filler,A,25,sort15.jpg,sort35.jpg,GoalB,NULL
1687188900,6e0951818889afaf0fb3bb4db8e40557,PennController,4,0,experiment,NULL,PennController,3,_Trial_,Start,1687188621386,PROLIFIC_ID,stbgtll,1,vase,critical,A,25,vase15.jpg,vase35.jpg,low,NULL
1687188900,6e0951818889afaf0fb3bb4db8e40557,PennController,4,0,experiment,NULL,PennController,3,_Header_,Start,1687188621386,PROLIFIC_ID,stbgtll,1,vase,critical,A,25,vase15.jpg,vase35.jpg,low,NULL
1687188900,6e0951818889afaf0fb3bb4db8e40557,PennController,4,0,experiment,NULL,PennController,3,_Header_,End,1687188621386,PROLIFIC_ID,stbgtll,1,vase,critical,A,25,vase15.jpg,vase35.jpg,low,NULL
1687188900,6e0951818889afaf0fb3bb4db8e40557,PennController,4,0,experiment,NULL,Canvas,canvas6,Print,NA,1687188627057,PROLIFIC_ID,stbgtll,1,vase,critical,A,25,vase15.jpg,vase35.jpg,low,NULL
1687188900,6e0951818889afaf0fb3bb4db8e40557,PennController,4,0,experiment,NULL,Video,progression,buffer,0.002613,1687188624900,PROLIFIC_ID,stbgtll,1,vase,critical,A,25,vase15.jpg,vase35.jpg,low,NULL
1687188900,6e0951818889afaf0fb3bb4db8e40557,PennController,4,0,experiment,NULL,Selector,choice,Selection,option1,1687188627912,PROLIFIC_ID,stbgtll,1,vase,critical,A,25,vase15.jpg,vase35.jpg,low,option2;option1
1687188900,6e0951818889afaf0fb3bb4db8e40557,PennController,4,0,experiment,NULL,PennController,3,_Trial_,End,1687188627912,PROLIFIC_ID,stbgtll,1,vase,critical,A,25,vase15.jpg,vase35.jpg,low,NULL
1687188900,6e0951818889afaf0fb3bb4db8e40557,PennController,10,0,experiment,NULL,PennController,9,_Trial_,Start,1687188627913,PROLIFIC_ID,stbgtll,7,stack,critical,A,25,stack15.jpg,stack35.jpg,low,NULL
1687188900,6e0951818889afaf0fb3bb4db8e40557,PennController,10,0,experiment,NULL,PennController,9,_Header_,Start,1687188627913,PROLIFIC_ID,stbgtll,7,stack,critical,A,25,stack15.jpg,stack35.jpg,low,NULL
1687188900,6e0951818889afaf0fb3bb4db8e40557,PennController,10,0,experiment,NULL,PennController,9,_Header_,End,1687188627913,PROLIFIC_ID,stbgtll,7,stack,critical,A,25,stack15.jpg,stack35.jpg,low,NULL
1687188900,6e0951818889afaf0fb3bb4db8e40557,PennController,10,0,experiment,NULL,Canvas,canvas6,Print,NA,1687188633591,PROLIFIC_ID,stbgtll,7,stack,critical,A,25,stack15.jpg,stack35.jpg,low,NULL
1687188900,6e0951818889afaf0fb3bb4db8e40557,PennController,10,0,experiment,NULL,Video,progression,buffer,0.002335,1687188631432,PROLIFIC_ID,stbgtll,7,stack,critical,A,25,stack15.jpg,stack35.jpg,low,NULL
1687188900,6e0951818889afaf0fb3bb4db8e40557,PennController,10,0,experiment,NULL,Selector,choice,Selection,option2,1687188635016,PROLIFIC_ID,stbgtll,7,stack,critical,A,25,stack15.jpg,stack35.jpg,low,option1;option2
1687188900,6e0951818889afaf0fb3bb4db8e40557,PennController,10,0,experiment,NULL,PennController,9,_Trial_,End,1687188635018,PROLIFIC_ID,stbgtll,7,stack,critical,A,25,stack15.jpg,stack35.jpg,low,NULL
1687188900,6e0951818889afaf0fb3bb4db8e40557,PennController,20,0,experiment,NULL,PennController,19,_Trial_,Start,1687188635019,PROLIFIC_ID,stbgtll,17,roll,critical,A,50,roll40.jpg,roll60.jpg,low,NULL
1687188900,6e0951818889afaf0fb3bb4db8e40557,PennController,20,0,experiment,NULL,PennController,19,_Header_,Start,1687188635019,PROLIFIC_ID,stbgtll,17,roll,critical,A,50,roll40.jpg,roll60.jpg,low,NULL
1687188900,6e0951818889afaf0fb3bb4db8e40557,PennController,20,0,experiment,NULL,PennController,19,_Header_,End,1687188635019,PROLIFIC_ID,stbgtll,17,roll,critical,A,50,roll40.jpg,roll60.jpg,low,NULL
1687188900,6e0951818889afaf0fb3bb4db8e40557,PennController,20,0,experiment,NULL,Canvas,canvas6,Print,NA,1687188641708,PROLIFIC_ID,stbgtll,17,roll,critical,A,50,roll40.jpg,roll60.jpg,low,NULL
1687188900,6e0951818889afaf0fb3bb4db8e40557,PennController,20,0,experiment,NULL,Video,progression,buffer,0.002076,1687188638540,PROLIFIC_ID,stbgtll,17,roll,critical,A,50,roll40.jpg,roll60.jpg,low,NULL
1687188900,6e0951818889afaf0fb3bb4db8e40557,PennController,20,0,experiment,NULL,Selector,choice,Selection,option2,1687188643096,PROLIFIC_ID,stbgtll,17,roll,critical,A,50,roll40.jpg,roll60.jpg,low,option1;option2
1687188900,6e0951818889afaf0fb3bb4db8e40557,PennController,20,0,experiment,NULL,PennController,19,_Trial_,End,1687188643097,PROLIFIC_ID,stbgtll,17,roll,critical,A,50,roll40.jpg,roll60.jpg,low,NULL
1687188900,6e0951818889afaf0fb3bb4db8e40557,PennController,18,0,experiment,NULL,PennController,17,_Trial_,Start,1687188643097,PROLIFIC_ID,stbgtll,15,zip,critical,A,75,zip65.jpg,zip85.jpg,low,NULL
1687188900,6e0951818889afaf0fb3bb4db8e40557,PennController,18,0,experiment,NULL,PennController,17,_Header_,Start,1687188643097,PROLIFIC_ID,stbgtll,15,zip,critical,A,75,zip65.jpg,zip85.jpg,low,NULL
1687188900,6e0951818889afaf0fb3bb4db8e40557,PennController,18,0,experiment,NULL,PennController,17,_Header_,End,1687188643098,PROLIFIC_ID,stbgtll,15,zip,critical,A,75,zip65.jpg,zip85.jpg,low,NULL
1687188900,6e0951818889afaf0fb3bb4db8e40557,PennController,18,0,experiment,NULL,Canvas,canvas6,Print,NA,1687188650787,PROLIFIC_ID,stbgtll,15,zip,critical,A,75,zip65.jpg,zip85.jpg,low,NULL
1687188900,6e0951818889afaf0fb3bb4db8e40557,PennController,18,0,experiment,NULL,Video,progression,buffer,0.002019,1687188646616,PROLIFIC_ID,stbgtll,15,zip,critical,A,75,zip65.jpg,zip85.jpg,low,NULL
1687188900,6e0951818889afaf0fb3bb4db8e40557,PennController,18,0,experiment,NULL,Selector,choice,Selection,option1,1687188651784,PROLIFIC_ID,stbgtll,15,zip,critical,A,75,zip65.jpg,zip85.jpg,low,option2;option1
1687188900,6e0951818889afaf0fb3bb4db8e40557,PennController,18,0,experiment,NULL,PennController,17,_Trial_,End,1687188651784,PROLIFIC_ID,stbgtll,15,zip,critical,A,75,zip65.jpg,zip85.jpg,low,NULL
1687188900,6e0951818889afaf0fb3bb4db8e40557,PennController,22,0,experiment,NULL,PennController,21,_Trial_,Start,1687188651785,PROLIFIC_ID,stbgtll,19,cup,filler,A,25,cup15.jpg,cup35.jpg,GoalA,NULL
1687188900,6e0951818889afaf0fb3bb4db8e40557,PennController,22,0,experiment,NULL,PennController,21,_Header_,Start,1687188651785,PROLIFIC_ID,stbgtll,19,cup,filler,A,25,cup15.jpg,cup35.jpg,GoalA,NULL
1687188900,6e0951818889afaf0fb3bb4db8e40557,PennController,22,0,experiment,NULL,PennController,21,_Header_,End,1687188651785,PROLIFIC_ID,stbgtll,19,cup,filler,A,25,cup15.jpg,cup35.jpg,GoalA,NULL
1687188900,6e0951818889afaf0fb3bb4db8e40557,PennController,22,0,experiment,NULL,Canvas,canvas6,Print,NA,1687188657472,PROLIFIC_ID,stbgtll,19,cup,filler,A,25,cup15.jpg,cup35.jpg,GoalA,NULL
1687188900,6e0951818889afaf0fb3bb4db8e40557,PennController,22,0,experiment,NULL,Video,progression,buffer,0.003203,1687188655306,PROLIFIC_ID,stbgtll,19,cup,filler,A,25,cup15.jpg,cup35.jpg,GoalA,NULL
1687188900,6e0951818889afaf0fb3bb4db8e40557,PennController,22,0,experiment,NULL,Selector,choice,Selection,option2,1687188658344,PROLIFIC_ID,stbgtll,19,cup,filler,A,25,cup15.jpg,cup35.jpg,GoalA,option1;option2
1687188900,6e0951818889afaf0fb3bb4db8e40557,PennController,22,0,experiment,NULL,PennController,21,_Trial_,End,1687188658345,PROLIFIC_ID,stbgtll,19,cup,filler,A,25,cup15.jpg,cup35.jpg,GoalA,NULL
1687188900,6e0951818889afaf0fb3bb4db8e40557,PennController,7,0,experiment,NULL,PennController,6,_Trial_,Start,1687188658346,PROLIFIC_ID,stbgtll,4,candy,critical,A,25,candy15.jpg,candy35.jpg,low,NULL
1687188900,6e0951818889afaf0fb3bb4db8e40557,PennController,7,0,experiment,NULL,PennController,6,_Header_,Start,1687188658346,PROLIFIC_ID,stbgtll,4,candy,critical,A,25,candy15.jpg,candy35.jpg,low,NULL
1687188900,6e0951818889afaf0fb3bb4db8e40557,PennController,7,0,experiment,NULL,PennController,6,_Header_,End,1687188658346,PROLIFIC_ID,stbgtll,4,candy,critical,A,25,candy15.jpg,candy35.jpg,low,NULL
1687188900,6e0951818889afaf0fb3bb4db8e40557,PennController,7,0,experiment,NULL,Canvas,canvas6,Print,NA,1687188664023,PROLIFIC_ID,stbgtll,4,candy,critical,A,25,candy15.jpg,candy35.jpg,low,NULL
1687188900,6e0951818889afaf0fb3bb4db8e40557,PennController,7,0,experiment,NULL,Video,progression,buffer,0.00218,1687188661863,PROLIFIC_ID,stbgtll,4,candy,critical,A,25,candy15.jpg,candy35.jpg,low,NULL
1687188900,6e0951818889afaf0fb3bb4db8e40557,PennController,7,0,experiment,NULL,Selector,choice,Selection,option1,1687188664752,PROLIFIC_ID,stbgtll,4,candy,critical,A,25,candy15.jpg,candy35.jpg,low,option2;option1
1687188900,6e0951818889afaf0fb3bb4db8e40557,PennController,7,0,experiment,NULL,PennController,6,_Trial_,End,1687188664753,PROLIFIC_ID,stbgtll,4,candy,critical,A,25,candy15.jpg,candy35.jpg,low,NULL
1687188900,6e0951818889afaf0fb3bb4db8e40557,PennController,32,0,experiment,NULL,PennController,31,_Trial_,Start,1687188664755,PROLIFIC_ID,stbgtll,29,frog,filler,A,50,frog40.jpg,frog60.jpg,GoalA,NULL
1687188900,6e0951818889afaf0fb3bb4db8e40557,PennController,32,0,experiment,NULL,PennController,31,_Header_,Start,1687188664755,PROLIFIC_ID,stbgtll,29,frog,filler,A,50,frog40.jpg,frog60.jpg,GoalA,NULL
1687188900,6e0951818889afaf0fb3bb4db8e40557,PennController,32,0,experiment,NULL,PennController,31,_Header_,End,1687188664755,PROLIFIC_ID,stbgtll,29,frog,filler,A,50,frog40.jpg,frog60.jpg,GoalA,NULL
1687188900,6e0951818889afaf0fb3bb4db8e40557,PennController,32,0,experiment,NULL,Canvas,canvas6,Print,NA,1687188671438,PROLIFIC_ID,stbgtll,29,frog,filler,A,50,frog40.jpg,frog60.jpg,GoalA,NULL
1687188900,6e0951818889afaf0fb3bb4db8e40557,PennController,32,0,experiment,NULL,Video,progression,buffer,0.002034,1687188668269,PROLIFIC_ID,stbgtll,29,frog,filler,A,50,frog40.jpg,frog60.jpg,GoalA,NULL
1687188900,6e0951818889afaf0fb3bb4db8e40557,PennController,32,0,experiment,NULL,Selector,choice,Selection,option1,1687188672831,PROLIFIC_ID,stbgtll,29,frog,filler,A,50,frog40.jpg,frog60.jpg,GoalA,option2;option1
1687188900,6e0951818889afaf0fb3bb4db8e40557,PennController,32,0,experiment,NULL,PennController,31,_Trial_,End,1687188672832,PROLIFIC_ID,stbgtll,29,frog,filler,A,50,frog40.jpg,frog60.jpg,GoalA,NULL
1687188900,6e0951818889afaf0fb3bb4db8e40557,PennController,24,0,experiment,NULL,PennController,23,_Trial_,Start,1687188672833,PROLIFIC_ID,stbgtll,21,visit,filler,A,75,visit65.jpg,visit85.jpg,GoalA,NULL
1687188900,6e0951818889afaf0fb3bb4db8e40557,PennController,24,0,experiment,NULL,PennController,23,_Header_,Start,1687188672833,PROLIFIC_ID,stbgtll,21,visit,filler,A,75,visit65.jpg,visit85.jpg,GoalA,NULL
1687188900,6e0951818889afaf0fb3bb4db8e40557,PennController,24,0,experiment,NULL,PennController,23,_Header_,End,1687188672833,PROLIFIC_ID,stbgtll,21,visit,filler,A,75,visit65.jpg,visit85.jpg,GoalA,NULL
1687188900,6e0951818889afaf0fb3bb4db8e40557,PennController,24,0,experiment,NULL,Canvas,canvas6,Print,NA,1687188680518,PROLIFIC_ID,stbgtll,21,visit,filler,A,75,visit65.jpg,visit85.jpg,GoalA,NULL
1687188900,6e0951818889afaf0fb3bb4db8e40557,PennController,24,0,experiment,NULL,Video,progression,buffer,0.001662,1687188676348,PROLIFIC_ID,stbgtll,21,visit,filler,A,75,visit65.jpg,visit85.jpg,GoalA,NULL
1687188900,6e0951818889afaf0fb3bb4db8e40557,PennController,24,0,experiment,NULL,Selector,choice,Selection,option1,1687188683376,PROLIFIC_ID,stbgtll,21,visit,filler,A,75,visit65.jpg,visit85.jpg,GoalA,option2;option1
1687188900,6e0951818889afaf0fb3bb4db8e40557,PennController,24,0,experiment,NULL,PennController,23,_Trial_,End,1687188683377,PROLIFIC_ID,stbgtll,21,visit,filler,A,75,visit65.jpg,visit85.jpg,GoalA,NULL
1687188900,6e0951818889afaf0fb3bb4db8e40557,PennController,5,0,experiment,NULL,PennController,4,_Trial_,Start,1687188683377,PROLIFIC_ID,stbgtll,2,door,critical,A,50,door40.jpg,door60.jpg,low,NULL
1687188900,6e0951818889afaf0fb3bb4db8e40557,PennController,5,0,experiment,NULL,PennController,4,_Header_,Start,1687188683377,PROLIFIC_ID,stbgtll,2,door,critical,A,50,door40.jpg,door60.jpg,low,NULL
1687188900,6e0951818889afaf0fb3bb4db8e40557,PennController,5,0,experiment,NULL,PennController,4,_Header_,End,1687188683377,PROLIFIC_ID,stbgtll,2,door,critical,A,50,door40.jpg,door60.jpg,low,NULL
1687188900,6e0951818889afaf0fb3bb4db8e40557,PennController,5,0,experiment,NULL,Canvas,canvas6,Print,NA,1687188690049,PROLIFIC_ID,stbgtll,2,door,critical,A,50,door40.jpg,door60.jpg,low,NULL
1687188900,6e0951818889afaf0fb3bb4db8e40557,PennController,5,0,experiment,NULL,Video,progression,buffer,0.002071,1687188686894,PROLIFIC_ID,stbgtll,2,door,critical,A,50,door40.jpg,door60.jpg,low,NULL
1687188900,6e0951818889afaf0fb3bb4db8e40557,PennController,5,0,experiment,NULL,Selector,choice,Selection,option1,1687188690863,PROLIFIC_ID,stbgtll,2,door,critical,A,50,door40.jpg,door60.jpg,low,option2;option1
1687188900,6e0951818889afaf0fb3bb4db8e40557,PennController,5,0,experiment,NULL,PennController,4,_Trial_,End,1687188690864,PROLIFIC_ID,stbgtll,2,door,critical,A,50,door40.jpg,door60.jpg,low,NULL
1687188900,6e0951818889afaf0fb3bb4db8e40557,PennController,25,0,experiment,NULL,PennController,24,_Trial_,Start,1687188690865,PROLIFIC_ID,stbgtll,22,wall,filler,A,25,wall15.jpg,wall35.jpg,GoalB,NULL
1687188900,6e0951818889afaf0fb3bb4db8e40557,PennController,25,0,experiment,NULL,PennController,24,_Header_,Start,1687188690865,PROLIFIC_ID,stbgtll,22,wall,filler,A,25,wall15.jpg,wall35.jpg,GoalB,NULL
1687188900,6e0951818889afaf0fb3bb4db8e40557,PennController,25,0,experiment,NULL,PennController,24,_Header_,End,1687188690865,PROLIFIC_ID,stbgtll,22,wall,filler,A,25,wall15.jpg,wall35.jpg,GoalB,NULL
1687188900,6e0951818889afaf0fb3bb4db8e40557,PennController,25,0,experiment,NULL,Canvas,canvas6,Print,NA,1687188696552,PROLIFIC_ID,stbgtll,22,wall,filler,A,25,wall15.jpg,wall35.jpg,GoalB,NULL
1687188900,6e0951818889afaf0fb3bb4db8e40557,PennController,25,0,experiment,NULL,Video,progression,buffer,0.003563,1687188694390,PROLIFIC_ID,stbgtll,22,wall,filler,A,25,wall15.jpg,wall35.jpg,GoalB,NULL
1687188900,6e0951818889afaf0fb3bb4db8e40557,PennController,25,0,experiment,NULL,Selector,choice,Selection,option2,1687188697839,PROLIFIC_ID,stbgtll,22,wall,filler,A,25,wall15.jpg,wall35.jpg,GoalB,option1;option2
1687188900,6e0951818889afaf0fb3bb4db8e40557,PennController,25,0,experiment,NULL,PennController,24,_Trial_,End,1687188697840,PROLIFIC_ID,stbgtll,22,wall,filler,A,25,wall15.jpg,wall35.jpg,GoalB,NULL
1687188900,6e0951818889afaf0fb3bb4db8e40557,PennController,14,0,experiment,NULL,PennController,13,_Trial_,Start,1687188697840,PROLIFIC_ID,stbgtll,11,beads,critical,A,50,beads40.jpg,beads60.jpg,low,NULL
1687188900,6e0951818889afaf0fb3bb4db8e40557,PennController,14,0,experiment,NULL,PennController,13,_Header_,Start,1687188697840,PROLIFIC_ID,stbgtll,11,beads,critical,A,50,beads40.jpg,beads60.jpg,low,NULL
1687188900,6e0951818889afaf0fb3bb4db8e40557,PennController,14,0,experiment,NULL,PennController,13,_Header_,End,1687188697840,PROLIFIC_ID,stbgtll,11,beads,critical,A,50,beads40.jpg,beads60.jpg,low,NULL
1687188900,6e0951818889afaf0fb3bb4db8e40557,PennController,14,0,experiment,NULL,Canvas,canvas6,Print,NA,1687188704522,PROLIFIC_ID,stbgtll,11,beads,critical,A,50,beads40.jpg,beads60.jpg,low,NULL
1687188900,6e0951818889afaf0fb3bb4db8e40557,PennController,14,0,experiment,NULL,Video,progression,buffer,0.002034,1687188701360,PROLIFIC_ID,stbgtll,11,beads,critical,A,50,beads40.jpg,beads60.jpg,low,NULL
1687188900,6e0951818889afaf0fb3bb4db8e40557,PennController,14,0,experiment,NULL,Selector,choice,Selection,option1,1687188705711,PROLIFIC_ID,stbgtll,11,beads,critical,A,50,beads40.jpg,beads60.jpg,low,option2;option1
1687188900,6e0951818889afaf0fb3bb4db8e40557,PennController,14,0,experiment,NULL,PennController,13,_Trial_,End,1687188705712,PROLIFIC_ID,stbgtll,11,beads,critical,A,50,beads40.jpg,beads60.jpg,low,NULL
1687188900,6e0951818889afaf0fb3bb4db8e40557,PennController,8,0,experiment,NULL,PennController,7,_Trial_,Start,1687188705713,PROLIFIC_ID,stbgtll,5,book,critical,A,50,book40.jpg,book60.jpg,low,NULL
1687188900,6e0951818889afaf0fb3bb4db8e40557,PennController,8,0,experiment,NULL,PennController,7,_Header_,Start,1687188705713,PROLIFIC_ID,stbgtll,5,book,critical,A,50,book40.jpg,book60.jpg,low,NULL
1687188900,6e0951818889afaf0fb3bb4db8e40557,PennController,8,0,experiment,NULL,PennController,7,_Header_,End,1687188705713,PROLIFIC_ID,stbgtll,5,book,critical,A,50,book40.jpg,book60.jpg,low,NULL
1687188900,6e0951818889afaf0fb3bb4db8e40557,PennController,8,0,experiment,NULL,Canvas,canvas6,Print,NA,1687188712402,PROLIFIC_ID,stbgtll,5,book,critical,A,50,book40.jpg,book60.jpg,low,NULL
1687188900,6e0951818889afaf0fb3bb4db8e40557,PennController,8,0,experiment,NULL,Video,progression,buffer,0.004642,1687188709234,PROLIFIC_ID,stbgtll,5,book,critical,A,50,book40.jpg,book60.jpg,low,NULL
1687188900,6e0951818889afaf0fb3bb4db8e40557,PennController,8,0,experiment,NULL,Selector,choice,Selection,option1,1687188743543,PROLIFIC_ID,stbgtll,5,book,critical,A,50,book40.jpg,book60.jpg,low,option2;option1
1687188900,6e0951818889afaf0fb3bb4db8e40557,PennController,8,0,experiment,NULL,PennController,7,_Trial_,End,1687188743543,PROLIFIC_ID,stbgtll,5,book,critical,A,50,book40.jpg,book60.jpg,low,NULL
1687188900,6e0951818889afaf0fb3bb4db8e40557,PennController,12,0,experiment,NULL,PennController,11,_Trial_,Start,1687188743544,PROLIFIC_ID,stbgtll,9,cake,critical,A,75,cake66.jpg,cake84.jpg,low,NULL
1687188900,6e0951818889afaf0fb3bb4db8e40557,PennController,12,0,experiment,NULL,PennController,11,_Header_,Start,1687188743544,PROLIFIC_ID,stbgtll,9,cake,critical,A,75,cake66.jpg,cake84.jpg,low,NULL
1687188900,6e0951818889afaf0fb3bb4db8e40557,PennController,12,0,experiment,NULL,PennController,11,_Header_,End,1687188743545,PROLIFIC_ID,stbgtll,9,cake,critical,A,75,cake66.jpg,cake84.jpg,low,NULL
1687188900,6e0951818889afaf0fb3bb4db8e40557,PennController,12,0,experiment,NULL,Canvas,canvas6,Print,NA,1687188753215,PROLIFIC_ID,stbgtll,9,cake,critical,A,75,cake66.jpg,cake84.jpg,low,NULL
1687188900,6e0951818889afaf0fb3bb4db8e40557,PennController,12,0,experiment,NULL,Video,progression,buffer,0.002418,1687188747058,PROLIFIC_ID,stbgtll,9,cake,critical,A,75,cake66.jpg,cake84.jpg,low,NULL
1687188900,6e0951818889afaf0fb3bb4db8e40557,PennController,12,0,experiment,NULL,Selector,choice,Selection,option1,1687188755952,PROLIFIC_ID,stbgtll,9,cake,critical,A,75,cake66.jpg,cake84.jpg,low,option2;option1
1687188900,6e0951818889afaf0fb3bb4db8e40557,PennController,12,0,experiment,NULL,PennController,11,_Trial_,End,1687188755953,PROLIFIC_ID,stbgtll,9,cake,critical,A,75,cake66.jpg,cake84.jpg,low,NULL
1687188900,6e0951818889afaf0fb3bb4db8e40557,PennController,30,0,experiment,NULL,PennController,29,_Trial_,Start,1687188755956,PROLIFIC_ID,stbgtll,27,square,filler,A,75,square65.jpg,square85.jpg,GoalA,NULL
1687188900,6e0951818889afaf0fb3bb4db8e40557,PennController,30,0,experiment,NULL,PennController,29,_Header_,Start,1687188755956,PROLIFIC_ID,stbgtll,27,square,filler,A,75,square65.jpg,square85.jpg,GoalA,NULL
1687188900,6e0951818889afaf0fb3bb4db8e40557,PennController,30,0,experiment,NULL,PennController,29,_Header_,End,1687188755956,PROLIFIC_ID,stbgtll,27,square,filler,A,75,square65.jpg,square85.jpg,GoalA,NULL
1687188900,6e0951818889afaf0fb3bb4db8e40557,PennController,30,0,experiment,NULL,Canvas,canvas6,Print,NA,1687188763648,PROLIFIC_ID,stbgtll,27,square,filler,A,75,square65.jpg,square85.jpg,GoalA,NULL
1687188900,6e0951818889afaf0fb3bb4db8e40557,PennController,30,0,experiment,NULL,Video,progression,buffer,0.002763,1687188759477,PROLIFIC_ID,stbgtll,27,square,filler,A,75,square65.jpg,square85.jpg,GoalA,NULL
1687188900,6e0951818889afaf0fb3bb4db8e40557,PennController,30,0,experiment,NULL,Selector,choice,Selection,option1,1687188764327,PROLIFIC_ID,stbgtll,27,square,filler,A,75,square65.jpg,square85.jpg,GoalA,option2;option1
1687188900,6e0951818889afaf0fb3bb4db8e40557,PennController,30,0,experiment,NULL,PennController,29,_Trial_,End,1687188764328,PROLIFIC_ID,stbgtll,27,square,filler,A,75,square65.jpg,square85.jpg,GoalA,NULL
1687188900,6e0951818889afaf0fb3bb4db8e40557,PennController,17,0,experiment,NULL,PennController,16,_Trial_,Start,1687188764328,PROLIFIC_ID,stbgtll,14,cover,critical,A,50,cover42.jpg,cover60.jpg,low,NULL
1687188900,6e0951818889afaf0fb3bb4db8e40557,PennController,17,0,experiment,NULL,PennController,16,_Header_,Start,1687188764328,PROLIFIC_ID,stbgtll,14,cover,critical,A,50,cover42.jpg,cover60.jpg,low,NULL
1687188900,6e0951818889afaf0fb3bb4db8e40557,PennController,17,0,experiment,NULL,PennController,16,_Header_,End,1687188764328,PROLIFIC_ID,stbgtll,14,cover,critical,A,50,cover42.jpg,cover60.jpg,low,NULL
1687188900,6e0951818889afaf0fb3bb4db8e40557,PennController,17,0,experiment,NULL,Canvas,canvas6,Print,NA,1687188772417,PROLIFIC_ID,stbgtll,14,cover,critical,A,50,cover42.jpg,cover60.jpg,low,NULL
1687188900,6e0951818889afaf0fb3bb4db8e40557,PennController,17,0,experiment,NULL,Video,progression,buffer,0.003378,1687188767847,PROLIFIC_ID,stbgtll,14,cover,critical,A,50,cover42.jpg,cover60.jpg,low,NULL
1687188900,6e0951818889afaf0fb3bb4db8e40557,PennController,17,0,experiment,NULL,Selector,choice,Selection,option1,1687188774000,PROLIFIC_ID,stbgtll,14,cover,critical,A,50,cover42.jpg,cover60.jpg,low,option2;option1
1687188900,6e0951818889afaf0fb3bb4db8e40557,PennController,17,0,experiment,NULL,PennController,16,_Trial_,End,1687188774001,PROLIFIC_ID,stbgtll,14,cover,critical,A,50,cover42.jpg,cover60.jpg,low,NULL
1687188900,6e0951818889afaf0fb3bb4db8e40557,PennController,19,0,experiment,NULL,PennController,18,_Trial_,Start,1687188774002,PROLIFIC_ID,stbgtll,16,blinds,critical,A,25,blinds15.jpg,blinds33.jpg,low,NULL
1687188900,6e0951818889afaf0fb3bb4db8e40557,PennController,19,0,experiment,NULL,PennController,18,_Header_,Start,1687188774002,PROLIFIC_ID,stbgtll,16,blinds,critical,A,25,blinds15.jpg,blinds33.jpg,low,NULL
1687188900,6e0951818889afaf0fb3bb4db8e40557,PennController,19,0,experiment,NULL,PennController,18,_Header_,End,1687188774002,PROLIFIC_ID,stbgtll,16,blinds,critical,A,25,blinds15.jpg,blinds33.jpg,low,NULL
1687188900,6e0951818889afaf0fb3bb4db8e40557,PennController,19,0,experiment,NULL,Canvas,canvas6,Print,NA,1687188780281,PROLIFIC_ID,stbgtll,16,blinds,critical,A,25,blinds15.jpg,blinds33.jpg,low,NULL
1687188900,6e0951818889afaf0fb3bb4db8e40557,PennController,19,0,experiment,NULL,Video,progression,buffer,0.00253,1687188777520,PROLIFIC_ID,stbgtll,16,blinds,critical,A,25,blinds15.jpg,blinds33.jpg,low,NULL
1687188900,6e0951818889afaf0fb3bb4db8e40557,PennController,19,0,experiment,NULL,Selector,choice,Selection,option1,1687188784527,PROLIFIC_ID,stbgtll,16,blinds,critical,A,25,blinds15.jpg,blinds33.jpg,low,option2;option1
1687188900,6e0951818889afaf0fb3bb4db8e40557,PennController,19,0,experiment,NULL,PennController,18,_Trial_,End,1687188784528,PROLIFIC_ID,stbgtll,16,blinds,critical,A,25,blinds15.jpg,blinds33.jpg,low,NULL
1687188900,6e0951818889afaf0fb3bb4db8e40557,PennController,21,0,experiment,NULL,PennController,20,_Trial_,Start,1687188784530,PROLIFIC_ID,stbgtll,18,ball,critical,A,75,ball65.jpg,ball85.jpg,low,NULL
1687188900,6e0951818889afaf0fb3bb4db8e40557,PennController,21,0,experiment,NULL,PennController,20,_Header_,Start,1687188784530,PROLIFIC_ID,stbgtll,18,ball,critical,A,75,ball65.jpg,ball85.jpg,low,NULL
1687188900,6e0951818889afaf0fb3bb4db8e40557,PennController,21,0,experiment,NULL,PennController,20,_Header_,End,1687188784530,PROLIFIC_ID,stbgtll,18,ball,critical,A,75,ball65.jpg,ball85.jpg,low,NULL
1687188900,6e0951818889afaf0fb3bb4db8e40557,PennController,21,0,experiment,NULL,Canvas,canvas6,Print,NA,1687188792216,PROLIFIC_ID,stbgtll,18,ball,critical,A,75,ball65.jpg,ball85.jpg,low,NULL
1687188900,6e0951818889afaf0fb3bb4db8e40557,PennController,21,0,experiment,NULL,Video,progression,buffer,0.002598,1687188788051,PROLIFIC_ID,stbgtll,18,ball,critical,A,75,ball65.jpg,ball85.jpg,low,NULL
1687188900,6e0951818889afaf0fb3bb4db8e40557,PennController,21,0,experiment,NULL,Selector,choice,Selection,option1,1687188793671,PROLIFIC_ID,stbgtll,18,ball,critical,A,75,ball65.jpg,ball85.jpg,low,option2;option1
1687188900,6e0951818889afaf0fb3bb4db8e40557,PennController,21,0,experiment,NULL,PennController,20,_Trial_,End,1687188793672,PROLIFIC_ID,stbgtll,18,ball,critical,A,75,ball65.jpg,ball85.jpg,low,NULL
1687188900,6e0951818889afaf0fb3bb4db8e40557,PennController,15,0,experiment,NULL,PennController,14,_Trial_,Start,1687188793674,PROLIFIC_ID,stbgtll,12,erase,critical,A,75,erase66.jpg,erase84.jpg,low,NULL
1687188900,6e0951818889afaf0fb3bb4db8e40557,PennController,15,0,experiment,NULL,PennController,14,_Header_,Start,1687188793674,PROLIFIC_ID,stbgtll,12,erase,critical,A,75,erase66.jpg,erase84.jpg,low,NULL
1687188900,6e0951818889afaf0fb3bb4db8e40557,PennController,15,0,experiment,NULL,PennController,14,_Header_,End,1687188793674,PROLIFIC_ID,stbgtll,12,erase,critical,A,75,erase66.jpg,erase84.jpg,low,NULL
1687188900,6e0951818889afaf0fb3bb4db8e40557,PennController,15,0,experiment,NULL,Canvas,canvas6,Print,NA,1687188803347,PROLIFIC_ID,stbgtll,12,erase,critical,A,75,erase66.jpg,erase84.jpg,low,NULL
1687188900,6e0951818889afaf0fb3bb4db8e40557,PennController,15,0,experiment,NULL,Video,progression,buffer,0.002741,1687188797192,PROLIFIC_ID,stbgtll,12,erase,critical,A,75,erase66.jpg,erase84.jpg,low,NULL
1687188900,6e0951818889afaf0fb3bb4db8e40557,PennController,15,0,experiment,NULL,Selector,choice,Selection,option2,1687188808431,PROLIFIC_ID,stbgtll,12,erase,critical,A,75,erase66.jpg,erase84.jpg,low,option1;option2
1687188900,6e0951818889afaf0fb3bb4db8e40557,PennController,15,0,experiment,NULL,PennController,14,_Trial_,End,1687188808432,PROLIFIC_ID,stbgtll,12,erase,critical,A,75,erase66.jpg,erase84.jpg,low,NULL
1687188900,6e0951818889afaf0fb3bb4db8e40557,PennController,23,0,experiment,NULL,PennController,22,_Trial_,Start,1687188808433,PROLIFIC_ID,stbgtll,20,cat,filler,A,50,cat40.jpg,cat60.jpg,GoalB,NULL
1687188900,6e0951818889afaf0fb3bb4db8e40557,PennController,23,0,experiment,NULL,PennController,22,_Header_,Start,1687188808433,PROLIFIC_ID,stbgtll,20,cat,filler,A,50,cat40.jpg,cat60.jpg,GoalB,NULL
1687188900,6e0951818889afaf0fb3bb4db8e40557,PennController,23,0,experiment,NULL,PennController,22,_Header_,End,1687188808433,PROLIFIC_ID,stbgtll,20,cat,filler,A,50,cat40.jpg,cat60.jpg,GoalB,NULL
1687188900,6e0951818889afaf0fb3bb4db8e40557,PennController,23,0,experiment,NULL,Canvas,canvas6,Print,NA,1687188815113,PROLIFIC_ID,stbgtll,20,cat,filler,A,50,cat40.jpg,cat60.jpg,GoalB,NULL
1687188900,6e0951818889afaf0fb3bb4db8e40557,PennController,23,0,experiment,NULL,Video,progression,buffer,0.00159,1687188811947,PROLIFIC_ID,stbgtll,20,cat,filler,A,50,cat40.jpg,cat60.jpg,GoalB,NULL
1687188900,6e0951818889afaf0fb3bb4db8e40557,PennController,23,0,experiment,NULL,Selector,choice,Selection,option2,1687188815832,PROLIFIC_ID,stbgtll,20,cat,filler,A,50,cat40.jpg,cat60.jpg,GoalB,option1;option2
1687188900,6e0951818889afaf0fb3bb4db8e40557,PennController,23,0,experiment,NULL,PennController,22,_Trial_,End,1687188815833,PROLIFIC_ID,stbgtll,20,cat,filler,A,50,cat40.jpg,cat60.jpg,GoalB,NULL
1687188900,6e0951818889afaf0fb3bb4db8e40557,PennController,6,0,experiment,NULL,PennController,5,_Trial_,Start,1687188815834,PROLIFIC_ID,stbgtll,3,clean,critical,A,75,clean65.jpg,clean85.jpg,low,NULL
1687188900,6e0951818889afaf0fb3bb4db8e40557,PennController,6,0,experiment,NULL,PennController,5,_Header_,Start,1687188815834,PROLIFIC_ID,stbgtll,3,clean,critical,A,75,clean65.jpg,clean85.jpg,low,NULL
1687188900,6e0951818889afaf0fb3bb4db8e40557,PennController,6,0,experiment,NULL,PennController,5,_Header_,End,1687188815834,PROLIFIC_ID,stbgtll,3,clean,critical,A,75,clean65.jpg,clean85.jpg,low,NULL
1687188900,6e0951818889afaf0fb3bb4db8e40557,PennController,6,0,experiment,NULL,Canvas,canvas6,Print,NA,1687188823513,PROLIFIC_ID,stbgtll,3,clean,critical,A,75,clean65.jpg,clean85.jpg,low,NULL
1687188900,6e0951818889afaf0fb3bb4db8e40557,PennController,6,0,experiment,NULL,Video,progression,buffer,0.002788,1687188819351,PROLIFIC_ID,stbgtll,3,clean,critical,A,75,clean65.jpg,clean85.jpg,low,NULL
1687188900,6e0951818889afaf0fb3bb4db8e40557,PennController,6,0,experiment,NULL,Selector,choice,Selection,option2,1687188824160,PROLIFIC_ID,stbgtll,3,clean,critical,A,75,clean65.jpg,clean85.jpg,low,option1;option2
1687188900,6e0951818889afaf0fb3bb4db8e40557,PennController,6,0,experiment,NULL,PennController,5,_Trial_,End,1687188824161,PROLIFIC_ID,stbgtll,3,clean,critical,A,75,clean65.jpg,clean85.jpg,low,NULL
1687188900,6e0951818889afaf0fb3bb4db8e40557,PennController,26,0,experiment,NULL,PennController,25,_Trial_,Start,1687188824162,PROLIFIC_ID,stbgtll,23,color,filler,A,50,color40.jpg,color60.jpg,GoalA,NULL
1687188900,6e0951818889afaf0fb3bb4db8e40557,PennController,26,0,experiment,NULL,PennController,25,_Header_,Start,1687188824162,PROLIFIC_ID,stbgtll,23,color,filler,A,50,color40.jpg,color60.jpg,GoalA,NULL
1687188900,6e0951818889afaf0fb3bb4db8e40557,PennController,26,0,experiment,NULL,PennController,25,_Header_,End,1687188824162,PROLIFIC_ID,stbgtll,23,color,filler,A,50,color40.jpg,color60.jpg,GoalA,NULL
1687188900,6e0951818889afaf0fb3bb4db8e40557,PennController,26,0,experiment,NULL,Canvas,canvas6,Print,NA,1687188830848,PROLIFIC_ID,stbgtll,23,color,filler,A,50,color40.jpg,color60.jpg,GoalA,NULL
1687188900,6e0951818889afaf0fb3bb4db8e40557,PennController,26,0,experiment,NULL,Video,progression,buffer,0.002003,1687188827687,PROLIFIC_ID,stbgtll,23,color,filler,A,50,color40.jpg,color60.jpg,GoalA,NULL
1687188900,6e0951818889afaf0fb3bb4db8e40557,PennController,26,0,experiment,NULL,Selector,choice,Selection,option1,1687188833808,PROLIFIC_ID,stbgtll,23,color,filler,A,50,color40.jpg,color60.jpg,GoalA,option2;option1
1687188900,6e0951818889afaf0fb3bb4db8e40557,PennController,26,0,experiment,NULL,PennController,25,_Trial_,End,1687188833809,PROLIFIC_ID,stbgtll,23,color,filler,A,50,color40.jpg,color60.jpg,GoalA,NULL
1687188900,6e0951818889afaf0fb3bb4db8e40557,PennController,29,0,experiment,NULL,PennController,28,_Trial_,Start,1687188833810,PROLIFIC_ID,stbgtll,26,sandwich,filler,A,50,sandwich40.jpg,sandwich60.jpg,GoalB,NULL
1687188900,6e0951818889afaf0fb3bb4db8e40557,PennController,29,0,experiment,NULL,PennController,28,_Header_,Start,1687188833810,PROLIFIC_ID,stbgtll,26,sandwich,filler,A,50,sandwich40.jpg,sandwich60.jpg,GoalB,NULL
1687188900,6e0951818889afaf0fb3bb4db8e40557,PennController,29,0,experiment,NULL,PennController,28,_Header_,End,1687188833810,PROLIFIC_ID,stbgtll,26,sandwich,filler,A,50,sandwich40.jpg,sandwich60.jpg,GoalB,NULL
1687188900,6e0951818889afaf0fb3bb4db8e40557,PennController,29,0,experiment,NULL,Canvas,canvas6,Print,NA,1687188840496,PROLIFIC_ID,stbgtll,26,sandwich,filler,A,50,sandwich40.jpg,sandwich60.jpg,GoalB,NULL
1687188900,6e0951818889afaf0fb3bb4db8e40557,PennController,29,0,experiment,NULL,Video,progression,buffer,0.004024,1687188837334,PROLIFIC_ID,stbgtll,26,sandwich,filler,A,50,sandwich40.jpg,sandwich60.jpg,GoalB,NULL
1687188900,6e0951818889afaf0fb3bb4db8e40557,PennController,29,0,experiment,NULL,Selector,choice,Selection,option2,1687188841336,PROLIFIC_ID,stbgtll,26,sandwich,filler,A,50,sandwich40.jpg,sandwich60.jpg,GoalB,option1;option2
1687188900,6e0951818889afaf0fb3bb4db8e40557,PennController,29,0,experiment,NULL,PennController,28,_Trial_,End,1687188841336,PROLIFIC_ID,stbgtll,26,sandwich,filler,A,50,sandwich40.jpg,sandwich60.jpg,GoalB,NULL
1687188900,6e0951818889afaf0fb3bb4db8e40557,PennController,16,0,experiment,NULL,PennController,15,_Trial_,Start,1687188841337,PROLIFIC_ID,stbgtll,13,mix,critical,A,25,mix15.jpg,mix35.jpg,low,NULL
1687188900,6e0951818889afaf0fb3bb4db8e40557,PennController,16,0,experiment,NULL,PennController,15,_Header_,Start,1687188841337,PROLIFIC_ID,stbgtll,13,mix,critical,A,25,mix15.jpg,mix35.jpg,low,NULL
1687188900,6e0951818889afaf0fb3bb4db8e40557,PennController,16,0,experiment,NULL,PennController,15,_Header_,End,1687188841337,PROLIFIC_ID,stbgtll,13,mix,critical,A,25,mix15.jpg,mix35.jpg,low,NULL
1687188900,6e0951818889afaf0fb3bb4db8e40557,PennController,16,0,experiment,NULL,Canvas,canvas6,Print,NA,1687188847010,PROLIFIC_ID,stbgtll,13,mix,critical,A,25,mix15.jpg,mix35.jpg,low,NULL
1687188900,6e0951818889afaf0fb3bb4db8e40557,PennController,16,0,experiment,NULL,Video,progression,buffer,0.001831,1687188844854,PROLIFIC_ID,stbgtll,13,mix,critical,A,25,mix15.jpg,mix35.jpg,low,NULL
1687188900,6e0951818889afaf0fb3bb4db8e40557,PennController,16,0,experiment,NULL,Selector,choice,Selection,option1,1687188852360,PROLIFIC_ID,stbgtll,13,mix,critical,A,25,mix15.jpg,mix35.jpg,low,option2;option1
1687188900,6e0951818889afaf0fb3bb4db8e40557,PennController,16,0,experiment,NULL,PennController,15,_Trial_,End,1687188852360,PROLIFIC_ID,stbgtll,13,mix,critical,A,25,mix15.jpg,mix35.jpg,low,NULL
1687188900,6e0951818889afaf0fb3bb4db8e40557,PennController,11,0,experiment,NULL,PennController,10,_Trial_,Start,1687188852361,PROLIFIC_ID,stbgtll,8,cucumber,critical,A,50,cucumber42.jpg,cucumber60.jpg,low,NULL
1687188900,6e0951818889afaf0fb3bb4db8e40557,PennController,11,0,experiment,NULL,PennController,10,_Header_,Start,1687188852361,PROLIFIC_ID,stbgtll,8,cucumber,critical,A,50,cucumber42.jpg,cucumber60.jpg,low,NULL
1687188900,6e0951818889afaf0fb3bb4db8e40557,PennController,11,0,experiment,NULL,PennController,10,_Header_,End,1687188852361,PROLIFIC_ID,stbgtll,8,cucumber,critical,A,50,cucumber42.jpg,cucumber60.jpg,low,NULL
1687188900,6e0951818889afaf0fb3bb4db8e40557,PennController,11,0,experiment,NULL,Canvas,canvas6,Print,NA,1687188860446,PROLIFIC_ID,stbgtll,8,cucumber,critical,A,50,cucumber42.jpg,cucumber60.jpg,low,NULL
1687188900,6e0951818889afaf0fb3bb4db8e40557,PennController,11,0,experiment,NULL,Video,progression,buffer,0.002925,1687188855877,PROLIFIC_ID,stbgtll,8,cucumber,critical,A,50,cucumber42.jpg,cucumber60.jpg,low,NULL
1687188900,6e0951818889afaf0fb3bb4db8e40557,PennController,11,0,experiment,NULL,Selector,choice,Selection,option2,1687188871223,PROLIFIC_ID,stbgtll,8,cucumber,critical,A,50,cucumber42.jpg,cucumber60.jpg,low,option1;option2
1687188900,6e0951818889afaf0fb3bb4db8e40557,PennController,11,0,experiment,NULL,PennController,10,_Trial_,End,1687188871225,PROLIFIC_ID,stbgtll,8,cucumber,critical,A,50,cucumber42.jpg,cucumber60.jpg,low,NULL
1687188900,6e0951818889afaf0fb3bb4db8e40557,PennController,9,0,experiment,NULL,PennController,8,_Trial_,Start,1687188871226,PROLIFIC_ID,stbgtll,6,flower,critical,A,75,flower65.jpg,flower85.jpg,low,NULL
1687188900,6e0951818889afaf0fb3bb4db8e40557,PennController,9,0,experiment,NULL,PennController,8,_Header_,Start,1687188871226,PROLIFIC_ID,stbgtll,6,flower,critical,A,75,flower65.jpg,flower85.jpg,low,NULL
1687188900,6e0951818889afaf0fb3bb4db8e40557,PennController,9,0,experiment,NULL,PennController,8,_Header_,End,1687188871226,PROLIFIC_ID,stbgtll,6,flower,critical,A,75,flower65.jpg,flower85.jpg,low,NULL
1687188900,6e0951818889afaf0fb3bb4db8e40557,PennController,9,0,experiment,NULL,Canvas,canvas6,Print,NA,1687188878909,PROLIFIC_ID,stbgtll,6,flower,critical,A,75,flower65.jpg,flower85.jpg,low,NULL
1687188900,6e0951818889afaf0fb3bb4db8e40557,PennController,9,0,experiment,NULL,Video,progression,buffer,0.00213,1687188874743,PROLIFIC_ID,stbgtll,6,flower,critical,A,75,flower65.jpg,flower85.jpg,low,NULL
1687188900,6e0951818889afaf0fb3bb4db8e40557,PennController,9,0,experiment,NULL,Selector,choice,Selection,option1,1687188884887,PROLIFIC_ID,stbgtll,6,flower,critical,A,75,flower65.jpg,flower85.jpg,low,option2;option1
1687188900,6e0951818889afaf0fb3bb4db8e40557,PennController,9,0,experiment,NULL,PennController,8,_Trial_,End,1687188884887,PROLIFIC_ID,stbgtll,6,flower,critical,A,75,flower65.jpg,flower85.jpg,low,NULL
1687188900,6e0951818889afaf0fb3bb4db8e40557,PennController,27,0,experiment,NULL,PennController,26,_Trial_,Start,1687188884888,PROLIFIC_ID,stbgtll,24,match,filler,A,75,match65.jpg,match85.jpg,GoalB,NULL
1687188900,6e0951818889afaf0fb3bb4db8e40557,PennController,27,0,experiment,NULL,PennController,26,_Header_,Start,1687188884888,PROLIFIC_ID,stbgtll,24,match,filler,A,75,match65.jpg,match85.jpg,GoalB,NULL
1687188900,6e0951818889afaf0fb3bb4db8e40557,PennController,27,0,experiment,NULL,PennController,26,_Header_,End,1687188884888,PROLIFIC_ID,stbgtll,24,match,filler,A,75,match65.jpg,match85.jpg,GoalB,NULL
1687188900,6e0951818889afaf0fb3bb4db8e40557,PennController,27,0,experiment,NULL,Canvas,canvas6,Print,NA,1687188892573,PROLIFIC_ID,stbgtll,24,match,filler,A,75,match65.jpg,match85.jpg,GoalB,NULL
1687188900,6e0951818889afaf0fb3bb4db8e40557,PennController,27,0,experiment,NULL,Video,progression,buffer,0.004069,1687188888405,PROLIFIC_ID,stbgtll,24,match,filler,A,75,match65.jpg,match85.jpg,GoalB,NULL
1687188900,6e0951818889afaf0fb3bb4db8e40557,PennController,27,0,experiment,NULL,Selector,choice,Selection,option2,1687188900247,PROLIFIC_ID,stbgtll,24,match,filler,A,75,match65.jpg,match85.jpg,GoalB,option1;option2
1687188900,6e0951818889afaf0fb3bb4db8e40557,PennController,27,0,experiment,NULL,PennController,26,_Trial_,End,1687188900248,PROLIFIC_ID,stbgtll,24,match,filler,A,75,match65.jpg,match85.jpg,GoalB,NULL
