#
# Results on Tuesday June 20 2023 18:56:46 UTC
# USER AGENT: Mozilla/5.0 (Windows NT 10.0; Win64; x64) AppleWebKit/537.36 (KHTML, like Gecko) Chrome/114.0.0.0 Safari/537.36
# Design number was non-random = 3
#
# Columns below this comment are as follows:
# 1. Results reception time.
# 2. MD5 hash of participant's IP address.
# 3. Controller name.
# 4. Order number of item.
# 5. Inner element number.
# 6. Label.
# 7. Latin Square Group.
# 8. PennElementType.
# 9. PennElementName.
# 10. Parameter.
# 11. Value.
# 12. EventTime.
# 13. PROLIFIC_ID.
# 14. Comments.
1687287406,4b7f43129c0484be5ad7334acf7731b0,PennController,2,0,consent,NULL,PennController,0,_Trial_,Start,1687287094946,610302433779f4af5b9b0812,NULL
1687287406,4b7f43129c0484be5ad7334acf7731b0,PennController,2,0,consent,NULL,PennController,0,_Header_,Start,1687287094946,610302433779f4af5b9b0812,NULL
1687287406,4b7f43129c0484be5ad7334acf7731b0,PennController,2,0,consent,NULL,PennController,0,_Header_,End,1687287094946,610302433779f4af5b9b0812,NULL
1687287406,4b7f43129c0484be5ad7334acf7731b0,PennController,2,0,consent,NULL,PennController,0,_Trial_,End,1687287099725,610302433779f4af5b9b0812,NULL
# Columns below this comment are as follows:
# 14. ID.
# 15. Comments.
1687287406,4b7f43129c0484be5ad7334acf7731b0,PennController,3,0,intro,NULL,PennController,1,_Trial_,Start,1687287099728,610302433779f4af5b9b0812,610302433779f4af5b9b0812,NULL
1687287406,4b7f43129c0484be5ad7334acf7731b0,PennController,3,0,intro,NULL,PennController,1,_Header_,Start,1687287099728,610302433779f4af5b9b0812,610302433779f4af5b9b0812,NULL
1687287406,4b7f43129c0484be5ad7334acf7731b0,PennController,3,0,intro,NULL,PennController,1,_Header_,End,1687287099728,610302433779f4af5b9b0812,610302433779f4af5b9b0812,NULL
1687287406,4b7f43129c0484be5ad7334acf7731b0,PennController,3,0,intro,NULL,PennController,1,_Trial_,End,1687287109274,610302433779f4af5b9b0812,610302433779f4af5b9b0812,NULL
# Columns below this comment are as follows:
# 15. item_number.
# 16. item.
# 17. type.
# 18. Group.
# 19. prog.
# 20. prev_image.
# 21. next_image.
# 22. height.
# 23. Comments.
1687287406,4b7f43129c0484be5ad7334acf7731b0,PennController,28,0,experiment,NULL,PennController,27,_Trial_,Start,1687287109280,610302433779f4af5b9b0812,610302433779f4af5b9b0812,25,house,filler,D,25,house15.jpg,house35.jpg,GoalB,NULL
1687287406,4b7f43129c0484be5ad7334acf7731b0,PennController,28,0,experiment,NULL,PennController,27,_Header_,Start,1687287109280,610302433779f4af5b9b0812,610302433779f4af5b9b0812,25,house,filler,D,25,house15.jpg,house35.jpg,GoalB,NULL
1687287406,4b7f43129c0484be5ad7334acf7731b0,PennController,28,0,experiment,NULL,PennController,27,_Header_,End,1687287109280,610302433779f4af5b9b0812,610302433779f4af5b9b0812,25,house,filler,D,25,house15.jpg,house35.jpg,GoalB,NULL
1687287406,4b7f43129c0484be5ad7334acf7731b0,PennController,28,0,experiment,NULL,Canvas,canvas6,Print,NA,1687287115027,610302433779f4af5b9b0812,610302433779f4af5b9b0812,25,house,filler,D,25,house15.jpg,house35.jpg,GoalB,NULL
1687287406,4b7f43129c0484be5ad7334acf7731b0,PennController,28,0,experiment,NULL,Video,progression,buffer,0.011562,1687287112849,610302433779f4af5b9b0812,610302433779f4af5b9b0812,25,house,filler,D,25,house15.jpg,house35.jpg,GoalB,NULL
1687287406,4b7f43129c0484be5ad7334acf7731b0,PennController,28,0,experiment,NULL,Selector,choice,Selection,option2,1687287123750,610302433779f4af5b9b0812,610302433779f4af5b9b0812,25,house,filler,D,25,house15.jpg,house35.jpg,GoalB,option2;option1
1687287406,4b7f43129c0484be5ad7334acf7731b0,PennController,28,0,experiment,NULL,PennController,27,_Trial_,End,1687287123752,610302433779f4af5b9b0812,610302433779f4af5b9b0812,25,house,filler,D,25,house15.jpg,house35.jpg,GoalB,NULL
1687287406,4b7f43129c0484be5ad7334acf7731b0,PennController,13,0,experiment,NULL,PennController,12,_Trial_,Start,1687287123755,610302433779f4af5b9b0812,610302433779f4af5b9b0812,10,train,critical,D,25,train15.jpg,train35.jpg,high,NULL
1687287406,4b7f43129c0484be5ad7334acf7731b0,PennController,13,0,experiment,NULL,PennController,12,_Header_,Start,1687287123755,610302433779f4af5b9b0812,610302433779f4af5b9b0812,10,train,critical,D,25,train15.jpg,train35.jpg,high,NULL
1687287406,4b7f43129c0484be5ad7334acf7731b0,PennController,13,0,experiment,NULL,PennController,12,_Header_,End,1687287123755,610302433779f4af5b9b0812,610302433779f4af5b9b0812,10,train,critical,D,25,train15.jpg,train35.jpg,high,NULL
1687287406,4b7f43129c0484be5ad7334acf7731b0,PennController,13,0,experiment,NULL,Canvas,canvas6,Print,NA,1687287129466,610302433779f4af5b9b0812,610302433779f4af5b9b0812,10,train,critical,D,25,train15.jpg,train35.jpg,high,NULL
1687287406,4b7f43129c0484be5ad7334acf7731b0,PennController,13,0,experiment,NULL,Video,progression,buffer,0.005531,1687287127302,610302433779f4af5b9b0812,610302433779f4af5b9b0812,10,train,critical,D,25,train15.jpg,train35.jpg,high,NULL
1687287406,4b7f43129c0484be5ad7334acf7731b0,PennController,13,0,experiment,NULL,Selector,choice,Selection,option2,1687287132272,610302433779f4af5b9b0812,610302433779f4af5b9b0812,10,train,critical,D,25,train15.jpg,train35.jpg,high,option1;option2
1687287406,4b7f43129c0484be5ad7334acf7731b0,PennController,13,0,experiment,NULL,PennController,12,_Trial_,End,1687287132274,610302433779f4af5b9b0812,610302433779f4af5b9b0812,10,train,critical,D,25,train15.jpg,train35.jpg,high,NULL
1687287406,4b7f43129c0484be5ad7334acf7731b0,PennController,31,0,experiment,NULL,PennController,30,_Trial_,Start,1687287132277,610302433779f4af5b9b0812,610302433779f4af5b9b0812,28,sort,filler,D,25,sort15.jpg,sort35.jpg,GoalA,NULL
1687287406,4b7f43129c0484be5ad7334acf7731b0,PennController,31,0,experiment,NULL,PennController,30,_Header_,Start,1687287132277,610302433779f4af5b9b0812,610302433779f4af5b9b0812,28,sort,filler,D,25,sort15.jpg,sort35.jpg,GoalA,NULL
1687287406,4b7f43129c0484be5ad7334acf7731b0,PennController,31,0,experiment,NULL,PennController,30,_Header_,End,1687287132277,610302433779f4af5b9b0812,610302433779f4af5b9b0812,28,sort,filler,D,25,sort15.jpg,sort35.jpg,GoalA,NULL
1687287406,4b7f43129c0484be5ad7334acf7731b0,PennController,31,0,experiment,NULL,Canvas,canvas6,Print,NA,1687287137986,610302433779f4af5b9b0812,610302433779f4af5b9b0812,28,sort,filler,D,25,sort15.jpg,sort35.jpg,GoalA,NULL
1687287406,4b7f43129c0484be5ad7334acf7731b0,PennController,31,0,experiment,NULL,Video,progression,buffer,0.015658,1687287135814,610302433779f4af5b9b0812,610302433779f4af5b9b0812,28,sort,filler,D,25,sort15.jpg,sort35.jpg,GoalA,NULL
1687287406,4b7f43129c0484be5ad7334acf7731b0,PennController,31,0,experiment,NULL,Selector,choice,Selection,option2,1687287143032,610302433779f4af5b9b0812,610302433779f4af5b9b0812,28,sort,filler,D,25,sort15.jpg,sort35.jpg,GoalA,option1;option2
1687287406,4b7f43129c0484be5ad7334acf7731b0,PennController,31,0,experiment,NULL,PennController,30,_Trial_,End,1687287143033,610302433779f4af5b9b0812,610302433779f4af5b9b0812,28,sort,filler,D,25,sort15.jpg,sort35.jpg,GoalA,NULL
1687287406,4b7f43129c0484be5ad7334acf7731b0,PennController,6,0,experiment,NULL,PennController,5,_Trial_,Start,1687287143034,610302433779f4af5b9b0812,610302433779f4af5b9b0812,3,clean,critical,D,75,clean65.jpg,clean85.jpg,high,NULL
1687287406,4b7f43129c0484be5ad7334acf7731b0,PennController,6,0,experiment,NULL,PennController,5,_Header_,Start,1687287143034,610302433779f4af5b9b0812,610302433779f4af5b9b0812,3,clean,critical,D,75,clean65.jpg,clean85.jpg,high,NULL
1687287406,4b7f43129c0484be5ad7334acf7731b0,PennController,6,0,experiment,NULL,PennController,5,_Header_,End,1687287143034,610302433779f4af5b9b0812,610302433779f4af5b9b0812,3,clean,critical,D,75,clean65.jpg,clean85.jpg,high,NULL
1687287406,4b7f43129c0484be5ad7334acf7731b0,PennController,6,0,experiment,NULL,Canvas,canvas6,Print,NA,1687287150746,610302433779f4af5b9b0812,610302433779f4af5b9b0812,3,clean,critical,D,75,clean65.jpg,clean85.jpg,high,NULL
1687287406,4b7f43129c0484be5ad7334acf7731b0,PennController,6,0,experiment,NULL,Video,progression,buffer,0.003222,1687287146563,610302433779f4af5b9b0812,610302433779f4af5b9b0812,3,clean,critical,D,75,clean65.jpg,clean85.jpg,high,NULL
1687287406,4b7f43129c0484be5ad7334acf7731b0,PennController,6,0,experiment,NULL,Selector,choice,Selection,option1,1687287153683,610302433779f4af5b9b0812,610302433779f4af5b9b0812,3,clean,critical,D,75,clean65.jpg,clean85.jpg,high,option2;option1
1687287406,4b7f43129c0484be5ad7334acf7731b0,PennController,6,0,experiment,NULL,PennController,5,_Trial_,End,1687287153685,610302433779f4af5b9b0812,610302433779f4af5b9b0812,3,clean,critical,D,75,clean65.jpg,clean85.jpg,high,NULL
1687287406,4b7f43129c0484be5ad7334acf7731b0,PennController,14,0,experiment,NULL,PennController,13,_Trial_,Start,1687287153686,610302433779f4af5b9b0812,610302433779f4af5b9b0812,11,beads,critical,D,50,beads40.jpg,beads60.jpg,high,NULL
1687287406,4b7f43129c0484be5ad7334acf7731b0,PennController,14,0,experiment,NULL,PennController,13,_Header_,Start,1687287153686,610302433779f4af5b9b0812,610302433779f4af5b9b0812,11,beads,critical,D,50,beads40.jpg,beads60.jpg,high,NULL
1687287406,4b7f43129c0484be5ad7334acf7731b0,PennController,14,0,experiment,NULL,PennController,13,_Header_,End,1687287153686,610302433779f4af5b9b0812,610302433779f4af5b9b0812,11,beads,critical,D,50,beads40.jpg,beads60.jpg,high,NULL
1687287406,4b7f43129c0484be5ad7334acf7731b0,PennController,14,0,experiment,NULL,Canvas,canvas6,Print,NA,1687287160392,610302433779f4af5b9b0812,610302433779f4af5b9b0812,11,beads,critical,D,50,beads40.jpg,beads60.jpg,high,NULL
1687287406,4b7f43129c0484be5ad7334acf7731b0,PennController,14,0,experiment,NULL,Video,progression,buffer,0.016599,1687287157232,610302433779f4af5b9b0812,610302433779f4af5b9b0812,11,beads,critical,D,50,beads40.jpg,beads60.jpg,high,NULL
1687287406,4b7f43129c0484be5ad7334acf7731b0,PennController,14,0,experiment,NULL,Selector,choice,Selection,option2,1687287165557,610302433779f4af5b9b0812,610302433779f4af5b9b0812,11,beads,critical,D,50,beads40.jpg,beads60.jpg,high,option1;option2
1687287406,4b7f43129c0484be5ad7334acf7731b0,PennController,14,0,experiment,NULL,PennController,13,_Trial_,End,1687287165558,610302433779f4af5b9b0812,610302433779f4af5b9b0812,11,beads,critical,D,50,beads40.jpg,beads60.jpg,high,NULL
1687287406,4b7f43129c0484be5ad7334acf7731b0,PennController,12,0,experiment,NULL,PennController,11,_Trial_,Start,1687287165559,610302433779f4af5b9b0812,610302433779f4af5b9b0812,9,cake,critical,D,75,cake66.jpg,cake84.jpg,high,NULL
1687287406,4b7f43129c0484be5ad7334acf7731b0,PennController,12,0,experiment,NULL,PennController,11,_Header_,Start,1687287165559,610302433779f4af5b9b0812,610302433779f4af5b9b0812,9,cake,critical,D,75,cake66.jpg,cake84.jpg,high,NULL
1687287406,4b7f43129c0484be5ad7334acf7731b0,PennController,12,0,experiment,NULL,PennController,11,_Header_,End,1687287165559,610302433779f4af5b9b0812,610302433779f4af5b9b0812,9,cake,critical,D,75,cake66.jpg,cake84.jpg,high,NULL
1687287406,4b7f43129c0484be5ad7334acf7731b0,PennController,12,0,experiment,NULL,Canvas,canvas6,Print,NA,1687287175275,610302433779f4af5b9b0812,610302433779f4af5b9b0812,9,cake,critical,D,75,cake66.jpg,cake84.jpg,high,NULL
1687287406,4b7f43129c0484be5ad7334acf7731b0,PennController,12,0,experiment,NULL,Video,progression,buffer,0.015494,1687287169105,610302433779f4af5b9b0812,610302433779f4af5b9b0812,9,cake,critical,D,75,cake66.jpg,cake84.jpg,high,NULL
1687287406,4b7f43129c0484be5ad7334acf7731b0,PennController,12,0,experiment,NULL,Selector,choice,Selection,option1,1687287181305,610302433779f4af5b9b0812,610302433779f4af5b9b0812,9,cake,critical,D,75,cake66.jpg,cake84.jpg,high,option2;option1
1687287406,4b7f43129c0484be5ad7334acf7731b0,PennController,12,0,experiment,NULL,PennController,11,_Trial_,End,1687287181307,610302433779f4af5b9b0812,610302433779f4af5b9b0812,9,cake,critical,D,75,cake66.jpg,cake84.jpg,high,NULL
1687287406,4b7f43129c0484be5ad7334acf7731b0,PennController,32,0,experiment,NULL,PennController,31,_Trial_,Start,1687287181308,610302433779f4af5b9b0812,610302433779f4af5b9b0812,29,frog,filler,D,50,frog40.jpg,frog60.jpg,GoalB,NULL
1687287406,4b7f43129c0484be5ad7334acf7731b0,PennController,32,0,experiment,NULL,PennController,31,_Header_,Start,1687287181309,610302433779f4af5b9b0812,610302433779f4af5b9b0812,29,frog,filler,D,50,frog40.jpg,frog60.jpg,GoalB,NULL
1687287406,4b7f43129c0484be5ad7334acf7731b0,PennController,32,0,experiment,NULL,PennController,31,_Header_,End,1687287181309,610302433779f4af5b9b0812,610302433779f4af5b9b0812,29,frog,filler,D,50,frog40.jpg,frog60.jpg,GoalB,NULL
1687287406,4b7f43129c0484be5ad7334acf7731b0,PennController,32,0,experiment,NULL,Canvas,canvas6,Print,NA,1687287188021,610302433779f4af5b9b0812,610302433779f4af5b9b0812,29,frog,filler,D,50,frog40.jpg,frog60.jpg,GoalB,NULL
1687287406,4b7f43129c0484be5ad7334acf7731b0,PennController,32,0,experiment,NULL,Video,progression,buffer,0.018387,1687287184858,610302433779f4af5b9b0812,610302433779f4af5b9b0812,29,frog,filler,D,50,frog40.jpg,frog60.jpg,GoalB,NULL
1687287406,4b7f43129c0484be5ad7334acf7731b0,PennController,32,0,experiment,NULL,Selector,choice,Selection,option1,1687287190887,610302433779f4af5b9b0812,610302433779f4af5b9b0812,29,frog,filler,D,50,frog40.jpg,frog60.jpg,GoalB,option2;option1
1687287406,4b7f43129c0484be5ad7334acf7731b0,PennController,32,0,experiment,NULL,PennController,31,_Trial_,End,1687287190888,610302433779f4af5b9b0812,610302433779f4af5b9b0812,29,frog,filler,D,50,frog40.jpg,frog60.jpg,GoalB,NULL
1687287406,4b7f43129c0484be5ad7334acf7731b0,PennController,20,0,experiment,NULL,PennController,19,_Trial_,Start,1687287190889,610302433779f4af5b9b0812,610302433779f4af5b9b0812,17,roll,critical,D,50,roll40.jpg,roll60.jpg,high,NULL
1687287406,4b7f43129c0484be5ad7334acf7731b0,PennController,20,0,experiment,NULL,PennController,19,_Header_,Start,1687287190889,610302433779f4af5b9b0812,610302433779f4af5b9b0812,17,roll,critical,D,50,roll40.jpg,roll60.jpg,high,NULL
1687287406,4b7f43129c0484be5ad7334acf7731b0,PennController,20,0,experiment,NULL,PennController,19,_Header_,End,1687287190889,610302433779f4af5b9b0812,610302433779f4af5b9b0812,17,roll,critical,D,50,roll40.jpg,roll60.jpg,high,NULL
1687287406,4b7f43129c0484be5ad7334acf7731b0,PennController,20,0,experiment,NULL,Canvas,canvas6,Print,NA,1687287197663,610302433779f4af5b9b0812,610302433779f4af5b9b0812,17,roll,critical,D,50,roll40.jpg,roll60.jpg,high,NULL
1687287406,4b7f43129c0484be5ad7334acf7731b0,PennController,20,0,experiment,NULL,Video,progression,buffer,0,1687287194437,610302433779f4af5b9b0812,610302433779f4af5b9b0812,17,roll,critical,D,50,roll40.jpg,roll60.jpg,high,NULL
1687287406,4b7f43129c0484be5ad7334acf7731b0,PennController,20,0,experiment,NULL,Selector,choice,Selection,option1,1687287201290,610302433779f4af5b9b0812,610302433779f4af5b9b0812,17,roll,critical,D,50,roll40.jpg,roll60.jpg,high,option2;option1
1687287406,4b7f43129c0484be5ad7334acf7731b0,PennController,20,0,experiment,NULL,PennController,19,_Trial_,End,1687287201291,610302433779f4af5b9b0812,610302433779f4af5b9b0812,17,roll,critical,D,50,roll40.jpg,roll60.jpg,high,NULL
1687287406,4b7f43129c0484be5ad7334acf7731b0,PennController,29,0,experiment,NULL,PennController,28,_Trial_,Start,1687287201292,610302433779f4af5b9b0812,610302433779f4af5b9b0812,26,sandwich,filler,D,50,sandwich40.jpg,sandwich60.jpg,GoalA,NULL
1687287406,4b7f43129c0484be5ad7334acf7731b0,PennController,29,0,experiment,NULL,PennController,28,_Header_,Start,1687287201292,610302433779f4af5b9b0812,610302433779f4af5b9b0812,26,sandwich,filler,D,50,sandwich40.jpg,sandwich60.jpg,GoalA,NULL
1687287406,4b7f43129c0484be5ad7334acf7731b0,PennController,29,0,experiment,NULL,PennController,28,_Header_,End,1687287201292,610302433779f4af5b9b0812,610302433779f4af5b9b0812,26,sandwich,filler,D,50,sandwich40.jpg,sandwich60.jpg,GoalA,NULL
1687287406,4b7f43129c0484be5ad7334acf7731b0,PennController,29,0,experiment,NULL,Canvas,canvas6,Print,NA,1687287207995,610302433779f4af5b9b0812,610302433779f4af5b9b0812,26,sandwich,filler,D,50,sandwich40.jpg,sandwich60.jpg,GoalA,NULL
1687287406,4b7f43129c0484be5ad7334acf7731b0,PennController,29,0,experiment,NULL,Video,progression,buffer,0.011196,1687287204829,610302433779f4af5b9b0812,610302433779f4af5b9b0812,26,sandwich,filler,D,50,sandwich40.jpg,sandwich60.jpg,GoalA,NULL
1687287406,4b7f43129c0484be5ad7334acf7731b0,PennController,29,0,experiment,NULL,Selector,choice,Selection,option1,1687287210863,610302433779f4af5b9b0812,610302433779f4af5b9b0812,26,sandwich,filler,D,50,sandwich40.jpg,sandwich60.jpg,GoalA,option1;option2
1687287406,4b7f43129c0484be5ad7334acf7731b0,PennController,29,0,experiment,NULL,PennController,28,_Trial_,End,1687287210864,610302433779f4af5b9b0812,610302433779f4af5b9b0812,26,sandwich,filler,D,50,sandwich40.jpg,sandwich60.jpg,GoalA,NULL
1687287406,4b7f43129c0484be5ad7334acf7731b0,PennController,22,0,experiment,NULL,PennController,21,_Trial_,Start,1687287210866,610302433779f4af5b9b0812,610302433779f4af5b9b0812,19,cup,filler,D,25,cup15.jpg,cup35.jpg,GoalB,NULL
1687287406,4b7f43129c0484be5ad7334acf7731b0,PennController,22,0,experiment,NULL,PennController,21,_Header_,Start,1687287210866,610302433779f4af5b9b0812,610302433779f4af5b9b0812,19,cup,filler,D,25,cup15.jpg,cup35.jpg,GoalB,NULL
1687287406,4b7f43129c0484be5ad7334acf7731b0,PennController,22,0,experiment,NULL,PennController,21,_Header_,End,1687287210866,610302433779f4af5b9b0812,610302433779f4af5b9b0812,19,cup,filler,D,25,cup15.jpg,cup35.jpg,GoalB,NULL
1687287406,4b7f43129c0484be5ad7334acf7731b0,PennController,22,0,experiment,NULL,Canvas,canvas6,Print,NA,1687287216578,610302433779f4af5b9b0812,610302433779f4af5b9b0812,19,cup,filler,D,25,cup15.jpg,cup35.jpg,GoalB,NULL
1687287406,4b7f43129c0484be5ad7334acf7731b0,PennController,22,0,experiment,NULL,Video,progression,buffer,0.018999,1687287214417,610302433779f4af5b9b0812,610302433779f4af5b9b0812,19,cup,filler,D,25,cup15.jpg,cup35.jpg,GoalB,NULL
1687287406,4b7f43129c0484be5ad7334acf7731b0,PennController,22,0,experiment,NULL,Selector,choice,Selection,option2,1687287218698,610302433779f4af5b9b0812,610302433779f4af5b9b0812,19,cup,filler,D,25,cup15.jpg,cup35.jpg,GoalB,option2;option1
1687287406,4b7f43129c0484be5ad7334acf7731b0,PennController,22,0,experiment,NULL,PennController,21,_Trial_,End,1687287218700,610302433779f4af5b9b0812,610302433779f4af5b9b0812,19,cup,filler,D,25,cup15.jpg,cup35.jpg,GoalB,NULL
1687287406,4b7f43129c0484be5ad7334acf7731b0,PennController,23,0,experiment,NULL,PennController,22,_Trial_,Start,1687287218702,610302433779f4af5b9b0812,610302433779f4af5b9b0812,20,cat,filler,D,50,cat40.jpg,cat60.jpg,GoalA,NULL
1687287406,4b7f43129c0484be5ad7334acf7731b0,PennController,23,0,experiment,NULL,PennController,22,_Header_,Start,1687287218702,610302433779f4af5b9b0812,610302433779f4af5b9b0812,20,cat,filler,D,50,cat40.jpg,cat60.jpg,GoalA,NULL
1687287406,4b7f43129c0484be5ad7334acf7731b0,PennController,23,0,experiment,NULL,PennController,22,_Header_,End,1687287218702,610302433779f4af5b9b0812,610302433779f4af5b9b0812,20,cat,filler,D,50,cat40.jpg,cat60.jpg,GoalA,NULL
1687287406,4b7f43129c0484be5ad7334acf7731b0,PennController,23,0,experiment,NULL,Canvas,canvas6,Print,NA,1687287225409,610302433779f4af5b9b0812,610302433779f4af5b9b0812,20,cat,filler,D,50,cat40.jpg,cat60.jpg,GoalA,NULL
1687287406,4b7f43129c0484be5ad7334acf7731b0,PennController,23,0,experiment,NULL,Video,progression,buffer,0.015852,1687287222251,610302433779f4af5b9b0812,610302433779f4af5b9b0812,20,cat,filler,D,50,cat40.jpg,cat60.jpg,GoalA,NULL
1687287406,4b7f43129c0484be5ad7334acf7731b0,PennController,23,0,experiment,NULL,Selector,choice,Selection,option2,1687287227286,610302433779f4af5b9b0812,610302433779f4af5b9b0812,20,cat,filler,D,50,cat40.jpg,cat60.jpg,GoalA,option1;option2
1687287406,4b7f43129c0484be5ad7334acf7731b0,PennController,23,0,experiment,NULL,PennController,22,_Trial_,End,1687287227287,610302433779f4af5b9b0812,610302433779f4af5b9b0812,20,cat,filler,D,50,cat40.jpg,cat60.jpg,GoalA,NULL
1687287406,4b7f43129c0484be5ad7334acf7731b0,PennController,8,0,experiment,NULL,PennController,7,_Trial_,Start,1687287227289,610302433779f4af5b9b0812,610302433779f4af5b9b0812,5,book,critical,D,50,book40.jpg,book60.jpg,high,NULL
1687287406,4b7f43129c0484be5ad7334acf7731b0,PennController,8,0,experiment,NULL,PennController,7,_Header_,Start,1687287227289,610302433779f4af5b9b0812,610302433779f4af5b9b0812,5,book,critical,D,50,book40.jpg,book60.jpg,high,NULL
1687287406,4b7f43129c0484be5ad7334acf7731b0,PennController,8,0,experiment,NULL,PennController,7,_Header_,End,1687287227289,610302433779f4af5b9b0812,610302433779f4af5b9b0812,5,book,critical,D,50,book40.jpg,book60.jpg,high,NULL
1687287406,4b7f43129c0484be5ad7334acf7731b0,PennController,8,0,experiment,NULL,Canvas,canvas6,Print,NA,1687287233985,610302433779f4af5b9b0812,610302433779f4af5b9b0812,5,book,critical,D,50,book40.jpg,book60.jpg,high,NULL
1687287406,4b7f43129c0484be5ad7334acf7731b0,PennController,8,0,experiment,NULL,Video,progression,buffer,0.003671,1687287230813,610302433779f4af5b9b0812,610302433779f4af5b9b0812,5,book,critical,D,50,book40.jpg,book60.jpg,high,NULL
1687287406,4b7f43129c0484be5ad7334acf7731b0,PennController,8,0,experiment,NULL,Selector,choice,Selection,option1,1687287238213,610302433779f4af5b9b0812,610302433779f4af5b9b0812,5,book,critical,D,50,book40.jpg,book60.jpg,high,option1;option2
1687287406,4b7f43129c0484be5ad7334acf7731b0,PennController,8,0,experiment,NULL,PennController,7,_Trial_,End,1687287238214,610302433779f4af5b9b0812,610302433779f4af5b9b0812,5,book,critical,D,50,book40.jpg,book60.jpg,high,NULL
1687287406,4b7f43129c0484be5ad7334acf7731b0,PennController,16,0,experiment,NULL,PennController,15,_Trial_,Start,1687287238215,610302433779f4af5b9b0812,610302433779f4af5b9b0812,13,mix,critical,D,25,mix15.jpg,mix35.jpg,high,NULL
1687287406,4b7f43129c0484be5ad7334acf7731b0,PennController,16,0,experiment,NULL,PennController,15,_Header_,Start,1687287238215,610302433779f4af5b9b0812,610302433779f4af5b9b0812,13,mix,critical,D,25,mix15.jpg,mix35.jpg,high,NULL
1687287406,4b7f43129c0484be5ad7334acf7731b0,PennController,16,0,experiment,NULL,PennController,15,_Header_,End,1687287238216,610302433779f4af5b9b0812,610302433779f4af5b9b0812,13,mix,critical,D,25,mix15.jpg,mix35.jpg,high,NULL
1687287406,4b7f43129c0484be5ad7334acf7731b0,PennController,16,0,experiment,NULL,Canvas,canvas6,Print,NA,1687287243917,610302433779f4af5b9b0812,610302433779f4af5b9b0812,13,mix,critical,D,25,mix15.jpg,mix35.jpg,high,NULL
1687287406,4b7f43129c0484be5ad7334acf7731b0,PennController,16,0,experiment,NULL,Video,progression,buffer,0.008201,1687287241755,610302433779f4af5b9b0812,610302433779f4af5b9b0812,13,mix,critical,D,25,mix15.jpg,mix35.jpg,high,NULL
1687287406,4b7f43129c0484be5ad7334acf7731b0,PennController,16,0,experiment,NULL,Selector,choice,Selection,option1,1687287246286,610302433779f4af5b9b0812,610302433779f4af5b9b0812,13,mix,critical,D,25,mix15.jpg,mix35.jpg,high,option2;option1
1687287406,4b7f43129c0484be5ad7334acf7731b0,PennController,16,0,experiment,NULL,PennController,15,_Trial_,End,1687287246287,610302433779f4af5b9b0812,610302433779f4af5b9b0812,13,mix,critical,D,25,mix15.jpg,mix35.jpg,high,NULL
1687287406,4b7f43129c0484be5ad7334acf7731b0,PennController,19,0,experiment,NULL,PennController,18,_Trial_,Start,1687287246288,610302433779f4af5b9b0812,610302433779f4af5b9b0812,16,blinds,critical,D,25,blinds15.jpg,blinds33.jpg,high,NULL
1687287406,4b7f43129c0484be5ad7334acf7731b0,PennController,19,0,experiment,NULL,PennController,18,_Header_,Start,1687287246288,610302433779f4af5b9b0812,610302433779f4af5b9b0812,16,blinds,critical,D,25,blinds15.jpg,blinds33.jpg,high,NULL
1687287406,4b7f43129c0484be5ad7334acf7731b0,PennController,19,0,experiment,NULL,PennController,18,_Header_,End,1687287246288,610302433779f4af5b9b0812,610302433779f4af5b9b0812,16,blinds,critical,D,25,blinds15.jpg,blinds33.jpg,high,NULL
1687287406,4b7f43129c0484be5ad7334acf7731b0,PennController,19,0,experiment,NULL,Canvas,canvas6,Print,NA,1687287252586,610302433779f4af5b9b0812,610302433779f4af5b9b0812,16,blinds,critical,D,25,blinds15.jpg,blinds33.jpg,high,NULL
1687287406,4b7f43129c0484be5ad7334acf7731b0,PennController,19,0,experiment,NULL,Video,progression,buffer,0.01163,1687287249827,610302433779f4af5b9b0812,610302433779f4af5b9b0812,16,blinds,critical,D,25,blinds15.jpg,blinds33.jpg,high,NULL
1687287406,4b7f43129c0484be5ad7334acf7731b0,PennController,19,0,experiment,NULL,Selector,choice,Selection,option2,1687287255959,610302433779f4af5b9b0812,610302433779f4af5b9b0812,16,blinds,critical,D,25,blinds15.jpg,blinds33.jpg,high,option1;option2
1687287406,4b7f43129c0484be5ad7334acf7731b0,PennController,19,0,experiment,NULL,PennController,18,_Trial_,End,1687287255960,610302433779f4af5b9b0812,610302433779f4af5b9b0812,16,blinds,critical,D,25,blinds15.jpg,blinds33.jpg,high,NULL
1687287406,4b7f43129c0484be5ad7334acf7731b0,PennController,9,0,experiment,NULL,PennController,8,_Trial_,Start,1687287255961,610302433779f4af5b9b0812,610302433779f4af5b9b0812,6,flower,critical,D,75,flower65.jpg,flower85.jpg,high,NULL
1687287406,4b7f43129c0484be5ad7334acf7731b0,PennController,9,0,experiment,NULL,PennController,8,_Header_,Start,1687287255961,610302433779f4af5b9b0812,610302433779f4af5b9b0812,6,flower,critical,D,75,flower65.jpg,flower85.jpg,high,NULL
1687287406,4b7f43129c0484be5ad7334acf7731b0,PennController,9,0,experiment,NULL,PennController,8,_Header_,End,1687287255961,610302433779f4af5b9b0812,610302433779f4af5b9b0812,6,flower,critical,D,75,flower65.jpg,flower85.jpg,high,NULL
1687287406,4b7f43129c0484be5ad7334acf7731b0,PennController,9,0,experiment,NULL,Canvas,canvas6,Print,NA,1687287263679,610302433779f4af5b9b0812,610302433779f4af5b9b0812,6,flower,critical,D,75,flower65.jpg,flower85.jpg,high,NULL
1687287406,4b7f43129c0484be5ad7334acf7731b0,PennController,9,0,experiment,NULL,Video,progression,buffer,0.014975,1687287259506,610302433779f4af5b9b0812,610302433779f4af5b9b0812,6,flower,critical,D,75,flower65.jpg,flower85.jpg,high,NULL
1687287406,4b7f43129c0484be5ad7334acf7731b0,PennController,9,0,experiment,NULL,Selector,choice,Selection,option2,1687287267099,610302433779f4af5b9b0812,610302433779f4af5b9b0812,6,flower,critical,D,75,flower65.jpg,flower85.jpg,high,option1;option2
1687287406,4b7f43129c0484be5ad7334acf7731b0,PennController,9,0,experiment,NULL,PennController,8,_Trial_,End,1687287267100,610302433779f4af5b9b0812,610302433779f4af5b9b0812,6,flower,critical,D,75,flower65.jpg,flower85.jpg,high,NULL
1687287406,4b7f43129c0484be5ad7334acf7731b0,PennController,24,0,experiment,NULL,PennController,23,_Trial_,Start,1687287267101,610302433779f4af5b9b0812,610302433779f4af5b9b0812,21,visit,filler,D,75,visit65.jpg,visit85.jpg,GoalB,NULL
1687287406,4b7f43129c0484be5ad7334acf7731b0,PennController,24,0,experiment,NULL,PennController,23,_Header_,Start,1687287267101,610302433779f4af5b9b0812,610302433779f4af5b9b0812,21,visit,filler,D,75,visit65.jpg,visit85.jpg,GoalB,NULL
1687287406,4b7f43129c0484be5ad7334acf7731b0,PennController,24,0,experiment,NULL,PennController,23,_Header_,End,1687287267101,610302433779f4af5b9b0812,610302433779f4af5b9b0812,21,visit,filler,D,75,visit65.jpg,visit85.jpg,GoalB,NULL
1687287406,4b7f43129c0484be5ad7334acf7731b0,PennController,24,0,experiment,NULL,Canvas,canvas6,Print,NA,1687287274814,610302433779f4af5b9b0812,610302433779f4af5b9b0812,21,visit,filler,D,75,visit65.jpg,visit85.jpg,GoalB,NULL
1687287406,4b7f43129c0484be5ad7334acf7731b0,PennController,24,0,experiment,NULL,Video,progression,buffer,0.015156,1687287270647,610302433779f4af5b9b0812,610302433779f4af5b9b0812,21,visit,filler,D,75,visit65.jpg,visit85.jpg,GoalB,NULL
1687287406,4b7f43129c0484be5ad7334acf7731b0,PennController,24,0,experiment,NULL,Selector,choice,Selection,option2,1687287277640,610302433779f4af5b9b0812,610302433779f4af5b9b0812,21,visit,filler,D,75,visit65.jpg,visit85.jpg,GoalB,option1;option2
1687287406,4b7f43129c0484be5ad7334acf7731b0,PennController,24,0,experiment,NULL,PennController,23,_Trial_,End,1687287277642,610302433779f4af5b9b0812,610302433779f4af5b9b0812,21,visit,filler,D,75,visit65.jpg,visit85.jpg,GoalB,NULL
1687287406,4b7f43129c0484be5ad7334acf7731b0,PennController,30,0,experiment,NULL,PennController,29,_Trial_,Start,1687287277643,610302433779f4af5b9b0812,610302433779f4af5b9b0812,27,square,filler,D,75,square65.jpg,square85.jpg,GoalB,NULL
1687287406,4b7f43129c0484be5ad7334acf7731b0,PennController,30,0,experiment,NULL,PennController,29,_Header_,Start,1687287277643,610302433779f4af5b9b0812,610302433779f4af5b9b0812,27,square,filler,D,75,square65.jpg,square85.jpg,GoalB,NULL
1687287406,4b7f43129c0484be5ad7334acf7731b0,PennController,30,0,experiment,NULL,PennController,29,_Header_,End,1687287277643,610302433779f4af5b9b0812,610302433779f4af5b9b0812,27,square,filler,D,75,square65.jpg,square85.jpg,GoalB,NULL
1687287406,4b7f43129c0484be5ad7334acf7731b0,PennController,30,0,experiment,NULL,Canvas,canvas6,Print,NA,1687287285366,610302433779f4af5b9b0812,610302433779f4af5b9b0812,27,square,filler,D,75,square65.jpg,square85.jpg,GoalB,NULL
1687287406,4b7f43129c0484be5ad7334acf7731b0,PennController,30,0,experiment,NULL,Video,progression,buffer,0.021433,1687287281199,610302433779f4af5b9b0812,610302433779f4af5b9b0812,27,square,filler,D,75,square65.jpg,square85.jpg,GoalB,NULL
1687287406,4b7f43129c0484be5ad7334acf7731b0,PennController,30,0,experiment,NULL,Selector,choice,Selection,option2,1687287288089,610302433779f4af5b9b0812,610302433779f4af5b9b0812,27,square,filler,D,75,square65.jpg,square85.jpg,GoalB,option1;option2
1687287406,4b7f43129c0484be5ad7334acf7731b0,PennController,30,0,experiment,NULL,PennController,29,_Trial_,End,1687287288090,610302433779f4af5b9b0812,610302433779f4af5b9b0812,27,square,filler,D,75,square65.jpg,square85.jpg,GoalB,NULL
1687287406,4b7f43129c0484be5ad7334acf7731b0,PennController,7,0,experiment,NULL,PennController,6,_Trial_,Start,1687287288091,610302433779f4af5b9b0812,610302433779f4af5b9b0812,4,candy,critical,D,25,candy15.jpg,candy35.jpg,high,NULL
1687287406,4b7f43129c0484be5ad7334acf7731b0,PennController,7,0,experiment,NULL,PennController,6,_Header_,Start,1687287288091,610302433779f4af5b9b0812,610302433779f4af5b9b0812,4,candy,critical,D,25,candy15.jpg,candy35.jpg,high,NULL
1687287406,4b7f43129c0484be5ad7334acf7731b0,PennController,7,0,experiment,NULL,PennController,6,_Header_,End,1687287288091,610302433779f4af5b9b0812,610302433779f4af5b9b0812,4,candy,critical,D,25,candy15.jpg,candy35.jpg,high,NULL
1687287406,4b7f43129c0484be5ad7334acf7731b0,PennController,7,0,experiment,NULL,Canvas,canvas6,Print,NA,1687287293794,610302433779f4af5b9b0812,610302433779f4af5b9b0812,4,candy,critical,D,25,candy15.jpg,candy35.jpg,high,NULL
1687287406,4b7f43129c0484be5ad7334acf7731b0,PennController,7,0,experiment,NULL,Video,progression,buffer,0.007535,1687287291625,610302433779f4af5b9b0812,610302433779f4af5b9b0812,4,candy,critical,D,25,candy15.jpg,candy35.jpg,high,NULL
1687287406,4b7f43129c0484be5ad7334acf7731b0,PennController,7,0,experiment,NULL,Selector,choice,Selection,option2,1687287296169,610302433779f4af5b9b0812,610302433779f4af5b9b0812,4,candy,critical,D,25,candy15.jpg,candy35.jpg,high,option1;option2
1687287406,4b7f43129c0484be5ad7334acf7731b0,PennController,7,0,experiment,NULL,PennController,6,_Trial_,End,1687287296171,610302433779f4af5b9b0812,610302433779f4af5b9b0812,4,candy,critical,D,25,candy15.jpg,candy35.jpg,high,NULL
1687287406,4b7f43129c0484be5ad7334acf7731b0,PennController,17,0,experiment,NULL,PennController,16,_Trial_,Start,1687287296172,610302433779f4af5b9b0812,610302433779f4af5b9b0812,14,cover,critical,D,50,cover42.jpg,cover60.jpg,high,NULL
1687287406,4b7f43129c0484be5ad7334acf7731b0,PennController,17,0,experiment,NULL,PennController,16,_Header_,Start,1687287296172,610302433779f4af5b9b0812,610302433779f4af5b9b0812,14,cover,critical,D,50,cover42.jpg,cover60.jpg,high,NULL
1687287406,4b7f43129c0484be5ad7334acf7731b0,PennController,17,0,experiment,NULL,PennController,16,_Header_,End,1687287296172,610302433779f4af5b9b0812,610302433779f4af5b9b0812,14,cover,critical,D,50,cover42.jpg,cover60.jpg,high,NULL
1687287406,4b7f43129c0484be5ad7334acf7731b0,PennController,17,0,experiment,NULL,Canvas,canvas6,Print,NA,1687287304289,610302433779f4af5b9b0812,610302433779f4af5b9b0812,14,cover,critical,D,50,cover42.jpg,cover60.jpg,high,NULL
1687287406,4b7f43129c0484be5ad7334acf7731b0,PennController,17,0,experiment,NULL,Video,progression,buffer,0.00475,1687287299707,610302433779f4af5b9b0812,610302433779f4af5b9b0812,14,cover,critical,D,50,cover42.jpg,cover60.jpg,high,NULL
1687287406,4b7f43129c0484be5ad7334acf7731b0,PennController,17,0,experiment,NULL,Selector,choice,Selection,option1,1687287305848,610302433779f4af5b9b0812,610302433779f4af5b9b0812,14,cover,critical,D,50,cover42.jpg,cover60.jpg,high,option2;option1
1687287406,4b7f43129c0484be5ad7334acf7731b0,PennController,17,0,experiment,NULL,PennController,16,_Trial_,End,1687287305850,610302433779f4af5b9b0812,610302433779f4af5b9b0812,14,cover,critical,D,50,cover42.jpg,cover60.jpg,high,NULL
1687287406,4b7f43129c0484be5ad7334acf7731b0,PennController,4,0,experiment,NULL,PennController,3,_Trial_,Start,1687287305851,610302433779f4af5b9b0812,610302433779f4af5b9b0812,1,vase,critical,D,25,vase15.jpg,vase35.jpg,high,NULL
1687287406,4b7f43129c0484be5ad7334acf7731b0,PennController,4,0,experiment,NULL,PennController,3,_Header_,Start,1687287305851,610302433779f4af5b9b0812,610302433779f4af5b9b0812,1,vase,critical,D,25,vase15.jpg,vase35.jpg,high,NULL
1687287406,4b7f43129c0484be5ad7334acf7731b0,PennController,4,0,experiment,NULL,PennController,3,_Header_,End,1687287305852,610302433779f4af5b9b0812,610302433779f4af5b9b0812,1,vase,critical,D,25,vase15.jpg,vase35.jpg,high,NULL
1687287406,4b7f43129c0484be5ad7334acf7731b0,PennController,4,0,experiment,NULL,Canvas,canvas6,Print,NA,1687287311540,610302433779f4af5b9b0812,610302433779f4af5b9b0812,1,vase,critical,D,25,vase15.jpg,vase35.jpg,high,NULL
1687287406,4b7f43129c0484be5ad7334acf7731b0,PennController,4,0,experiment,NULL,Video,progression,buffer,0.003861,1687287309368,610302433779f4af5b9b0812,610302433779f4af5b9b0812,1,vase,critical,D,25,vase15.jpg,vase35.jpg,high,NULL
1687287406,4b7f43129c0484be5ad7334acf7731b0,PennController,4,0,experiment,NULL,Selector,choice,Selection,option1,1687287313498,610302433779f4af5b9b0812,610302433779f4af5b9b0812,1,vase,critical,D,25,vase15.jpg,vase35.jpg,high,option1;option2
1687287406,4b7f43129c0484be5ad7334acf7731b0,PennController,4,0,experiment,NULL,PennController,3,_Trial_,End,1687287313500,610302433779f4af5b9b0812,610302433779f4af5b9b0812,1,vase,critical,D,25,vase15.jpg,vase35.jpg,high,NULL
1687287406,4b7f43129c0484be5ad7334acf7731b0,PennController,15,0,experiment,NULL,PennController,14,_Trial_,Start,1687287313501,610302433779f4af5b9b0812,610302433779f4af5b9b0812,12,erase,critical,D,75,erase66.jpg,erase84.jpg,high,NULL
1687287406,4b7f43129c0484be5ad7334acf7731b0,PennController,15,0,experiment,NULL,PennController,14,_Header_,Start,1687287313501,610302433779f4af5b9b0812,610302433779f4af5b9b0812,12,erase,critical,D,75,erase66.jpg,erase84.jpg,high,NULL
1687287406,4b7f43129c0484be5ad7334acf7731b0,PennController,15,0,experiment,NULL,PennController,14,_Header_,End,1687287313501,610302433779f4af5b9b0812,610302433779f4af5b9b0812,12,erase,critical,D,75,erase66.jpg,erase84.jpg,high,NULL
1687287406,4b7f43129c0484be5ad7334acf7731b0,PennController,15,0,experiment,NULL,Canvas,canvas6,Print,NA,1687287323219,610302433779f4af5b9b0812,610302433779f4af5b9b0812,12,erase,critical,D,75,erase66.jpg,erase84.jpg,high,NULL
1687287406,4b7f43129c0484be5ad7334acf7731b0,PennController,15,0,experiment,NULL,Video,progression,buffer,0.018718,1687287317058,610302433779f4af5b9b0812,610302433779f4af5b9b0812,12,erase,critical,D,75,erase66.jpg,erase84.jpg,high,NULL
1687287406,4b7f43129c0484be5ad7334acf7731b0,PennController,15,0,experiment,NULL,Selector,choice,Selection,option2,1687287325168,610302433779f4af5b9b0812,610302433779f4af5b9b0812,12,erase,critical,D,75,erase66.jpg,erase84.jpg,high,option1;option2
1687287406,4b7f43129c0484be5ad7334acf7731b0,PennController,15,0,experiment,NULL,PennController,14,_Trial_,End,1687287325170,610302433779f4af5b9b0812,610302433779f4af5b9b0812,12,erase,critical,D,75,erase66.jpg,erase84.jpg,high,NULL
1687287406,4b7f43129c0484be5ad7334acf7731b0,PennController,11,0,experiment,NULL,PennController,10,_Trial_,Start,1687287325172,610302433779f4af5b9b0812,610302433779f4af5b9b0812,8,cucumber,critical,D,50,cucumber42.jpg,cucumber60.jpg,high,NULL
1687287406,4b7f43129c0484be5ad7334acf7731b0,PennController,11,0,experiment,NULL,PennController,10,_Header_,Start,1687287325172,610302433779f4af5b9b0812,610302433779f4af5b9b0812,8,cucumber,critical,D,50,cucumber42.jpg,cucumber60.jpg,high,NULL
1687287406,4b7f43129c0484be5ad7334acf7731b0,PennController,11,0,experiment,NULL,PennController,10,_Header_,End,1687287325172,610302433779f4af5b9b0812,610302433779f4af5b9b0812,8,cucumber,critical,D,50,cucumber42.jpg,cucumber60.jpg,high,NULL
1687287406,4b7f43129c0484be5ad7334acf7731b0,PennController,11,0,experiment,NULL,Canvas,canvas6,Print,NA,1687287333283,610302433779f4af5b9b0812,610302433779f4af5b9b0812,8,cucumber,critical,D,50,cucumber42.jpg,cucumber60.jpg,high,NULL
1687287406,4b7f43129c0484be5ad7334acf7731b0,PennController,11,0,experiment,NULL,Video,progression,buffer,0.004756,1687287328701,610302433779f4af5b9b0812,610302433779f4af5b9b0812,8,cucumber,critical,D,50,cucumber42.jpg,cucumber60.jpg,high,NULL
1687287406,4b7f43129c0484be5ad7334acf7731b0,PennController,11,0,experiment,NULL,Selector,choice,Selection,option1,1687287335171,610302433779f4af5b9b0812,610302433779f4af5b9b0812,8,cucumber,critical,D,50,cucumber42.jpg,cucumber60.jpg,high,option1;option2
1687287406,4b7f43129c0484be5ad7334acf7731b0,PennController,11,0,experiment,NULL,PennController,10,_Trial_,End,1687287335172,610302433779f4af5b9b0812,610302433779f4af5b9b0812,8,cucumber,critical,D,50,cucumber42.jpg,cucumber60.jpg,high,NULL
1687287406,4b7f43129c0484be5ad7334acf7731b0,PennController,18,0,experiment,NULL,PennController,17,_Trial_,Start,1687287335173,610302433779f4af5b9b0812,610302433779f4af5b9b0812,15,zip,critical,D,75,zip65.jpg,zip85.jpg,high,NULL
1687287406,4b7f43129c0484be5ad7334acf7731b0,PennController,18,0,experiment,NULL,PennController,17,_Header_,Start,1687287335173,610302433779f4af5b9b0812,610302433779f4af5b9b0812,15,zip,critical,D,75,zip65.jpg,zip85.jpg,high,NULL
1687287406,4b7f43129c0484be5ad7334acf7731b0,PennController,18,0,experiment,NULL,PennController,17,_Header_,End,1687287335173,610302433779f4af5b9b0812,610302433779f4af5b9b0812,15,zip,critical,D,75,zip65.jpg,zip85.jpg,high,NULL
1687287406,4b7f43129c0484be5ad7334acf7731b0,PennController,18,0,experiment,NULL,Canvas,canvas6,Print,NA,1687287342080,610302433779f4af5b9b0812,610302433779f4af5b9b0812,15,zip,critical,D,75,zip65.jpg,zip85.jpg,high,NULL
1687287406,4b7f43129c0484be5ad7334acf7731b0,PennController,18,0,experiment,NULL,Video,progression,buffer,0.018367,1687287338718,610302433779f4af5b9b0812,610302433779f4af5b9b0812,15,zip,critical,D,75,zip65.jpg,zip85.jpg,high,NULL
1687287406,4b7f43129c0484be5ad7334acf7731b0,PennController,18,0,experiment,NULL,Selector,choice,Selection,option1,1687287348787,610302433779f4af5b9b0812,610302433779f4af5b9b0812,15,zip,critical,D,75,zip65.jpg,zip85.jpg,high,option2;option1
1687287406,4b7f43129c0484be5ad7334acf7731b0,PennController,18,0,experiment,NULL,PennController,17,_Trial_,End,1687287348788,610302433779f4af5b9b0812,610302433779f4af5b9b0812,15,zip,critical,D,75,zip65.jpg,zip85.jpg,high,NULL
1687287406,4b7f43129c0484be5ad7334acf7731b0,PennController,5,0,experiment,NULL,PennController,4,_Trial_,Start,1687287348790,610302433779f4af5b9b0812,610302433779f4af5b9b0812,2,door,critical,D,50,door40.jpg,door60.jpg,high,NULL
1687287406,4b7f43129c0484be5ad7334acf7731b0,PennController,5,0,experiment,NULL,PennController,4,_Header_,Start,1687287348790,610302433779f4af5b9b0812,610302433779f4af5b9b0812,2,door,critical,D,50,door40.jpg,door60.jpg,high,NULL
1687287406,4b7f43129c0484be5ad7334acf7731b0,PennController,5,0,experiment,NULL,PennController,4,_Header_,End,1687287348790,610302433779f4af5b9b0812,610302433779f4af5b9b0812,2,door,critical,D,50,door40.jpg,door60.jpg,high,NULL
1687287406,4b7f43129c0484be5ad7334acf7731b0,PennController,5,0,experiment,NULL,Canvas,canvas6,Print,NA,1687287355494,610302433779f4af5b9b0812,610302433779f4af5b9b0812,2,door,critical,D,50,door40.jpg,door60.jpg,high,NULL
1687287406,4b7f43129c0484be5ad7334acf7731b0,PennController,5,0,experiment,NULL,Video,progression,buffer,0.004553,1687287352319,610302433779f4af5b9b0812,610302433779f4af5b9b0812,2,door,critical,D,50,door40.jpg,door60.jpg,high,NULL
1687287406,4b7f43129c0484be5ad7334acf7731b0,PennController,5,0,experiment,NULL,Selector,choice,Selection,option2,1687287357558,610302433779f4af5b9b0812,610302433779f4af5b9b0812,2,door,critical,D,50,door40.jpg,door60.jpg,high,option2;option1
1687287406,4b7f43129c0484be5ad7334acf7731b0,PennController,5,0,experiment,NULL,PennController,4,_Trial_,End,1687287357560,610302433779f4af5b9b0812,610302433779f4af5b9b0812,2,door,critical,D,50,door40.jpg,door60.jpg,high,NULL
1687287406,4b7f43129c0484be5ad7334acf7731b0,PennController,26,0,experiment,NULL,PennController,25,_Trial_,Start,1687287357561,610302433779f4af5b9b0812,610302433779f4af5b9b0812,23,color,filler,D,50,color40.jpg,color60.jpg,GoalB,NULL
1687287406,4b7f43129c0484be5ad7334acf7731b0,PennController,26,0,experiment,NULL,PennController,25,_Header_,Start,1687287357562,610302433779f4af5b9b0812,610302433779f4af5b9b0812,23,color,filler,D,50,color40.jpg,color60.jpg,GoalB,NULL
1687287406,4b7f43129c0484be5ad7334acf7731b0,PennController,26,0,experiment,NULL,PennController,25,_Header_,End,1687287357562,610302433779f4af5b9b0812,610302433779f4af5b9b0812,23,color,filler,D,50,color40.jpg,color60.jpg,GoalB,NULL
1687287406,4b7f43129c0484be5ad7334acf7731b0,PennController,26,0,experiment,NULL,Canvas,canvas6,Print,NA,1687287364265,610302433779f4af5b9b0812,610302433779f4af5b9b0812,23,color,filler,D,50,color40.jpg,color60.jpg,GoalB,NULL
1687287406,4b7f43129c0484be5ad7334acf7731b0,PennController,26,0,experiment,NULL,Video,progression,buffer,0.009359,1687287361093,610302433779f4af5b9b0812,610302433779f4af5b9b0812,23,color,filler,D,50,color40.jpg,color60.jpg,GoalB,NULL
1687287406,4b7f43129c0484be5ad7334acf7731b0,PennController,26,0,experiment,NULL,Selector,choice,Selection,option1,1687287367383,610302433779f4af5b9b0812,610302433779f4af5b9b0812,23,color,filler,D,50,color40.jpg,color60.jpg,GoalB,option1;option2
1687287406,4b7f43129c0484be5ad7334acf7731b0,PennController,26,0,experiment,NULL,PennController,25,_Trial_,End,1687287367384,610302433779f4af5b9b0812,610302433779f4af5b9b0812,23,color,filler,D,50,color40.jpg,color60.jpg,GoalB,NULL
1687287406,4b7f43129c0484be5ad7334acf7731b0,PennController,21,0,experiment,NULL,PennController,20,_Trial_,Start,1687287367385,610302433779f4af5b9b0812,610302433779f4af5b9b0812,18,ball,critical,D,75,ball65.jpg,ball85.jpg,high,NULL
1687287406,4b7f43129c0484be5ad7334acf7731b0,PennController,21,0,experiment,NULL,PennController,20,_Header_,Start,1687287367385,610302433779f4af5b9b0812,610302433779f4af5b9b0812,18,ball,critical,D,75,ball65.jpg,ball85.jpg,high,NULL
1687287406,4b7f43129c0484be5ad7334acf7731b0,PennController,21,0,experiment,NULL,PennController,20,_Header_,End,1687287367385,610302433779f4af5b9b0812,610302433779f4af5b9b0812,18,ball,critical,D,75,ball65.jpg,ball85.jpg,high,NULL
1687287406,4b7f43129c0484be5ad7334acf7731b0,PennController,21,0,experiment,NULL,Canvas,canvas6,Print,NA,1687287375087,610302433779f4af5b9b0812,610302433779f4af5b9b0812,18,ball,critical,D,75,ball65.jpg,ball85.jpg,high,NULL
1687287406,4b7f43129c0484be5ad7334acf7731b0,PennController,21,0,experiment,NULL,Video,progression,buffer,0.015074,1687287370921,610302433779f4af5b9b0812,610302433779f4af5b9b0812,18,ball,critical,D,75,ball65.jpg,ball85.jpg,high,NULL
1687287406,4b7f43129c0484be5ad7334acf7731b0,PennController,21,0,experiment,NULL,Selector,choice,Selection,option1,1687287377992,610302433779f4af5b9b0812,610302433779f4af5b9b0812,18,ball,critical,D,75,ball65.jpg,ball85.jpg,high,option1;option2
1687287406,4b7f43129c0484be5ad7334acf7731b0,PennController,21,0,experiment,NULL,PennController,20,_Trial_,End,1687287377993,610302433779f4af5b9b0812,610302433779f4af5b9b0812,18,ball,critical,D,75,ball65.jpg,ball85.jpg,high,NULL
1687287406,4b7f43129c0484be5ad7334acf7731b0,PennController,25,0,experiment,NULL,PennController,24,_Trial_,Start,1687287377994,610302433779f4af5b9b0812,610302433779f4af5b9b0812,22,wall,filler,D,25,wall15.jpg,wall35.jpg,GoalA,NULL
1687287406,4b7f43129c0484be5ad7334acf7731b0,PennController,25,0,experiment,NULL,PennController,24,_Header_,Start,1687287377994,610302433779f4af5b9b0812,610302433779f4af5b9b0812,22,wall,filler,D,25,wall15.jpg,wall35.jpg,GoalA,NULL
1687287406,4b7f43129c0484be5ad7334acf7731b0,PennController,25,0,experiment,NULL,PennController,24,_Header_,End,1687287377994,610302433779f4af5b9b0812,610302433779f4af5b9b0812,22,wall,filler,D,25,wall15.jpg,wall35.jpg,GoalA,NULL
1687287406,4b7f43129c0484be5ad7334acf7731b0,PennController,25,0,experiment,NULL,Canvas,canvas6,Print,NA,1687287383702,610302433779f4af5b9b0812,610302433779f4af5b9b0812,22,wall,filler,D,25,wall15.jpg,wall35.jpg,GoalA,NULL
1687287406,4b7f43129c0484be5ad7334acf7731b0,PennController,25,0,experiment,NULL,Video,progression,buffer,0.009736,1687287381536,610302433779f4af5b9b0812,610302433779f4af5b9b0812,22,wall,filler,D,25,wall15.jpg,wall35.jpg,GoalA,NULL
1687287406,4b7f43129c0484be5ad7334acf7731b0,PennController,25,0,experiment,NULL,Selector,choice,Selection,option1,1687287385281,610302433779f4af5b9b0812,610302433779f4af5b9b0812,22,wall,filler,D,25,wall15.jpg,wall35.jpg,GoalA,option1;option2
1687287406,4b7f43129c0484be5ad7334acf7731b0,PennController,25,0,experiment,NULL,PennController,24,_Trial_,End,1687287385282,610302433779f4af5b9b0812,610302433779f4af5b9b0812,22,wall,filler,D,25,wall15.jpg,wall35.jpg,GoalA,NULL
1687287406,4b7f43129c0484be5ad7334acf7731b0,PennController,10,0,experiment,NULL,PennController,9,_Trial_,Start,1687287385283,610302433779f4af5b9b0812,610302433779f4af5b9b0812,7,stack,critical,D,25,stack15.jpg,stack35.jpg,high,NULL
1687287406,4b7f43129c0484be5ad7334acf7731b0,PennController,10,0,experiment,NULL,PennController,9,_Header_,Start,1687287385283,610302433779f4af5b9b0812,610302433779f4af5b9b0812,7,stack,critical,D,25,stack15.jpg,stack35.jpg,high,NULL
1687287406,4b7f43129c0484be5ad7334acf7731b0,PennController,10,0,experiment,NULL,PennController,9,_Header_,End,1687287385283,610302433779f4af5b9b0812,610302433779f4af5b9b0812,7,stack,critical,D,25,stack15.jpg,stack35.jpg,high,NULL
1687287406,4b7f43129c0484be5ad7334acf7731b0,PennController,10,0,experiment,NULL,Canvas,canvas6,Print,NA,1687287390981,610302433779f4af5b9b0812,610302433779f4af5b9b0812,7,stack,critical,D,25,stack15.jpg,stack35.jpg,high,NULL
1687287406,4b7f43129c0484be5ad7334acf7731b0,PennController,10,0,experiment,NULL,Video,progression,buffer,0.007681,1687287388817,610302433779f4af5b9b0812,610302433779f4af5b9b0812,7,stack,critical,D,25,stack15.jpg,stack35.jpg,high,NULL
1687287406,4b7f43129c0484be5ad7334acf7731b0,PennController,10,0,experiment,NULL,Selector,choice,Selection,option2,1687287393991,610302433779f4af5b9b0812,610302433779f4af5b9b0812,7,stack,critical,D,25,stack15.jpg,stack35.jpg,high,option2;option1
1687287406,4b7f43129c0484be5ad7334acf7731b0,PennController,10,0,experiment,NULL,PennController,9,_Trial_,End,1687287393992,610302433779f4af5b9b0812,610302433779f4af5b9b0812,7,stack,critical,D,25,stack15.jpg,stack35.jpg,high,NULL
1687287406,4b7f43129c0484be5ad7334acf7731b0,PennController,27,0,experiment,NULL,PennController,26,_Trial_,Start,1687287393994,610302433779f4af5b9b0812,610302433779f4af5b9b0812,24,match,filler,D,75,match65.jpg,match85.jpg,GoalA,NULL
1687287406,4b7f43129c0484be5ad7334acf7731b0,PennController,27,0,experiment,NULL,PennController,26,_Header_,Start,1687287393994,610302433779f4af5b9b0812,610302433779f4af5b9b0812,24,match,filler,D,75,match65.jpg,match85.jpg,GoalA,NULL
1687287406,4b7f43129c0484be5ad7334acf7731b0,PennController,27,0,experiment,NULL,PennController,26,_Header_,End,1687287393994,610302433779f4af5b9b0812,610302433779f4af5b9b0812,24,match,filler,D,75,match65.jpg,match85.jpg,GoalA,NULL
1687287406,4b7f43129c0484be5ad7334acf7731b0,PennController,27,0,experiment,NULL,Canvas,canvas6,Print,NA,1687287401698,610302433779f4af5b9b0812,610302433779f4af5b9b0812,24,match,filler,D,75,match65.jpg,match85.jpg,GoalA,NULL
1687287406,4b7f43129c0484be5ad7334acf7731b0,PennController,27,0,experiment,NULL,Video,progression,buffer,0.011366,1687287397538,610302433779f4af5b9b0812,610302433779f4af5b9b0812,24,match,filler,D,75,match65.jpg,match85.jpg,GoalA,NULL
1687287406,4b7f43129c0484be5ad7334acf7731b0,PennController,27,0,experiment,NULL,Selector,choice,Selection,option1,1687287405722,610302433779f4af5b9b0812,610302433779f4af5b9b0812,24,match,filler,D,75,match65.jpg,match85.jpg,GoalA,option2;option1
1687287406,4b7f43129c0484be5ad7334acf7731b0,PennController,27,0,experiment,NULL,PennController,26,_Trial_,End,1687287405724,610302433779f4af5b9b0812,610302433779f4af5b9b0812,24,match,filler,D,75,match65.jpg,match85.jpg,GoalA,NULL
