#
# Results on Tuesday June 20 2023 18:53:21 UTC
# USER AGENT: Mozilla/5.0 (Windows NT 10.0; Win64; x64) AppleWebKit/537.36 (KHTML, like Gecko) Chrome/114.0.0.0 Safari/537.36
# Design number was non-random = 3
#
# Columns below this comment are as follows:
# 1. Results reception time.
# 2. MD5 hash of participant's IP address.
# 3. Controller name.
# 4. Order number of item.
# 5. Inner element number.
# 6. Label.
# 7. Latin Square Group.
# 8. PennElementType.
# 9. PennElementName.
# 10. Parameter.
# 11. Value.
# 12. EventTime.
# 13. PROLIFIC_ID.
# 14. Comments.
1687287201,7d1d6a707e3e915eb0119d0362675bd6,PennController,2,0,consent,NULL,PennController,0,_Trial_,Start,1687286888045,615dcfd84bae27118bd7c2db,NULL
1687287201,7d1d6a707e3e915eb0119d0362675bd6,PennController,2,0,consent,NULL,PennController,0,_Header_,Start,1687286888045,615dcfd84bae27118bd7c2db,NULL
1687287201,7d1d6a707e3e915eb0119d0362675bd6,PennController,2,0,consent,NULL,PennController,0,_Header_,End,1687286888046,615dcfd84bae27118bd7c2db,NULL
1687287201,7d1d6a707e3e915eb0119d0362675bd6,PennController,2,0,consent,NULL,PennController,0,_Trial_,End,1687286890868,615dcfd84bae27118bd7c2db,NULL
# Columns below this comment are as follows:
# 14. ID.
# 15. Comments.
1687287201,7d1d6a707e3e915eb0119d0362675bd6,PennController,3,0,intro,NULL,PennController,1,_Trial_,Start,1687286890870,615dcfd84bae27118bd7c2db,615dcfd84bae27118bd7c2db,NULL
1687287201,7d1d6a707e3e915eb0119d0362675bd6,PennController,3,0,intro,NULL,PennController,1,_Header_,Start,1687286890870,615dcfd84bae27118bd7c2db,615dcfd84bae27118bd7c2db,NULL
1687287201,7d1d6a707e3e915eb0119d0362675bd6,PennController,3,0,intro,NULL,PennController,1,_Header_,End,1687286890870,615dcfd84bae27118bd7c2db,615dcfd84bae27118bd7c2db,NULL
1687287201,7d1d6a707e3e915eb0119d0362675bd6,PennController,3,0,intro,NULL,PennController,1,_Trial_,End,1687286924575,615dcfd84bae27118bd7c2db,615dcfd84bae27118bd7c2db,NULL
# Columns below this comment are as follows:
# 15. item_number.
# 16. item.
# 17. type.
# 18. Group.
# 19. prog.
# 20. prev_image.
# 21. next_image.
# 22. height.
# 23. Comments.
1687287201,7d1d6a707e3e915eb0119d0362675bd6,PennController,21,0,experiment,NULL,PennController,20,_Trial_,Start,1687286924577,615dcfd84bae27118bd7c2db,615dcfd84bae27118bd7c2db,18,ball,critical,D,75,ball65.jpg,ball85.jpg,high,NULL
1687287201,7d1d6a707e3e915eb0119d0362675bd6,PennController,21,0,experiment,NULL,PennController,20,_Header_,Start,1687286924577,615dcfd84bae27118bd7c2db,615dcfd84bae27118bd7c2db,18,ball,critical,D,75,ball65.jpg,ball85.jpg,high,NULL
1687287201,7d1d6a707e3e915eb0119d0362675bd6,PennController,21,0,experiment,NULL,PennController,20,_Header_,End,1687286924577,615dcfd84bae27118bd7c2db,615dcfd84bae27118bd7c2db,18,ball,critical,D,75,ball65.jpg,ball85.jpg,high,NULL
1687287201,7d1d6a707e3e915eb0119d0362675bd6,PennController,21,0,experiment,NULL,Canvas,canvas6,Print,NA,1687286932299,615dcfd84bae27118bd7c2db,615dcfd84bae27118bd7c2db,18,ball,critical,D,75,ball65.jpg,ball85.jpg,high,NULL
1687287201,7d1d6a707e3e915eb0119d0362675bd6,PennController,21,0,experiment,NULL,Video,progression,buffer,0.00437,1687286928103,615dcfd84bae27118bd7c2db,615dcfd84bae27118bd7c2db,18,ball,critical,D,75,ball65.jpg,ball85.jpg,high,NULL
1687287201,7d1d6a707e3e915eb0119d0362675bd6,PennController,21,0,experiment,NULL,Selector,choice,Selection,option2,1687286939863,615dcfd84bae27118bd7c2db,615dcfd84bae27118bd7c2db,18,ball,critical,D,75,ball65.jpg,ball85.jpg,high,option1;option2
1687287201,7d1d6a707e3e915eb0119d0362675bd6,PennController,21,0,experiment,NULL,PennController,20,_Trial_,End,1687286939868,615dcfd84bae27118bd7c2db,615dcfd84bae27118bd7c2db,18,ball,critical,D,75,ball65.jpg,ball85.jpg,high,NULL
1687287201,7d1d6a707e3e915eb0119d0362675bd6,PennController,10,0,experiment,NULL,PennController,9,_Trial_,Start,1687286939870,615dcfd84bae27118bd7c2db,615dcfd84bae27118bd7c2db,7,stack,critical,D,25,stack15.jpg,stack35.jpg,high,NULL
1687287201,7d1d6a707e3e915eb0119d0362675bd6,PennController,10,0,experiment,NULL,PennController,9,_Header_,Start,1687286939870,615dcfd84bae27118bd7c2db,615dcfd84bae27118bd7c2db,7,stack,critical,D,25,stack15.jpg,stack35.jpg,high,NULL
1687287201,7d1d6a707e3e915eb0119d0362675bd6,PennController,10,0,experiment,NULL,PennController,9,_Header_,End,1687286939870,615dcfd84bae27118bd7c2db,615dcfd84bae27118bd7c2db,7,stack,critical,D,25,stack15.jpg,stack35.jpg,high,NULL
1687287201,7d1d6a707e3e915eb0119d0362675bd6,PennController,10,0,experiment,NULL,Canvas,canvas6,Print,NA,1687286945587,615dcfd84bae27118bd7c2db,615dcfd84bae27118bd7c2db,7,stack,critical,D,25,stack15.jpg,stack35.jpg,high,NULL
1687287201,7d1d6a707e3e915eb0119d0362675bd6,PennController,10,0,experiment,NULL,Video,progression,buffer,0.003734,1687286943396,615dcfd84bae27118bd7c2db,615dcfd84bae27118bd7c2db,7,stack,critical,D,25,stack15.jpg,stack35.jpg,high,NULL
1687287201,7d1d6a707e3e915eb0119d0362675bd6,PennController,10,0,experiment,NULL,Selector,choice,Selection,option2,1687286948041,615dcfd84bae27118bd7c2db,615dcfd84bae27118bd7c2db,7,stack,critical,D,25,stack15.jpg,stack35.jpg,high,option1;option2
1687287201,7d1d6a707e3e915eb0119d0362675bd6,PennController,10,0,experiment,NULL,PennController,9,_Trial_,End,1687286948043,615dcfd84bae27118bd7c2db,615dcfd84bae27118bd7c2db,7,stack,critical,D,25,stack15.jpg,stack35.jpg,high,NULL
1687287201,7d1d6a707e3e915eb0119d0362675bd6,PennController,30,0,experiment,NULL,PennController,29,_Trial_,Start,1687286948044,615dcfd84bae27118bd7c2db,615dcfd84bae27118bd7c2db,27,square,filler,D,75,square65.jpg,square85.jpg,GoalB,NULL
1687287201,7d1d6a707e3e915eb0119d0362675bd6,PennController,30,0,experiment,NULL,PennController,29,_Header_,Start,1687286948044,615dcfd84bae27118bd7c2db,615dcfd84bae27118bd7c2db,27,square,filler,D,75,square65.jpg,square85.jpg,GoalB,NULL
1687287201,7d1d6a707e3e915eb0119d0362675bd6,PennController,30,0,experiment,NULL,PennController,29,_Header_,End,1687286948044,615dcfd84bae27118bd7c2db,615dcfd84bae27118bd7c2db,27,square,filler,D,75,square65.jpg,square85.jpg,GoalB,NULL
1687287201,7d1d6a707e3e915eb0119d0362675bd6,PennController,30,0,experiment,NULL,Canvas,canvas6,Print,NA,1687286955754,615dcfd84bae27118bd7c2db,615dcfd84bae27118bd7c2db,27,square,filler,D,75,square65.jpg,square85.jpg,GoalB,NULL
1687287201,7d1d6a707e3e915eb0119d0362675bd6,PennController,30,0,experiment,NULL,Video,progression,buffer,0.002709,1687286951564,615dcfd84bae27118bd7c2db,615dcfd84bae27118bd7c2db,27,square,filler,D,75,square65.jpg,square85.jpg,GoalB,NULL
1687287201,7d1d6a707e3e915eb0119d0362675bd6,PennController,30,0,experiment,NULL,Selector,choice,Selection,option2,1687286957551,615dcfd84bae27118bd7c2db,615dcfd84bae27118bd7c2db,27,square,filler,D,75,square65.jpg,square85.jpg,GoalB,option1;option2
1687287201,7d1d6a707e3e915eb0119d0362675bd6,PennController,30,0,experiment,NULL,PennController,29,_Trial_,End,1687286957554,615dcfd84bae27118bd7c2db,615dcfd84bae27118bd7c2db,27,square,filler,D,75,square65.jpg,square85.jpg,GoalB,NULL
1687287201,7d1d6a707e3e915eb0119d0362675bd6,PennController,5,0,experiment,NULL,PennController,4,_Trial_,Start,1687286957555,615dcfd84bae27118bd7c2db,615dcfd84bae27118bd7c2db,2,door,critical,D,50,door40.jpg,door60.jpg,high,NULL
1687287201,7d1d6a707e3e915eb0119d0362675bd6,PennController,5,0,experiment,NULL,PennController,4,_Header_,Start,1687286957555,615dcfd84bae27118bd7c2db,615dcfd84bae27118bd7c2db,2,door,critical,D,50,door40.jpg,door60.jpg,high,NULL
1687287201,7d1d6a707e3e915eb0119d0362675bd6,PennController,5,0,experiment,NULL,PennController,4,_Header_,End,1687286957555,615dcfd84bae27118bd7c2db,615dcfd84bae27118bd7c2db,2,door,critical,D,50,door40.jpg,door60.jpg,high,NULL
1687287201,7d1d6a707e3e915eb0119d0362675bd6,PennController,5,0,experiment,NULL,Canvas,canvas6,Print,NA,1687286964269,615dcfd84bae27118bd7c2db,615dcfd84bae27118bd7c2db,2,door,critical,D,50,door40.jpg,door60.jpg,high,NULL
1687287201,7d1d6a707e3e915eb0119d0362675bd6,PennController,5,0,experiment,NULL,Video,progression,buffer,0.002628,1687286961077,615dcfd84bae27118bd7c2db,615dcfd84bae27118bd7c2db,2,door,critical,D,50,door40.jpg,door60.jpg,high,NULL
1687287201,7d1d6a707e3e915eb0119d0362675bd6,PennController,5,0,experiment,NULL,Selector,choice,Selection,option2,1687286965732,615dcfd84bae27118bd7c2db,615dcfd84bae27118bd7c2db,2,door,critical,D,50,door40.jpg,door60.jpg,high,option1;option2
1687287201,7d1d6a707e3e915eb0119d0362675bd6,PennController,5,0,experiment,NULL,PennController,4,_Trial_,End,1687286965735,615dcfd84bae27118bd7c2db,615dcfd84bae27118bd7c2db,2,door,critical,D,50,door40.jpg,door60.jpg,high,NULL
1687287201,7d1d6a707e3e915eb0119d0362675bd6,PennController,11,0,experiment,NULL,PennController,10,_Trial_,Start,1687286965736,615dcfd84bae27118bd7c2db,615dcfd84bae27118bd7c2db,8,cucumber,critical,D,50,cucumber42.jpg,cucumber60.jpg,high,NULL
1687287201,7d1d6a707e3e915eb0119d0362675bd6,PennController,11,0,experiment,NULL,PennController,10,_Header_,Start,1687286965736,615dcfd84bae27118bd7c2db,615dcfd84bae27118bd7c2db,8,cucumber,critical,D,50,cucumber42.jpg,cucumber60.jpg,high,NULL
1687287201,7d1d6a707e3e915eb0119d0362675bd6,PennController,11,0,experiment,NULL,PennController,10,_Header_,End,1687286965736,615dcfd84bae27118bd7c2db,615dcfd84bae27118bd7c2db,8,cucumber,critical,D,50,cucumber42.jpg,cucumber60.jpg,high,NULL
1687287201,7d1d6a707e3e915eb0119d0362675bd6,PennController,11,0,experiment,NULL,Canvas,canvas6,Print,NA,1687286973847,615dcfd84bae27118bd7c2db,615dcfd84bae27118bd7c2db,8,cucumber,critical,D,50,cucumber42.jpg,cucumber60.jpg,high,NULL
1687287201,7d1d6a707e3e915eb0119d0362675bd6,PennController,11,0,experiment,NULL,Video,progression,buffer,0.002751,1687286969253,615dcfd84bae27118bd7c2db,615dcfd84bae27118bd7c2db,8,cucumber,critical,D,50,cucumber42.jpg,cucumber60.jpg,high,NULL
1687287201,7d1d6a707e3e915eb0119d0362675bd6,PennController,11,0,experiment,NULL,Selector,choice,Selection,option1,1687286976933,615dcfd84bae27118bd7c2db,615dcfd84bae27118bd7c2db,8,cucumber,critical,D,50,cucumber42.jpg,cucumber60.jpg,high,option2;option1
1687287201,7d1d6a707e3e915eb0119d0362675bd6,PennController,11,0,experiment,NULL,PennController,10,_Trial_,End,1687286976936,615dcfd84bae27118bd7c2db,615dcfd84bae27118bd7c2db,8,cucumber,critical,D,50,cucumber42.jpg,cucumber60.jpg,high,NULL
1687287201,7d1d6a707e3e915eb0119d0362675bd6,PennController,23,0,experiment,NULL,PennController,22,_Trial_,Start,1687286976937,615dcfd84bae27118bd7c2db,615dcfd84bae27118bd7c2db,20,cat,filler,D,50,cat40.jpg,cat60.jpg,GoalA,NULL
1687287201,7d1d6a707e3e915eb0119d0362675bd6,PennController,23,0,experiment,NULL,PennController,22,_Header_,Start,1687286976937,615dcfd84bae27118bd7c2db,615dcfd84bae27118bd7c2db,20,cat,filler,D,50,cat40.jpg,cat60.jpg,GoalA,NULL
1687287201,7d1d6a707e3e915eb0119d0362675bd6,PennController,23,0,experiment,NULL,PennController,22,_Header_,End,1687286976937,615dcfd84bae27118bd7c2db,615dcfd84bae27118bd7c2db,20,cat,filler,D,50,cat40.jpg,cat60.jpg,GoalA,NULL
1687287201,7d1d6a707e3e915eb0119d0362675bd6,PennController,23,0,experiment,NULL,Canvas,canvas6,Print,NA,1687286983637,615dcfd84bae27118bd7c2db,615dcfd84bae27118bd7c2db,20,cat,filler,D,50,cat40.jpg,cat60.jpg,GoalA,NULL
1687287201,7d1d6a707e3e915eb0119d0362675bd6,PennController,23,0,experiment,NULL,Video,progression,buffer,0.002187,1687286980451,615dcfd84bae27118bd7c2db,615dcfd84bae27118bd7c2db,20,cat,filler,D,50,cat40.jpg,cat60.jpg,GoalA,NULL
1687287201,7d1d6a707e3e915eb0119d0362675bd6,PennController,23,0,experiment,NULL,Selector,choice,Selection,option2,1687286986361,615dcfd84bae27118bd7c2db,615dcfd84bae27118bd7c2db,20,cat,filler,D,50,cat40.jpg,cat60.jpg,GoalA,option2;option1
1687287201,7d1d6a707e3e915eb0119d0362675bd6,PennController,23,0,experiment,NULL,PennController,22,_Trial_,End,1687286986366,615dcfd84bae27118bd7c2db,615dcfd84bae27118bd7c2db,20,cat,filler,D,50,cat40.jpg,cat60.jpg,GoalA,NULL
1687287201,7d1d6a707e3e915eb0119d0362675bd6,PennController,26,0,experiment,NULL,PennController,25,_Trial_,Start,1687286986368,615dcfd84bae27118bd7c2db,615dcfd84bae27118bd7c2db,23,color,filler,D,50,color40.jpg,color60.jpg,GoalB,NULL
1687287201,7d1d6a707e3e915eb0119d0362675bd6,PennController,26,0,experiment,NULL,PennController,25,_Header_,Start,1687286986368,615dcfd84bae27118bd7c2db,615dcfd84bae27118bd7c2db,23,color,filler,D,50,color40.jpg,color60.jpg,GoalB,NULL
1687287201,7d1d6a707e3e915eb0119d0362675bd6,PennController,26,0,experiment,NULL,PennController,25,_Header_,End,1687286986368,615dcfd84bae27118bd7c2db,615dcfd84bae27118bd7c2db,23,color,filler,D,50,color40.jpg,color60.jpg,GoalB,NULL
1687287201,7d1d6a707e3e915eb0119d0362675bd6,PennController,26,0,experiment,NULL,Canvas,canvas6,Print,NA,1687286993068,615dcfd84bae27118bd7c2db,615dcfd84bae27118bd7c2db,23,color,filler,D,50,color40.jpg,color60.jpg,GoalB,NULL
1687287201,7d1d6a707e3e915eb0119d0362675bd6,PennController,26,0,experiment,NULL,Video,progression,buffer,0.003866,1687286989886,615dcfd84bae27118bd7c2db,615dcfd84bae27118bd7c2db,23,color,filler,D,50,color40.jpg,color60.jpg,GoalB,NULL
1687287201,7d1d6a707e3e915eb0119d0362675bd6,PennController,26,0,experiment,NULL,Selector,choice,Selection,option2,1687286996731,615dcfd84bae27118bd7c2db,615dcfd84bae27118bd7c2db,23,color,filler,D,50,color40.jpg,color60.jpg,GoalB,option2;option1
1687287201,7d1d6a707e3e915eb0119d0362675bd6,PennController,26,0,experiment,NULL,PennController,25,_Trial_,End,1687286996737,615dcfd84bae27118bd7c2db,615dcfd84bae27118bd7c2db,23,color,filler,D,50,color40.jpg,color60.jpg,GoalB,NULL
1687287201,7d1d6a707e3e915eb0119d0362675bd6,PennController,32,0,experiment,NULL,PennController,31,_Trial_,Start,1687286996739,615dcfd84bae27118bd7c2db,615dcfd84bae27118bd7c2db,29,frog,filler,D,50,frog40.jpg,frog60.jpg,GoalB,NULL
1687287201,7d1d6a707e3e915eb0119d0362675bd6,PennController,32,0,experiment,NULL,PennController,31,_Header_,Start,1687286996739,615dcfd84bae27118bd7c2db,615dcfd84bae27118bd7c2db,29,frog,filler,D,50,frog40.jpg,frog60.jpg,GoalB,NULL
1687287201,7d1d6a707e3e915eb0119d0362675bd6,PennController,32,0,experiment,NULL,PennController,31,_Header_,End,1687286996739,615dcfd84bae27118bd7c2db,615dcfd84bae27118bd7c2db,29,frog,filler,D,50,frog40.jpg,frog60.jpg,GoalB,NULL
1687287201,7d1d6a707e3e915eb0119d0362675bd6,PennController,32,0,experiment,NULL,Canvas,canvas6,Print,NA,1687287003447,615dcfd84bae27118bd7c2db,615dcfd84bae27118bd7c2db,29,frog,filler,D,50,frog40.jpg,frog60.jpg,GoalB,NULL
1687287201,7d1d6a707e3e915eb0119d0362675bd6,PennController,32,0,experiment,NULL,Video,progression,buffer,0.001712,1687287000255,615dcfd84bae27118bd7c2db,615dcfd84bae27118bd7c2db,29,frog,filler,D,50,frog40.jpg,frog60.jpg,GoalB,NULL
1687287201,7d1d6a707e3e915eb0119d0362675bd6,PennController,32,0,experiment,NULL,Selector,choice,Selection,option2,1687287005170,615dcfd84bae27118bd7c2db,615dcfd84bae27118bd7c2db,29,frog,filler,D,50,frog40.jpg,frog60.jpg,GoalB,option2;option1
1687287201,7d1d6a707e3e915eb0119d0362675bd6,PennController,32,0,experiment,NULL,PennController,31,_Trial_,End,1687287005175,615dcfd84bae27118bd7c2db,615dcfd84bae27118bd7c2db,29,frog,filler,D,50,frog40.jpg,frog60.jpg,GoalB,NULL
1687287201,7d1d6a707e3e915eb0119d0362675bd6,PennController,12,0,experiment,NULL,PennController,11,_Trial_,Start,1687287005177,615dcfd84bae27118bd7c2db,615dcfd84bae27118bd7c2db,9,cake,critical,D,75,cake66.jpg,cake84.jpg,high,NULL
1687287201,7d1d6a707e3e915eb0119d0362675bd6,PennController,12,0,experiment,NULL,PennController,11,_Header_,Start,1687287005177,615dcfd84bae27118bd7c2db,615dcfd84bae27118bd7c2db,9,cake,critical,D,75,cake66.jpg,cake84.jpg,high,NULL
1687287201,7d1d6a707e3e915eb0119d0362675bd6,PennController,12,0,experiment,NULL,PennController,11,_Header_,End,1687287005177,615dcfd84bae27118bd7c2db,615dcfd84bae27118bd7c2db,9,cake,critical,D,75,cake66.jpg,cake84.jpg,high,NULL
1687287201,7d1d6a707e3e915eb0119d0362675bd6,PennController,12,0,experiment,NULL,Canvas,canvas6,Print,NA,1687287014890,615dcfd84bae27118bd7c2db,615dcfd84bae27118bd7c2db,9,cake,critical,D,75,cake66.jpg,cake84.jpg,high,NULL
1687287201,7d1d6a707e3e915eb0119d0362675bd6,PennController,12,0,experiment,NULL,Video,progression,buffer,0.003858,1687287008700,615dcfd84bae27118bd7c2db,615dcfd84bae27118bd7c2db,9,cake,critical,D,75,cake66.jpg,cake84.jpg,high,NULL
1687287201,7d1d6a707e3e915eb0119d0362675bd6,PennController,12,0,experiment,NULL,Selector,choice,Selection,option2,1687287017757,615dcfd84bae27118bd7c2db,615dcfd84bae27118bd7c2db,9,cake,critical,D,75,cake66.jpg,cake84.jpg,high,option2;option1
1687287201,7d1d6a707e3e915eb0119d0362675bd6,PennController,12,0,experiment,NULL,PennController,11,_Trial_,End,1687287017763,615dcfd84bae27118bd7c2db,615dcfd84bae27118bd7c2db,9,cake,critical,D,75,cake66.jpg,cake84.jpg,high,NULL
1687287201,7d1d6a707e3e915eb0119d0362675bd6,PennController,6,0,experiment,NULL,PennController,5,_Trial_,Start,1687287017764,615dcfd84bae27118bd7c2db,615dcfd84bae27118bd7c2db,3,clean,critical,D,75,clean65.jpg,clean85.jpg,high,NULL
1687287201,7d1d6a707e3e915eb0119d0362675bd6,PennController,6,0,experiment,NULL,PennController,5,_Header_,Start,1687287017764,615dcfd84bae27118bd7c2db,615dcfd84bae27118bd7c2db,3,clean,critical,D,75,clean65.jpg,clean85.jpg,high,NULL
1687287201,7d1d6a707e3e915eb0119d0362675bd6,PennController,6,0,experiment,NULL,PennController,5,_Header_,End,1687287017764,615dcfd84bae27118bd7c2db,615dcfd84bae27118bd7c2db,3,clean,critical,D,75,clean65.jpg,clean85.jpg,high,NULL
1687287201,7d1d6a707e3e915eb0119d0362675bd6,PennController,6,0,experiment,NULL,Canvas,canvas6,Print,NA,1687287025475,615dcfd84bae27118bd7c2db,615dcfd84bae27118bd7c2db,3,clean,critical,D,75,clean65.jpg,clean85.jpg,high,NULL
1687287201,7d1d6a707e3e915eb0119d0362675bd6,PennController,6,0,experiment,NULL,Video,progression,buffer,0.003977,1687287021284,615dcfd84bae27118bd7c2db,615dcfd84bae27118bd7c2db,3,clean,critical,D,75,clean65.jpg,clean85.jpg,high,NULL
1687287201,7d1d6a707e3e915eb0119d0362675bd6,PennController,6,0,experiment,NULL,Selector,choice,Selection,option2,1687287027184,615dcfd84bae27118bd7c2db,615dcfd84bae27118bd7c2db,3,clean,critical,D,75,clean65.jpg,clean85.jpg,high,option1;option2
1687287201,7d1d6a707e3e915eb0119d0362675bd6,PennController,6,0,experiment,NULL,PennController,5,_Trial_,End,1687287027186,615dcfd84bae27118bd7c2db,615dcfd84bae27118bd7c2db,3,clean,critical,D,75,clean65.jpg,clean85.jpg,high,NULL
1687287201,7d1d6a707e3e915eb0119d0362675bd6,PennController,8,0,experiment,NULL,PennController,7,_Trial_,Start,1687287027187,615dcfd84bae27118bd7c2db,615dcfd84bae27118bd7c2db,5,book,critical,D,50,book40.jpg,book60.jpg,high,NULL
1687287201,7d1d6a707e3e915eb0119d0362675bd6,PennController,8,0,experiment,NULL,PennController,7,_Header_,Start,1687287027187,615dcfd84bae27118bd7c2db,615dcfd84bae27118bd7c2db,5,book,critical,D,50,book40.jpg,book60.jpg,high,NULL
1687287201,7d1d6a707e3e915eb0119d0362675bd6,PennController,8,0,experiment,NULL,PennController,7,_Header_,End,1687287027187,615dcfd84bae27118bd7c2db,615dcfd84bae27118bd7c2db,5,book,critical,D,50,book40.jpg,book60.jpg,high,NULL
1687287201,7d1d6a707e3e915eb0119d0362675bd6,PennController,8,0,experiment,NULL,Canvas,canvas6,Print,NA,1687287033907,615dcfd84bae27118bd7c2db,615dcfd84bae27118bd7c2db,5,book,critical,D,50,book40.jpg,book60.jpg,high,NULL
1687287201,7d1d6a707e3e915eb0119d0362675bd6,PennController,8,0,experiment,NULL,Video,progression,buffer,0.003049,1687287030712,615dcfd84bae27118bd7c2db,615dcfd84bae27118bd7c2db,5,book,critical,D,50,book40.jpg,book60.jpg,high,NULL
1687287201,7d1d6a707e3e915eb0119d0362675bd6,PennController,8,0,experiment,NULL,Selector,choice,Selection,option2,1687287036118,615dcfd84bae27118bd7c2db,615dcfd84bae27118bd7c2db,5,book,critical,D,50,book40.jpg,book60.jpg,high,option1;option2
1687287201,7d1d6a707e3e915eb0119d0362675bd6,PennController,8,0,experiment,NULL,PennController,7,_Trial_,End,1687287036122,615dcfd84bae27118bd7c2db,615dcfd84bae27118bd7c2db,5,book,critical,D,50,book40.jpg,book60.jpg,high,NULL
1687287201,7d1d6a707e3e915eb0119d0362675bd6,PennController,9,0,experiment,NULL,PennController,8,_Trial_,Start,1687287036124,615dcfd84bae27118bd7c2db,615dcfd84bae27118bd7c2db,6,flower,critical,D,75,flower65.jpg,flower85.jpg,high,NULL
1687287201,7d1d6a707e3e915eb0119d0362675bd6,PennController,9,0,experiment,NULL,PennController,8,_Header_,Start,1687287036124,615dcfd84bae27118bd7c2db,615dcfd84bae27118bd7c2db,6,flower,critical,D,75,flower65.jpg,flower85.jpg,high,NULL
1687287201,7d1d6a707e3e915eb0119d0362675bd6,PennController,9,0,experiment,NULL,PennController,8,_Header_,End,1687287036124,615dcfd84bae27118bd7c2db,615dcfd84bae27118bd7c2db,6,flower,critical,D,75,flower65.jpg,flower85.jpg,high,NULL
1687287201,7d1d6a707e3e915eb0119d0362675bd6,PennController,9,0,experiment,NULL,Canvas,canvas6,Print,NA,1687287043842,615dcfd84bae27118bd7c2db,615dcfd84bae27118bd7c2db,6,flower,critical,D,75,flower65.jpg,flower85.jpg,high,NULL
1687287201,7d1d6a707e3e915eb0119d0362675bd6,PennController,9,0,experiment,NULL,Video,progression,buffer,0.002639,1687287039645,615dcfd84bae27118bd7c2db,615dcfd84bae27118bd7c2db,6,flower,critical,D,75,flower65.jpg,flower85.jpg,high,NULL
1687287201,7d1d6a707e3e915eb0119d0362675bd6,PennController,9,0,experiment,NULL,Selector,choice,Selection,option1,1687287047554,615dcfd84bae27118bd7c2db,615dcfd84bae27118bd7c2db,6,flower,critical,D,75,flower65.jpg,flower85.jpg,high,option1;option2
1687287201,7d1d6a707e3e915eb0119d0362675bd6,PennController,9,0,experiment,NULL,PennController,8,_Trial_,End,1687287047560,615dcfd84bae27118bd7c2db,615dcfd84bae27118bd7c2db,6,flower,critical,D,75,flower65.jpg,flower85.jpg,high,NULL
1687287201,7d1d6a707e3e915eb0119d0362675bd6,PennController,18,0,experiment,NULL,PennController,17,_Trial_,Start,1687287047561,615dcfd84bae27118bd7c2db,615dcfd84bae27118bd7c2db,15,zip,critical,D,75,zip65.jpg,zip85.jpg,high,NULL
1687287201,7d1d6a707e3e915eb0119d0362675bd6,PennController,18,0,experiment,NULL,PennController,17,_Header_,Start,1687287047561,615dcfd84bae27118bd7c2db,615dcfd84bae27118bd7c2db,15,zip,critical,D,75,zip65.jpg,zip85.jpg,high,NULL
1687287201,7d1d6a707e3e915eb0119d0362675bd6,PennController,18,0,experiment,NULL,PennController,17,_Header_,End,1687287047561,615dcfd84bae27118bd7c2db,615dcfd84bae27118bd7c2db,15,zip,critical,D,75,zip65.jpg,zip85.jpg,high,NULL
1687287201,7d1d6a707e3e915eb0119d0362675bd6,PennController,18,0,experiment,NULL,Canvas,canvas6,Print,NA,1687287054473,615dcfd84bae27118bd7c2db,615dcfd84bae27118bd7c2db,15,zip,critical,D,75,zip65.jpg,zip85.jpg,high,NULL
1687287201,7d1d6a707e3e915eb0119d0362675bd6,PennController,18,0,experiment,NULL,Video,progression,buffer,0.0028,1687287051081,615dcfd84bae27118bd7c2db,615dcfd84bae27118bd7c2db,15,zip,critical,D,75,zip65.jpg,zip85.jpg,high,NULL
1687287201,7d1d6a707e3e915eb0119d0362675bd6,PennController,18,0,experiment,NULL,Selector,choice,Selection,option2,1687287056401,615dcfd84bae27118bd7c2db,615dcfd84bae27118bd7c2db,15,zip,critical,D,75,zip65.jpg,zip85.jpg,high,option1;option2
1687287201,7d1d6a707e3e915eb0119d0362675bd6,PennController,18,0,experiment,NULL,PennController,17,_Trial_,End,1687287056407,615dcfd84bae27118bd7c2db,615dcfd84bae27118bd7c2db,15,zip,critical,D,75,zip65.jpg,zip85.jpg,high,NULL
1687287201,7d1d6a707e3e915eb0119d0362675bd6,PennController,22,0,experiment,NULL,PennController,21,_Trial_,Start,1687287056408,615dcfd84bae27118bd7c2db,615dcfd84bae27118bd7c2db,19,cup,filler,D,25,cup15.jpg,cup35.jpg,GoalB,NULL
1687287201,7d1d6a707e3e915eb0119d0362675bd6,PennController,22,0,experiment,NULL,PennController,21,_Header_,Start,1687287056408,615dcfd84bae27118bd7c2db,615dcfd84bae27118bd7c2db,19,cup,filler,D,25,cup15.jpg,cup35.jpg,GoalB,NULL
1687287201,7d1d6a707e3e915eb0119d0362675bd6,PennController,22,0,experiment,NULL,PennController,21,_Header_,End,1687287056408,615dcfd84bae27118bd7c2db,615dcfd84bae27118bd7c2db,19,cup,filler,D,25,cup15.jpg,cup35.jpg,GoalB,NULL
1687287201,7d1d6a707e3e915eb0119d0362675bd6,PennController,22,0,experiment,NULL,Canvas,canvas6,Print,NA,1687287062113,615dcfd84bae27118bd7c2db,615dcfd84bae27118bd7c2db,19,cup,filler,D,25,cup15.jpg,cup35.jpg,GoalB,NULL
1687287201,7d1d6a707e3e915eb0119d0362675bd6,PennController,22,0,experiment,NULL,Video,progression,buffer,0.003951,1687287059927,615dcfd84bae27118bd7c2db,615dcfd84bae27118bd7c2db,19,cup,filler,D,25,cup15.jpg,cup35.jpg,GoalB,NULL
1687287201,7d1d6a707e3e915eb0119d0362675bd6,PennController,22,0,experiment,NULL,Selector,choice,Selection,option2,1687287063662,615dcfd84bae27118bd7c2db,615dcfd84bae27118bd7c2db,19,cup,filler,D,25,cup15.jpg,cup35.jpg,GoalB,option2;option1
1687287201,7d1d6a707e3e915eb0119d0362675bd6,PennController,22,0,experiment,NULL,PennController,21,_Trial_,End,1687287063664,615dcfd84bae27118bd7c2db,615dcfd84bae27118bd7c2db,19,cup,filler,D,25,cup15.jpg,cup35.jpg,GoalB,NULL
1687287201,7d1d6a707e3e915eb0119d0362675bd6,PennController,14,0,experiment,NULL,PennController,13,_Trial_,Start,1687287063665,615dcfd84bae27118bd7c2db,615dcfd84bae27118bd7c2db,11,beads,critical,D,50,beads40.jpg,beads60.jpg,high,NULL
1687287201,7d1d6a707e3e915eb0119d0362675bd6,PennController,14,0,experiment,NULL,PennController,13,_Header_,Start,1687287063665,615dcfd84bae27118bd7c2db,615dcfd84bae27118bd7c2db,11,beads,critical,D,50,beads40.jpg,beads60.jpg,high,NULL
1687287201,7d1d6a707e3e915eb0119d0362675bd6,PennController,14,0,experiment,NULL,PennController,13,_Header_,End,1687287063665,615dcfd84bae27118bd7c2db,615dcfd84bae27118bd7c2db,11,beads,critical,D,50,beads40.jpg,beads60.jpg,high,NULL
1687287201,7d1d6a707e3e915eb0119d0362675bd6,PennController,14,0,experiment,NULL,Canvas,canvas6,Print,NA,1687287070370,615dcfd84bae27118bd7c2db,615dcfd84bae27118bd7c2db,11,beads,critical,D,50,beads40.jpg,beads60.jpg,high,NULL
1687287201,7d1d6a707e3e915eb0119d0362675bd6,PennController,14,0,experiment,NULL,Video,progression,buffer,0.002688,1687287067182,615dcfd84bae27118bd7c2db,615dcfd84bae27118bd7c2db,11,beads,critical,D,50,beads40.jpg,beads60.jpg,high,NULL
1687287201,7d1d6a707e3e915eb0119d0362675bd6,PennController,14,0,experiment,NULL,Selector,choice,Selection,option2,1687287072913,615dcfd84bae27118bd7c2db,615dcfd84bae27118bd7c2db,11,beads,critical,D,50,beads40.jpg,beads60.jpg,high,option2;option1
1687287201,7d1d6a707e3e915eb0119d0362675bd6,PennController,14,0,experiment,NULL,PennController,13,_Trial_,End,1687287072919,615dcfd84bae27118bd7c2db,615dcfd84bae27118bd7c2db,11,beads,critical,D,50,beads40.jpg,beads60.jpg,high,NULL
1687287201,7d1d6a707e3e915eb0119d0362675bd6,PennController,29,0,experiment,NULL,PennController,28,_Trial_,Start,1687287072920,615dcfd84bae27118bd7c2db,615dcfd84bae27118bd7c2db,26,sandwich,filler,D,50,sandwich40.jpg,sandwich60.jpg,GoalA,NULL
1687287201,7d1d6a707e3e915eb0119d0362675bd6,PennController,29,0,experiment,NULL,PennController,28,_Header_,Start,1687287072920,615dcfd84bae27118bd7c2db,615dcfd84bae27118bd7c2db,26,sandwich,filler,D,50,sandwich40.jpg,sandwich60.jpg,GoalA,NULL
1687287201,7d1d6a707e3e915eb0119d0362675bd6,PennController,29,0,experiment,NULL,PennController,28,_Header_,End,1687287072920,615dcfd84bae27118bd7c2db,615dcfd84bae27118bd7c2db,26,sandwich,filler,D,50,sandwich40.jpg,sandwich60.jpg,GoalA,NULL
1687287201,7d1d6a707e3e915eb0119d0362675bd6,PennController,29,0,experiment,NULL,Canvas,canvas6,Print,NA,1687287079628,615dcfd84bae27118bd7c2db,615dcfd84bae27118bd7c2db,26,sandwich,filler,D,50,sandwich40.jpg,sandwich60.jpg,GoalA,NULL
1687287201,7d1d6a707e3e915eb0119d0362675bd6,PennController,29,0,experiment,NULL,Video,progression,buffer,0.001593,1687287076439,615dcfd84bae27118bd7c2db,615dcfd84bae27118bd7c2db,26,sandwich,filler,D,50,sandwich40.jpg,sandwich60.jpg,GoalA,NULL
1687287201,7d1d6a707e3e915eb0119d0362675bd6,PennController,29,0,experiment,NULL,Selector,choice,Selection,option1,1687287081290,615dcfd84bae27118bd7c2db,615dcfd84bae27118bd7c2db,26,sandwich,filler,D,50,sandwich40.jpg,sandwich60.jpg,GoalA,option1;option2
1687287201,7d1d6a707e3e915eb0119d0362675bd6,PennController,29,0,experiment,NULL,PennController,28,_Trial_,End,1687287081296,615dcfd84bae27118bd7c2db,615dcfd84bae27118bd7c2db,26,sandwich,filler,D,50,sandwich40.jpg,sandwich60.jpg,GoalA,NULL
1687287201,7d1d6a707e3e915eb0119d0362675bd6,PennController,25,0,experiment,NULL,PennController,24,_Trial_,Start,1687287081297,615dcfd84bae27118bd7c2db,615dcfd84bae27118bd7c2db,22,wall,filler,D,25,wall15.jpg,wall35.jpg,GoalA,NULL
1687287201,7d1d6a707e3e915eb0119d0362675bd6,PennController,25,0,experiment,NULL,PennController,24,_Header_,Start,1687287081297,615dcfd84bae27118bd7c2db,615dcfd84bae27118bd7c2db,22,wall,filler,D,25,wall15.jpg,wall35.jpg,GoalA,NULL
1687287201,7d1d6a707e3e915eb0119d0362675bd6,PennController,25,0,experiment,NULL,PennController,24,_Header_,End,1687287081297,615dcfd84bae27118bd7c2db,615dcfd84bae27118bd7c2db,22,wall,filler,D,25,wall15.jpg,wall35.jpg,GoalA,NULL
1687287201,7d1d6a707e3e915eb0119d0362675bd6,PennController,25,0,experiment,NULL,Canvas,canvas6,Print,NA,1687287087002,615dcfd84bae27118bd7c2db,615dcfd84bae27118bd7c2db,22,wall,filler,D,25,wall15.jpg,wall35.jpg,GoalA,NULL
1687287201,7d1d6a707e3e915eb0119d0362675bd6,PennController,25,0,experiment,NULL,Video,progression,buffer,0.003873,1687287084817,615dcfd84bae27118bd7c2db,615dcfd84bae27118bd7c2db,22,wall,filler,D,25,wall15.jpg,wall35.jpg,GoalA,NULL
1687287201,7d1d6a707e3e915eb0119d0362675bd6,PennController,25,0,experiment,NULL,Selector,choice,Selection,option2,1687287095167,615dcfd84bae27118bd7c2db,615dcfd84bae27118bd7c2db,22,wall,filler,D,25,wall15.jpg,wall35.jpg,GoalA,option2;option1
1687287201,7d1d6a707e3e915eb0119d0362675bd6,PennController,25,0,experiment,NULL,PennController,24,_Trial_,End,1687287095172,615dcfd84bae27118bd7c2db,615dcfd84bae27118bd7c2db,22,wall,filler,D,25,wall15.jpg,wall35.jpg,GoalA,NULL
1687287201,7d1d6a707e3e915eb0119d0362675bd6,PennController,17,0,experiment,NULL,PennController,16,_Trial_,Start,1687287095173,615dcfd84bae27118bd7c2db,615dcfd84bae27118bd7c2db,14,cover,critical,D,50,cover42.jpg,cover60.jpg,high,NULL
1687287201,7d1d6a707e3e915eb0119d0362675bd6,PennController,17,0,experiment,NULL,PennController,16,_Header_,Start,1687287095173,615dcfd84bae27118bd7c2db,615dcfd84bae27118bd7c2db,14,cover,critical,D,50,cover42.jpg,cover60.jpg,high,NULL
1687287201,7d1d6a707e3e915eb0119d0362675bd6,PennController,17,0,experiment,NULL,PennController,16,_Header_,End,1687287095174,615dcfd84bae27118bd7c2db,615dcfd84bae27118bd7c2db,14,cover,critical,D,50,cover42.jpg,cover60.jpg,high,NULL
1687287201,7d1d6a707e3e915eb0119d0362675bd6,PennController,17,0,experiment,NULL,Canvas,canvas6,Print,NA,1687287103286,615dcfd84bae27118bd7c2db,615dcfd84bae27118bd7c2db,14,cover,critical,D,50,cover42.jpg,cover60.jpg,high,NULL
1687287201,7d1d6a707e3e915eb0119d0362675bd6,PennController,17,0,experiment,NULL,Video,progression,buffer,0.00274,1687287098695,615dcfd84bae27118bd7c2db,615dcfd84bae27118bd7c2db,14,cover,critical,D,50,cover42.jpg,cover60.jpg,high,NULL
1687287201,7d1d6a707e3e915eb0119d0362675bd6,PennController,17,0,experiment,NULL,Selector,choice,Selection,option1,1687287105259,615dcfd84bae27118bd7c2db,615dcfd84bae27118bd7c2db,14,cover,critical,D,50,cover42.jpg,cover60.jpg,high,option1;option2
1687287201,7d1d6a707e3e915eb0119d0362675bd6,PennController,17,0,experiment,NULL,PennController,16,_Trial_,End,1687287105265,615dcfd84bae27118bd7c2db,615dcfd84bae27118bd7c2db,14,cover,critical,D,50,cover42.jpg,cover60.jpg,high,NULL
1687287201,7d1d6a707e3e915eb0119d0362675bd6,PennController,20,0,experiment,NULL,PennController,19,_Trial_,Start,1687287105266,615dcfd84bae27118bd7c2db,615dcfd84bae27118bd7c2db,17,roll,critical,D,50,roll40.jpg,roll60.jpg,high,NULL
1687287201,7d1d6a707e3e915eb0119d0362675bd6,PennController,20,0,experiment,NULL,PennController,19,_Header_,Start,1687287105266,615dcfd84bae27118bd7c2db,615dcfd84bae27118bd7c2db,17,roll,critical,D,50,roll40.jpg,roll60.jpg,high,NULL
1687287201,7d1d6a707e3e915eb0119d0362675bd6,PennController,20,0,experiment,NULL,PennController,19,_Header_,End,1687287105266,615dcfd84bae27118bd7c2db,615dcfd84bae27118bd7c2db,17,roll,critical,D,50,roll40.jpg,roll60.jpg,high,NULL
1687287201,7d1d6a707e3e915eb0119d0362675bd6,PennController,20,0,experiment,NULL,Canvas,canvas6,Print,NA,1687287111981,615dcfd84bae27118bd7c2db,615dcfd84bae27118bd7c2db,17,roll,critical,D,50,roll40.jpg,roll60.jpg,high,NULL
1687287201,7d1d6a707e3e915eb0119d0362675bd6,PennController,20,0,experiment,NULL,Video,progression,buffer,0.001872,1687287108789,615dcfd84bae27118bd7c2db,615dcfd84bae27118bd7c2db,17,roll,critical,D,50,roll40.jpg,roll60.jpg,high,NULL
1687287201,7d1d6a707e3e915eb0119d0362675bd6,PennController,20,0,experiment,NULL,Selector,choice,Selection,option2,1687287114634,615dcfd84bae27118bd7c2db,615dcfd84bae27118bd7c2db,17,roll,critical,D,50,roll40.jpg,roll60.jpg,high,option2;option1
1687287201,7d1d6a707e3e915eb0119d0362675bd6,PennController,20,0,experiment,NULL,PennController,19,_Trial_,End,1687287114639,615dcfd84bae27118bd7c2db,615dcfd84bae27118bd7c2db,17,roll,critical,D,50,roll40.jpg,roll60.jpg,high,NULL
1687287201,7d1d6a707e3e915eb0119d0362675bd6,PennController,24,0,experiment,NULL,PennController,23,_Trial_,Start,1687287114641,615dcfd84bae27118bd7c2db,615dcfd84bae27118bd7c2db,21,visit,filler,D,75,visit65.jpg,visit85.jpg,GoalB,NULL
1687287201,7d1d6a707e3e915eb0119d0362675bd6,PennController,24,0,experiment,NULL,PennController,23,_Header_,Start,1687287114641,615dcfd84bae27118bd7c2db,615dcfd84bae27118bd7c2db,21,visit,filler,D,75,visit65.jpg,visit85.jpg,GoalB,NULL
1687287201,7d1d6a707e3e915eb0119d0362675bd6,PennController,24,0,experiment,NULL,PennController,23,_Header_,End,1687287114641,615dcfd84bae27118bd7c2db,615dcfd84bae27118bd7c2db,21,visit,filler,D,75,visit65.jpg,visit85.jpg,GoalB,NULL
1687287201,7d1d6a707e3e915eb0119d0362675bd6,PennController,24,0,experiment,NULL,Canvas,canvas6,Print,NA,1687287122356,615dcfd84bae27118bd7c2db,615dcfd84bae27118bd7c2db,21,visit,filler,D,75,visit65.jpg,visit85.jpg,GoalB,NULL
1687287201,7d1d6a707e3e915eb0119d0362675bd6,PennController,24,0,experiment,NULL,Video,progression,buffer,0.003701,1687287118166,615dcfd84bae27118bd7c2db,615dcfd84bae27118bd7c2db,21,visit,filler,D,75,visit65.jpg,visit85.jpg,GoalB,NULL
1687287201,7d1d6a707e3e915eb0119d0362675bd6,PennController,24,0,experiment,NULL,Selector,choice,Selection,option2,1687287124240,615dcfd84bae27118bd7c2db,615dcfd84bae27118bd7c2db,21,visit,filler,D,75,visit65.jpg,visit85.jpg,GoalB,option1;option2
1687287201,7d1d6a707e3e915eb0119d0362675bd6,PennController,24,0,experiment,NULL,PennController,23,_Trial_,End,1687287124245,615dcfd84bae27118bd7c2db,615dcfd84bae27118bd7c2db,21,visit,filler,D,75,visit65.jpg,visit85.jpg,GoalB,NULL
1687287201,7d1d6a707e3e915eb0119d0362675bd6,PennController,27,0,experiment,NULL,PennController,26,_Trial_,Start,1687287124247,615dcfd84bae27118bd7c2db,615dcfd84bae27118bd7c2db,24,match,filler,D,75,match65.jpg,match85.jpg,GoalA,NULL
1687287201,7d1d6a707e3e915eb0119d0362675bd6,PennController,27,0,experiment,NULL,PennController,26,_Header_,Start,1687287124247,615dcfd84bae27118bd7c2db,615dcfd84bae27118bd7c2db,24,match,filler,D,75,match65.jpg,match85.jpg,GoalA,NULL
1687287201,7d1d6a707e3e915eb0119d0362675bd6,PennController,27,0,experiment,NULL,PennController,26,_Header_,End,1687287124247,615dcfd84bae27118bd7c2db,615dcfd84bae27118bd7c2db,24,match,filler,D,75,match65.jpg,match85.jpg,GoalA,NULL
1687287201,7d1d6a707e3e915eb0119d0362675bd6,PennController,27,0,experiment,NULL,Canvas,canvas6,Print,NA,1687287131959,615dcfd84bae27118bd7c2db,615dcfd84bae27118bd7c2db,24,match,filler,D,75,match65.jpg,match85.jpg,GoalA,NULL
1687287201,7d1d6a707e3e915eb0119d0362675bd6,PennController,27,0,experiment,NULL,Video,progression,buffer,0.00449,1687287127769,615dcfd84bae27118bd7c2db,615dcfd84bae27118bd7c2db,24,match,filler,D,75,match65.jpg,match85.jpg,GoalA,NULL
1687287201,7d1d6a707e3e915eb0119d0362675bd6,PennController,27,0,experiment,NULL,Selector,choice,Selection,option2,1687287137109,615dcfd84bae27118bd7c2db,615dcfd84bae27118bd7c2db,24,match,filler,D,75,match65.jpg,match85.jpg,GoalA,option2;option1
1687287201,7d1d6a707e3e915eb0119d0362675bd6,PennController,27,0,experiment,NULL,PennController,26,_Trial_,End,1687287137112,615dcfd84bae27118bd7c2db,615dcfd84bae27118bd7c2db,24,match,filler,D,75,match65.jpg,match85.jpg,GoalA,NULL
1687287201,7d1d6a707e3e915eb0119d0362675bd6,PennController,15,0,experiment,NULL,PennController,14,_Trial_,Start,1687287137112,615dcfd84bae27118bd7c2db,615dcfd84bae27118bd7c2db,12,erase,critical,D,75,erase66.jpg,erase84.jpg,high,NULL
1687287201,7d1d6a707e3e915eb0119d0362675bd6,PennController,15,0,experiment,NULL,PennController,14,_Header_,Start,1687287137112,615dcfd84bae27118bd7c2db,615dcfd84bae27118bd7c2db,12,erase,critical,D,75,erase66.jpg,erase84.jpg,high,NULL
1687287201,7d1d6a707e3e915eb0119d0362675bd6,PennController,15,0,experiment,NULL,PennController,14,_Header_,End,1687287137113,615dcfd84bae27118bd7c2db,615dcfd84bae27118bd7c2db,12,erase,critical,D,75,erase66.jpg,erase84.jpg,high,NULL
1687287201,7d1d6a707e3e915eb0119d0362675bd6,PennController,15,0,experiment,NULL,Canvas,canvas6,Print,NA,1687287146822,615dcfd84bae27118bd7c2db,615dcfd84bae27118bd7c2db,12,erase,critical,D,75,erase66.jpg,erase84.jpg,high,NULL
1687287201,7d1d6a707e3e915eb0119d0362675bd6,PennController,15,0,experiment,NULL,Video,progression,buffer,0.003699,1687287140634,615dcfd84bae27118bd7c2db,615dcfd84bae27118bd7c2db,12,erase,critical,D,75,erase66.jpg,erase84.jpg,high,NULL
1687287201,7d1d6a707e3e915eb0119d0362675bd6,PennController,15,0,experiment,NULL,Selector,choice,Selection,option1,1687287149000,615dcfd84bae27118bd7c2db,615dcfd84bae27118bd7c2db,12,erase,critical,D,75,erase66.jpg,erase84.jpg,high,option1;option2
1687287201,7d1d6a707e3e915eb0119d0362675bd6,PennController,15,0,experiment,NULL,PennController,14,_Trial_,End,1687287149004,615dcfd84bae27118bd7c2db,615dcfd84bae27118bd7c2db,12,erase,critical,D,75,erase66.jpg,erase84.jpg,high,NULL
1687287201,7d1d6a707e3e915eb0119d0362675bd6,PennController,7,0,experiment,NULL,PennController,6,_Trial_,Start,1687287149005,615dcfd84bae27118bd7c2db,615dcfd84bae27118bd7c2db,4,candy,critical,D,25,candy15.jpg,candy35.jpg,high,NULL
1687287201,7d1d6a707e3e915eb0119d0362675bd6,PennController,7,0,experiment,NULL,PennController,6,_Header_,Start,1687287149005,615dcfd84bae27118bd7c2db,615dcfd84bae27118bd7c2db,4,candy,critical,D,25,candy15.jpg,candy35.jpg,high,NULL
1687287201,7d1d6a707e3e915eb0119d0362675bd6,PennController,7,0,experiment,NULL,PennController,6,_Header_,End,1687287149005,615dcfd84bae27118bd7c2db,615dcfd84bae27118bd7c2db,4,candy,critical,D,25,candy15.jpg,candy35.jpg,high,NULL
1687287201,7d1d6a707e3e915eb0119d0362675bd6,PennController,7,0,experiment,NULL,Canvas,canvas6,Print,NA,1687287154711,615dcfd84bae27118bd7c2db,615dcfd84bae27118bd7c2db,4,candy,critical,D,25,candy15.jpg,candy35.jpg,high,NULL
1687287201,7d1d6a707e3e915eb0119d0362675bd6,PennController,7,0,experiment,NULL,Video,progression,buffer,0.002757,1687287152521,615dcfd84bae27118bd7c2db,615dcfd84bae27118bd7c2db,4,candy,critical,D,25,candy15.jpg,candy35.jpg,high,NULL
1687287201,7d1d6a707e3e915eb0119d0362675bd6,PennController,7,0,experiment,NULL,Selector,choice,Selection,option1,1687287156218,615dcfd84bae27118bd7c2db,615dcfd84bae27118bd7c2db,4,candy,critical,D,25,candy15.jpg,candy35.jpg,high,option2;option1
1687287201,7d1d6a707e3e915eb0119d0362675bd6,PennController,7,0,experiment,NULL,PennController,6,_Trial_,End,1687287156223,615dcfd84bae27118bd7c2db,615dcfd84bae27118bd7c2db,4,candy,critical,D,25,candy15.jpg,candy35.jpg,high,NULL
1687287201,7d1d6a707e3e915eb0119d0362675bd6,PennController,13,0,experiment,NULL,PennController,12,_Trial_,Start,1687287156225,615dcfd84bae27118bd7c2db,615dcfd84bae27118bd7c2db,10,train,critical,D,25,train15.jpg,train35.jpg,high,NULL
1687287201,7d1d6a707e3e915eb0119d0362675bd6,PennController,13,0,experiment,NULL,PennController,12,_Header_,Start,1687287156225,615dcfd84bae27118bd7c2db,615dcfd84bae27118bd7c2db,10,train,critical,D,25,train15.jpg,train35.jpg,high,NULL
1687287201,7d1d6a707e3e915eb0119d0362675bd6,PennController,13,0,experiment,NULL,PennController,12,_Header_,End,1687287156225,615dcfd84bae27118bd7c2db,615dcfd84bae27118bd7c2db,10,train,critical,D,25,train15.jpg,train35.jpg,high,NULL
1687287201,7d1d6a707e3e915eb0119d0362675bd6,PennController,13,0,experiment,NULL,Canvas,canvas6,Print,NA,1687287161939,615dcfd84bae27118bd7c2db,615dcfd84bae27118bd7c2db,10,train,critical,D,25,train15.jpg,train35.jpg,high,NULL
1687287201,7d1d6a707e3e915eb0119d0362675bd6,PennController,13,0,experiment,NULL,Video,progression,buffer,0.003465,1687287159749,615dcfd84bae27118bd7c2db,615dcfd84bae27118bd7c2db,10,train,critical,D,25,train15.jpg,train35.jpg,high,NULL
1687287201,7d1d6a707e3e915eb0119d0362675bd6,PennController,13,0,experiment,NULL,Selector,choice,Selection,option1,1687287163154,615dcfd84bae27118bd7c2db,615dcfd84bae27118bd7c2db,10,train,critical,D,25,train15.jpg,train35.jpg,high,option2;option1
1687287201,7d1d6a707e3e915eb0119d0362675bd6,PennController,13,0,experiment,NULL,PennController,12,_Trial_,End,1687287163157,615dcfd84bae27118bd7c2db,615dcfd84bae27118bd7c2db,10,train,critical,D,25,train15.jpg,train35.jpg,high,NULL
1687287201,7d1d6a707e3e915eb0119d0362675bd6,PennController,31,0,experiment,NULL,PennController,30,_Trial_,Start,1687287163158,615dcfd84bae27118bd7c2db,615dcfd84bae27118bd7c2db,28,sort,filler,D,25,sort15.jpg,sort35.jpg,GoalA,NULL
1687287201,7d1d6a707e3e915eb0119d0362675bd6,PennController,31,0,experiment,NULL,PennController,30,_Header_,Start,1687287163158,615dcfd84bae27118bd7c2db,615dcfd84bae27118bd7c2db,28,sort,filler,D,25,sort15.jpg,sort35.jpg,GoalA,NULL
1687287201,7d1d6a707e3e915eb0119d0362675bd6,PennController,31,0,experiment,NULL,PennController,30,_Header_,End,1687287163158,615dcfd84bae27118bd7c2db,615dcfd84bae27118bd7c2db,28,sort,filler,D,25,sort15.jpg,sort35.jpg,GoalA,NULL
1687287201,7d1d6a707e3e915eb0119d0362675bd6,PennController,31,0,experiment,NULL,Canvas,canvas6,Print,NA,1687287168862,615dcfd84bae27118bd7c2db,615dcfd84bae27118bd7c2db,28,sort,filler,D,25,sort15.jpg,sort35.jpg,GoalA,NULL
1687287201,7d1d6a707e3e915eb0119d0362675bd6,PennController,31,0,experiment,NULL,Video,progression,buffer,0.003615,1687287166677,615dcfd84bae27118bd7c2db,615dcfd84bae27118bd7c2db,28,sort,filler,D,25,sort15.jpg,sort35.jpg,GoalA,NULL
1687287201,7d1d6a707e3e915eb0119d0362675bd6,PennController,31,0,experiment,NULL,Selector,choice,Selection,option1,1687287171046,615dcfd84bae27118bd7c2db,615dcfd84bae27118bd7c2db,28,sort,filler,D,25,sort15.jpg,sort35.jpg,GoalA,option2;option1
1687287201,7d1d6a707e3e915eb0119d0362675bd6,PennController,31,0,experiment,NULL,PennController,30,_Trial_,End,1687287171048,615dcfd84bae27118bd7c2db,615dcfd84bae27118bd7c2db,28,sort,filler,D,25,sort15.jpg,sort35.jpg,GoalA,NULL
1687287201,7d1d6a707e3e915eb0119d0362675bd6,PennController,16,0,experiment,NULL,PennController,15,_Trial_,Start,1687287171049,615dcfd84bae27118bd7c2db,615dcfd84bae27118bd7c2db,13,mix,critical,D,25,mix15.jpg,mix35.jpg,high,NULL
1687287201,7d1d6a707e3e915eb0119d0362675bd6,PennController,16,0,experiment,NULL,PennController,15,_Header_,Start,1687287171049,615dcfd84bae27118bd7c2db,615dcfd84bae27118bd7c2db,13,mix,critical,D,25,mix15.jpg,mix35.jpg,high,NULL
1687287201,7d1d6a707e3e915eb0119d0362675bd6,PennController,16,0,experiment,NULL,PennController,15,_Header_,End,1687287171049,615dcfd84bae27118bd7c2db,615dcfd84bae27118bd7c2db,13,mix,critical,D,25,mix15.jpg,mix35.jpg,high,NULL
1687287201,7d1d6a707e3e915eb0119d0362675bd6,PennController,16,0,experiment,NULL,Canvas,canvas6,Print,NA,1687287176753,615dcfd84bae27118bd7c2db,615dcfd84bae27118bd7c2db,13,mix,critical,D,25,mix15.jpg,mix35.jpg,high,NULL
1687287201,7d1d6a707e3e915eb0119d0362675bd6,PennController,16,0,experiment,NULL,Video,progression,buffer,0.002615,1687287174564,615dcfd84bae27118bd7c2db,615dcfd84bae27118bd7c2db,13,mix,critical,D,25,mix15.jpg,mix35.jpg,high,NULL
1687287201,7d1d6a707e3e915eb0119d0362675bd6,PennController,16,0,experiment,NULL,Selector,choice,Selection,option2,1687287179619,615dcfd84bae27118bd7c2db,615dcfd84bae27118bd7c2db,13,mix,critical,D,25,mix15.jpg,mix35.jpg,high,option2;option1
1687287201,7d1d6a707e3e915eb0119d0362675bd6,PennController,16,0,experiment,NULL,PennController,15,_Trial_,End,1687287179624,615dcfd84bae27118bd7c2db,615dcfd84bae27118bd7c2db,13,mix,critical,D,25,mix15.jpg,mix35.jpg,high,NULL
1687287201,7d1d6a707e3e915eb0119d0362675bd6,PennController,19,0,experiment,NULL,PennController,18,_Trial_,Start,1687287179627,615dcfd84bae27118bd7c2db,615dcfd84bae27118bd7c2db,16,blinds,critical,D,25,blinds15.jpg,blinds33.jpg,high,NULL
1687287201,7d1d6a707e3e915eb0119d0362675bd6,PennController,19,0,experiment,NULL,PennController,18,_Header_,Start,1687287179627,615dcfd84bae27118bd7c2db,615dcfd84bae27118bd7c2db,16,blinds,critical,D,25,blinds15.jpg,blinds33.jpg,high,NULL
1687287201,7d1d6a707e3e915eb0119d0362675bd6,PennController,19,0,experiment,NULL,PennController,18,_Header_,End,1687287179627,615dcfd84bae27118bd7c2db,615dcfd84bae27118bd7c2db,16,blinds,critical,D,25,blinds15.jpg,blinds33.jpg,high,NULL
1687287201,7d1d6a707e3e915eb0119d0362675bd6,PennController,19,0,experiment,NULL,Canvas,canvas6,Print,NA,1687287185934,615dcfd84bae27118bd7c2db,615dcfd84bae27118bd7c2db,16,blinds,critical,D,25,blinds15.jpg,blinds33.jpg,high,NULL
1687287201,7d1d6a707e3e915eb0119d0362675bd6,PennController,19,0,experiment,NULL,Video,progression,buffer,0.002647,1687287183148,615dcfd84bae27118bd7c2db,615dcfd84bae27118bd7c2db,16,blinds,critical,D,25,blinds15.jpg,blinds33.jpg,high,NULL
1687287201,7d1d6a707e3e915eb0119d0362675bd6,PennController,19,0,experiment,NULL,Selector,choice,Selection,option2,1687287187083,615dcfd84bae27118bd7c2db,615dcfd84bae27118bd7c2db,16,blinds,critical,D,25,blinds15.jpg,blinds33.jpg,high,option2;option1
1687287201,7d1d6a707e3e915eb0119d0362675bd6,PennController,19,0,experiment,NULL,PennController,18,_Trial_,End,1687287187085,615dcfd84bae27118bd7c2db,615dcfd84bae27118bd7c2db,16,blinds,critical,D,25,blinds15.jpg,blinds33.jpg,high,NULL
1687287201,7d1d6a707e3e915eb0119d0362675bd6,PennController,28,0,experiment,NULL,PennController,27,_Trial_,Start,1687287187086,615dcfd84bae27118bd7c2db,615dcfd84bae27118bd7c2db,25,house,filler,D,25,house15.jpg,house35.jpg,GoalB,NULL
1687287201,7d1d6a707e3e915eb0119d0362675bd6,PennController,28,0,experiment,NULL,PennController,27,_Header_,Start,1687287187086,615dcfd84bae27118bd7c2db,615dcfd84bae27118bd7c2db,25,house,filler,D,25,house15.jpg,house35.jpg,GoalB,NULL
1687287201,7d1d6a707e3e915eb0119d0362675bd6,PennController,28,0,experiment,NULL,PennController,27,_Header_,End,1687287187086,615dcfd84bae27118bd7c2db,615dcfd84bae27118bd7c2db,25,house,filler,D,25,house15.jpg,house35.jpg,GoalB,NULL
1687287201,7d1d6a707e3e915eb0119d0362675bd6,PennController,28,0,experiment,NULL,Canvas,canvas6,Print,NA,1687287192793,615dcfd84bae27118bd7c2db,615dcfd84bae27118bd7c2db,25,house,filler,D,25,house15.jpg,house35.jpg,GoalB,NULL
1687287201,7d1d6a707e3e915eb0119d0362675bd6,PennController,28,0,experiment,NULL,Video,progression,buffer,0.003603,1687287190603,615dcfd84bae27118bd7c2db,615dcfd84bae27118bd7c2db,25,house,filler,D,25,house15.jpg,house35.jpg,GoalB,NULL
1687287201,7d1d6a707e3e915eb0119d0362675bd6,PennController,28,0,experiment,NULL,Selector,choice,Selection,option2,1687287193770,615dcfd84bae27118bd7c2db,615dcfd84bae27118bd7c2db,25,house,filler,D,25,house15.jpg,house35.jpg,GoalB,option1;option2
1687287201,7d1d6a707e3e915eb0119d0362675bd6,PennController,28,0,experiment,NULL,PennController,27,_Trial_,End,1687287193773,615dcfd84bae27118bd7c2db,615dcfd84bae27118bd7c2db,25,house,filler,D,25,house15.jpg,house35.jpg,GoalB,NULL
1687287201,7d1d6a707e3e915eb0119d0362675bd6,PennController,4,0,experiment,NULL,PennController,3,_Trial_,Start,1687287193774,615dcfd84bae27118bd7c2db,615dcfd84bae27118bd7c2db,1,vase,critical,D,25,vase15.jpg,vase35.jpg,high,NULL
1687287201,7d1d6a707e3e915eb0119d0362675bd6,PennController,4,0,experiment,NULL,PennController,3,_Header_,Start,1687287193774,615dcfd84bae27118bd7c2db,615dcfd84bae27118bd7c2db,1,vase,critical,D,25,vase15.jpg,vase35.jpg,high,NULL
1687287201,7d1d6a707e3e915eb0119d0362675bd6,PennController,4,0,experiment,NULL,PennController,3,_Header_,End,1687287193774,615dcfd84bae27118bd7c2db,615dcfd84bae27118bd7c2db,1,vase,critical,D,25,vase15.jpg,vase35.jpg,high,NULL
1687287201,7d1d6a707e3e915eb0119d0362675bd6,PennController,4,0,experiment,NULL,Canvas,canvas6,Print,NA,1687287199486,615dcfd84bae27118bd7c2db,615dcfd84bae27118bd7c2db,1,vase,critical,D,25,vase15.jpg,vase35.jpg,high,NULL
1687287201,7d1d6a707e3e915eb0119d0362675bd6,PennController,4,0,experiment,NULL,Video,progression,buffer,0.002711,1687287197293,615dcfd84bae27118bd7c2db,615dcfd84bae27118bd7c2db,1,vase,critical,D,25,vase15.jpg,vase35.jpg,high,NULL
1687287201,7d1d6a707e3e915eb0119d0362675bd6,PennController,4,0,experiment,NULL,Selector,choice,Selection,option2,1687287200776,615dcfd84bae27118bd7c2db,615dcfd84bae27118bd7c2db,1,vase,critical,D,25,vase15.jpg,vase35.jpg,high,option1;option2
1687287201,7d1d6a707e3e915eb0119d0362675bd6,PennController,4,0,experiment,NULL,PennController,3,_Trial_,End,1687287200781,615dcfd84bae27118bd7c2db,615dcfd84bae27118bd7c2db,1,vase,critical,D,25,vase15.jpg,vase35.jpg,high,NULL
