#
# Results on Thursday June 22 2023 05:11:18 UTC
# USER AGENT: Mozilla/5.0 (Windows NT 10.0; Win64; x64) AppleWebKit/537.36 (KHTML, like Gecko) Chrome/114.0.0.0 Safari/537.36
# Design number was non-random = 77
#
# Columns below this comment are as follows:
# 1. Results reception time.
# 2. MD5 hash of participant's IP address.
# 3. Controller name.
# 4. Order number of item.
# 5. Inner element number.
# 6. Label.
# 7. Latin Square Group.
# 8. PennElementType.
# 9. PennElementName.
# 10. Parameter.
# 11. Value.
# 12. EventTime.
# 13. PROLIFIC_ID.
# 14. Comments.
1687410678,54ec01730e12cd3d7dcb84056888bad9,PennController,3,0,consent,NULL,PennController,0,_Trial_,Start,1687410384738,5c4b06903566570001309394,NULL
1687410678,54ec01730e12cd3d7dcb84056888bad9,PennController,3,0,consent,NULL,PennController,0,_Header_,Start,1687410384738,5c4b06903566570001309394,NULL
1687410678,54ec01730e12cd3d7dcb84056888bad9,PennController,3,0,consent,NULL,PennController,0,_Header_,End,1687410384739,5c4b06903566570001309394,NULL
1687410678,54ec01730e12cd3d7dcb84056888bad9,PennController,3,0,consent,NULL,PennController,0,_Trial_,End,1687410395686,5c4b06903566570001309394,NULL
# Columns below this comment are as follows:
# 14. ID.
# 15. Comments.
1687410678,54ec01730e12cd3d7dcb84056888bad9,PennController,4,0,intro,NULL,PennController,1,_Trial_,Start,1687410395688,5c4b06903566570001309394,5c4b06903566570001309394,NULL
1687410678,54ec01730e12cd3d7dcb84056888bad9,PennController,4,0,intro,NULL,PennController,1,_Header_,Start,1687410395688,5c4b06903566570001309394,5c4b06903566570001309394,NULL
1687410678,54ec01730e12cd3d7dcb84056888bad9,PennController,4,0,intro,NULL,PennController,1,_Header_,End,1687410395688,5c4b06903566570001309394,5c4b06903566570001309394,NULL
1687410678,54ec01730e12cd3d7dcb84056888bad9,PennController,4,0,intro,NULL,PennController,1,_Trial_,End,1687410402292,5c4b06903566570001309394,5c4b06903566570001309394,NULL
# Columns below this comment are as follows:
# 15. item_number.
# 16. item.
# 17. type.
# 18. Group.
# 19. prog.
# 20. prev_image.
# 21. next_image.
# 22. height.
# 23. Comments.
1687410678,54ec01730e12cd3d7dcb84056888bad9,PennController,12,0,experiment,NULL,PennController,10,_Trial_,Start,1687410402295,5c4b06903566570001309394,5c4b06903566570001309394,8,cucumber,critical,E,75,cucumber66.jpg,cucumber84.jpg,high,NULL
1687410678,54ec01730e12cd3d7dcb84056888bad9,PennController,12,0,experiment,NULL,PennController,10,_Header_,Start,1687410402295,5c4b06903566570001309394,5c4b06903566570001309394,8,cucumber,critical,E,75,cucumber66.jpg,cucumber84.jpg,high,NULL
1687410678,54ec01730e12cd3d7dcb84056888bad9,PennController,12,0,experiment,NULL,PennController,10,_Header_,End,1687410402296,5c4b06903566570001309394,5c4b06903566570001309394,8,cucumber,critical,E,75,cucumber66.jpg,cucumber84.jpg,high,NULL
1687410678,54ec01730e12cd3d7dcb84056888bad9,PennController,12,0,experiment,NULL,Canvas,canvas6,Print,NA,1687410411984,5c4b06903566570001309394,5c4b06903566570001309394,8,cucumber,critical,E,75,cucumber66.jpg,cucumber84.jpg,high,NULL
1687410678,54ec01730e12cd3d7dcb84056888bad9,PennController,12,0,experiment,NULL,Video,progression,buffer,0.002824,1687410405825,5c4b06903566570001309394,5c4b06903566570001309394,8,cucumber,critical,E,75,cucumber66.jpg,cucumber84.jpg,high,NULL
1687410678,54ec01730e12cd3d7dcb84056888bad9,PennController,12,0,experiment,NULL,Selector,choice,Selection,option2,1687410416009,5c4b06903566570001309394,5c4b06903566570001309394,8,cucumber,critical,E,75,cucumber66.jpg,cucumber84.jpg,high,option2;option1
1687410678,54ec01730e12cd3d7dcb84056888bad9,PennController,12,0,experiment,NULL,PennController,10,_Trial_,End,1687410416011,5c4b06903566570001309394,5c4b06903566570001309394,8,cucumber,critical,E,75,cucumber66.jpg,cucumber84.jpg,high,NULL
1687410678,54ec01730e12cd3d7dcb84056888bad9,PennController,22,0,experiment,NULL,PennController,20,_Trial_,Start,1687410416013,5c4b06903566570001309394,5c4b06903566570001309394,18,ball,critical,E,25,ball15.jpg,ball35.jpg,high,NULL
1687410678,54ec01730e12cd3d7dcb84056888bad9,PennController,22,0,experiment,NULL,PennController,20,_Header_,Start,1687410416013,5c4b06903566570001309394,5c4b06903566570001309394,18,ball,critical,E,25,ball15.jpg,ball35.jpg,high,NULL
1687410678,54ec01730e12cd3d7dcb84056888bad9,PennController,22,0,experiment,NULL,PennController,20,_Header_,End,1687410416013,5c4b06903566570001309394,5c4b06903566570001309394,18,ball,critical,E,25,ball15.jpg,ball35.jpg,high,NULL
1687410678,54ec01730e12cd3d7dcb84056888bad9,PennController,22,0,experiment,NULL,Canvas,canvas6,Print,NA,1687410421702,5c4b06903566570001309394,5c4b06903566570001309394,18,ball,critical,E,25,ball15.jpg,ball35.jpg,high,NULL
1687410678,54ec01730e12cd3d7dcb84056888bad9,PennController,22,0,experiment,NULL,Video,progression,buffer,0.003205,1687410419533,5c4b06903566570001309394,5c4b06903566570001309394,18,ball,critical,E,25,ball15.jpg,ball35.jpg,high,NULL
1687410678,54ec01730e12cd3d7dcb84056888bad9,PennController,22,0,experiment,NULL,Selector,choice,Selection,option1,1687410426241,5c4b06903566570001309394,5c4b06903566570001309394,18,ball,critical,E,25,ball15.jpg,ball35.jpg,high,option1;option2
1687410678,54ec01730e12cd3d7dcb84056888bad9,PennController,22,0,experiment,NULL,PennController,20,_Trial_,End,1687410426243,5c4b06903566570001309394,5c4b06903566570001309394,18,ball,critical,E,25,ball15.jpg,ball35.jpg,high,NULL
1687410678,54ec01730e12cd3d7dcb84056888bad9,PennController,17,0,experiment,NULL,PennController,15,_Trial_,Start,1687410426244,5c4b06903566570001309394,5c4b06903566570001309394,13,mix,critical,E,50,mix40.jpg,mix60.jpg,high,NULL
1687410678,54ec01730e12cd3d7dcb84056888bad9,PennController,17,0,experiment,NULL,PennController,15,_Header_,Start,1687410426244,5c4b06903566570001309394,5c4b06903566570001309394,13,mix,critical,E,50,mix40.jpg,mix60.jpg,high,NULL
1687410678,54ec01730e12cd3d7dcb84056888bad9,PennController,17,0,experiment,NULL,PennController,15,_Header_,End,1687410426244,5c4b06903566570001309394,5c4b06903566570001309394,13,mix,critical,E,50,mix40.jpg,mix60.jpg,high,NULL
1687410678,54ec01730e12cd3d7dcb84056888bad9,PennController,17,0,experiment,NULL,Canvas,canvas6,Print,NA,1687410432914,5c4b06903566570001309394,5c4b06903566570001309394,13,mix,critical,E,50,mix40.jpg,mix60.jpg,high,NULL
1687410678,54ec01730e12cd3d7dcb84056888bad9,PennController,17,0,experiment,NULL,Video,progression,buffer,0.003652,1687410429758,5c4b06903566570001309394,5c4b06903566570001309394,13,mix,critical,E,50,mix40.jpg,mix60.jpg,high,NULL
1687410678,54ec01730e12cd3d7dcb84056888bad9,PennController,17,0,experiment,NULL,Selector,choice,Selection,option2,1687410442106,5c4b06903566570001309394,5c4b06903566570001309394,13,mix,critical,E,50,mix40.jpg,mix60.jpg,high,option1;option2
1687410678,54ec01730e12cd3d7dcb84056888bad9,PennController,17,0,experiment,NULL,PennController,15,_Trial_,End,1687410442107,5c4b06903566570001309394,5c4b06903566570001309394,13,mix,critical,E,50,mix40.jpg,mix60.jpg,high,NULL
1687410678,54ec01730e12cd3d7dcb84056888bad9,PennController,7,0,experiment,NULL,PennController,5,_Trial_,Start,1687410442109,5c4b06903566570001309394,5c4b06903566570001309394,3,clean,critical,E,25,clean15.jpg,clean35.jpg,high,NULL
1687410678,54ec01730e12cd3d7dcb84056888bad9,PennController,7,0,experiment,NULL,PennController,5,_Header_,Start,1687410442109,5c4b06903566570001309394,5c4b06903566570001309394,3,clean,critical,E,25,clean15.jpg,clean35.jpg,high,NULL
1687410678,54ec01730e12cd3d7dcb84056888bad9,PennController,7,0,experiment,NULL,PennController,5,_Header_,End,1687410442110,5c4b06903566570001309394,5c4b06903566570001309394,3,clean,critical,E,25,clean15.jpg,clean35.jpg,high,NULL
1687410678,54ec01730e12cd3d7dcb84056888bad9,PennController,7,0,experiment,NULL,Canvas,canvas6,Print,NA,1687410447801,5c4b06903566570001309394,5c4b06903566570001309394,3,clean,critical,E,25,clean15.jpg,clean35.jpg,high,NULL
1687410678,54ec01730e12cd3d7dcb84056888bad9,PennController,7,0,experiment,NULL,Video,progression,buffer,0.002567,1687410445631,5c4b06903566570001309394,5c4b06903566570001309394,3,clean,critical,E,25,clean15.jpg,clean35.jpg,high,NULL
1687410678,54ec01730e12cd3d7dcb84056888bad9,PennController,7,0,experiment,NULL,Selector,choice,Selection,option2,1687410449818,5c4b06903566570001309394,5c4b06903566570001309394,3,clean,critical,E,25,clean15.jpg,clean35.jpg,high,option1;option2
1687410678,54ec01730e12cd3d7dcb84056888bad9,PennController,7,0,experiment,NULL,PennController,5,_Trial_,End,1687410449819,5c4b06903566570001309394,5c4b06903566570001309394,3,clean,critical,E,25,clean15.jpg,clean35.jpg,high,NULL
1687410678,54ec01730e12cd3d7dcb84056888bad9,PennController,27,0,experiment,NULL,PennController,25,_Trial_,Start,1687410449821,5c4b06903566570001309394,5c4b06903566570001309394,23,color,filler,E,75,color65.jpg,color85.jpg,GoalB,NULL
1687410678,54ec01730e12cd3d7dcb84056888bad9,PennController,27,0,experiment,NULL,PennController,25,_Header_,Start,1687410449821,5c4b06903566570001309394,5c4b06903566570001309394,23,color,filler,E,75,color65.jpg,color85.jpg,GoalB,NULL
1687410678,54ec01730e12cd3d7dcb84056888bad9,PennController,27,0,experiment,NULL,PennController,25,_Header_,End,1687410449821,5c4b06903566570001309394,5c4b06903566570001309394,23,color,filler,E,75,color65.jpg,color85.jpg,GoalB,NULL
1687410678,54ec01730e12cd3d7dcb84056888bad9,PennController,27,0,experiment,NULL,Canvas,canvas6,Print,NA,1687410457510,5c4b06903566570001309394,5c4b06903566570001309394,23,color,filler,E,75,color65.jpg,color85.jpg,GoalB,NULL
1687410678,54ec01730e12cd3d7dcb84056888bad9,PennController,27,0,experiment,NULL,Video,progression,buffer,0.00381,1687410453341,5c4b06903566570001309394,5c4b06903566570001309394,23,color,filler,E,75,color65.jpg,color85.jpg,GoalB,NULL
1687410678,54ec01730e12cd3d7dcb84056888bad9,PennController,27,0,experiment,NULL,Selector,choice,Selection,option2,1687410459194,5c4b06903566570001309394,5c4b06903566570001309394,23,color,filler,E,75,color65.jpg,color85.jpg,GoalB,option2;option1
1687410678,54ec01730e12cd3d7dcb84056888bad9,PennController,27,0,experiment,NULL,PennController,25,_Trial_,End,1687410459195,5c4b06903566570001309394,5c4b06903566570001309394,23,color,filler,E,75,color65.jpg,color85.jpg,GoalB,NULL
1687410678,54ec01730e12cd3d7dcb84056888bad9,PennController,28,0,experiment,NULL,PennController,26,_Trial_,Start,1687410459196,5c4b06903566570001309394,5c4b06903566570001309394,24,match,filler,E,25,match15.jpg,match35.jpg,GoalA,NULL
1687410678,54ec01730e12cd3d7dcb84056888bad9,PennController,28,0,experiment,NULL,PennController,26,_Header_,Start,1687410459196,5c4b06903566570001309394,5c4b06903566570001309394,24,match,filler,E,25,match15.jpg,match35.jpg,GoalA,NULL
1687410678,54ec01730e12cd3d7dcb84056888bad9,PennController,28,0,experiment,NULL,PennController,26,_Header_,End,1687410459196,5c4b06903566570001309394,5c4b06903566570001309394,24,match,filler,E,25,match15.jpg,match35.jpg,GoalA,NULL
1687410678,54ec01730e12cd3d7dcb84056888bad9,PennController,28,0,experiment,NULL,Canvas,canvas6,Print,NA,1687410464876,5c4b06903566570001309394,5c4b06903566570001309394,24,match,filler,E,25,match15.jpg,match35.jpg,GoalA,NULL
1687410678,54ec01730e12cd3d7dcb84056888bad9,PennController,28,0,experiment,NULL,Video,progression,buffer,0.003938,1687410462716,5c4b06903566570001309394,5c4b06903566570001309394,24,match,filler,E,25,match15.jpg,match35.jpg,GoalA,NULL
1687410678,54ec01730e12cd3d7dcb84056888bad9,PennController,28,0,experiment,NULL,Selector,choice,Selection,option2,1687410467577,5c4b06903566570001309394,5c4b06903566570001309394,24,match,filler,E,25,match15.jpg,match35.jpg,GoalA,option1;option2
1687410678,54ec01730e12cd3d7dcb84056888bad9,PennController,28,0,experiment,NULL,PennController,26,_Trial_,End,1687410467579,5c4b06903566570001309394,5c4b06903566570001309394,24,match,filler,E,25,match15.jpg,match35.jpg,GoalA,NULL
1687410678,54ec01730e12cd3d7dcb84056888bad9,PennController,14,0,experiment,NULL,PennController,12,_Trial_,Start,1687410467580,5c4b06903566570001309394,5c4b06903566570001309394,10,train,critical,E,50,train40.jpg,train60.jpg,high,NULL
1687410678,54ec01730e12cd3d7dcb84056888bad9,PennController,14,0,experiment,NULL,PennController,12,_Header_,Start,1687410467580,5c4b06903566570001309394,5c4b06903566570001309394,10,train,critical,E,50,train40.jpg,train60.jpg,high,NULL
1687410678,54ec01730e12cd3d7dcb84056888bad9,PennController,14,0,experiment,NULL,PennController,12,_Header_,End,1687410467581,5c4b06903566570001309394,5c4b06903566570001309394,10,train,critical,E,50,train40.jpg,train60.jpg,high,NULL
1687410678,54ec01730e12cd3d7dcb84056888bad9,PennController,14,0,experiment,NULL,Canvas,canvas6,Print,NA,1687410474272,5c4b06903566570001309394,5c4b06903566570001309394,10,train,critical,E,50,train40.jpg,train60.jpg,high,NULL
1687410678,54ec01730e12cd3d7dcb84056888bad9,PennController,14,0,experiment,NULL,Video,progression,buffer,0.005375,1687410471107,5c4b06903566570001309394,5c4b06903566570001309394,10,train,critical,E,50,train40.jpg,train60.jpg,high,NULL
1687410678,54ec01730e12cd3d7dcb84056888bad9,PennController,14,0,experiment,NULL,Selector,choice,Selection,option2,1687410475682,5c4b06903566570001309394,5c4b06903566570001309394,10,train,critical,E,50,train40.jpg,train60.jpg,high,option1;option2
1687410678,54ec01730e12cd3d7dcb84056888bad9,PennController,14,0,experiment,NULL,PennController,12,_Trial_,End,1687410475683,5c4b06903566570001309394,5c4b06903566570001309394,10,train,critical,E,50,train40.jpg,train60.jpg,high,NULL
1687410678,54ec01730e12cd3d7dcb84056888bad9,PennController,23,0,experiment,NULL,PennController,21,_Trial_,Start,1687410475684,5c4b06903566570001309394,5c4b06903566570001309394,19,cup,filler,E,50,cup40.jpg,cup60.jpg,GoalB,NULL
1687410678,54ec01730e12cd3d7dcb84056888bad9,PennController,23,0,experiment,NULL,PennController,21,_Header_,Start,1687410475684,5c4b06903566570001309394,5c4b06903566570001309394,19,cup,filler,E,50,cup40.jpg,cup60.jpg,GoalB,NULL
1687410678,54ec01730e12cd3d7dcb84056888bad9,PennController,23,0,experiment,NULL,PennController,21,_Header_,End,1687410475684,5c4b06903566570001309394,5c4b06903566570001309394,19,cup,filler,E,50,cup40.jpg,cup60.jpg,GoalB,NULL
1687410678,54ec01730e12cd3d7dcb84056888bad9,PennController,23,0,experiment,NULL,Canvas,canvas6,Print,NA,1687410482373,5c4b06903566570001309394,5c4b06903566570001309394,19,cup,filler,E,50,cup40.jpg,cup60.jpg,GoalB,NULL
1687410678,54ec01730e12cd3d7dcb84056888bad9,PennController,23,0,experiment,NULL,Video,progression,buffer,0.004057,1687410479203,5c4b06903566570001309394,5c4b06903566570001309394,19,cup,filler,E,50,cup40.jpg,cup60.jpg,GoalB,NULL
1687410678,54ec01730e12cd3d7dcb84056888bad9,PennController,23,0,experiment,NULL,Selector,choice,Selection,option1,1687410485578,5c4b06903566570001309394,5c4b06903566570001309394,19,cup,filler,E,50,cup40.jpg,cup60.jpg,GoalB,option2;option1
1687410678,54ec01730e12cd3d7dcb84056888bad9,PennController,23,0,experiment,NULL,PennController,21,_Trial_,End,1687410485579,5c4b06903566570001309394,5c4b06903566570001309394,19,cup,filler,E,50,cup40.jpg,cup60.jpg,GoalB,NULL
1687410678,54ec01730e12cd3d7dcb84056888bad9,PennController,8,0,experiment,NULL,PennController,6,_Trial_,Start,1687410485580,5c4b06903566570001309394,5c4b06903566570001309394,4,candy,critical,E,50,candy40.jpg,candy60.jpg,high,NULL
1687410678,54ec01730e12cd3d7dcb84056888bad9,PennController,8,0,experiment,NULL,PennController,6,_Header_,Start,1687410485580,5c4b06903566570001309394,5c4b06903566570001309394,4,candy,critical,E,50,candy40.jpg,candy60.jpg,high,NULL
1687410678,54ec01730e12cd3d7dcb84056888bad9,PennController,8,0,experiment,NULL,PennController,6,_Header_,End,1687410485580,5c4b06903566570001309394,5c4b06903566570001309394,4,candy,critical,E,50,candy40.jpg,candy60.jpg,high,NULL
1687410678,54ec01730e12cd3d7dcb84056888bad9,PennController,8,0,experiment,NULL,Canvas,canvas6,Print,NA,1687410492269,5c4b06903566570001309394,5c4b06903566570001309394,4,candy,critical,E,50,candy40.jpg,candy60.jpg,high,NULL
1687410678,54ec01730e12cd3d7dcb84056888bad9,PennController,8,0,experiment,NULL,Video,progression,buffer,0.003616,1687410489101,5c4b06903566570001309394,5c4b06903566570001309394,4,candy,critical,E,50,candy40.jpg,candy60.jpg,high,NULL
1687410678,54ec01730e12cd3d7dcb84056888bad9,PennController,8,0,experiment,NULL,Selector,choice,Selection,option2,1687410494337,5c4b06903566570001309394,5c4b06903566570001309394,4,candy,critical,E,50,candy40.jpg,candy60.jpg,high,option1;option2
1687410678,54ec01730e12cd3d7dcb84056888bad9,PennController,8,0,experiment,NULL,PennController,6,_Trial_,End,1687410494339,5c4b06903566570001309394,5c4b06903566570001309394,4,candy,critical,E,50,candy40.jpg,candy60.jpg,high,NULL
1687410678,54ec01730e12cd3d7dcb84056888bad9,PennController,26,0,experiment,NULL,PennController,24,_Trial_,Start,1687410494340,5c4b06903566570001309394,5c4b06903566570001309394,22,wall,filler,E,50,wall40.jpg,wall60.jpg,GoalA,NULL
1687410678,54ec01730e12cd3d7dcb84056888bad9,PennController,26,0,experiment,NULL,PennController,24,_Header_,Start,1687410494340,5c4b06903566570001309394,5c4b06903566570001309394,22,wall,filler,E,50,wall40.jpg,wall60.jpg,GoalA,NULL
1687410678,54ec01730e12cd3d7dcb84056888bad9,PennController,26,0,experiment,NULL,PennController,24,_Header_,End,1687410494340,5c4b06903566570001309394,5c4b06903566570001309394,22,wall,filler,E,50,wall40.jpg,wall60.jpg,GoalA,NULL
1687410678,54ec01730e12cd3d7dcb84056888bad9,PennController,26,0,experiment,NULL,Canvas,canvas6,Print,NA,1687410501020,5c4b06903566570001309394,5c4b06903566570001309394,22,wall,filler,E,50,wall40.jpg,wall60.jpg,GoalA,NULL
1687410678,54ec01730e12cd3d7dcb84056888bad9,PennController,26,0,experiment,NULL,Video,progression,buffer,0.002903,1687410497859,5c4b06903566570001309394,5c4b06903566570001309394,22,wall,filler,E,50,wall40.jpg,wall60.jpg,GoalA,NULL
1687410678,54ec01730e12cd3d7dcb84056888bad9,PennController,26,0,experiment,NULL,Selector,choice,Selection,option1,1687410502634,5c4b06903566570001309394,5c4b06903566570001309394,22,wall,filler,E,50,wall40.jpg,wall60.jpg,GoalA,option2;option1
1687410678,54ec01730e12cd3d7dcb84056888bad9,PennController,26,0,experiment,NULL,PennController,24,_Trial_,End,1687410502635,5c4b06903566570001309394,5c4b06903566570001309394,22,wall,filler,E,50,wall40.jpg,wall60.jpg,GoalA,NULL
1687410678,54ec01730e12cd3d7dcb84056888bad9,PennController,18,0,experiment,NULL,PennController,16,_Trial_,Start,1687410502636,5c4b06903566570001309394,5c4b06903566570001309394,14,cover,critical,E,75,cover66.jpg,cover84.jpg,high,NULL
1687410678,54ec01730e12cd3d7dcb84056888bad9,PennController,18,0,experiment,NULL,PennController,16,_Header_,Start,1687410502636,5c4b06903566570001309394,5c4b06903566570001309394,14,cover,critical,E,75,cover66.jpg,cover84.jpg,high,NULL
1687410678,54ec01730e12cd3d7dcb84056888bad9,PennController,18,0,experiment,NULL,PennController,16,_Header_,End,1687410502636,5c4b06903566570001309394,5c4b06903566570001309394,14,cover,critical,E,75,cover66.jpg,cover84.jpg,high,NULL
1687410678,54ec01730e12cd3d7dcb84056888bad9,PennController,18,0,experiment,NULL,Canvas,canvas6,Print,NA,1687410512319,5c4b06903566570001309394,5c4b06903566570001309394,14,cover,critical,E,75,cover66.jpg,cover84.jpg,high,NULL
1687410678,54ec01730e12cd3d7dcb84056888bad9,PennController,18,0,experiment,NULL,Video,progression,buffer,0.002613,1687410506153,5c4b06903566570001309394,5c4b06903566570001309394,14,cover,critical,E,75,cover66.jpg,cover84.jpg,high,NULL
1687410678,54ec01730e12cd3d7dcb84056888bad9,PennController,18,0,experiment,NULL,Selector,choice,Selection,option2,1687410515634,5c4b06903566570001309394,5c4b06903566570001309394,14,cover,critical,E,75,cover66.jpg,cover84.jpg,high,option2;option1
1687410678,54ec01730e12cd3d7dcb84056888bad9,PennController,18,0,experiment,NULL,PennController,16,_Trial_,End,1687410515635,5c4b06903566570001309394,5c4b06903566570001309394,14,cover,critical,E,75,cover66.jpg,cover84.jpg,high,NULL
1687410678,54ec01730e12cd3d7dcb84056888bad9,PennController,16,0,experiment,NULL,PennController,14,_Trial_,Start,1687410515636,5c4b06903566570001309394,5c4b06903566570001309394,12,erase,critical,E,25,erase15.jpg,erase33.jpg,high,NULL
1687410678,54ec01730e12cd3d7dcb84056888bad9,PennController,16,0,experiment,NULL,PennController,14,_Header_,Start,1687410515636,5c4b06903566570001309394,5c4b06903566570001309394,12,erase,critical,E,25,erase15.jpg,erase33.jpg,high,NULL
1687410678,54ec01730e12cd3d7dcb84056888bad9,PennController,16,0,experiment,NULL,PennController,14,_Header_,End,1687410515636,5c4b06903566570001309394,5c4b06903566570001309394,12,erase,critical,E,25,erase15.jpg,erase33.jpg,high,NULL
1687410678,54ec01730e12cd3d7dcb84056888bad9,PennController,16,0,experiment,NULL,Canvas,canvas6,Print,NA,1687410521914,5c4b06903566570001309394,5c4b06903566570001309394,12,erase,critical,E,25,erase15.jpg,erase33.jpg,high,NULL
1687410678,54ec01730e12cd3d7dcb84056888bad9,PennController,16,0,experiment,NULL,Video,progression,buffer,0.003734,1687410519156,5c4b06903566570001309394,5c4b06903566570001309394,12,erase,critical,E,25,erase15.jpg,erase33.jpg,high,NULL
1687410678,54ec01730e12cd3d7dcb84056888bad9,PennController,16,0,experiment,NULL,Selector,choice,Selection,option2,1687410525890,5c4b06903566570001309394,5c4b06903566570001309394,12,erase,critical,E,25,erase15.jpg,erase33.jpg,high,option1;option2
1687410678,54ec01730e12cd3d7dcb84056888bad9,PennController,16,0,experiment,NULL,PennController,14,_Trial_,End,1687410525891,5c4b06903566570001309394,5c4b06903566570001309394,12,erase,critical,E,25,erase15.jpg,erase33.jpg,high,NULL
1687410678,54ec01730e12cd3d7dcb84056888bad9,PennController,24,0,experiment,NULL,PennController,22,_Trial_,Start,1687410525892,5c4b06903566570001309394,5c4b06903566570001309394,20,cat,filler,E,75,cat65.jpg,cat85.jpg,GoalA,NULL
1687410678,54ec01730e12cd3d7dcb84056888bad9,PennController,24,0,experiment,NULL,PennController,22,_Header_,Start,1687410525892,5c4b06903566570001309394,5c4b06903566570001309394,20,cat,filler,E,75,cat65.jpg,cat85.jpg,GoalA,NULL
1687410678,54ec01730e12cd3d7dcb84056888bad9,PennController,24,0,experiment,NULL,PennController,22,_Header_,End,1687410525892,5c4b06903566570001309394,5c4b06903566570001309394,20,cat,filler,E,75,cat65.jpg,cat85.jpg,GoalA,NULL
1687410678,54ec01730e12cd3d7dcb84056888bad9,PennController,24,0,experiment,NULL,Canvas,canvas6,Print,NA,1687410533578,5c4b06903566570001309394,5c4b06903566570001309394,20,cat,filler,E,75,cat65.jpg,cat85.jpg,GoalA,NULL
1687410678,54ec01730e12cd3d7dcb84056888bad9,PennController,24,0,experiment,NULL,Video,progression,buffer,0.003635,1687410529414,5c4b06903566570001309394,5c4b06903566570001309394,20,cat,filler,E,75,cat65.jpg,cat85.jpg,GoalA,NULL
1687410678,54ec01730e12cd3d7dcb84056888bad9,PennController,24,0,experiment,NULL,Selector,choice,Selection,option2,1687410535689,5c4b06903566570001309394,5c4b06903566570001309394,20,cat,filler,E,75,cat65.jpg,cat85.jpg,GoalA,option2;option1
1687410678,54ec01730e12cd3d7dcb84056888bad9,PennController,24,0,experiment,NULL,PennController,22,_Trial_,End,1687410535691,5c4b06903566570001309394,5c4b06903566570001309394,20,cat,filler,E,75,cat65.jpg,cat85.jpg,GoalA,NULL
1687410678,54ec01730e12cd3d7dcb84056888bad9,PennController,31,0,experiment,NULL,PennController,29,_Trial_,Start,1687410535691,5c4b06903566570001309394,5c4b06903566570001309394,27,square,filler,E,25,square15.jpg,square35.jpg,GoalB,NULL
1687410678,54ec01730e12cd3d7dcb84056888bad9,PennController,31,0,experiment,NULL,PennController,29,_Header_,Start,1687410535691,5c4b06903566570001309394,5c4b06903566570001309394,27,square,filler,E,25,square15.jpg,square35.jpg,GoalB,NULL
1687410678,54ec01730e12cd3d7dcb84056888bad9,PennController,31,0,experiment,NULL,PennController,29,_Header_,End,1687410535692,5c4b06903566570001309394,5c4b06903566570001309394,27,square,filler,E,25,square15.jpg,square35.jpg,GoalB,NULL
1687410678,54ec01730e12cd3d7dcb84056888bad9,PennController,31,0,experiment,NULL,Canvas,canvas6,Print,NA,1687410541377,5c4b06903566570001309394,5c4b06903566570001309394,27,square,filler,E,25,square15.jpg,square35.jpg,GoalB,NULL
1687410678,54ec01730e12cd3d7dcb84056888bad9,PennController,31,0,experiment,NULL,Video,progression,buffer,0.003872,1687410539211,5c4b06903566570001309394,5c4b06903566570001309394,27,square,filler,E,25,square15.jpg,square35.jpg,GoalB,NULL
1687410678,54ec01730e12cd3d7dcb84056888bad9,PennController,31,0,experiment,NULL,Selector,choice,Selection,option2,1687410544994,5c4b06903566570001309394,5c4b06903566570001309394,27,square,filler,E,25,square15.jpg,square35.jpg,GoalB,option2;option1
1687410678,54ec01730e12cd3d7dcb84056888bad9,PennController,31,0,experiment,NULL,PennController,29,_Trial_,End,1687410544995,5c4b06903566570001309394,5c4b06903566570001309394,27,square,filler,E,25,square15.jpg,square35.jpg,GoalB,NULL
1687410678,54ec01730e12cd3d7dcb84056888bad9,PennController,9,0,experiment,NULL,PennController,7,_Trial_,Start,1687410544996,5c4b06903566570001309394,5c4b06903566570001309394,5,book,critical,E,75,book65.jpg,book85.jpg,high,NULL
1687410678,54ec01730e12cd3d7dcb84056888bad9,PennController,9,0,experiment,NULL,PennController,7,_Header_,Start,1687410544996,5c4b06903566570001309394,5c4b06903566570001309394,5,book,critical,E,75,book65.jpg,book85.jpg,high,NULL
1687410678,54ec01730e12cd3d7dcb84056888bad9,PennController,9,0,experiment,NULL,PennController,7,_Header_,End,1687410544996,5c4b06903566570001309394,5c4b06903566570001309394,5,book,critical,E,75,book65.jpg,book85.jpg,high,NULL
1687410678,54ec01730e12cd3d7dcb84056888bad9,PennController,9,0,experiment,NULL,Canvas,canvas6,Print,NA,1687410552674,5c4b06903566570001309394,5c4b06903566570001309394,5,book,critical,E,75,book65.jpg,book85.jpg,high,NULL
1687410678,54ec01730e12cd3d7dcb84056888bad9,PennController,9,0,experiment,NULL,Video,progression,buffer,0.003768,1687410548515,5c4b06903566570001309394,5c4b06903566570001309394,5,book,critical,E,75,book65.jpg,book85.jpg,high,NULL
1687410678,54ec01730e12cd3d7dcb84056888bad9,PennController,9,0,experiment,NULL,Selector,choice,Selection,option2,1687410555289,5c4b06903566570001309394,5c4b06903566570001309394,5,book,critical,E,75,book65.jpg,book85.jpg,high,option2;option1
1687410678,54ec01730e12cd3d7dcb84056888bad9,PennController,9,0,experiment,NULL,PennController,7,_Trial_,End,1687410555290,5c4b06903566570001309394,5c4b06903566570001309394,5,book,critical,E,75,book65.jpg,book85.jpg,high,NULL
1687410678,54ec01730e12cd3d7dcb84056888bad9,PennController,21,0,experiment,NULL,PennController,19,_Trial_,Start,1687410555291,5c4b06903566570001309394,5c4b06903566570001309394,17,roll,critical,E,75,roll65.jpg,roll85.jpg,high,NULL
1687410678,54ec01730e12cd3d7dcb84056888bad9,PennController,21,0,experiment,NULL,PennController,19,_Header_,Start,1687410555291,5c4b06903566570001309394,5c4b06903566570001309394,17,roll,critical,E,75,roll65.jpg,roll85.jpg,high,NULL
1687410678,54ec01730e12cd3d7dcb84056888bad9,PennController,21,0,experiment,NULL,PennController,19,_Header_,End,1687410555292,5c4b06903566570001309394,5c4b06903566570001309394,17,roll,critical,E,75,roll65.jpg,roll85.jpg,high,NULL
1687410678,54ec01730e12cd3d7dcb84056888bad9,PennController,21,0,experiment,NULL,Canvas,canvas6,Print,NA,1687410562977,5c4b06903566570001309394,5c4b06903566570001309394,17,roll,critical,E,75,roll65.jpg,roll85.jpg,high,NULL
1687410678,54ec01730e12cd3d7dcb84056888bad9,PennController,21,0,experiment,NULL,Video,progression,buffer,0.004555,1687410558808,5c4b06903566570001309394,5c4b06903566570001309394,17,roll,critical,E,75,roll65.jpg,roll85.jpg,high,NULL
1687410678,54ec01730e12cd3d7dcb84056888bad9,PennController,21,0,experiment,NULL,Selector,choice,Selection,option1,1687410564921,5c4b06903566570001309394,5c4b06903566570001309394,17,roll,critical,E,75,roll65.jpg,roll85.jpg,high,option1;option2
1687410678,54ec01730e12cd3d7dcb84056888bad9,PennController,21,0,experiment,NULL,PennController,19,_Trial_,End,1687410564923,5c4b06903566570001309394,5c4b06903566570001309394,17,roll,critical,E,75,roll65.jpg,roll85.jpg,high,NULL
1687410678,54ec01730e12cd3d7dcb84056888bad9,PennController,13,0,experiment,NULL,PennController,11,_Trial_,Start,1687410564924,5c4b06903566570001309394,5c4b06903566570001309394,9,cake,critical,E,25,cake15.jpg,cake33.jpg,high,NULL
1687410678,54ec01730e12cd3d7dcb84056888bad9,PennController,13,0,experiment,NULL,PennController,11,_Header_,Start,1687410564924,5c4b06903566570001309394,5c4b06903566570001309394,9,cake,critical,E,25,cake15.jpg,cake33.jpg,high,NULL
1687410678,54ec01730e12cd3d7dcb84056888bad9,PennController,13,0,experiment,NULL,PennController,11,_Header_,End,1687410564924,5c4b06903566570001309394,5c4b06903566570001309394,9,cake,critical,E,25,cake15.jpg,cake33.jpg,high,NULL
1687410678,54ec01730e12cd3d7dcb84056888bad9,PennController,13,0,experiment,NULL,Canvas,canvas6,Print,NA,1687410571208,5c4b06903566570001309394,5c4b06903566570001309394,9,cake,critical,E,25,cake15.jpg,cake33.jpg,high,NULL
1687410678,54ec01730e12cd3d7dcb84056888bad9,PennController,13,0,experiment,NULL,Video,progression,buffer,0.002729,1687410568443,5c4b06903566570001309394,5c4b06903566570001309394,9,cake,critical,E,25,cake15.jpg,cake33.jpg,high,NULL
1687410678,54ec01730e12cd3d7dcb84056888bad9,PennController,13,0,experiment,NULL,Selector,choice,Selection,option1,1687410572713,5c4b06903566570001309394,5c4b06903566570001309394,9,cake,critical,E,25,cake15.jpg,cake33.jpg,high,option1;option2
1687410678,54ec01730e12cd3d7dcb84056888bad9,PennController,13,0,experiment,NULL,PennController,11,_Trial_,End,1687410572715,5c4b06903566570001309394,5c4b06903566570001309394,9,cake,critical,E,25,cake15.jpg,cake33.jpg,high,NULL
1687410678,54ec01730e12cd3d7dcb84056888bad9,PennController,15,0,experiment,NULL,PennController,13,_Trial_,Start,1687410572716,5c4b06903566570001309394,5c4b06903566570001309394,11,beads,critical,E,75,beads65.jpg,beads85.jpg,high,NULL
1687410678,54ec01730e12cd3d7dcb84056888bad9,PennController,15,0,experiment,NULL,PennController,13,_Header_,Start,1687410572716,5c4b06903566570001309394,5c4b06903566570001309394,11,beads,critical,E,75,beads65.jpg,beads85.jpg,high,NULL
1687410678,54ec01730e12cd3d7dcb84056888bad9,PennController,15,0,experiment,NULL,PennController,13,_Header_,End,1687410572716,5c4b06903566570001309394,5c4b06903566570001309394,11,beads,critical,E,75,beads65.jpg,beads85.jpg,high,NULL
1687410678,54ec01730e12cd3d7dcb84056888bad9,PennController,15,0,experiment,NULL,Canvas,canvas6,Print,NA,1687410580388,5c4b06903566570001309394,5c4b06903566570001309394,11,beads,critical,E,75,beads65.jpg,beads85.jpg,high,NULL
1687410678,54ec01730e12cd3d7dcb84056888bad9,PennController,15,0,experiment,NULL,Video,progression,buffer,0.002458,1687410576230,5c4b06903566570001309394,5c4b06903566570001309394,11,beads,critical,E,75,beads65.jpg,beads85.jpg,high,NULL
1687410678,54ec01730e12cd3d7dcb84056888bad9,PennController,15,0,experiment,NULL,Selector,choice,Selection,option1,1687410582137,5c4b06903566570001309394,5c4b06903566570001309394,11,beads,critical,E,75,beads65.jpg,beads85.jpg,high,option2;option1
1687410678,54ec01730e12cd3d7dcb84056888bad9,PennController,15,0,experiment,NULL,PennController,13,_Trial_,End,1687410582139,5c4b06903566570001309394,5c4b06903566570001309394,11,beads,critical,E,75,beads65.jpg,beads85.jpg,high,NULL
1687410678,54ec01730e12cd3d7dcb84056888bad9,PennController,11,0,experiment,NULL,PennController,9,_Trial_,Start,1687410582140,5c4b06903566570001309394,5c4b06903566570001309394,7,stack,critical,E,50,stack40.jpg,stack60.jpg,high,NULL
1687410678,54ec01730e12cd3d7dcb84056888bad9,PennController,11,0,experiment,NULL,PennController,9,_Header_,Start,1687410582140,5c4b06903566570001309394,5c4b06903566570001309394,7,stack,critical,E,50,stack40.jpg,stack60.jpg,high,NULL
1687410678,54ec01730e12cd3d7dcb84056888bad9,PennController,11,0,experiment,NULL,PennController,9,_Header_,End,1687410582140,5c4b06903566570001309394,5c4b06903566570001309394,7,stack,critical,E,50,stack40.jpg,stack60.jpg,high,NULL
1687410678,54ec01730e12cd3d7dcb84056888bad9,PennController,11,0,experiment,NULL,Canvas,canvas6,Print,NA,1687410588817,5c4b06903566570001309394,5c4b06903566570001309394,7,stack,critical,E,50,stack40.jpg,stack60.jpg,high,NULL
1687410678,54ec01730e12cd3d7dcb84056888bad9,PennController,11,0,experiment,NULL,Video,progression,buffer,0.002374,1687410585656,5c4b06903566570001309394,5c4b06903566570001309394,7,stack,critical,E,50,stack40.jpg,stack60.jpg,high,NULL
1687410678,54ec01730e12cd3d7dcb84056888bad9,PennController,11,0,experiment,NULL,Selector,choice,Selection,option2,1687410591345,5c4b06903566570001309394,5c4b06903566570001309394,7,stack,critical,E,50,stack40.jpg,stack60.jpg,high,option2;option1
1687410678,54ec01730e12cd3d7dcb84056888bad9,PennController,11,0,experiment,NULL,PennController,9,_Trial_,End,1687410591346,5c4b06903566570001309394,5c4b06903566570001309394,7,stack,critical,E,50,stack40.jpg,stack60.jpg,high,NULL
1687410678,54ec01730e12cd3d7dcb84056888bad9,PennController,5,0,experiment,NULL,PennController,3,_Trial_,Start,1687410591347,5c4b06903566570001309394,5c4b06903566570001309394,1,vase,critical,E,50,vase40.jpg,vase60.jpg,high,NULL
1687410678,54ec01730e12cd3d7dcb84056888bad9,PennController,5,0,experiment,NULL,PennController,3,_Header_,Start,1687410591347,5c4b06903566570001309394,5c4b06903566570001309394,1,vase,critical,E,50,vase40.jpg,vase60.jpg,high,NULL
1687410678,54ec01730e12cd3d7dcb84056888bad9,PennController,5,0,experiment,NULL,PennController,3,_Header_,End,1687410591347,5c4b06903566570001309394,5c4b06903566570001309394,1,vase,critical,E,50,vase40.jpg,vase60.jpg,high,NULL
1687410678,54ec01730e12cd3d7dcb84056888bad9,PennController,5,0,experiment,NULL,Canvas,canvas6,Print,NA,1687410598036,5c4b06903566570001309394,5c4b06903566570001309394,1,vase,critical,E,50,vase40.jpg,vase60.jpg,high,NULL
1687410678,54ec01730e12cd3d7dcb84056888bad9,PennController,5,0,experiment,NULL,Video,progression,buffer,0.003705,1687410594867,5c4b06903566570001309394,5c4b06903566570001309394,1,vase,critical,E,50,vase40.jpg,vase60.jpg,high,NULL
1687410678,54ec01730e12cd3d7dcb84056888bad9,PennController,5,0,experiment,NULL,Selector,choice,Selection,option1,1687410600105,5c4b06903566570001309394,5c4b06903566570001309394,1,vase,critical,E,50,vase40.jpg,vase60.jpg,high,option1;option2
1687410678,54ec01730e12cd3d7dcb84056888bad9,PennController,5,0,experiment,NULL,PennController,3,_Trial_,End,1687410600106,5c4b06903566570001309394,5c4b06903566570001309394,1,vase,critical,E,50,vase40.jpg,vase60.jpg,high,NULL
1687410678,54ec01730e12cd3d7dcb84056888bad9,PennController,33,0,experiment,NULL,PennController,31,_Trial_,Start,1687410600107,5c4b06903566570001309394,5c4b06903566570001309394,29,frog,filler,E,75,frog65.jpg,frog85.jpg,GoalB,NULL
1687410678,54ec01730e12cd3d7dcb84056888bad9,PennController,33,0,experiment,NULL,PennController,31,_Header_,Start,1687410600107,5c4b06903566570001309394,5c4b06903566570001309394,29,frog,filler,E,75,frog65.jpg,frog85.jpg,GoalB,NULL
1687410678,54ec01730e12cd3d7dcb84056888bad9,PennController,33,0,experiment,NULL,PennController,31,_Header_,End,1687410600108,5c4b06903566570001309394,5c4b06903566570001309394,29,frog,filler,E,75,frog65.jpg,frog85.jpg,GoalB,NULL
1687410678,54ec01730e12cd3d7dcb84056888bad9,PennController,33,0,experiment,NULL,Canvas,canvas6,Print,NA,1687410607780,5c4b06903566570001309394,5c4b06903566570001309394,29,frog,filler,E,75,frog65.jpg,frog85.jpg,GoalB,NULL
1687410678,54ec01730e12cd3d7dcb84056888bad9,PennController,33,0,experiment,NULL,Video,progression,buffer,0.002922,1687410603623,5c4b06903566570001309394,5c4b06903566570001309394,29,frog,filler,E,75,frog65.jpg,frog85.jpg,GoalB,NULL
1687410678,54ec01730e12cd3d7dcb84056888bad9,PennController,33,0,experiment,NULL,Selector,choice,Selection,option2,1687410609377,5c4b06903566570001309394,5c4b06903566570001309394,29,frog,filler,E,75,frog65.jpg,frog85.jpg,GoalB,option2;option1
1687410678,54ec01730e12cd3d7dcb84056888bad9,PennController,33,0,experiment,NULL,PennController,31,_Trial_,End,1687410609378,5c4b06903566570001309394,5c4b06903566570001309394,29,frog,filler,E,75,frog65.jpg,frog85.jpg,GoalB,NULL
1687410678,54ec01730e12cd3d7dcb84056888bad9,PennController,19,0,experiment,NULL,PennController,17,_Trial_,Start,1687410609380,5c4b06903566570001309394,5c4b06903566570001309394,15,zip,critical,E,25,zip15.jpg,zip35.jpg,high,NULL
1687410678,54ec01730e12cd3d7dcb84056888bad9,PennController,19,0,experiment,NULL,PennController,17,_Header_,Start,1687410609380,5c4b06903566570001309394,5c4b06903566570001309394,15,zip,critical,E,25,zip15.jpg,zip35.jpg,high,NULL
1687410678,54ec01730e12cd3d7dcb84056888bad9,PennController,19,0,experiment,NULL,PennController,17,_Header_,End,1687410609380,5c4b06903566570001309394,5c4b06903566570001309394,15,zip,critical,E,25,zip15.jpg,zip35.jpg,high,NULL
1687410678,54ec01730e12cd3d7dcb84056888bad9,PennController,19,0,experiment,NULL,Canvas,canvas6,Print,NA,1687410615065,5c4b06903566570001309394,5c4b06903566570001309394,15,zip,critical,E,25,zip15.jpg,zip35.jpg,high,NULL
1687410678,54ec01730e12cd3d7dcb84056888bad9,PennController,19,0,experiment,NULL,Video,progression,buffer,0.002716,1687410612902,5c4b06903566570001309394,5c4b06903566570001309394,15,zip,critical,E,25,zip15.jpg,zip35.jpg,high,NULL
1687410678,54ec01730e12cd3d7dcb84056888bad9,PennController,19,0,experiment,NULL,Selector,choice,Selection,option2,1687410616473,5c4b06903566570001309394,5c4b06903566570001309394,15,zip,critical,E,25,zip15.jpg,zip35.jpg,high,option2;option1
1687410678,54ec01730e12cd3d7dcb84056888bad9,PennController,19,0,experiment,NULL,PennController,17,_Trial_,End,1687410616474,5c4b06903566570001309394,5c4b06903566570001309394,15,zip,critical,E,25,zip15.jpg,zip35.jpg,high,NULL
1687410678,54ec01730e12cd3d7dcb84056888bad9,PennController,32,0,experiment,NULL,PennController,30,_Trial_,Start,1687410616475,5c4b06903566570001309394,5c4b06903566570001309394,28,sort,filler,E,50,sort40.jpg,sort60.jpg,GoalA,NULL
1687410678,54ec01730e12cd3d7dcb84056888bad9,PennController,32,0,experiment,NULL,PennController,30,_Header_,Start,1687410616475,5c4b06903566570001309394,5c4b06903566570001309394,28,sort,filler,E,50,sort40.jpg,sort60.jpg,GoalA,NULL
1687410678,54ec01730e12cd3d7dcb84056888bad9,PennController,32,0,experiment,NULL,PennController,30,_Header_,End,1687410616475,5c4b06903566570001309394,5c4b06903566570001309394,28,sort,filler,E,50,sort40.jpg,sort60.jpg,GoalA,NULL
1687410678,54ec01730e12cd3d7dcb84056888bad9,PennController,32,0,experiment,NULL,Canvas,canvas6,Print,NA,1687410623166,5c4b06903566570001309394,5c4b06903566570001309394,28,sort,filler,E,50,sort40.jpg,sort60.jpg,GoalA,NULL
1687410678,54ec01730e12cd3d7dcb84056888bad9,PennController,32,0,experiment,NULL,Video,progression,buffer,0.004082,1687410619994,5c4b06903566570001309394,5c4b06903566570001309394,28,sort,filler,E,50,sort40.jpg,sort60.jpg,GoalA,NULL
1687410678,54ec01730e12cd3d7dcb84056888bad9,PennController,32,0,experiment,NULL,Selector,choice,Selection,option2,1687410625593,5c4b06903566570001309394,5c4b06903566570001309394,28,sort,filler,E,50,sort40.jpg,sort60.jpg,GoalA,option1;option2
1687410678,54ec01730e12cd3d7dcb84056888bad9,PennController,32,0,experiment,NULL,PennController,30,_Trial_,End,1687410625594,5c4b06903566570001309394,5c4b06903566570001309394,28,sort,filler,E,50,sort40.jpg,sort60.jpg,GoalA,NULL
1687410678,54ec01730e12cd3d7dcb84056888bad9,PennController,30,0,experiment,NULL,PennController,28,_Trial_,Start,1687410625595,5c4b06903566570001309394,5c4b06903566570001309394,26,sandwich,filler,E,75,sandwich65.jpg,sandwich85.jpg,GoalA,NULL
1687410678,54ec01730e12cd3d7dcb84056888bad9,PennController,30,0,experiment,NULL,PennController,28,_Header_,Start,1687410625595,5c4b06903566570001309394,5c4b06903566570001309394,26,sandwich,filler,E,75,sandwich65.jpg,sandwich85.jpg,GoalA,NULL
1687410678,54ec01730e12cd3d7dcb84056888bad9,PennController,30,0,experiment,NULL,PennController,28,_Header_,End,1687410625595,5c4b06903566570001309394,5c4b06903566570001309394,26,sandwich,filler,E,75,sandwich65.jpg,sandwich85.jpg,GoalA,NULL
1687410678,54ec01730e12cd3d7dcb84056888bad9,PennController,30,0,experiment,NULL,Canvas,canvas6,Print,NA,1687410633276,5c4b06903566570001309394,5c4b06903566570001309394,26,sandwich,filler,E,75,sandwich65.jpg,sandwich85.jpg,GoalA,NULL
1687410678,54ec01730e12cd3d7dcb84056888bad9,PennController,30,0,experiment,NULL,Video,progression,buffer,0.004272,1687410629112,5c4b06903566570001309394,5c4b06903566570001309394,26,sandwich,filler,E,75,sandwich65.jpg,sandwich85.jpg,GoalA,NULL
1687410678,54ec01730e12cd3d7dcb84056888bad9,PennController,30,0,experiment,NULL,Selector,choice,Selection,option2,1687410634521,5c4b06903566570001309394,5c4b06903566570001309394,26,sandwich,filler,E,75,sandwich65.jpg,sandwich85.jpg,GoalA,option1;option2
1687410678,54ec01730e12cd3d7dcb84056888bad9,PennController,30,0,experiment,NULL,PennController,28,_Trial_,End,1687410634522,5c4b06903566570001309394,5c4b06903566570001309394,26,sandwich,filler,E,75,sandwich65.jpg,sandwich85.jpg,GoalA,NULL
1687410678,54ec01730e12cd3d7dcb84056888bad9,PennController,25,0,experiment,NULL,PennController,23,_Trial_,Start,1687410634523,5c4b06903566570001309394,5c4b06903566570001309394,21,visit,filler,E,25,visit15.jpg,visit35.jpg,GoalB,NULL
1687410678,54ec01730e12cd3d7dcb84056888bad9,PennController,25,0,experiment,NULL,PennController,23,_Header_,Start,1687410634523,5c4b06903566570001309394,5c4b06903566570001309394,21,visit,filler,E,25,visit15.jpg,visit35.jpg,GoalB,NULL
1687410678,54ec01730e12cd3d7dcb84056888bad9,PennController,25,0,experiment,NULL,PennController,23,_Header_,End,1687410634523,5c4b06903566570001309394,5c4b06903566570001309394,21,visit,filler,E,25,visit15.jpg,visit35.jpg,GoalB,NULL
1687410678,54ec01730e12cd3d7dcb84056888bad9,PennController,25,0,experiment,NULL,Canvas,canvas6,Print,NA,1687410640193,5c4b06903566570001309394,5c4b06903566570001309394,21,visit,filler,E,25,visit15.jpg,visit35.jpg,GoalB,NULL
1687410678,54ec01730e12cd3d7dcb84056888bad9,PennController,25,0,experiment,NULL,Video,progression,buffer,0.002427,1687410638037,5c4b06903566570001309394,5c4b06903566570001309394,21,visit,filler,E,25,visit15.jpg,visit35.jpg,GoalB,NULL
1687410678,54ec01730e12cd3d7dcb84056888bad9,PennController,25,0,experiment,NULL,Selector,choice,Selection,option2,1687410641977,5c4b06903566570001309394,5c4b06903566570001309394,21,visit,filler,E,25,visit15.jpg,visit35.jpg,GoalB,option1;option2
1687410678,54ec01730e12cd3d7dcb84056888bad9,PennController,25,0,experiment,NULL,PennController,23,_Trial_,End,1687410641978,5c4b06903566570001309394,5c4b06903566570001309394,21,visit,filler,E,25,visit15.jpg,visit35.jpg,GoalB,NULL
1687410678,54ec01730e12cd3d7dcb84056888bad9,PennController,29,0,experiment,NULL,PennController,27,_Trial_,Start,1687410641979,5c4b06903566570001309394,5c4b06903566570001309394,25,house,filler,E,50,house40.jpg,house60.jpg,GoalB,NULL
1687410678,54ec01730e12cd3d7dcb84056888bad9,PennController,29,0,experiment,NULL,PennController,27,_Header_,Start,1687410641979,5c4b06903566570001309394,5c4b06903566570001309394,25,house,filler,E,50,house40.jpg,house60.jpg,GoalB,NULL
1687410678,54ec01730e12cd3d7dcb84056888bad9,PennController,29,0,experiment,NULL,PennController,27,_Header_,End,1687410641979,5c4b06903566570001309394,5c4b06903566570001309394,25,house,filler,E,50,house40.jpg,house60.jpg,GoalB,NULL
1687410678,54ec01730e12cd3d7dcb84056888bad9,PennController,29,0,experiment,NULL,Canvas,canvas6,Print,NA,1687410648657,5c4b06903566570001309394,5c4b06903566570001309394,25,house,filler,E,50,house40.jpg,house60.jpg,GoalB,NULL
1687410678,54ec01730e12cd3d7dcb84056888bad9,PennController,29,0,experiment,NULL,Video,progression,buffer,0.003348,1687410645498,5c4b06903566570001309394,5c4b06903566570001309394,25,house,filler,E,50,house40.jpg,house60.jpg,GoalB,NULL
1687410678,54ec01730e12cd3d7dcb84056888bad9,PennController,29,0,experiment,NULL,Selector,choice,Selection,option1,1687410650609,5c4b06903566570001309394,5c4b06903566570001309394,25,house,filler,E,50,house40.jpg,house60.jpg,GoalB,option2;option1
1687410678,54ec01730e12cd3d7dcb84056888bad9,PennController,29,0,experiment,NULL,PennController,27,_Trial_,End,1687410650610,5c4b06903566570001309394,5c4b06903566570001309394,25,house,filler,E,50,house40.jpg,house60.jpg,GoalB,NULL
1687410678,54ec01730e12cd3d7dcb84056888bad9,PennController,10,0,experiment,NULL,PennController,8,_Trial_,Start,1687410650611,5c4b06903566570001309394,5c4b06903566570001309394,6,flower,critical,E,25,flower15.jpg,flower35.jpg,high,NULL
1687410678,54ec01730e12cd3d7dcb84056888bad9,PennController,10,0,experiment,NULL,PennController,8,_Header_,Start,1687410650611,5c4b06903566570001309394,5c4b06903566570001309394,6,flower,critical,E,25,flower15.jpg,flower35.jpg,high,NULL
1687410678,54ec01730e12cd3d7dcb84056888bad9,PennController,10,0,experiment,NULL,PennController,8,_Header_,End,1687410650611,5c4b06903566570001309394,5c4b06903566570001309394,6,flower,critical,E,25,flower15.jpg,flower35.jpg,high,NULL
1687410678,54ec01730e12cd3d7dcb84056888bad9,PennController,10,0,experiment,NULL,Canvas,canvas6,Print,NA,1687410656290,5c4b06903566570001309394,5c4b06903566570001309394,6,flower,critical,E,25,flower15.jpg,flower35.jpg,high,NULL
1687410678,54ec01730e12cd3d7dcb84056888bad9,PennController,10,0,experiment,NULL,Video,progression,buffer,0.002361,1687410654128,5c4b06903566570001309394,5c4b06903566570001309394,6,flower,critical,E,25,flower15.jpg,flower35.jpg,high,NULL
1687410678,54ec01730e12cd3d7dcb84056888bad9,PennController,10,0,experiment,NULL,Selector,choice,Selection,option2,1687410657769,5c4b06903566570001309394,5c4b06903566570001309394,6,flower,critical,E,25,flower15.jpg,flower35.jpg,high,option1;option2
1687410678,54ec01730e12cd3d7dcb84056888bad9,PennController,10,0,experiment,NULL,PennController,8,_Trial_,End,1687410657770,5c4b06903566570001309394,5c4b06903566570001309394,6,flower,critical,E,25,flower15.jpg,flower35.jpg,high,NULL
1687410678,54ec01730e12cd3d7dcb84056888bad9,PennController,20,0,experiment,NULL,PennController,18,_Trial_,Start,1687410657771,5c4b06903566570001309394,5c4b06903566570001309394,16,blinds,critical,E,50,blinds42.jpg,blinds60.jpg,high,NULL
1687410678,54ec01730e12cd3d7dcb84056888bad9,PennController,20,0,experiment,NULL,PennController,18,_Header_,Start,1687410657771,5c4b06903566570001309394,5c4b06903566570001309394,16,blinds,critical,E,50,blinds42.jpg,blinds60.jpg,high,NULL
1687410678,54ec01730e12cd3d7dcb84056888bad9,PennController,20,0,experiment,NULL,PennController,18,_Header_,End,1687410657771,5c4b06903566570001309394,5c4b06903566570001309394,16,blinds,critical,E,50,blinds42.jpg,blinds60.jpg,high,NULL
1687410678,54ec01730e12cd3d7dcb84056888bad9,PennController,20,0,experiment,NULL,Canvas,canvas6,Print,NA,1687410665856,5c4b06903566570001309394,5c4b06903566570001309394,16,blinds,critical,E,50,blinds42.jpg,blinds60.jpg,high,NULL
1687410678,54ec01730e12cd3d7dcb84056888bad9,PennController,20,0,experiment,NULL,Video,progression,buffer,0.002342,1687410661290,5c4b06903566570001309394,5c4b06903566570001309394,16,blinds,critical,E,50,blinds42.jpg,blinds60.jpg,high,NULL
1687410678,54ec01730e12cd3d7dcb84056888bad9,PennController,20,0,experiment,NULL,Selector,choice,Selection,option2,1687410669361,5c4b06903566570001309394,5c4b06903566570001309394,16,blinds,critical,E,50,blinds42.jpg,blinds60.jpg,high,option1;option2
1687410678,54ec01730e12cd3d7dcb84056888bad9,PennController,20,0,experiment,NULL,PennController,18,_Trial_,End,1687410669362,5c4b06903566570001309394,5c4b06903566570001309394,16,blinds,critical,E,50,blinds42.jpg,blinds60.jpg,high,NULL
1687410678,54ec01730e12cd3d7dcb84056888bad9,PennController,6,0,experiment,NULL,PennController,4,_Trial_,Start,1687410669363,5c4b06903566570001309394,5c4b06903566570001309394,2,door,critical,E,75,door65.jpg,door85.jpg,high,NULL
1687410678,54ec01730e12cd3d7dcb84056888bad9,PennController,6,0,experiment,NULL,PennController,4,_Header_,Start,1687410669363,5c4b06903566570001309394,5c4b06903566570001309394,2,door,critical,E,75,door65.jpg,door85.jpg,high,NULL
1687410678,54ec01730e12cd3d7dcb84056888bad9,PennController,6,0,experiment,NULL,PennController,4,_Header_,End,1687410669363,5c4b06903566570001309394,5c4b06903566570001309394,2,door,critical,E,75,door65.jpg,door85.jpg,high,NULL
1687410678,54ec01730e12cd3d7dcb84056888bad9,PennController,6,0,experiment,NULL,Canvas,canvas6,Print,NA,1687410677052,5c4b06903566570001309394,5c4b06903566570001309394,2,door,critical,E,75,door65.jpg,door85.jpg,high,NULL
1687410678,54ec01730e12cd3d7dcb84056888bad9,PennController,6,0,experiment,NULL,Video,progression,buffer,0,1687410672879,5c4b06903566570001309394,5c4b06903566570001309394,2,door,critical,E,75,door65.jpg,door85.jpg,high,NULL
1687410678,54ec01730e12cd3d7dcb84056888bad9,PennController,6,0,experiment,NULL,Selector,choice,Selection,option2,1687410678233,5c4b06903566570001309394,5c4b06903566570001309394,2,door,critical,E,75,door65.jpg,door85.jpg,high,option1;option2
1687410678,54ec01730e12cd3d7dcb84056888bad9,PennController,6,0,experiment,NULL,PennController,4,_Trial_,End,1687410678234,5c4b06903566570001309394,5c4b06903566570001309394,2,door,critical,E,75,door65.jpg,door85.jpg,high,NULL
