#
# Results on Tuesday June 20 2023 19:02:15 UTC
# USER AGENT: Mozilla/5.0 (Windows NT 10.0; Win64; x64; rv:109.0) Gecko/20100101 Firefox/114.0
# Design number was non-random = 38
#
# Columns below this comment are as follows:
# 1. Results reception time.
# 2. MD5 hash of participant's IP address.
# 3. Controller name.
# 4. Order number of item.
# 5. Inner element number.
# 6. Label.
# 7. Latin Square Group.
# 8. PennElementType.
# 9. PennElementName.
# 10. Parameter.
# 11. Value.
# 12. EventTime.
# 13. PROLIFIC_ID.
# 14. Comments.
1687287735,c464de62e33c167666701fa4b405ce86,PennController,2,0,consent,NULL,PennController,0,_Trial_,Start,1687287461329,6113b7a2e704ffeaf8c00b8d,NULL
1687287735,c464de62e33c167666701fa4b405ce86,PennController,2,0,consent,NULL,PennController,0,_Header_,Start,1687287461329,6113b7a2e704ffeaf8c00b8d,NULL
1687287735,c464de62e33c167666701fa4b405ce86,PennController,2,0,consent,NULL,PennController,0,_Header_,End,1687287461329,6113b7a2e704ffeaf8c00b8d,NULL
1687287735,c464de62e33c167666701fa4b405ce86,PennController,2,0,consent,NULL,PennController,0,_Trial_,End,1687287466375,6113b7a2e704ffeaf8c00b8d,NULL
# Columns below this comment are as follows:
# 14. ID.
# 15. Comments.
1687287735,c464de62e33c167666701fa4b405ce86,PennController,3,0,intro,NULL,PennController,1,_Trial_,Start,1687287466377,6113b7a2e704ffeaf8c00b8d,6113b7a2e704ffeaf8c00b8d,NULL
1687287735,c464de62e33c167666701fa4b405ce86,PennController,3,0,intro,NULL,PennController,1,_Header_,Start,1687287466377,6113b7a2e704ffeaf8c00b8d,6113b7a2e704ffeaf8c00b8d,NULL
1687287735,c464de62e33c167666701fa4b405ce86,PennController,3,0,intro,NULL,PennController,1,_Header_,End,1687287466377,6113b7a2e704ffeaf8c00b8d,6113b7a2e704ffeaf8c00b8d,NULL
1687287735,c464de62e33c167666701fa4b405ce86,PennController,3,0,intro,NULL,PennController,1,_Trial_,End,1687287476292,6113b7a2e704ffeaf8c00b8d,6113b7a2e704ffeaf8c00b8d,NULL
# Columns below this comment are as follows:
# 15. item_number.
# 16. item.
# 17. type.
# 18. Group.
# 19. prog.
# 20. prev_image.
# 21. next_image.
# 22. height.
# 23. Comments.
1687287735,c464de62e33c167666701fa4b405ce86,PennController,14,0,experiment,NULL,PennController,13,_Trial_,Start,1687287476300,6113b7a2e704ffeaf8c00b8d,6113b7a2e704ffeaf8c00b8d,11,beads,critical,C,25,beads15.jpg,beads35.jpg,low,NULL
1687287735,c464de62e33c167666701fa4b405ce86,PennController,14,0,experiment,NULL,PennController,13,_Header_,Start,1687287476300,6113b7a2e704ffeaf8c00b8d,6113b7a2e704ffeaf8c00b8d,11,beads,critical,C,25,beads15.jpg,beads35.jpg,low,NULL
1687287735,c464de62e33c167666701fa4b405ce86,PennController,14,0,experiment,NULL,PennController,13,_Header_,End,1687287476300,6113b7a2e704ffeaf8c00b8d,6113b7a2e704ffeaf8c00b8d,11,beads,critical,C,25,beads15.jpg,beads35.jpg,low,NULL
1687287735,c464de62e33c167666701fa4b405ce86,PennController,14,0,experiment,NULL,Video,progression,buffer,0,1687287479864,6113b7a2e704ffeaf8c00b8d,6113b7a2e704ffeaf8c00b8d,11,beads,critical,C,25,beads15.jpg,beads35.jpg,low,NULL
1687287735,c464de62e33c167666701fa4b405ce86,PennController,14,0,experiment,NULL,Canvas,canvas6,Print,NA,1687287482108,6113b7a2e704ffeaf8c00b8d,6113b7a2e704ffeaf8c00b8d,11,beads,critical,C,25,beads15.jpg,beads35.jpg,low,NULL
1687287735,c464de62e33c167666701fa4b405ce86,PennController,14,0,experiment,NULL,Selector,choice,Selection,option2,1687287484678,6113b7a2e704ffeaf8c00b8d,6113b7a2e704ffeaf8c00b8d,11,beads,critical,C,25,beads15.jpg,beads35.jpg,low,option2;option1
1687287735,c464de62e33c167666701fa4b405ce86,PennController,14,0,experiment,NULL,PennController,13,_Trial_,End,1687287484680,6113b7a2e704ffeaf8c00b8d,6113b7a2e704ffeaf8c00b8d,11,beads,critical,C,25,beads15.jpg,beads35.jpg,low,NULL
1687287735,c464de62e33c167666701fa4b405ce86,PennController,6,0,experiment,NULL,PennController,5,_Trial_,Start,1687287484682,6113b7a2e704ffeaf8c00b8d,6113b7a2e704ffeaf8c00b8d,3,clean,critical,C,50,clean40.jpg,clean60.jpg,low,NULL
1687287735,c464de62e33c167666701fa4b405ce86,PennController,6,0,experiment,NULL,PennController,5,_Header_,Start,1687287484682,6113b7a2e704ffeaf8c00b8d,6113b7a2e704ffeaf8c00b8d,3,clean,critical,C,50,clean40.jpg,clean60.jpg,low,NULL
1687287735,c464de62e33c167666701fa4b405ce86,PennController,6,0,experiment,NULL,PennController,5,_Header_,End,1687287484682,6113b7a2e704ffeaf8c00b8d,6113b7a2e704ffeaf8c00b8d,3,clean,critical,C,50,clean40.jpg,clean60.jpg,low,NULL
1687287735,c464de62e33c167666701fa4b405ce86,PennController,6,0,experiment,NULL,Video,progression,buffer,0,1687287488237,6113b7a2e704ffeaf8c00b8d,6113b7a2e704ffeaf8c00b8d,3,clean,critical,C,50,clean40.jpg,clean60.jpg,low,NULL
1687287735,c464de62e33c167666701fa4b405ce86,PennController,6,0,experiment,NULL,Canvas,canvas6,Print,NA,1687287491474,6113b7a2e704ffeaf8c00b8d,6113b7a2e704ffeaf8c00b8d,3,clean,critical,C,50,clean40.jpg,clean60.jpg,low,NULL
1687287735,c464de62e33c167666701fa4b405ce86,PennController,6,0,experiment,NULL,Selector,choice,Selection,option2,1687287492967,6113b7a2e704ffeaf8c00b8d,6113b7a2e704ffeaf8c00b8d,3,clean,critical,C,50,clean40.jpg,clean60.jpg,low,option2;option1
1687287735,c464de62e33c167666701fa4b405ce86,PennController,6,0,experiment,NULL,PennController,5,_Trial_,End,1687287492969,6113b7a2e704ffeaf8c00b8d,6113b7a2e704ffeaf8c00b8d,3,clean,critical,C,50,clean40.jpg,clean60.jpg,low,NULL
1687287735,c464de62e33c167666701fa4b405ce86,PennController,23,0,experiment,NULL,PennController,22,_Trial_,Start,1687287492970,6113b7a2e704ffeaf8c00b8d,6113b7a2e704ffeaf8c00b8d,20,cat,filler,C,25,cat15.jpg,cat35.jpg,GoalB,NULL
1687287735,c464de62e33c167666701fa4b405ce86,PennController,23,0,experiment,NULL,PennController,22,_Header_,Start,1687287492970,6113b7a2e704ffeaf8c00b8d,6113b7a2e704ffeaf8c00b8d,20,cat,filler,C,25,cat15.jpg,cat35.jpg,GoalB,NULL
1687287735,c464de62e33c167666701fa4b405ce86,PennController,23,0,experiment,NULL,PennController,22,_Header_,End,1687287492970,6113b7a2e704ffeaf8c00b8d,6113b7a2e704ffeaf8c00b8d,20,cat,filler,C,25,cat15.jpg,cat35.jpg,GoalB,NULL
1687287735,c464de62e33c167666701fa4b405ce86,PennController,23,0,experiment,NULL,Video,progression,buffer,0,1687287496513,6113b7a2e704ffeaf8c00b8d,6113b7a2e704ffeaf8c00b8d,20,cat,filler,C,25,cat15.jpg,cat35.jpg,GoalB,NULL
1687287735,c464de62e33c167666701fa4b405ce86,PennController,23,0,experiment,NULL,Canvas,canvas6,Print,NA,1687287498753,6113b7a2e704ffeaf8c00b8d,6113b7a2e704ffeaf8c00b8d,20,cat,filler,C,25,cat15.jpg,cat35.jpg,GoalB,NULL
1687287735,c464de62e33c167666701fa4b405ce86,PennController,23,0,experiment,NULL,Selector,choice,Selection,option2,1687287500486,6113b7a2e704ffeaf8c00b8d,6113b7a2e704ffeaf8c00b8d,20,cat,filler,C,25,cat15.jpg,cat35.jpg,GoalB,option2;option1
1687287735,c464de62e33c167666701fa4b405ce86,PennController,23,0,experiment,NULL,PennController,22,_Trial_,End,1687287500487,6113b7a2e704ffeaf8c00b8d,6113b7a2e704ffeaf8c00b8d,20,cat,filler,C,25,cat15.jpg,cat35.jpg,GoalB,NULL
1687287735,c464de62e33c167666701fa4b405ce86,PennController,17,0,experiment,NULL,PennController,16,_Trial_,Start,1687287500488,6113b7a2e704ffeaf8c00b8d,6113b7a2e704ffeaf8c00b8d,14,cover,critical,C,25,cover15.jpg,cover33.jpg,low,NULL
1687287735,c464de62e33c167666701fa4b405ce86,PennController,17,0,experiment,NULL,PennController,16,_Header_,Start,1687287500488,6113b7a2e704ffeaf8c00b8d,6113b7a2e704ffeaf8c00b8d,14,cover,critical,C,25,cover15.jpg,cover33.jpg,low,NULL
1687287735,c464de62e33c167666701fa4b405ce86,PennController,17,0,experiment,NULL,PennController,16,_Header_,End,1687287500488,6113b7a2e704ffeaf8c00b8d,6113b7a2e704ffeaf8c00b8d,14,cover,critical,C,25,cover15.jpg,cover33.jpg,low,NULL
1687287735,c464de62e33c167666701fa4b405ce86,PennController,17,0,experiment,NULL,Video,progression,buffer,0,1687287504044,6113b7a2e704ffeaf8c00b8d,6113b7a2e704ffeaf8c00b8d,14,cover,critical,C,25,cover15.jpg,cover33.jpg,low,NULL
1687287735,c464de62e33c167666701fa4b405ce86,PennController,17,0,experiment,NULL,Canvas,canvas6,Print,NA,1687287506894,6113b7a2e704ffeaf8c00b8d,6113b7a2e704ffeaf8c00b8d,14,cover,critical,C,25,cover15.jpg,cover33.jpg,low,NULL
1687287735,c464de62e33c167666701fa4b405ce86,PennController,17,0,experiment,NULL,Selector,choice,Selection,option2,1687287508002,6113b7a2e704ffeaf8c00b8d,6113b7a2e704ffeaf8c00b8d,14,cover,critical,C,25,cover15.jpg,cover33.jpg,low,option2;option1
1687287735,c464de62e33c167666701fa4b405ce86,PennController,17,0,experiment,NULL,PennController,16,_Trial_,End,1687287508003,6113b7a2e704ffeaf8c00b8d,6113b7a2e704ffeaf8c00b8d,14,cover,critical,C,25,cover15.jpg,cover33.jpg,low,NULL
1687287735,c464de62e33c167666701fa4b405ce86,PennController,4,0,experiment,NULL,PennController,3,_Trial_,Start,1687287508005,6113b7a2e704ffeaf8c00b8d,6113b7a2e704ffeaf8c00b8d,1,vase,critical,C,75,vase65.jpg,vase85.jpg,low,NULL
1687287735,c464de62e33c167666701fa4b405ce86,PennController,4,0,experiment,NULL,PennController,3,_Header_,Start,1687287508005,6113b7a2e704ffeaf8c00b8d,6113b7a2e704ffeaf8c00b8d,1,vase,critical,C,75,vase65.jpg,vase85.jpg,low,NULL
1687287735,c464de62e33c167666701fa4b405ce86,PennController,4,0,experiment,NULL,PennController,3,_Header_,End,1687287508005,6113b7a2e704ffeaf8c00b8d,6113b7a2e704ffeaf8c00b8d,1,vase,critical,C,75,vase65.jpg,vase85.jpg,low,NULL
1687287735,c464de62e33c167666701fa4b405ce86,PennController,4,0,experiment,NULL,Video,progression,buffer,0,1687287511567,6113b7a2e704ffeaf8c00b8d,6113b7a2e704ffeaf8c00b8d,1,vase,critical,C,75,vase65.jpg,vase85.jpg,low,NULL
1687287735,c464de62e33c167666701fa4b405ce86,PennController,4,0,experiment,NULL,Canvas,canvas6,Print,NA,1687287515825,6113b7a2e704ffeaf8c00b8d,6113b7a2e704ffeaf8c00b8d,1,vase,critical,C,75,vase65.jpg,vase85.jpg,low,NULL
1687287735,c464de62e33c167666701fa4b405ce86,PennController,4,0,experiment,NULL,Selector,choice,Selection,option1,1687287520201,6113b7a2e704ffeaf8c00b8d,6113b7a2e704ffeaf8c00b8d,1,vase,critical,C,75,vase65.jpg,vase85.jpg,low,option2;option1
1687287735,c464de62e33c167666701fa4b405ce86,PennController,4,0,experiment,NULL,PennController,3,_Trial_,End,1687287520202,6113b7a2e704ffeaf8c00b8d,6113b7a2e704ffeaf8c00b8d,1,vase,critical,C,75,vase65.jpg,vase85.jpg,low,NULL
1687287735,c464de62e33c167666701fa4b405ce86,PennController,15,0,experiment,NULL,PennController,14,_Trial_,Start,1687287520203,6113b7a2e704ffeaf8c00b8d,6113b7a2e704ffeaf8c00b8d,12,erase,critical,C,50,erase42.jpg,erase60.jpg,low,NULL
1687287735,c464de62e33c167666701fa4b405ce86,PennController,15,0,experiment,NULL,PennController,14,_Header_,Start,1687287520203,6113b7a2e704ffeaf8c00b8d,6113b7a2e704ffeaf8c00b8d,12,erase,critical,C,50,erase42.jpg,erase60.jpg,low,NULL
1687287735,c464de62e33c167666701fa4b405ce86,PennController,15,0,experiment,NULL,PennController,14,_Header_,End,1687287520203,6113b7a2e704ffeaf8c00b8d,6113b7a2e704ffeaf8c00b8d,12,erase,critical,C,50,erase42.jpg,erase60.jpg,low,NULL
1687287735,c464de62e33c167666701fa4b405ce86,PennController,15,0,experiment,NULL,Video,progression,buffer,0,1687287523748,6113b7a2e704ffeaf8c00b8d,6113b7a2e704ffeaf8c00b8d,12,erase,critical,C,50,erase42.jpg,erase60.jpg,low,NULL
1687287735,c464de62e33c167666701fa4b405ce86,PennController,15,0,experiment,NULL,Canvas,canvas6,Print,NA,1687287528394,6113b7a2e704ffeaf8c00b8d,6113b7a2e704ffeaf8c00b8d,12,erase,critical,C,50,erase42.jpg,erase60.jpg,low,NULL
1687287735,c464de62e33c167666701fa4b405ce86,PennController,15,0,experiment,NULL,Selector,choice,Selection,option2,1687287529743,6113b7a2e704ffeaf8c00b8d,6113b7a2e704ffeaf8c00b8d,12,erase,critical,C,50,erase42.jpg,erase60.jpg,low,option2;option1
1687287735,c464de62e33c167666701fa4b405ce86,PennController,15,0,experiment,NULL,PennController,14,_Trial_,End,1687287529744,6113b7a2e704ffeaf8c00b8d,6113b7a2e704ffeaf8c00b8d,12,erase,critical,C,50,erase42.jpg,erase60.jpg,low,NULL
1687287735,c464de62e33c167666701fa4b405ce86,PennController,8,0,experiment,NULL,PennController,7,_Trial_,Start,1687287529747,6113b7a2e704ffeaf8c00b8d,6113b7a2e704ffeaf8c00b8d,5,book,critical,C,25,book15.jpg,book35.jpg,low,NULL
1687287735,c464de62e33c167666701fa4b405ce86,PennController,8,0,experiment,NULL,PennController,7,_Header_,Start,1687287529747,6113b7a2e704ffeaf8c00b8d,6113b7a2e704ffeaf8c00b8d,5,book,critical,C,25,book15.jpg,book35.jpg,low,NULL
1687287735,c464de62e33c167666701fa4b405ce86,PennController,8,0,experiment,NULL,PennController,7,_Header_,End,1687287529747,6113b7a2e704ffeaf8c00b8d,6113b7a2e704ffeaf8c00b8d,5,book,critical,C,25,book15.jpg,book35.jpg,low,NULL
1687287735,c464de62e33c167666701fa4b405ce86,PennController,8,0,experiment,NULL,Video,progression,buffer,0,1687287533307,6113b7a2e704ffeaf8c00b8d,6113b7a2e704ffeaf8c00b8d,5,book,critical,C,25,book15.jpg,book35.jpg,low,NULL
1687287735,c464de62e33c167666701fa4b405ce86,PennController,8,0,experiment,NULL,Canvas,canvas6,Print,NA,1687287535570,6113b7a2e704ffeaf8c00b8d,6113b7a2e704ffeaf8c00b8d,5,book,critical,C,25,book15.jpg,book35.jpg,low,NULL
1687287735,c464de62e33c167666701fa4b405ce86,PennController,8,0,experiment,NULL,Selector,choice,Selection,option1,1687287537485,6113b7a2e704ffeaf8c00b8d,6113b7a2e704ffeaf8c00b8d,5,book,critical,C,25,book15.jpg,book35.jpg,low,option1;option2
1687287735,c464de62e33c167666701fa4b405ce86,PennController,8,0,experiment,NULL,PennController,7,_Trial_,End,1687287537488,6113b7a2e704ffeaf8c00b8d,6113b7a2e704ffeaf8c00b8d,5,book,critical,C,25,book15.jpg,book35.jpg,low,NULL
1687287735,c464de62e33c167666701fa4b405ce86,PennController,21,0,experiment,NULL,PennController,20,_Trial_,Start,1687287537492,6113b7a2e704ffeaf8c00b8d,6113b7a2e704ffeaf8c00b8d,18,ball,critical,C,50,ball40.jpg,ball60.jpg,low,NULL
1687287735,c464de62e33c167666701fa4b405ce86,PennController,21,0,experiment,NULL,PennController,20,_Header_,Start,1687287537492,6113b7a2e704ffeaf8c00b8d,6113b7a2e704ffeaf8c00b8d,18,ball,critical,C,50,ball40.jpg,ball60.jpg,low,NULL
1687287735,c464de62e33c167666701fa4b405ce86,PennController,21,0,experiment,NULL,PennController,20,_Header_,End,1687287537492,6113b7a2e704ffeaf8c00b8d,6113b7a2e704ffeaf8c00b8d,18,ball,critical,C,50,ball40.jpg,ball60.jpg,low,NULL
1687287735,c464de62e33c167666701fa4b405ce86,PennController,21,0,experiment,NULL,Video,progression,buffer,0,1687287541062,6113b7a2e704ffeaf8c00b8d,6113b7a2e704ffeaf8c00b8d,18,ball,critical,C,50,ball40.jpg,ball60.jpg,low,NULL
1687287735,c464de62e33c167666701fa4b405ce86,PennController,21,0,experiment,NULL,Canvas,canvas6,Print,NA,1687287544321,6113b7a2e704ffeaf8c00b8d,6113b7a2e704ffeaf8c00b8d,18,ball,critical,C,50,ball40.jpg,ball60.jpg,low,NULL
1687287735,c464de62e33c167666701fa4b405ce86,PennController,21,0,experiment,NULL,Selector,choice,Selection,option1,1687287545548,6113b7a2e704ffeaf8c00b8d,6113b7a2e704ffeaf8c00b8d,18,ball,critical,C,50,ball40.jpg,ball60.jpg,low,option2;option1
1687287735,c464de62e33c167666701fa4b405ce86,PennController,21,0,experiment,NULL,PennController,20,_Trial_,End,1687287545550,6113b7a2e704ffeaf8c00b8d,6113b7a2e704ffeaf8c00b8d,18,ball,critical,C,50,ball40.jpg,ball60.jpg,low,NULL
1687287735,c464de62e33c167666701fa4b405ce86,PennController,18,0,experiment,NULL,PennController,17,_Trial_,Start,1687287545552,6113b7a2e704ffeaf8c00b8d,6113b7a2e704ffeaf8c00b8d,15,zip,critical,C,50,zip40.jpg,zip60.jpg,low,NULL
1687287735,c464de62e33c167666701fa4b405ce86,PennController,18,0,experiment,NULL,PennController,17,_Header_,Start,1687287545552,6113b7a2e704ffeaf8c00b8d,6113b7a2e704ffeaf8c00b8d,15,zip,critical,C,50,zip40.jpg,zip60.jpg,low,NULL
1687287735,c464de62e33c167666701fa4b405ce86,PennController,18,0,experiment,NULL,PennController,17,_Header_,End,1687287545552,6113b7a2e704ffeaf8c00b8d,6113b7a2e704ffeaf8c00b8d,15,zip,critical,C,50,zip40.jpg,zip60.jpg,low,NULL
1687287735,c464de62e33c167666701fa4b405ce86,PennController,18,0,experiment,NULL,Video,progression,buffer,0,1687287549147,6113b7a2e704ffeaf8c00b8d,6113b7a2e704ffeaf8c00b8d,15,zip,critical,C,50,zip40.jpg,zip60.jpg,low,NULL
1687287735,c464de62e33c167666701fa4b405ce86,PennController,18,0,experiment,NULL,Canvas,canvas6,Print,NA,1687287552393,6113b7a2e704ffeaf8c00b8d,6113b7a2e704ffeaf8c00b8d,15,zip,critical,C,50,zip40.jpg,zip60.jpg,low,NULL
1687287735,c464de62e33c167666701fa4b405ce86,PennController,18,0,experiment,NULL,Selector,choice,Selection,option2,1687287554026,6113b7a2e704ffeaf8c00b8d,6113b7a2e704ffeaf8c00b8d,15,zip,critical,C,50,zip40.jpg,zip60.jpg,low,option2;option1
1687287735,c464de62e33c167666701fa4b405ce86,PennController,18,0,experiment,NULL,PennController,17,_Trial_,End,1687287554028,6113b7a2e704ffeaf8c00b8d,6113b7a2e704ffeaf8c00b8d,15,zip,critical,C,50,zip40.jpg,zip60.jpg,low,NULL
1687287735,c464de62e33c167666701fa4b405ce86,PennController,25,0,experiment,NULL,PennController,24,_Trial_,Start,1687287554030,6113b7a2e704ffeaf8c00b8d,6113b7a2e704ffeaf8c00b8d,22,wall,filler,C,75,wall65.jpg,wall85.jpg,GoalB,NULL
1687287735,c464de62e33c167666701fa4b405ce86,PennController,25,0,experiment,NULL,PennController,24,_Header_,Start,1687287554030,6113b7a2e704ffeaf8c00b8d,6113b7a2e704ffeaf8c00b8d,22,wall,filler,C,75,wall65.jpg,wall85.jpg,GoalB,NULL
1687287735,c464de62e33c167666701fa4b405ce86,PennController,25,0,experiment,NULL,PennController,24,_Header_,End,1687287554030,6113b7a2e704ffeaf8c00b8d,6113b7a2e704ffeaf8c00b8d,22,wall,filler,C,75,wall65.jpg,wall85.jpg,GoalB,NULL
1687287735,c464de62e33c167666701fa4b405ce86,PennController,25,0,experiment,NULL,Video,progression,buffer,0,1687287557569,6113b7a2e704ffeaf8c00b8d,6113b7a2e704ffeaf8c00b8d,22,wall,filler,C,75,wall65.jpg,wall85.jpg,GoalB,NULL
1687287735,c464de62e33c167666701fa4b405ce86,PennController,25,0,experiment,NULL,Canvas,canvas6,Print,NA,1687287561821,6113b7a2e704ffeaf8c00b8d,6113b7a2e704ffeaf8c00b8d,22,wall,filler,C,75,wall65.jpg,wall85.jpg,GoalB,NULL
1687287735,c464de62e33c167666701fa4b405ce86,PennController,25,0,experiment,NULL,Selector,choice,Selection,option2,1687287563004,6113b7a2e704ffeaf8c00b8d,6113b7a2e704ffeaf8c00b8d,22,wall,filler,C,75,wall65.jpg,wall85.jpg,GoalB,option2;option1
1687287735,c464de62e33c167666701fa4b405ce86,PennController,25,0,experiment,NULL,PennController,24,_Trial_,End,1687287563005,6113b7a2e704ffeaf8c00b8d,6113b7a2e704ffeaf8c00b8d,22,wall,filler,C,75,wall65.jpg,wall85.jpg,GoalB,NULL
1687287735,c464de62e33c167666701fa4b405ce86,PennController,19,0,experiment,NULL,PennController,18,_Trial_,Start,1687287563006,6113b7a2e704ffeaf8c00b8d,6113b7a2e704ffeaf8c00b8d,16,blinds,critical,C,75,blinds66.jpg,blinds84.jpg,low,NULL
1687287735,c464de62e33c167666701fa4b405ce86,PennController,19,0,experiment,NULL,PennController,18,_Header_,Start,1687287563006,6113b7a2e704ffeaf8c00b8d,6113b7a2e704ffeaf8c00b8d,16,blinds,critical,C,75,blinds66.jpg,blinds84.jpg,low,NULL
1687287735,c464de62e33c167666701fa4b405ce86,PennController,19,0,experiment,NULL,PennController,18,_Header_,End,1687287563006,6113b7a2e704ffeaf8c00b8d,6113b7a2e704ffeaf8c00b8d,16,blinds,critical,C,75,blinds66.jpg,blinds84.jpg,low,NULL
1687287735,c464de62e33c167666701fa4b405ce86,PennController,19,0,experiment,NULL,Video,progression,buffer,0,1687287566544,6113b7a2e704ffeaf8c00b8d,6113b7a2e704ffeaf8c00b8d,16,blinds,critical,C,75,blinds66.jpg,blinds84.jpg,low,NULL
1687287735,c464de62e33c167666701fa4b405ce86,PennController,19,0,experiment,NULL,Canvas,canvas6,Print,NA,1687287572808,6113b7a2e704ffeaf8c00b8d,6113b7a2e704ffeaf8c00b8d,16,blinds,critical,C,75,blinds66.jpg,blinds84.jpg,low,NULL
1687287735,c464de62e33c167666701fa4b405ce86,PennController,19,0,experiment,NULL,Selector,choice,Selection,option2,1687287573953,6113b7a2e704ffeaf8c00b8d,6113b7a2e704ffeaf8c00b8d,16,blinds,critical,C,75,blinds66.jpg,blinds84.jpg,low,option2;option1
1687287735,c464de62e33c167666701fa4b405ce86,PennController,19,0,experiment,NULL,PennController,18,_Trial_,End,1687287573954,6113b7a2e704ffeaf8c00b8d,6113b7a2e704ffeaf8c00b8d,16,blinds,critical,C,75,blinds66.jpg,blinds84.jpg,low,NULL
1687287735,c464de62e33c167666701fa4b405ce86,PennController,31,0,experiment,NULL,PennController,30,_Trial_,Start,1687287573956,6113b7a2e704ffeaf8c00b8d,6113b7a2e704ffeaf8c00b8d,28,sort,filler,C,75,sort65.jpg,sort85.jpg,GoalB,NULL
1687287735,c464de62e33c167666701fa4b405ce86,PennController,31,0,experiment,NULL,PennController,30,_Header_,Start,1687287573956,6113b7a2e704ffeaf8c00b8d,6113b7a2e704ffeaf8c00b8d,28,sort,filler,C,75,sort65.jpg,sort85.jpg,GoalB,NULL
1687287735,c464de62e33c167666701fa4b405ce86,PennController,31,0,experiment,NULL,PennController,30,_Header_,End,1687287573956,6113b7a2e704ffeaf8c00b8d,6113b7a2e704ffeaf8c00b8d,28,sort,filler,C,75,sort65.jpg,sort85.jpg,GoalB,NULL
1687287735,c464de62e33c167666701fa4b405ce86,PennController,31,0,experiment,NULL,Video,progression,buffer,0,1687287577498,6113b7a2e704ffeaf8c00b8d,6113b7a2e704ffeaf8c00b8d,28,sort,filler,C,75,sort65.jpg,sort85.jpg,GoalB,NULL
1687287735,c464de62e33c167666701fa4b405ce86,PennController,31,0,experiment,NULL,Canvas,canvas6,Print,NA,1687287581759,6113b7a2e704ffeaf8c00b8d,6113b7a2e704ffeaf8c00b8d,28,sort,filler,C,75,sort65.jpg,sort85.jpg,GoalB,NULL
1687287735,c464de62e33c167666701fa4b405ce86,PennController,31,0,experiment,NULL,Selector,choice,Selection,option1,1687287583206,6113b7a2e704ffeaf8c00b8d,6113b7a2e704ffeaf8c00b8d,28,sort,filler,C,75,sort65.jpg,sort85.jpg,GoalB,option2;option1
1687287735,c464de62e33c167666701fa4b405ce86,PennController,31,0,experiment,NULL,PennController,30,_Trial_,End,1687287583207,6113b7a2e704ffeaf8c00b8d,6113b7a2e704ffeaf8c00b8d,28,sort,filler,C,75,sort65.jpg,sort85.jpg,GoalB,NULL
1687287735,c464de62e33c167666701fa4b405ce86,PennController,9,0,experiment,NULL,PennController,8,_Trial_,Start,1687287583209,6113b7a2e704ffeaf8c00b8d,6113b7a2e704ffeaf8c00b8d,6,flower,critical,C,50,flower40.jpg,flower60.jpg,low,NULL
1687287735,c464de62e33c167666701fa4b405ce86,PennController,9,0,experiment,NULL,PennController,8,_Header_,Start,1687287583209,6113b7a2e704ffeaf8c00b8d,6113b7a2e704ffeaf8c00b8d,6,flower,critical,C,50,flower40.jpg,flower60.jpg,low,NULL
1687287735,c464de62e33c167666701fa4b405ce86,PennController,9,0,experiment,NULL,PennController,8,_Header_,End,1687287583209,6113b7a2e704ffeaf8c00b8d,6113b7a2e704ffeaf8c00b8d,6,flower,critical,C,50,flower40.jpg,flower60.jpg,low,NULL
1687287735,c464de62e33c167666701fa4b405ce86,PennController,9,0,experiment,NULL,Video,progression,buffer,0,1687287586780,6113b7a2e704ffeaf8c00b8d,6113b7a2e704ffeaf8c00b8d,6,flower,critical,C,50,flower40.jpg,flower60.jpg,low,NULL
1687287735,c464de62e33c167666701fa4b405ce86,PennController,9,0,experiment,NULL,Canvas,canvas6,Print,NA,1687287590025,6113b7a2e704ffeaf8c00b8d,6113b7a2e704ffeaf8c00b8d,6,flower,critical,C,50,flower40.jpg,flower60.jpg,low,NULL
1687287735,c464de62e33c167666701fa4b405ce86,PennController,9,0,experiment,NULL,Selector,choice,Selection,option1,1687287591795,6113b7a2e704ffeaf8c00b8d,6113b7a2e704ffeaf8c00b8d,6,flower,critical,C,50,flower40.jpg,flower60.jpg,low,option1;option2
1687287735,c464de62e33c167666701fa4b405ce86,PennController,9,0,experiment,NULL,PennController,8,_Trial_,End,1687287591796,6113b7a2e704ffeaf8c00b8d,6113b7a2e704ffeaf8c00b8d,6,flower,critical,C,50,flower40.jpg,flower60.jpg,low,NULL
1687287735,c464de62e33c167666701fa4b405ce86,PennController,11,0,experiment,NULL,PennController,10,_Trial_,Start,1687287591798,6113b7a2e704ffeaf8c00b8d,6113b7a2e704ffeaf8c00b8d,8,cucumber,critical,C,25,cucumber15.jpg,cucumber33.jpg,low,NULL
1687287735,c464de62e33c167666701fa4b405ce86,PennController,11,0,experiment,NULL,PennController,10,_Header_,Start,1687287591798,6113b7a2e704ffeaf8c00b8d,6113b7a2e704ffeaf8c00b8d,8,cucumber,critical,C,25,cucumber15.jpg,cucumber33.jpg,low,NULL
1687287735,c464de62e33c167666701fa4b405ce86,PennController,11,0,experiment,NULL,PennController,10,_Header_,End,1687287591798,6113b7a2e704ffeaf8c00b8d,6113b7a2e704ffeaf8c00b8d,8,cucumber,critical,C,25,cucumber15.jpg,cucumber33.jpg,low,NULL
1687287735,c464de62e33c167666701fa4b405ce86,PennController,11,0,experiment,NULL,Video,progression,buffer,0,1687287595337,6113b7a2e704ffeaf8c00b8d,6113b7a2e704ffeaf8c00b8d,8,cucumber,critical,C,25,cucumber15.jpg,cucumber33.jpg,low,NULL
1687287735,c464de62e33c167666701fa4b405ce86,PennController,11,0,experiment,NULL,Canvas,canvas6,Print,NA,1687287598181,6113b7a2e704ffeaf8c00b8d,6113b7a2e704ffeaf8c00b8d,8,cucumber,critical,C,25,cucumber15.jpg,cucumber33.jpg,low,NULL
1687287735,c464de62e33c167666701fa4b405ce86,PennController,11,0,experiment,NULL,Selector,choice,Selection,option2,1687287599632,6113b7a2e704ffeaf8c00b8d,6113b7a2e704ffeaf8c00b8d,8,cucumber,critical,C,25,cucumber15.jpg,cucumber33.jpg,low,option1;option2
1687287735,c464de62e33c167666701fa4b405ce86,PennController,11,0,experiment,NULL,PennController,10,_Trial_,End,1687287599634,6113b7a2e704ffeaf8c00b8d,6113b7a2e704ffeaf8c00b8d,8,cucumber,critical,C,25,cucumber15.jpg,cucumber33.jpg,low,NULL
1687287735,c464de62e33c167666701fa4b405ce86,PennController,5,0,experiment,NULL,PennController,4,_Trial_,Start,1687287599635,6113b7a2e704ffeaf8c00b8d,6113b7a2e704ffeaf8c00b8d,2,door,critical,C,25,door15.jpg,door35.jpg,low,NULL
1687287735,c464de62e33c167666701fa4b405ce86,PennController,5,0,experiment,NULL,PennController,4,_Header_,Start,1687287599635,6113b7a2e704ffeaf8c00b8d,6113b7a2e704ffeaf8c00b8d,2,door,critical,C,25,door15.jpg,door35.jpg,low,NULL
1687287735,c464de62e33c167666701fa4b405ce86,PennController,5,0,experiment,NULL,PennController,4,_Header_,End,1687287599635,6113b7a2e704ffeaf8c00b8d,6113b7a2e704ffeaf8c00b8d,2,door,critical,C,25,door15.jpg,door35.jpg,low,NULL
1687287735,c464de62e33c167666701fa4b405ce86,PennController,5,0,experiment,NULL,Video,progression,buffer,0,1687287603166,6113b7a2e704ffeaf8c00b8d,6113b7a2e704ffeaf8c00b8d,2,door,critical,C,25,door15.jpg,door35.jpg,low,NULL
1687287735,c464de62e33c167666701fa4b405ce86,PennController,5,0,experiment,NULL,Canvas,canvas6,Print,NA,1687287605416,6113b7a2e704ffeaf8c00b8d,6113b7a2e704ffeaf8c00b8d,2,door,critical,C,25,door15.jpg,door35.jpg,low,NULL
1687287735,c464de62e33c167666701fa4b405ce86,PennController,5,0,experiment,NULL,Selector,choice,Selection,option2,1687287609684,6113b7a2e704ffeaf8c00b8d,6113b7a2e704ffeaf8c00b8d,2,door,critical,C,25,door15.jpg,door35.jpg,low,option2;option1
1687287735,c464de62e33c167666701fa4b405ce86,PennController,5,0,experiment,NULL,PennController,4,_Trial_,End,1687287609685,6113b7a2e704ffeaf8c00b8d,6113b7a2e704ffeaf8c00b8d,2,door,critical,C,25,door15.jpg,door35.jpg,low,NULL
1687287735,c464de62e33c167666701fa4b405ce86,PennController,30,0,experiment,NULL,PennController,29,_Trial_,Start,1687287609686,6113b7a2e704ffeaf8c00b8d,6113b7a2e704ffeaf8c00b8d,27,square,filler,C,50,square40.jpg,square60.jpg,GoalA,NULL
1687287735,c464de62e33c167666701fa4b405ce86,PennController,30,0,experiment,NULL,PennController,29,_Header_,Start,1687287609686,6113b7a2e704ffeaf8c00b8d,6113b7a2e704ffeaf8c00b8d,27,square,filler,C,50,square40.jpg,square60.jpg,GoalA,NULL
1687287735,c464de62e33c167666701fa4b405ce86,PennController,30,0,experiment,NULL,PennController,29,_Header_,End,1687287609686,6113b7a2e704ffeaf8c00b8d,6113b7a2e704ffeaf8c00b8d,27,square,filler,C,50,square40.jpg,square60.jpg,GoalA,NULL
1687287735,c464de62e33c167666701fa4b405ce86,PennController,30,0,experiment,NULL,Video,progression,buffer,0,1687287613208,6113b7a2e704ffeaf8c00b8d,6113b7a2e704ffeaf8c00b8d,27,square,filler,C,50,square40.jpg,square60.jpg,GoalA,NULL
1687287735,c464de62e33c167666701fa4b405ce86,PennController,30,0,experiment,NULL,Canvas,canvas6,Print,NA,1687287616448,6113b7a2e704ffeaf8c00b8d,6113b7a2e704ffeaf8c00b8d,27,square,filler,C,50,square40.jpg,square60.jpg,GoalA,NULL
1687287735,c464de62e33c167666701fa4b405ce86,PennController,30,0,experiment,NULL,Selector,choice,Selection,option2,1687287617883,6113b7a2e704ffeaf8c00b8d,6113b7a2e704ffeaf8c00b8d,27,square,filler,C,50,square40.jpg,square60.jpg,GoalA,option2;option1
1687287735,c464de62e33c167666701fa4b405ce86,PennController,30,0,experiment,NULL,PennController,29,_Trial_,End,1687287617884,6113b7a2e704ffeaf8c00b8d,6113b7a2e704ffeaf8c00b8d,27,square,filler,C,50,square40.jpg,square60.jpg,GoalA,NULL
1687287735,c464de62e33c167666701fa4b405ce86,PennController,26,0,experiment,NULL,PennController,25,_Trial_,Start,1687287617886,6113b7a2e704ffeaf8c00b8d,6113b7a2e704ffeaf8c00b8d,23,color,filler,C,25,color15.jpg,color35.jpg,GoalA,NULL
1687287735,c464de62e33c167666701fa4b405ce86,PennController,26,0,experiment,NULL,PennController,25,_Header_,Start,1687287617886,6113b7a2e704ffeaf8c00b8d,6113b7a2e704ffeaf8c00b8d,23,color,filler,C,25,color15.jpg,color35.jpg,GoalA,NULL
1687287735,c464de62e33c167666701fa4b405ce86,PennController,26,0,experiment,NULL,PennController,25,_Header_,End,1687287617886,6113b7a2e704ffeaf8c00b8d,6113b7a2e704ffeaf8c00b8d,23,color,filler,C,25,color15.jpg,color35.jpg,GoalA,NULL
1687287735,c464de62e33c167666701fa4b405ce86,PennController,26,0,experiment,NULL,Video,progression,buffer,0,1687287621425,6113b7a2e704ffeaf8c00b8d,6113b7a2e704ffeaf8c00b8d,23,color,filler,C,25,color15.jpg,color35.jpg,GoalA,NULL
1687287735,c464de62e33c167666701fa4b405ce86,PennController,26,0,experiment,NULL,Canvas,canvas6,Print,NA,1687287623666,6113b7a2e704ffeaf8c00b8d,6113b7a2e704ffeaf8c00b8d,23,color,filler,C,25,color15.jpg,color35.jpg,GoalA,NULL
1687287735,c464de62e33c167666701fa4b405ce86,PennController,26,0,experiment,NULL,Selector,choice,Selection,option2,1687287625626,6113b7a2e704ffeaf8c00b8d,6113b7a2e704ffeaf8c00b8d,23,color,filler,C,25,color15.jpg,color35.jpg,GoalA,option1;option2
1687287735,c464de62e33c167666701fa4b405ce86,PennController,26,0,experiment,NULL,PennController,25,_Trial_,End,1687287625629,6113b7a2e704ffeaf8c00b8d,6113b7a2e704ffeaf8c00b8d,23,color,filler,C,25,color15.jpg,color35.jpg,GoalA,NULL
1687287735,c464de62e33c167666701fa4b405ce86,PennController,7,0,experiment,NULL,PennController,6,_Trial_,Start,1687287625630,6113b7a2e704ffeaf8c00b8d,6113b7a2e704ffeaf8c00b8d,4,candy,critical,C,75,candy65.jpg,candy85.jpg,low,NULL
1687287735,c464de62e33c167666701fa4b405ce86,PennController,7,0,experiment,NULL,PennController,6,_Header_,Start,1687287625630,6113b7a2e704ffeaf8c00b8d,6113b7a2e704ffeaf8c00b8d,4,candy,critical,C,75,candy65.jpg,candy85.jpg,low,NULL
1687287735,c464de62e33c167666701fa4b405ce86,PennController,7,0,experiment,NULL,PennController,6,_Header_,End,1687287625630,6113b7a2e704ffeaf8c00b8d,6113b7a2e704ffeaf8c00b8d,4,candy,critical,C,75,candy65.jpg,candy85.jpg,low,NULL
1687287735,c464de62e33c167666701fa4b405ce86,PennController,7,0,experiment,NULL,Video,progression,buffer,0,1687287629164,6113b7a2e704ffeaf8c00b8d,6113b7a2e704ffeaf8c00b8d,4,candy,critical,C,75,candy65.jpg,candy85.jpg,low,NULL
1687287735,c464de62e33c167666701fa4b405ce86,PennController,7,0,experiment,NULL,Canvas,canvas6,Print,NA,1687287633413,6113b7a2e704ffeaf8c00b8d,6113b7a2e704ffeaf8c00b8d,4,candy,critical,C,75,candy65.jpg,candy85.jpg,low,NULL
1687287735,c464de62e33c167666701fa4b405ce86,PennController,7,0,experiment,NULL,Selector,choice,Selection,option1,1687287634622,6113b7a2e704ffeaf8c00b8d,6113b7a2e704ffeaf8c00b8d,4,candy,critical,C,75,candy65.jpg,candy85.jpg,low,option2;option1
1687287735,c464de62e33c167666701fa4b405ce86,PennController,7,0,experiment,NULL,PennController,6,_Trial_,End,1687287634623,6113b7a2e704ffeaf8c00b8d,6113b7a2e704ffeaf8c00b8d,4,candy,critical,C,75,candy65.jpg,candy85.jpg,low,NULL
1687287735,c464de62e33c167666701fa4b405ce86,PennController,22,0,experiment,NULL,PennController,21,_Trial_,Start,1687287634624,6113b7a2e704ffeaf8c00b8d,6113b7a2e704ffeaf8c00b8d,19,cup,filler,C,75,cup65.jpg,cup85.jpg,GoalA,NULL
1687287735,c464de62e33c167666701fa4b405ce86,PennController,22,0,experiment,NULL,PennController,21,_Header_,Start,1687287634624,6113b7a2e704ffeaf8c00b8d,6113b7a2e704ffeaf8c00b8d,19,cup,filler,C,75,cup65.jpg,cup85.jpg,GoalA,NULL
1687287735,c464de62e33c167666701fa4b405ce86,PennController,22,0,experiment,NULL,PennController,21,_Header_,End,1687287634624,6113b7a2e704ffeaf8c00b8d,6113b7a2e704ffeaf8c00b8d,19,cup,filler,C,75,cup65.jpg,cup85.jpg,GoalA,NULL
1687287735,c464de62e33c167666701fa4b405ce86,PennController,22,0,experiment,NULL,Video,progression,buffer,0,1687287638164,6113b7a2e704ffeaf8c00b8d,6113b7a2e704ffeaf8c00b8d,19,cup,filler,C,75,cup65.jpg,cup85.jpg,GoalA,NULL
1687287735,c464de62e33c167666701fa4b405ce86,PennController,22,0,experiment,NULL,Canvas,canvas6,Print,NA,1687287642416,6113b7a2e704ffeaf8c00b8d,6113b7a2e704ffeaf8c00b8d,19,cup,filler,C,75,cup65.jpg,cup85.jpg,GoalA,NULL
1687287735,c464de62e33c167666701fa4b405ce86,PennController,22,0,experiment,NULL,Selector,choice,Selection,option2,1687287643751,6113b7a2e704ffeaf8c00b8d,6113b7a2e704ffeaf8c00b8d,19,cup,filler,C,75,cup65.jpg,cup85.jpg,GoalA,option2;option1
1687287735,c464de62e33c167666701fa4b405ce86,PennController,22,0,experiment,NULL,PennController,21,_Trial_,End,1687287643751,6113b7a2e704ffeaf8c00b8d,6113b7a2e704ffeaf8c00b8d,19,cup,filler,C,75,cup65.jpg,cup85.jpg,GoalA,NULL
1687287735,c464de62e33c167666701fa4b405ce86,PennController,24,0,experiment,NULL,PennController,23,_Trial_,Start,1687287643752,6113b7a2e704ffeaf8c00b8d,6113b7a2e704ffeaf8c00b8d,21,visit,filler,C,50,visit40.jpg,visit60.jpg,GoalA,NULL
1687287735,c464de62e33c167666701fa4b405ce86,PennController,24,0,experiment,NULL,PennController,23,_Header_,Start,1687287643752,6113b7a2e704ffeaf8c00b8d,6113b7a2e704ffeaf8c00b8d,21,visit,filler,C,50,visit40.jpg,visit60.jpg,GoalA,NULL
1687287735,c464de62e33c167666701fa4b405ce86,PennController,24,0,experiment,NULL,PennController,23,_Header_,End,1687287643752,6113b7a2e704ffeaf8c00b8d,6113b7a2e704ffeaf8c00b8d,21,visit,filler,C,50,visit40.jpg,visit60.jpg,GoalA,NULL
1687287735,c464de62e33c167666701fa4b405ce86,PennController,24,0,experiment,NULL,Video,progression,buffer,0,1687287647285,6113b7a2e704ffeaf8c00b8d,6113b7a2e704ffeaf8c00b8d,21,visit,filler,C,50,visit40.jpg,visit60.jpg,GoalA,NULL
1687287735,c464de62e33c167666701fa4b405ce86,PennController,24,0,experiment,NULL,Canvas,canvas6,Print,NA,1687287650544,6113b7a2e704ffeaf8c00b8d,6113b7a2e704ffeaf8c00b8d,21,visit,filler,C,50,visit40.jpg,visit60.jpg,GoalA,NULL
1687287735,c464de62e33c167666701fa4b405ce86,PennController,24,0,experiment,NULL,Selector,choice,Selection,option2,1687287652042,6113b7a2e704ffeaf8c00b8d,6113b7a2e704ffeaf8c00b8d,21,visit,filler,C,50,visit40.jpg,visit60.jpg,GoalA,option1;option2
1687287735,c464de62e33c167666701fa4b405ce86,PennController,24,0,experiment,NULL,PennController,23,_Trial_,End,1687287652043,6113b7a2e704ffeaf8c00b8d,6113b7a2e704ffeaf8c00b8d,21,visit,filler,C,50,visit40.jpg,visit60.jpg,GoalA,NULL
1687287735,c464de62e33c167666701fa4b405ce86,PennController,28,0,experiment,NULL,PennController,27,_Trial_,Start,1687287652044,6113b7a2e704ffeaf8c00b8d,6113b7a2e704ffeaf8c00b8d,25,house,filler,C,75,house65.jpg,house85.jpg,GoalA,NULL
1687287735,c464de62e33c167666701fa4b405ce86,PennController,28,0,experiment,NULL,PennController,27,_Header_,Start,1687287652044,6113b7a2e704ffeaf8c00b8d,6113b7a2e704ffeaf8c00b8d,25,house,filler,C,75,house65.jpg,house85.jpg,GoalA,NULL
1687287735,c464de62e33c167666701fa4b405ce86,PennController,28,0,experiment,NULL,PennController,27,_Header_,End,1687287652044,6113b7a2e704ffeaf8c00b8d,6113b7a2e704ffeaf8c00b8d,25,house,filler,C,75,house65.jpg,house85.jpg,GoalA,NULL
1687287735,c464de62e33c167666701fa4b405ce86,PennController,28,0,experiment,NULL,Video,progression,buffer,0,1687287655566,6113b7a2e704ffeaf8c00b8d,6113b7a2e704ffeaf8c00b8d,25,house,filler,C,75,house65.jpg,house85.jpg,GoalA,NULL
1687287735,c464de62e33c167666701fa4b405ce86,PennController,28,0,experiment,NULL,Canvas,canvas6,Print,NA,1687287659816,6113b7a2e704ffeaf8c00b8d,6113b7a2e704ffeaf8c00b8d,25,house,filler,C,75,house65.jpg,house85.jpg,GoalA,NULL
1687287735,c464de62e33c167666701fa4b405ce86,PennController,28,0,experiment,NULL,Selector,choice,Selection,option2,1687287661151,6113b7a2e704ffeaf8c00b8d,6113b7a2e704ffeaf8c00b8d,25,house,filler,C,75,house65.jpg,house85.jpg,GoalA,option1;option2
1687287735,c464de62e33c167666701fa4b405ce86,PennController,28,0,experiment,NULL,PennController,27,_Trial_,End,1687287661152,6113b7a2e704ffeaf8c00b8d,6113b7a2e704ffeaf8c00b8d,25,house,filler,C,75,house65.jpg,house85.jpg,GoalA,NULL
1687287735,c464de62e33c167666701fa4b405ce86,PennController,12,0,experiment,NULL,PennController,11,_Trial_,Start,1687287661153,6113b7a2e704ffeaf8c00b8d,6113b7a2e704ffeaf8c00b8d,9,cake,critical,C,50,cake42.jpg,cake60.jpg,low,NULL
1687287735,c464de62e33c167666701fa4b405ce86,PennController,12,0,experiment,NULL,PennController,11,_Header_,Start,1687287661153,6113b7a2e704ffeaf8c00b8d,6113b7a2e704ffeaf8c00b8d,9,cake,critical,C,50,cake42.jpg,cake60.jpg,low,NULL
1687287735,c464de62e33c167666701fa4b405ce86,PennController,12,0,experiment,NULL,PennController,11,_Header_,End,1687287661153,6113b7a2e704ffeaf8c00b8d,6113b7a2e704ffeaf8c00b8d,9,cake,critical,C,50,cake42.jpg,cake60.jpg,low,NULL
1687287735,c464de62e33c167666701fa4b405ce86,PennController,12,0,experiment,NULL,Video,progression,buffer,0,1687287664706,6113b7a2e704ffeaf8c00b8d,6113b7a2e704ffeaf8c00b8d,9,cake,critical,C,50,cake42.jpg,cake60.jpg,low,NULL
1687287735,c464de62e33c167666701fa4b405ce86,PennController,12,0,experiment,NULL,Canvas,canvas6,Print,NA,1687287669356,6113b7a2e704ffeaf8c00b8d,6113b7a2e704ffeaf8c00b8d,9,cake,critical,C,50,cake42.jpg,cake60.jpg,low,NULL
1687287735,c464de62e33c167666701fa4b405ce86,PennController,12,0,experiment,NULL,Selector,choice,Selection,option2,1687287671065,6113b7a2e704ffeaf8c00b8d,6113b7a2e704ffeaf8c00b8d,9,cake,critical,C,50,cake42.jpg,cake60.jpg,low,option2;option1
1687287735,c464de62e33c167666701fa4b405ce86,PennController,12,0,experiment,NULL,PennController,11,_Trial_,End,1687287671066,6113b7a2e704ffeaf8c00b8d,6113b7a2e704ffeaf8c00b8d,9,cake,critical,C,50,cake42.jpg,cake60.jpg,low,NULL
1687287735,c464de62e33c167666701fa4b405ce86,PennController,10,0,experiment,NULL,PennController,9,_Trial_,Start,1687287671067,6113b7a2e704ffeaf8c00b8d,6113b7a2e704ffeaf8c00b8d,7,stack,critical,C,75,stack65.jpg,stack85.jpg,low,NULL
1687287735,c464de62e33c167666701fa4b405ce86,PennController,10,0,experiment,NULL,PennController,9,_Header_,Start,1687287671067,6113b7a2e704ffeaf8c00b8d,6113b7a2e704ffeaf8c00b8d,7,stack,critical,C,75,stack65.jpg,stack85.jpg,low,NULL
1687287735,c464de62e33c167666701fa4b405ce86,PennController,10,0,experiment,NULL,PennController,9,_Header_,End,1687287671067,6113b7a2e704ffeaf8c00b8d,6113b7a2e704ffeaf8c00b8d,7,stack,critical,C,75,stack65.jpg,stack85.jpg,low,NULL
1687287735,c464de62e33c167666701fa4b405ce86,PennController,10,0,experiment,NULL,Video,progression,buffer,0,1687287674597,6113b7a2e704ffeaf8c00b8d,6113b7a2e704ffeaf8c00b8d,7,stack,critical,C,75,stack65.jpg,stack85.jpg,low,NULL
1687287735,c464de62e33c167666701fa4b405ce86,PennController,10,0,experiment,NULL,Canvas,canvas6,Print,NA,1687287678844,6113b7a2e704ffeaf8c00b8d,6113b7a2e704ffeaf8c00b8d,7,stack,critical,C,75,stack65.jpg,stack85.jpg,low,NULL
1687287735,c464de62e33c167666701fa4b405ce86,PennController,10,0,experiment,NULL,Selector,choice,Selection,option1,1687287684060,6113b7a2e704ffeaf8c00b8d,6113b7a2e704ffeaf8c00b8d,7,stack,critical,C,75,stack65.jpg,stack85.jpg,low,option2;option1
1687287735,c464de62e33c167666701fa4b405ce86,PennController,10,0,experiment,NULL,PennController,9,_Trial_,End,1687287684061,6113b7a2e704ffeaf8c00b8d,6113b7a2e704ffeaf8c00b8d,7,stack,critical,C,75,stack65.jpg,stack85.jpg,low,NULL
1687287735,c464de62e33c167666701fa4b405ce86,PennController,13,0,experiment,NULL,PennController,12,_Trial_,Start,1687287684062,6113b7a2e704ffeaf8c00b8d,6113b7a2e704ffeaf8c00b8d,10,train,critical,C,75,train65.jpg,train85.jpg,low,NULL
1687287735,c464de62e33c167666701fa4b405ce86,PennController,13,0,experiment,NULL,PennController,12,_Header_,Start,1687287684062,6113b7a2e704ffeaf8c00b8d,6113b7a2e704ffeaf8c00b8d,10,train,critical,C,75,train65.jpg,train85.jpg,low,NULL
1687287735,c464de62e33c167666701fa4b405ce86,PennController,13,0,experiment,NULL,PennController,12,_Header_,End,1687287684062,6113b7a2e704ffeaf8c00b8d,6113b7a2e704ffeaf8c00b8d,10,train,critical,C,75,train65.jpg,train85.jpg,low,NULL
1687287735,c464de62e33c167666701fa4b405ce86,PennController,13,0,experiment,NULL,Video,progression,buffer,0,1687287687631,6113b7a2e704ffeaf8c00b8d,6113b7a2e704ffeaf8c00b8d,10,train,critical,C,75,train65.jpg,train85.jpg,low,NULL
1687287735,c464de62e33c167666701fa4b405ce86,PennController,13,0,experiment,NULL,Canvas,canvas6,Print,NA,1687287691885,6113b7a2e704ffeaf8c00b8d,6113b7a2e704ffeaf8c00b8d,10,train,critical,C,75,train65.jpg,train85.jpg,low,NULL
1687287735,c464de62e33c167666701fa4b405ce86,PennController,13,0,experiment,NULL,Selector,choice,Selection,option1,1687287694584,6113b7a2e704ffeaf8c00b8d,6113b7a2e704ffeaf8c00b8d,10,train,critical,C,75,train65.jpg,train85.jpg,low,option1;option2
1687287735,c464de62e33c167666701fa4b405ce86,PennController,13,0,experiment,NULL,PennController,12,_Trial_,End,1687287694585,6113b7a2e704ffeaf8c00b8d,6113b7a2e704ffeaf8c00b8d,10,train,critical,C,75,train65.jpg,train85.jpg,low,NULL
1687287735,c464de62e33c167666701fa4b405ce86,PennController,16,0,experiment,NULL,PennController,15,_Trial_,Start,1687287694586,6113b7a2e704ffeaf8c00b8d,6113b7a2e704ffeaf8c00b8d,13,mix,critical,C,75,mix65.jpg,mix85.jpg,low,NULL
1687287735,c464de62e33c167666701fa4b405ce86,PennController,16,0,experiment,NULL,PennController,15,_Header_,Start,1687287694586,6113b7a2e704ffeaf8c00b8d,6113b7a2e704ffeaf8c00b8d,13,mix,critical,C,75,mix65.jpg,mix85.jpg,low,NULL
1687287735,c464de62e33c167666701fa4b405ce86,PennController,16,0,experiment,NULL,PennController,15,_Header_,End,1687287694586,6113b7a2e704ffeaf8c00b8d,6113b7a2e704ffeaf8c00b8d,13,mix,critical,C,75,mix65.jpg,mix85.jpg,low,NULL
1687287735,c464de62e33c167666701fa4b405ce86,PennController,16,0,experiment,NULL,Video,progression,buffer,0,1687287698143,6113b7a2e704ffeaf8c00b8d,6113b7a2e704ffeaf8c00b8d,13,mix,critical,C,75,mix65.jpg,mix85.jpg,low,NULL
1687287735,c464de62e33c167666701fa4b405ce86,PennController,16,0,experiment,NULL,Canvas,canvas6,Print,NA,1687287702384,6113b7a2e704ffeaf8c00b8d,6113b7a2e704ffeaf8c00b8d,13,mix,critical,C,75,mix65.jpg,mix85.jpg,low,NULL
1687287735,c464de62e33c167666701fa4b405ce86,PennController,16,0,experiment,NULL,Selector,choice,Selection,option2,1687287703863,6113b7a2e704ffeaf8c00b8d,6113b7a2e704ffeaf8c00b8d,13,mix,critical,C,75,mix65.jpg,mix85.jpg,low,option2;option1
1687287735,c464de62e33c167666701fa4b405ce86,PennController,16,0,experiment,NULL,PennController,15,_Trial_,End,1687287703864,6113b7a2e704ffeaf8c00b8d,6113b7a2e704ffeaf8c00b8d,13,mix,critical,C,75,mix65.jpg,mix85.jpg,low,NULL
1687287735,c464de62e33c167666701fa4b405ce86,PennController,32,0,experiment,NULL,PennController,31,_Trial_,Start,1687287703864,6113b7a2e704ffeaf8c00b8d,6113b7a2e704ffeaf8c00b8d,29,frog,filler,C,25,frog15.jpg,frog35.jpg,GoalA,NULL
1687287735,c464de62e33c167666701fa4b405ce86,PennController,32,0,experiment,NULL,PennController,31,_Header_,Start,1687287703864,6113b7a2e704ffeaf8c00b8d,6113b7a2e704ffeaf8c00b8d,29,frog,filler,C,25,frog15.jpg,frog35.jpg,GoalA,NULL
1687287735,c464de62e33c167666701fa4b405ce86,PennController,32,0,experiment,NULL,PennController,31,_Header_,End,1687287703864,6113b7a2e704ffeaf8c00b8d,6113b7a2e704ffeaf8c00b8d,29,frog,filler,C,25,frog15.jpg,frog35.jpg,GoalA,NULL
1687287735,c464de62e33c167666701fa4b405ce86,PennController,32,0,experiment,NULL,Video,progression,buffer,0,1687287707398,6113b7a2e704ffeaf8c00b8d,6113b7a2e704ffeaf8c00b8d,29,frog,filler,C,25,frog15.jpg,frog35.jpg,GoalA,NULL
1687287735,c464de62e33c167666701fa4b405ce86,PennController,32,0,experiment,NULL,Canvas,canvas6,Print,NA,1687287709646,6113b7a2e704ffeaf8c00b8d,6113b7a2e704ffeaf8c00b8d,29,frog,filler,C,25,frog15.jpg,frog35.jpg,GoalA,NULL
1687287735,c464de62e33c167666701fa4b405ce86,PennController,32,0,experiment,NULL,Selector,choice,Selection,option2,1687287710932,6113b7a2e704ffeaf8c00b8d,6113b7a2e704ffeaf8c00b8d,29,frog,filler,C,25,frog15.jpg,frog35.jpg,GoalA,option2;option1
1687287735,c464de62e33c167666701fa4b405ce86,PennController,32,0,experiment,NULL,PennController,31,_Trial_,End,1687287710934,6113b7a2e704ffeaf8c00b8d,6113b7a2e704ffeaf8c00b8d,29,frog,filler,C,25,frog15.jpg,frog35.jpg,GoalA,NULL
1687287735,c464de62e33c167666701fa4b405ce86,PennController,29,0,experiment,NULL,PennController,28,_Trial_,Start,1687287710934,6113b7a2e704ffeaf8c00b8d,6113b7a2e704ffeaf8c00b8d,26,sandwich,filler,C,25,sandwich15.jpg,sandwich35.jpg,GoalB,NULL
1687287735,c464de62e33c167666701fa4b405ce86,PennController,29,0,experiment,NULL,PennController,28,_Header_,Start,1687287710934,6113b7a2e704ffeaf8c00b8d,6113b7a2e704ffeaf8c00b8d,26,sandwich,filler,C,25,sandwich15.jpg,sandwich35.jpg,GoalB,NULL
1687287735,c464de62e33c167666701fa4b405ce86,PennController,29,0,experiment,NULL,PennController,28,_Header_,End,1687287710934,6113b7a2e704ffeaf8c00b8d,6113b7a2e704ffeaf8c00b8d,26,sandwich,filler,C,25,sandwich15.jpg,sandwich35.jpg,GoalB,NULL
1687287735,c464de62e33c167666701fa4b405ce86,PennController,29,0,experiment,NULL,Video,progression,buffer,0,1687287714467,6113b7a2e704ffeaf8c00b8d,6113b7a2e704ffeaf8c00b8d,26,sandwich,filler,C,25,sandwich15.jpg,sandwich35.jpg,GoalB,NULL
1687287735,c464de62e33c167666701fa4b405ce86,PennController,29,0,experiment,NULL,Canvas,canvas6,Print,NA,1687287716713,6113b7a2e704ffeaf8c00b8d,6113b7a2e704ffeaf8c00b8d,26,sandwich,filler,C,25,sandwich15.jpg,sandwich35.jpg,GoalB,NULL
1687287735,c464de62e33c167666701fa4b405ce86,PennController,29,0,experiment,NULL,Selector,choice,Selection,option1,1687287718527,6113b7a2e704ffeaf8c00b8d,6113b7a2e704ffeaf8c00b8d,26,sandwich,filler,C,25,sandwich15.jpg,sandwich35.jpg,GoalB,option1;option2
1687287735,c464de62e33c167666701fa4b405ce86,PennController,29,0,experiment,NULL,PennController,28,_Trial_,End,1687287718527,6113b7a2e704ffeaf8c00b8d,6113b7a2e704ffeaf8c00b8d,26,sandwich,filler,C,25,sandwich15.jpg,sandwich35.jpg,GoalB,NULL
1687287735,c464de62e33c167666701fa4b405ce86,PennController,20,0,experiment,NULL,PennController,19,_Trial_,Start,1687287718528,6113b7a2e704ffeaf8c00b8d,6113b7a2e704ffeaf8c00b8d,17,roll,critical,C,25,roll15.jpg,roll35.jpg,low,NULL
1687287735,c464de62e33c167666701fa4b405ce86,PennController,20,0,experiment,NULL,PennController,19,_Header_,Start,1687287718528,6113b7a2e704ffeaf8c00b8d,6113b7a2e704ffeaf8c00b8d,17,roll,critical,C,25,roll15.jpg,roll35.jpg,low,NULL
1687287735,c464de62e33c167666701fa4b405ce86,PennController,20,0,experiment,NULL,PennController,19,_Header_,End,1687287718528,6113b7a2e704ffeaf8c00b8d,6113b7a2e704ffeaf8c00b8d,17,roll,critical,C,25,roll15.jpg,roll35.jpg,low,NULL
1687287735,c464de62e33c167666701fa4b405ce86,PennController,20,0,experiment,NULL,Video,progression,buffer,0,1687287722056,6113b7a2e704ffeaf8c00b8d,6113b7a2e704ffeaf8c00b8d,17,roll,critical,C,25,roll15.jpg,roll35.jpg,low,NULL
1687287735,c464de62e33c167666701fa4b405ce86,PennController,20,0,experiment,NULL,Canvas,canvas6,Print,NA,1687287724300,6113b7a2e704ffeaf8c00b8d,6113b7a2e704ffeaf8c00b8d,17,roll,critical,C,25,roll15.jpg,roll35.jpg,low,NULL
1687287735,c464de62e33c167666701fa4b405ce86,PennController,20,0,experiment,NULL,Selector,choice,Selection,option1,1687287726334,6113b7a2e704ffeaf8c00b8d,6113b7a2e704ffeaf8c00b8d,17,roll,critical,C,25,roll15.jpg,roll35.jpg,low,option1;option2
1687287735,c464de62e33c167666701fa4b405ce86,PennController,20,0,experiment,NULL,PennController,19,_Trial_,End,1687287726335,6113b7a2e704ffeaf8c00b8d,6113b7a2e704ffeaf8c00b8d,17,roll,critical,C,25,roll15.jpg,roll35.jpg,low,NULL
1687287735,c464de62e33c167666701fa4b405ce86,PennController,27,0,experiment,NULL,PennController,26,_Trial_,Start,1687287726336,6113b7a2e704ffeaf8c00b8d,6113b7a2e704ffeaf8c00b8d,24,match,filler,C,50,match40.jpg,match60.jpg,GoalB,NULL
1687287735,c464de62e33c167666701fa4b405ce86,PennController,27,0,experiment,NULL,PennController,26,_Header_,Start,1687287726336,6113b7a2e704ffeaf8c00b8d,6113b7a2e704ffeaf8c00b8d,24,match,filler,C,50,match40.jpg,match60.jpg,GoalB,NULL
1687287735,c464de62e33c167666701fa4b405ce86,PennController,27,0,experiment,NULL,PennController,26,_Header_,End,1687287726336,6113b7a2e704ffeaf8c00b8d,6113b7a2e704ffeaf8c00b8d,24,match,filler,C,50,match40.jpg,match60.jpg,GoalB,NULL
1687287735,c464de62e33c167666701fa4b405ce86,PennController,27,0,experiment,NULL,Video,progression,buffer,0,1687287729874,6113b7a2e704ffeaf8c00b8d,6113b7a2e704ffeaf8c00b8d,24,match,filler,C,50,match40.jpg,match60.jpg,GoalB,NULL
1687287735,c464de62e33c167666701fa4b405ce86,PennController,27,0,experiment,NULL,Canvas,canvas6,Print,NA,1687287733124,6113b7a2e704ffeaf8c00b8d,6113b7a2e704ffeaf8c00b8d,24,match,filler,C,50,match40.jpg,match60.jpg,GoalB,NULL
1687287735,c464de62e33c167666701fa4b405ce86,PennController,27,0,experiment,NULL,Selector,choice,Selection,option2,1687287735112,6113b7a2e704ffeaf8c00b8d,6113b7a2e704ffeaf8c00b8d,24,match,filler,C,50,match40.jpg,match60.jpg,GoalB,option1;option2
1687287735,c464de62e33c167666701fa4b405ce86,PennController,27,0,experiment,NULL,PennController,26,_Trial_,End,1687287735113,6113b7a2e704ffeaf8c00b8d,6113b7a2e704ffeaf8c00b8d,24,match,filler,C,50,match40.jpg,match60.jpg,GoalB,NULL
