#
# Results on Tuesday June 20 2023 18:58:55 UTC
# USER AGENT: Mozilla/5.0 (Windows NT 10.0; Win64; x64) AppleWebKit/537.36 (KHTML, like Gecko) Chrome/114.0.0.0 Safari/537.36
# Design number was non-random = 3
#
# Columns below this comment are as follows:
# 1. Results reception time.
# 2. MD5 hash of participant's IP address.
# 3. Controller name.
# 4. Order number of item.
# 5. Inner element number.
# 6. Label.
# 7. Latin Square Group.
# 8. PennElementType.
# 9. PennElementName.
# 10. Parameter.
# 11. Value.
# 12. EventTime.
# 13. PROLIFIC_ID.
# 14. Comments.
1687287535,b7852ac2a62166dac52ab910d10fe73c,PennController,2,0,consent,NULL,PennController,0,_Trial_,Start,1687287092654,60267ea2c1e12331ce6a3f21,NULL
1687287535,b7852ac2a62166dac52ab910d10fe73c,PennController,2,0,consent,NULL,PennController,0,_Header_,Start,1687287092654,60267ea2c1e12331ce6a3f21,NULL
1687287535,b7852ac2a62166dac52ab910d10fe73c,PennController,2,0,consent,NULL,PennController,0,_Header_,End,1687287092654,60267ea2c1e12331ce6a3f21,NULL
1687287535,b7852ac2a62166dac52ab910d10fe73c,PennController,2,0,consent,NULL,PennController,0,_Trial_,End,1687287182010,60267ea2c1e12331ce6a3f21,NULL
# Columns below this comment are as follows:
# 14. ID.
# 15. Comments.
1687287535,b7852ac2a62166dac52ab910d10fe73c,PennController,3,0,intro,NULL,PennController,1,_Trial_,Start,1687287182012,60267ea2c1e12331ce6a3f21,60267ea2c1e12331ce6a3f21,NULL
1687287535,b7852ac2a62166dac52ab910d10fe73c,PennController,3,0,intro,NULL,PennController,1,_Header_,Start,1687287182012,60267ea2c1e12331ce6a3f21,60267ea2c1e12331ce6a3f21,NULL
1687287535,b7852ac2a62166dac52ab910d10fe73c,PennController,3,0,intro,NULL,PennController,1,_Header_,End,1687287182012,60267ea2c1e12331ce6a3f21,60267ea2c1e12331ce6a3f21,NULL
1687287535,b7852ac2a62166dac52ab910d10fe73c,PennController,3,0,intro,NULL,PennController,1,_Trial_,End,1687287206397,60267ea2c1e12331ce6a3f21,60267ea2c1e12331ce6a3f21,NULL
# Columns below this comment are as follows:
# 15. item_number.
# 16. item.
# 17. type.
# 18. Group.
# 19. prog.
# 20. prev_image.
# 21. next_image.
# 22. height.
# 23. Comments.
1687287535,b7852ac2a62166dac52ab910d10fe73c,PennController,28,0,experiment,NULL,PennController,27,_Trial_,Start,1687287206400,60267ea2c1e12331ce6a3f21,60267ea2c1e12331ce6a3f21,25,house,filler,D,25,house15.jpg,house35.jpg,GoalB,NULL
1687287535,b7852ac2a62166dac52ab910d10fe73c,PennController,28,0,experiment,NULL,PennController,27,_Header_,Start,1687287206400,60267ea2c1e12331ce6a3f21,60267ea2c1e12331ce6a3f21,25,house,filler,D,25,house15.jpg,house35.jpg,GoalB,NULL
1687287535,b7852ac2a62166dac52ab910d10fe73c,PennController,28,0,experiment,NULL,PennController,27,_Header_,End,1687287206400,60267ea2c1e12331ce6a3f21,60267ea2c1e12331ce6a3f21,25,house,filler,D,25,house15.jpg,house35.jpg,GoalB,NULL
1687287535,b7852ac2a62166dac52ab910d10fe73c,PennController,28,0,experiment,NULL,Canvas,canvas6,Print,NA,1687287212093,60267ea2c1e12331ce6a3f21,60267ea2c1e12331ce6a3f21,25,house,filler,D,25,house15.jpg,house35.jpg,GoalB,NULL
1687287535,b7852ac2a62166dac52ab910d10fe73c,PennController,28,0,experiment,NULL,Video,progression,buffer,0.002751,1687287209931,60267ea2c1e12331ce6a3f21,60267ea2c1e12331ce6a3f21,25,house,filler,D,25,house15.jpg,house35.jpg,GoalB,NULL
1687287535,b7852ac2a62166dac52ab910d10fe73c,PennController,28,0,experiment,NULL,Selector,choice,Selection,option2,1687287215807,60267ea2c1e12331ce6a3f21,60267ea2c1e12331ce6a3f21,25,house,filler,D,25,house15.jpg,house35.jpg,GoalB,option2;option1
1687287535,b7852ac2a62166dac52ab910d10fe73c,PennController,28,0,experiment,NULL,PennController,27,_Trial_,End,1687287215809,60267ea2c1e12331ce6a3f21,60267ea2c1e12331ce6a3f21,25,house,filler,D,25,house15.jpg,house35.jpg,GoalB,NULL
1687287535,b7852ac2a62166dac52ab910d10fe73c,PennController,24,0,experiment,NULL,PennController,23,_Trial_,Start,1687287215810,60267ea2c1e12331ce6a3f21,60267ea2c1e12331ce6a3f21,21,visit,filler,D,75,visit65.jpg,visit85.jpg,GoalB,NULL
1687287535,b7852ac2a62166dac52ab910d10fe73c,PennController,24,0,experiment,NULL,PennController,23,_Header_,Start,1687287215810,60267ea2c1e12331ce6a3f21,60267ea2c1e12331ce6a3f21,21,visit,filler,D,75,visit65.jpg,visit85.jpg,GoalB,NULL
1687287535,b7852ac2a62166dac52ab910d10fe73c,PennController,24,0,experiment,NULL,PennController,23,_Header_,End,1687287215810,60267ea2c1e12331ce6a3f21,60267ea2c1e12331ce6a3f21,21,visit,filler,D,75,visit65.jpg,visit85.jpg,GoalB,NULL
1687287535,b7852ac2a62166dac52ab910d10fe73c,PennController,24,0,experiment,NULL,Canvas,canvas6,Print,NA,1687287223492,60267ea2c1e12331ce6a3f21,60267ea2c1e12331ce6a3f21,21,visit,filler,D,75,visit65.jpg,visit85.jpg,GoalB,NULL
1687287535,b7852ac2a62166dac52ab910d10fe73c,PennController,24,0,experiment,NULL,Video,progression,buffer,0.00249,1687287219332,60267ea2c1e12331ce6a3f21,60267ea2c1e12331ce6a3f21,21,visit,filler,D,75,visit65.jpg,visit85.jpg,GoalB,NULL
1687287535,b7852ac2a62166dac52ab910d10fe73c,PennController,24,0,experiment,NULL,Selector,choice,Selection,option2,1687287226488,60267ea2c1e12331ce6a3f21,60267ea2c1e12331ce6a3f21,21,visit,filler,D,75,visit65.jpg,visit85.jpg,GoalB,option2;option1
1687287535,b7852ac2a62166dac52ab910d10fe73c,PennController,24,0,experiment,NULL,PennController,23,_Trial_,End,1687287226489,60267ea2c1e12331ce6a3f21,60267ea2c1e12331ce6a3f21,21,visit,filler,D,75,visit65.jpg,visit85.jpg,GoalB,NULL
1687287535,b7852ac2a62166dac52ab910d10fe73c,PennController,14,0,experiment,NULL,PennController,13,_Trial_,Start,1687287226490,60267ea2c1e12331ce6a3f21,60267ea2c1e12331ce6a3f21,11,beads,critical,D,50,beads40.jpg,beads60.jpg,high,NULL
1687287535,b7852ac2a62166dac52ab910d10fe73c,PennController,14,0,experiment,NULL,PennController,13,_Header_,Start,1687287226490,60267ea2c1e12331ce6a3f21,60267ea2c1e12331ce6a3f21,11,beads,critical,D,50,beads40.jpg,beads60.jpg,high,NULL
1687287535,b7852ac2a62166dac52ab910d10fe73c,PennController,14,0,experiment,NULL,PennController,13,_Header_,End,1687287226490,60267ea2c1e12331ce6a3f21,60267ea2c1e12331ce6a3f21,11,beads,critical,D,50,beads40.jpg,beads60.jpg,high,NULL
1687287535,b7852ac2a62166dac52ab910d10fe73c,PennController,14,0,experiment,NULL,Canvas,canvas6,Print,NA,1687287233177,60267ea2c1e12331ce6a3f21,60267ea2c1e12331ce6a3f21,11,beads,critical,D,50,beads40.jpg,beads60.jpg,high,NULL
1687287535,b7852ac2a62166dac52ab910d10fe73c,PennController,14,0,experiment,NULL,Video,progression,buffer,0.003584,1687287230010,60267ea2c1e12331ce6a3f21,60267ea2c1e12331ce6a3f21,11,beads,critical,D,50,beads40.jpg,beads60.jpg,high,NULL
1687287535,b7852ac2a62166dac52ab910d10fe73c,PennController,14,0,experiment,NULL,Selector,choice,Selection,option2,1687287234664,60267ea2c1e12331ce6a3f21,60267ea2c1e12331ce6a3f21,11,beads,critical,D,50,beads40.jpg,beads60.jpg,high,option2;option1
1687287535,b7852ac2a62166dac52ab910d10fe73c,PennController,14,0,experiment,NULL,PennController,13,_Trial_,End,1687287234665,60267ea2c1e12331ce6a3f21,60267ea2c1e12331ce6a3f21,11,beads,critical,D,50,beads40.jpg,beads60.jpg,high,NULL
1687287535,b7852ac2a62166dac52ab910d10fe73c,PennController,9,0,experiment,NULL,PennController,8,_Trial_,Start,1687287234666,60267ea2c1e12331ce6a3f21,60267ea2c1e12331ce6a3f21,6,flower,critical,D,75,flower65.jpg,flower85.jpg,high,NULL
1687287535,b7852ac2a62166dac52ab910d10fe73c,PennController,9,0,experiment,NULL,PennController,8,_Header_,Start,1687287234666,60267ea2c1e12331ce6a3f21,60267ea2c1e12331ce6a3f21,6,flower,critical,D,75,flower65.jpg,flower85.jpg,high,NULL
1687287535,b7852ac2a62166dac52ab910d10fe73c,PennController,9,0,experiment,NULL,PennController,8,_Header_,End,1687287234666,60267ea2c1e12331ce6a3f21,60267ea2c1e12331ce6a3f21,6,flower,critical,D,75,flower65.jpg,flower85.jpg,high,NULL
1687287535,b7852ac2a62166dac52ab910d10fe73c,PennController,9,0,experiment,NULL,Canvas,canvas6,Print,NA,1687287242342,60267ea2c1e12331ce6a3f21,60267ea2c1e12331ce6a3f21,6,flower,critical,D,75,flower65.jpg,flower85.jpg,high,NULL
1687287535,b7852ac2a62166dac52ab910d10fe73c,PennController,9,0,experiment,NULL,Video,progression,buffer,0.002857,1687287238185,60267ea2c1e12331ce6a3f21,60267ea2c1e12331ce6a3f21,6,flower,critical,D,75,flower65.jpg,flower85.jpg,high,NULL
1687287535,b7852ac2a62166dac52ab910d10fe73c,PennController,9,0,experiment,NULL,Selector,choice,Selection,option2,1687287244055,60267ea2c1e12331ce6a3f21,60267ea2c1e12331ce6a3f21,6,flower,critical,D,75,flower65.jpg,flower85.jpg,high,option1;option2
1687287535,b7852ac2a62166dac52ab910d10fe73c,PennController,9,0,experiment,NULL,PennController,8,_Trial_,End,1687287244056,60267ea2c1e12331ce6a3f21,60267ea2c1e12331ce6a3f21,6,flower,critical,D,75,flower65.jpg,flower85.jpg,high,NULL
1687287535,b7852ac2a62166dac52ab910d10fe73c,PennController,20,0,experiment,NULL,PennController,19,_Trial_,Start,1687287244057,60267ea2c1e12331ce6a3f21,60267ea2c1e12331ce6a3f21,17,roll,critical,D,50,roll40.jpg,roll60.jpg,high,NULL
1687287535,b7852ac2a62166dac52ab910d10fe73c,PennController,20,0,experiment,NULL,PennController,19,_Header_,Start,1687287244057,60267ea2c1e12331ce6a3f21,60267ea2c1e12331ce6a3f21,17,roll,critical,D,50,roll40.jpg,roll60.jpg,high,NULL
1687287535,b7852ac2a62166dac52ab910d10fe73c,PennController,20,0,experiment,NULL,PennController,19,_Header_,End,1687287244057,60267ea2c1e12331ce6a3f21,60267ea2c1e12331ce6a3f21,17,roll,critical,D,50,roll40.jpg,roll60.jpg,high,NULL
1687287535,b7852ac2a62166dac52ab910d10fe73c,PennController,20,0,experiment,NULL,Canvas,canvas6,Print,NA,1687287250776,60267ea2c1e12331ce6a3f21,60267ea2c1e12331ce6a3f21,17,roll,critical,D,50,roll40.jpg,roll60.jpg,high,NULL
1687287535,b7852ac2a62166dac52ab910d10fe73c,PennController,20,0,experiment,NULL,Video,progression,buffer,0,1687287247575,60267ea2c1e12331ce6a3f21,60267ea2c1e12331ce6a3f21,17,roll,critical,D,50,roll40.jpg,roll60.jpg,high,NULL
1687287535,b7852ac2a62166dac52ab910d10fe73c,PennController,20,0,experiment,NULL,Selector,choice,Selection,option1,1687287253666,60267ea2c1e12331ce6a3f21,60267ea2c1e12331ce6a3f21,17,roll,critical,D,50,roll40.jpg,roll60.jpg,high,option1;option2
1687287535,b7852ac2a62166dac52ab910d10fe73c,PennController,20,0,experiment,NULL,PennController,19,_Trial_,End,1687287253667,60267ea2c1e12331ce6a3f21,60267ea2c1e12331ce6a3f21,17,roll,critical,D,50,roll40.jpg,roll60.jpg,high,NULL
1687287535,b7852ac2a62166dac52ab910d10fe73c,PennController,32,0,experiment,NULL,PennController,31,_Trial_,Start,1687287253668,60267ea2c1e12331ce6a3f21,60267ea2c1e12331ce6a3f21,29,frog,filler,D,50,frog40.jpg,frog60.jpg,GoalB,NULL
1687287535,b7852ac2a62166dac52ab910d10fe73c,PennController,32,0,experiment,NULL,PennController,31,_Header_,Start,1687287253668,60267ea2c1e12331ce6a3f21,60267ea2c1e12331ce6a3f21,29,frog,filler,D,50,frog40.jpg,frog60.jpg,GoalB,NULL
1687287535,b7852ac2a62166dac52ab910d10fe73c,PennController,32,0,experiment,NULL,PennController,31,_Header_,End,1687287253668,60267ea2c1e12331ce6a3f21,60267ea2c1e12331ce6a3f21,29,frog,filler,D,50,frog40.jpg,frog60.jpg,GoalB,NULL
1687287535,b7852ac2a62166dac52ab910d10fe73c,PennController,32,0,experiment,NULL,Canvas,canvas6,Print,NA,1687287260342,60267ea2c1e12331ce6a3f21,60267ea2c1e12331ce6a3f21,29,frog,filler,D,50,frog40.jpg,frog60.jpg,GoalB,NULL
1687287535,b7852ac2a62166dac52ab910d10fe73c,PennController,32,0,experiment,NULL,Video,progression,buffer,0.002311,1687287257187,60267ea2c1e12331ce6a3f21,60267ea2c1e12331ce6a3f21,29,frog,filler,D,50,frog40.jpg,frog60.jpg,GoalB,NULL
1687287535,b7852ac2a62166dac52ab910d10fe73c,PennController,32,0,experiment,NULL,Selector,choice,Selection,option2,1687287262679,60267ea2c1e12331ce6a3f21,60267ea2c1e12331ce6a3f21,29,frog,filler,D,50,frog40.jpg,frog60.jpg,GoalB,option1;option2
1687287535,b7852ac2a62166dac52ab910d10fe73c,PennController,32,0,experiment,NULL,PennController,31,_Trial_,End,1687287262680,60267ea2c1e12331ce6a3f21,60267ea2c1e12331ce6a3f21,29,frog,filler,D,50,frog40.jpg,frog60.jpg,GoalB,NULL
1687287535,b7852ac2a62166dac52ab910d10fe73c,PennController,30,0,experiment,NULL,PennController,29,_Trial_,Start,1687287262681,60267ea2c1e12331ce6a3f21,60267ea2c1e12331ce6a3f21,27,square,filler,D,75,square65.jpg,square85.jpg,GoalB,NULL
1687287535,b7852ac2a62166dac52ab910d10fe73c,PennController,30,0,experiment,NULL,PennController,29,_Header_,Start,1687287262681,60267ea2c1e12331ce6a3f21,60267ea2c1e12331ce6a3f21,27,square,filler,D,75,square65.jpg,square85.jpg,GoalB,NULL
1687287535,b7852ac2a62166dac52ab910d10fe73c,PennController,30,0,experiment,NULL,PennController,29,_Header_,End,1687287262681,60267ea2c1e12331ce6a3f21,60267ea2c1e12331ce6a3f21,27,square,filler,D,75,square65.jpg,square85.jpg,GoalB,NULL
1687287535,b7852ac2a62166dac52ab910d10fe73c,PennController,30,0,experiment,NULL,Canvas,canvas6,Print,NA,1687287270360,60267ea2c1e12331ce6a3f21,60267ea2c1e12331ce6a3f21,27,square,filler,D,75,square65.jpg,square85.jpg,GoalB,NULL
1687287535,b7852ac2a62166dac52ab910d10fe73c,PennController,30,0,experiment,NULL,Video,progression,buffer,0.003571,1687287266197,60267ea2c1e12331ce6a3f21,60267ea2c1e12331ce6a3f21,27,square,filler,D,75,square65.jpg,square85.jpg,GoalB,NULL
1687287535,b7852ac2a62166dac52ab910d10fe73c,PennController,30,0,experiment,NULL,Selector,choice,Selection,option2,1687287273229,60267ea2c1e12331ce6a3f21,60267ea2c1e12331ce6a3f21,27,square,filler,D,75,square65.jpg,square85.jpg,GoalB,option2;option1
1687287535,b7852ac2a62166dac52ab910d10fe73c,PennController,30,0,experiment,NULL,PennController,29,_Trial_,End,1687287273230,60267ea2c1e12331ce6a3f21,60267ea2c1e12331ce6a3f21,27,square,filler,D,75,square65.jpg,square85.jpg,GoalB,NULL
1687287535,b7852ac2a62166dac52ab910d10fe73c,PennController,19,0,experiment,NULL,PennController,18,_Trial_,Start,1687287273231,60267ea2c1e12331ce6a3f21,60267ea2c1e12331ce6a3f21,16,blinds,critical,D,25,blinds15.jpg,blinds33.jpg,high,NULL
1687287535,b7852ac2a62166dac52ab910d10fe73c,PennController,19,0,experiment,NULL,PennController,18,_Header_,Start,1687287273231,60267ea2c1e12331ce6a3f21,60267ea2c1e12331ce6a3f21,16,blinds,critical,D,25,blinds15.jpg,blinds33.jpg,high,NULL
1687287535,b7852ac2a62166dac52ab910d10fe73c,PennController,19,0,experiment,NULL,PennController,18,_Header_,End,1687287273231,60267ea2c1e12331ce6a3f21,60267ea2c1e12331ce6a3f21,16,blinds,critical,D,25,blinds15.jpg,blinds33.jpg,high,NULL
1687287535,b7852ac2a62166dac52ab910d10fe73c,PennController,19,0,experiment,NULL,Canvas,canvas6,Print,NA,1687287279509,60267ea2c1e12331ce6a3f21,60267ea2c1e12331ce6a3f21,16,blinds,critical,D,25,blinds15.jpg,blinds33.jpg,high,NULL
1687287535,b7852ac2a62166dac52ab910d10fe73c,PennController,19,0,experiment,NULL,Video,progression,buffer,0.002735,1687287276751,60267ea2c1e12331ce6a3f21,60267ea2c1e12331ce6a3f21,16,blinds,critical,D,25,blinds15.jpg,blinds33.jpg,high,NULL
1687287535,b7852ac2a62166dac52ab910d10fe73c,PennController,19,0,experiment,NULL,Selector,choice,Selection,option1,1687287288994,60267ea2c1e12331ce6a3f21,60267ea2c1e12331ce6a3f21,16,blinds,critical,D,25,blinds15.jpg,blinds33.jpg,high,option1;option2
1687287535,b7852ac2a62166dac52ab910d10fe73c,PennController,19,0,experiment,NULL,PennController,18,_Trial_,End,1687287288995,60267ea2c1e12331ce6a3f21,60267ea2c1e12331ce6a3f21,16,blinds,critical,D,25,blinds15.jpg,blinds33.jpg,high,NULL
1687287535,b7852ac2a62166dac52ab910d10fe73c,PennController,6,0,experiment,NULL,PennController,5,_Trial_,Start,1687287288996,60267ea2c1e12331ce6a3f21,60267ea2c1e12331ce6a3f21,3,clean,critical,D,75,clean65.jpg,clean85.jpg,high,NULL
1687287535,b7852ac2a62166dac52ab910d10fe73c,PennController,6,0,experiment,NULL,PennController,5,_Header_,Start,1687287288996,60267ea2c1e12331ce6a3f21,60267ea2c1e12331ce6a3f21,3,clean,critical,D,75,clean65.jpg,clean85.jpg,high,NULL
1687287535,b7852ac2a62166dac52ab910d10fe73c,PennController,6,0,experiment,NULL,PennController,5,_Header_,End,1687287288996,60267ea2c1e12331ce6a3f21,60267ea2c1e12331ce6a3f21,3,clean,critical,D,75,clean65.jpg,clean85.jpg,high,NULL
1687287535,b7852ac2a62166dac52ab910d10fe73c,PennController,6,0,experiment,NULL,Canvas,canvas6,Print,NA,1687287296676,60267ea2c1e12331ce6a3f21,60267ea2c1e12331ce6a3f21,3,clean,critical,D,75,clean65.jpg,clean85.jpg,high,NULL
1687287535,b7852ac2a62166dac52ab910d10fe73c,PennController,6,0,experiment,NULL,Video,progression,buffer,0.002588,1687287292517,60267ea2c1e12331ce6a3f21,60267ea2c1e12331ce6a3f21,3,clean,critical,D,75,clean65.jpg,clean85.jpg,high,NULL
1687287535,b7852ac2a62166dac52ab910d10fe73c,PennController,6,0,experiment,NULL,Selector,choice,Selection,option1,1687287298255,60267ea2c1e12331ce6a3f21,60267ea2c1e12331ce6a3f21,3,clean,critical,D,75,clean65.jpg,clean85.jpg,high,option1;option2
1687287535,b7852ac2a62166dac52ab910d10fe73c,PennController,6,0,experiment,NULL,PennController,5,_Trial_,End,1687287298256,60267ea2c1e12331ce6a3f21,60267ea2c1e12331ce6a3f21,3,clean,critical,D,75,clean65.jpg,clean85.jpg,high,NULL
1687287535,b7852ac2a62166dac52ab910d10fe73c,PennController,25,0,experiment,NULL,PennController,24,_Trial_,Start,1687287298257,60267ea2c1e12331ce6a3f21,60267ea2c1e12331ce6a3f21,22,wall,filler,D,25,wall15.jpg,wall35.jpg,GoalA,NULL
1687287535,b7852ac2a62166dac52ab910d10fe73c,PennController,25,0,experiment,NULL,PennController,24,_Header_,Start,1687287298257,60267ea2c1e12331ce6a3f21,60267ea2c1e12331ce6a3f21,22,wall,filler,D,25,wall15.jpg,wall35.jpg,GoalA,NULL
1687287535,b7852ac2a62166dac52ab910d10fe73c,PennController,25,0,experiment,NULL,PennController,24,_Header_,End,1687287298257,60267ea2c1e12331ce6a3f21,60267ea2c1e12331ce6a3f21,22,wall,filler,D,25,wall15.jpg,wall35.jpg,GoalA,NULL
1687287535,b7852ac2a62166dac52ab910d10fe73c,PennController,25,0,experiment,NULL,Canvas,canvas6,Print,NA,1687287303946,60267ea2c1e12331ce6a3f21,60267ea2c1e12331ce6a3f21,22,wall,filler,D,25,wall15.jpg,wall35.jpg,GoalA,NULL
1687287535,b7852ac2a62166dac52ab910d10fe73c,PennController,25,0,experiment,NULL,Video,progression,buffer,0.003941,1687287301775,60267ea2c1e12331ce6a3f21,60267ea2c1e12331ce6a3f21,22,wall,filler,D,25,wall15.jpg,wall35.jpg,GoalA,NULL
1687287535,b7852ac2a62166dac52ab910d10fe73c,PennController,25,0,experiment,NULL,Selector,choice,Selection,option2,1687287315379,60267ea2c1e12331ce6a3f21,60267ea2c1e12331ce6a3f21,22,wall,filler,D,25,wall15.jpg,wall35.jpg,GoalA,option2;option1
1687287535,b7852ac2a62166dac52ab910d10fe73c,PennController,25,0,experiment,NULL,PennController,24,_Trial_,End,1687287315380,60267ea2c1e12331ce6a3f21,60267ea2c1e12331ce6a3f21,22,wall,filler,D,25,wall15.jpg,wall35.jpg,GoalA,NULL
1687287535,b7852ac2a62166dac52ab910d10fe73c,PennController,11,0,experiment,NULL,PennController,10,_Trial_,Start,1687287315381,60267ea2c1e12331ce6a3f21,60267ea2c1e12331ce6a3f21,8,cucumber,critical,D,50,cucumber42.jpg,cucumber60.jpg,high,NULL
1687287535,b7852ac2a62166dac52ab910d10fe73c,PennController,11,0,experiment,NULL,PennController,10,_Header_,Start,1687287315381,60267ea2c1e12331ce6a3f21,60267ea2c1e12331ce6a3f21,8,cucumber,critical,D,50,cucumber42.jpg,cucumber60.jpg,high,NULL
1687287535,b7852ac2a62166dac52ab910d10fe73c,PennController,11,0,experiment,NULL,PennController,10,_Header_,End,1687287315381,60267ea2c1e12331ce6a3f21,60267ea2c1e12331ce6a3f21,8,cucumber,critical,D,50,cucumber42.jpg,cucumber60.jpg,high,NULL
1687287535,b7852ac2a62166dac52ab910d10fe73c,PennController,11,0,experiment,NULL,Canvas,canvas6,Print,NA,1687287323462,60267ea2c1e12331ce6a3f21,60267ea2c1e12331ce6a3f21,8,cucumber,critical,D,50,cucumber42.jpg,cucumber60.jpg,high,NULL
1687287535,b7852ac2a62166dac52ab910d10fe73c,PennController,11,0,experiment,NULL,Video,progression,buffer,0.002364,1687287318895,60267ea2c1e12331ce6a3f21,60267ea2c1e12331ce6a3f21,8,cucumber,critical,D,50,cucumber42.jpg,cucumber60.jpg,high,NULL
1687287535,b7852ac2a62166dac52ab910d10fe73c,PennController,11,0,experiment,NULL,Selector,choice,Selection,option1,1687287327318,60267ea2c1e12331ce6a3f21,60267ea2c1e12331ce6a3f21,8,cucumber,critical,D,50,cucumber42.jpg,cucumber60.jpg,high,option1;option2
1687287535,b7852ac2a62166dac52ab910d10fe73c,PennController,11,0,experiment,NULL,PennController,10,_Trial_,End,1687287327319,60267ea2c1e12331ce6a3f21,60267ea2c1e12331ce6a3f21,8,cucumber,critical,D,50,cucumber42.jpg,cucumber60.jpg,high,NULL
1687287535,b7852ac2a62166dac52ab910d10fe73c,PennController,27,0,experiment,NULL,PennController,26,_Trial_,Start,1687287327320,60267ea2c1e12331ce6a3f21,60267ea2c1e12331ce6a3f21,24,match,filler,D,75,match65.jpg,match85.jpg,GoalA,NULL
1687287535,b7852ac2a62166dac52ab910d10fe73c,PennController,27,0,experiment,NULL,PennController,26,_Header_,Start,1687287327320,60267ea2c1e12331ce6a3f21,60267ea2c1e12331ce6a3f21,24,match,filler,D,75,match65.jpg,match85.jpg,GoalA,NULL
1687287535,b7852ac2a62166dac52ab910d10fe73c,PennController,27,0,experiment,NULL,PennController,26,_Header_,End,1687287327320,60267ea2c1e12331ce6a3f21,60267ea2c1e12331ce6a3f21,24,match,filler,D,75,match65.jpg,match85.jpg,GoalA,NULL
1687287535,b7852ac2a62166dac52ab910d10fe73c,PennController,27,0,experiment,NULL,Canvas,canvas6,Print,NA,1687287335013,60267ea2c1e12331ce6a3f21,60267ea2c1e12331ce6a3f21,24,match,filler,D,75,match65.jpg,match85.jpg,GoalA,NULL
1687287535,b7852ac2a62166dac52ab910d10fe73c,PennController,27,0,experiment,NULL,Video,progression,buffer,0.004402,1687287330844,60267ea2c1e12331ce6a3f21,60267ea2c1e12331ce6a3f21,24,match,filler,D,75,match65.jpg,match85.jpg,GoalA,NULL
1687287535,b7852ac2a62166dac52ab910d10fe73c,PennController,27,0,experiment,NULL,Selector,choice,Selection,option1,1687287340606,60267ea2c1e12331ce6a3f21,60267ea2c1e12331ce6a3f21,24,match,filler,D,75,match65.jpg,match85.jpg,GoalA,option1;option2
1687287535,b7852ac2a62166dac52ab910d10fe73c,PennController,27,0,experiment,NULL,PennController,26,_Trial_,End,1687287340607,60267ea2c1e12331ce6a3f21,60267ea2c1e12331ce6a3f21,24,match,filler,D,75,match65.jpg,match85.jpg,GoalA,NULL
1687287535,b7852ac2a62166dac52ab910d10fe73c,PennController,22,0,experiment,NULL,PennController,21,_Trial_,Start,1687287340608,60267ea2c1e12331ce6a3f21,60267ea2c1e12331ce6a3f21,19,cup,filler,D,25,cup15.jpg,cup35.jpg,GoalB,NULL
1687287535,b7852ac2a62166dac52ab910d10fe73c,PennController,22,0,experiment,NULL,PennController,21,_Header_,Start,1687287340608,60267ea2c1e12331ce6a3f21,60267ea2c1e12331ce6a3f21,19,cup,filler,D,25,cup15.jpg,cup35.jpg,GoalB,NULL
1687287535,b7852ac2a62166dac52ab910d10fe73c,PennController,22,0,experiment,NULL,PennController,21,_Header_,End,1687287340608,60267ea2c1e12331ce6a3f21,60267ea2c1e12331ce6a3f21,19,cup,filler,D,25,cup15.jpg,cup35.jpg,GoalB,NULL
1687287535,b7852ac2a62166dac52ab910d10fe73c,PennController,22,0,experiment,NULL,Canvas,canvas6,Print,NA,1687287346293,60267ea2c1e12331ce6a3f21,60267ea2c1e12331ce6a3f21,19,cup,filler,D,25,cup15.jpg,cup35.jpg,GoalB,NULL
1687287535,b7852ac2a62166dac52ab910d10fe73c,PennController,22,0,experiment,NULL,Video,progression,buffer,0.005211,1687287344134,60267ea2c1e12331ce6a3f21,60267ea2c1e12331ce6a3f21,19,cup,filler,D,25,cup15.jpg,cup35.jpg,GoalB,NULL
1687287535,b7852ac2a62166dac52ab910d10fe73c,PennController,22,0,experiment,NULL,Selector,choice,Selection,option2,1687287348412,60267ea2c1e12331ce6a3f21,60267ea2c1e12331ce6a3f21,19,cup,filler,D,25,cup15.jpg,cup35.jpg,GoalB,option2;option1
1687287535,b7852ac2a62166dac52ab910d10fe73c,PennController,22,0,experiment,NULL,PennController,21,_Trial_,End,1687287348413,60267ea2c1e12331ce6a3f21,60267ea2c1e12331ce6a3f21,19,cup,filler,D,25,cup15.jpg,cup35.jpg,GoalB,NULL
1687287535,b7852ac2a62166dac52ab910d10fe73c,PennController,18,0,experiment,NULL,PennController,17,_Trial_,Start,1687287348414,60267ea2c1e12331ce6a3f21,60267ea2c1e12331ce6a3f21,15,zip,critical,D,75,zip65.jpg,zip85.jpg,high,NULL
1687287535,b7852ac2a62166dac52ab910d10fe73c,PennController,18,0,experiment,NULL,PennController,17,_Header_,Start,1687287348414,60267ea2c1e12331ce6a3f21,60267ea2c1e12331ce6a3f21,15,zip,critical,D,75,zip65.jpg,zip85.jpg,high,NULL
1687287535,b7852ac2a62166dac52ab910d10fe73c,PennController,18,0,experiment,NULL,PennController,17,_Header_,End,1687287348414,60267ea2c1e12331ce6a3f21,60267ea2c1e12331ce6a3f21,15,zip,critical,D,75,zip65.jpg,zip85.jpg,high,NULL
1687287535,b7852ac2a62166dac52ab910d10fe73c,PennController,18,0,experiment,NULL,Canvas,canvas6,Print,NA,1687287355298,60267ea2c1e12331ce6a3f21,60267ea2c1e12331ce6a3f21,15,zip,critical,D,75,zip65.jpg,zip85.jpg,high,NULL
1687287535,b7852ac2a62166dac52ab910d10fe73c,PennController,18,0,experiment,NULL,Video,progression,buffer,0.002428,1687287351938,60267ea2c1e12331ce6a3f21,60267ea2c1e12331ce6a3f21,15,zip,critical,D,75,zip65.jpg,zip85.jpg,high,NULL
1687287535,b7852ac2a62166dac52ab910d10fe73c,PennController,18,0,experiment,NULL,Selector,choice,Selection,option1,1687287359022,60267ea2c1e12331ce6a3f21,60267ea2c1e12331ce6a3f21,15,zip,critical,D,75,zip65.jpg,zip85.jpg,high,option2;option1
1687287535,b7852ac2a62166dac52ab910d10fe73c,PennController,18,0,experiment,NULL,PennController,17,_Trial_,End,1687287359023,60267ea2c1e12331ce6a3f21,60267ea2c1e12331ce6a3f21,15,zip,critical,D,75,zip65.jpg,zip85.jpg,high,NULL
1687287535,b7852ac2a62166dac52ab910d10fe73c,PennController,31,0,experiment,NULL,PennController,30,_Trial_,Start,1687287359024,60267ea2c1e12331ce6a3f21,60267ea2c1e12331ce6a3f21,28,sort,filler,D,25,sort15.jpg,sort35.jpg,GoalA,NULL
1687287535,b7852ac2a62166dac52ab910d10fe73c,PennController,31,0,experiment,NULL,PennController,30,_Header_,Start,1687287359024,60267ea2c1e12331ce6a3f21,60267ea2c1e12331ce6a3f21,28,sort,filler,D,25,sort15.jpg,sort35.jpg,GoalA,NULL
1687287535,b7852ac2a62166dac52ab910d10fe73c,PennController,31,0,experiment,NULL,PennController,30,_Header_,End,1687287359024,60267ea2c1e12331ce6a3f21,60267ea2c1e12331ce6a3f21,28,sort,filler,D,25,sort15.jpg,sort35.jpg,GoalA,NULL
1687287535,b7852ac2a62166dac52ab910d10fe73c,PennController,31,0,experiment,NULL,Canvas,canvas6,Print,NA,1687287364717,60267ea2c1e12331ce6a3f21,60267ea2c1e12331ce6a3f21,28,sort,filler,D,25,sort15.jpg,sort35.jpg,GoalA,NULL
1687287535,b7852ac2a62166dac52ab910d10fe73c,PennController,31,0,experiment,NULL,Video,progression,buffer,0.00304,1687287362541,60267ea2c1e12331ce6a3f21,60267ea2c1e12331ce6a3f21,28,sort,filler,D,25,sort15.jpg,sort35.jpg,GoalA,NULL
1687287535,b7852ac2a62166dac52ab910d10fe73c,PennController,31,0,experiment,NULL,Selector,choice,Selection,option2,1687287373102,60267ea2c1e12331ce6a3f21,60267ea2c1e12331ce6a3f21,28,sort,filler,D,25,sort15.jpg,sort35.jpg,GoalA,option1;option2
1687287535,b7852ac2a62166dac52ab910d10fe73c,PennController,31,0,experiment,NULL,PennController,30,_Trial_,End,1687287373103,60267ea2c1e12331ce6a3f21,60267ea2c1e12331ce6a3f21,28,sort,filler,D,25,sort15.jpg,sort35.jpg,GoalA,NULL
1687287535,b7852ac2a62166dac52ab910d10fe73c,PennController,15,0,experiment,NULL,PennController,14,_Trial_,Start,1687287373105,60267ea2c1e12331ce6a3f21,60267ea2c1e12331ce6a3f21,12,erase,critical,D,75,erase66.jpg,erase84.jpg,high,NULL
1687287535,b7852ac2a62166dac52ab910d10fe73c,PennController,15,0,experiment,NULL,PennController,14,_Header_,Start,1687287373105,60267ea2c1e12331ce6a3f21,60267ea2c1e12331ce6a3f21,12,erase,critical,D,75,erase66.jpg,erase84.jpg,high,NULL
1687287535,b7852ac2a62166dac52ab910d10fe73c,PennController,15,0,experiment,NULL,PennController,14,_Header_,End,1687287373105,60267ea2c1e12331ce6a3f21,60267ea2c1e12331ce6a3f21,12,erase,critical,D,75,erase66.jpg,erase84.jpg,high,NULL
1687287535,b7852ac2a62166dac52ab910d10fe73c,PennController,15,0,experiment,NULL,Canvas,canvas6,Print,NA,1687287382796,60267ea2c1e12331ce6a3f21,60267ea2c1e12331ce6a3f21,12,erase,critical,D,75,erase66.jpg,erase84.jpg,high,NULL
1687287535,b7852ac2a62166dac52ab910d10fe73c,PennController,15,0,experiment,NULL,Video,progression,buffer,0.002561,1687287376629,60267ea2c1e12331ce6a3f21,60267ea2c1e12331ce6a3f21,12,erase,critical,D,75,erase66.jpg,erase84.jpg,high,NULL
1687287535,b7852ac2a62166dac52ab910d10fe73c,PennController,15,0,experiment,NULL,Selector,choice,Selection,option2,1687287386920,60267ea2c1e12331ce6a3f21,60267ea2c1e12331ce6a3f21,12,erase,critical,D,75,erase66.jpg,erase84.jpg,high,option2;option1
1687287535,b7852ac2a62166dac52ab910d10fe73c,PennController,15,0,experiment,NULL,PennController,14,_Trial_,End,1687287386921,60267ea2c1e12331ce6a3f21,60267ea2c1e12331ce6a3f21,12,erase,critical,D,75,erase66.jpg,erase84.jpg,high,NULL
1687287535,b7852ac2a62166dac52ab910d10fe73c,PennController,16,0,experiment,NULL,PennController,15,_Trial_,Start,1687287386922,60267ea2c1e12331ce6a3f21,60267ea2c1e12331ce6a3f21,13,mix,critical,D,25,mix15.jpg,mix35.jpg,high,NULL
1687287535,b7852ac2a62166dac52ab910d10fe73c,PennController,16,0,experiment,NULL,PennController,15,_Header_,Start,1687287386922,60267ea2c1e12331ce6a3f21,60267ea2c1e12331ce6a3f21,13,mix,critical,D,25,mix15.jpg,mix35.jpg,high,NULL
1687287535,b7852ac2a62166dac52ab910d10fe73c,PennController,16,0,experiment,NULL,PennController,15,_Header_,End,1687287386922,60267ea2c1e12331ce6a3f21,60267ea2c1e12331ce6a3f21,13,mix,critical,D,25,mix15.jpg,mix35.jpg,high,NULL
1687287535,b7852ac2a62166dac52ab910d10fe73c,PennController,16,0,experiment,NULL,Canvas,canvas6,Print,NA,1687287392609,60267ea2c1e12331ce6a3f21,60267ea2c1e12331ce6a3f21,13,mix,critical,D,25,mix15.jpg,mix35.jpg,high,NULL
1687287535,b7852ac2a62166dac52ab910d10fe73c,PennController,16,0,experiment,NULL,Video,progression,buffer,0.003128,1687287390442,60267ea2c1e12331ce6a3f21,60267ea2c1e12331ce6a3f21,13,mix,critical,D,25,mix15.jpg,mix35.jpg,high,NULL
1687287535,b7852ac2a62166dac52ab910d10fe73c,PennController,16,0,experiment,NULL,Selector,choice,Selection,option2,1687287398137,60267ea2c1e12331ce6a3f21,60267ea2c1e12331ce6a3f21,13,mix,critical,D,25,mix15.jpg,mix35.jpg,high,option1;option2
1687287535,b7852ac2a62166dac52ab910d10fe73c,PennController,16,0,experiment,NULL,PennController,15,_Trial_,End,1687287398139,60267ea2c1e12331ce6a3f21,60267ea2c1e12331ce6a3f21,13,mix,critical,D,25,mix15.jpg,mix35.jpg,high,NULL
1687287535,b7852ac2a62166dac52ab910d10fe73c,PennController,26,0,experiment,NULL,PennController,25,_Trial_,Start,1687287398140,60267ea2c1e12331ce6a3f21,60267ea2c1e12331ce6a3f21,23,color,filler,D,50,color40.jpg,color60.jpg,GoalB,NULL
1687287535,b7852ac2a62166dac52ab910d10fe73c,PennController,26,0,experiment,NULL,PennController,25,_Header_,Start,1687287398140,60267ea2c1e12331ce6a3f21,60267ea2c1e12331ce6a3f21,23,color,filler,D,50,color40.jpg,color60.jpg,GoalB,NULL
1687287535,b7852ac2a62166dac52ab910d10fe73c,PennController,26,0,experiment,NULL,PennController,25,_Header_,End,1687287398140,60267ea2c1e12331ce6a3f21,60267ea2c1e12331ce6a3f21,23,color,filler,D,50,color40.jpg,color60.jpg,GoalB,NULL
1687287535,b7852ac2a62166dac52ab910d10fe73c,PennController,26,0,experiment,NULL,Canvas,canvas6,Print,NA,1687287404832,60267ea2c1e12331ce6a3f21,60267ea2c1e12331ce6a3f21,23,color,filler,D,50,color40.jpg,color60.jpg,GoalB,NULL
1687287535,b7852ac2a62166dac52ab910d10fe73c,PennController,26,0,experiment,NULL,Video,progression,buffer,0.004069,1687287401660,60267ea2c1e12331ce6a3f21,60267ea2c1e12331ce6a3f21,23,color,filler,D,50,color40.jpg,color60.jpg,GoalB,NULL
1687287535,b7852ac2a62166dac52ab910d10fe73c,PennController,26,0,experiment,NULL,Selector,choice,Selection,option2,1687287416102,60267ea2c1e12331ce6a3f21,60267ea2c1e12331ce6a3f21,23,color,filler,D,50,color40.jpg,color60.jpg,GoalB,option2;option1
1687287535,b7852ac2a62166dac52ab910d10fe73c,PennController,26,0,experiment,NULL,PennController,25,_Trial_,End,1687287416103,60267ea2c1e12331ce6a3f21,60267ea2c1e12331ce6a3f21,23,color,filler,D,50,color40.jpg,color60.jpg,GoalB,NULL
1687287535,b7852ac2a62166dac52ab910d10fe73c,PennController,5,0,experiment,NULL,PennController,4,_Trial_,Start,1687287416104,60267ea2c1e12331ce6a3f21,60267ea2c1e12331ce6a3f21,2,door,critical,D,50,door40.jpg,door60.jpg,high,NULL
1687287535,b7852ac2a62166dac52ab910d10fe73c,PennController,5,0,experiment,NULL,PennController,4,_Header_,Start,1687287416104,60267ea2c1e12331ce6a3f21,60267ea2c1e12331ce6a3f21,2,door,critical,D,50,door40.jpg,door60.jpg,high,NULL
1687287535,b7852ac2a62166dac52ab910d10fe73c,PennController,5,0,experiment,NULL,PennController,4,_Header_,End,1687287416104,60267ea2c1e12331ce6a3f21,60267ea2c1e12331ce6a3f21,2,door,critical,D,50,door40.jpg,door60.jpg,high,NULL
1687287535,b7852ac2a62166dac52ab910d10fe73c,PennController,5,0,experiment,NULL,Canvas,canvas6,Print,NA,1687287422780,60267ea2c1e12331ce6a3f21,60267ea2c1e12331ce6a3f21,2,door,critical,D,50,door40.jpg,door60.jpg,high,NULL
1687287535,b7852ac2a62166dac52ab910d10fe73c,PennController,5,0,experiment,NULL,Video,progression,buffer,0.002819,1687287419622,60267ea2c1e12331ce6a3f21,60267ea2c1e12331ce6a3f21,2,door,critical,D,50,door40.jpg,door60.jpg,high,NULL
1687287535,b7852ac2a62166dac52ab910d10fe73c,PennController,5,0,experiment,NULL,Selector,choice,Selection,option1,1687287437393,60267ea2c1e12331ce6a3f21,60267ea2c1e12331ce6a3f21,2,door,critical,D,50,door40.jpg,door60.jpg,high,option2;option1
1687287535,b7852ac2a62166dac52ab910d10fe73c,PennController,5,0,experiment,NULL,PennController,4,_Trial_,End,1687287437394,60267ea2c1e12331ce6a3f21,60267ea2c1e12331ce6a3f21,2,door,critical,D,50,door40.jpg,door60.jpg,high,NULL
1687287535,b7852ac2a62166dac52ab910d10fe73c,PennController,10,0,experiment,NULL,PennController,9,_Trial_,Start,1687287437395,60267ea2c1e12331ce6a3f21,60267ea2c1e12331ce6a3f21,7,stack,critical,D,25,stack15.jpg,stack35.jpg,high,NULL
1687287535,b7852ac2a62166dac52ab910d10fe73c,PennController,10,0,experiment,NULL,PennController,9,_Header_,Start,1687287437395,60267ea2c1e12331ce6a3f21,60267ea2c1e12331ce6a3f21,7,stack,critical,D,25,stack15.jpg,stack35.jpg,high,NULL
1687287535,b7852ac2a62166dac52ab910d10fe73c,PennController,10,0,experiment,NULL,PennController,9,_Header_,End,1687287437395,60267ea2c1e12331ce6a3f21,60267ea2c1e12331ce6a3f21,7,stack,critical,D,25,stack15.jpg,stack35.jpg,high,NULL
1687287535,b7852ac2a62166dac52ab910d10fe73c,PennController,10,0,experiment,NULL,Canvas,canvas6,Print,NA,1687287443080,60267ea2c1e12331ce6a3f21,60267ea2c1e12331ce6a3f21,7,stack,critical,D,25,stack15.jpg,stack35.jpg,high,NULL
1687287535,b7852ac2a62166dac52ab910d10fe73c,PennController,10,0,experiment,NULL,Video,progression,buffer,0.002606,1687287440914,60267ea2c1e12331ce6a3f21,60267ea2c1e12331ce6a3f21,7,stack,critical,D,25,stack15.jpg,stack35.jpg,high,NULL
1687287535,b7852ac2a62166dac52ab910d10fe73c,PennController,10,0,experiment,NULL,Selector,choice,Selection,option1,1687287445143,60267ea2c1e12331ce6a3f21,60267ea2c1e12331ce6a3f21,7,stack,critical,D,25,stack15.jpg,stack35.jpg,high,option1;option2
1687287535,b7852ac2a62166dac52ab910d10fe73c,PennController,10,0,experiment,NULL,PennController,9,_Trial_,End,1687287445144,60267ea2c1e12331ce6a3f21,60267ea2c1e12331ce6a3f21,7,stack,critical,D,25,stack15.jpg,stack35.jpg,high,NULL
1687287535,b7852ac2a62166dac52ab910d10fe73c,PennController,7,0,experiment,NULL,PennController,6,_Trial_,Start,1687287445145,60267ea2c1e12331ce6a3f21,60267ea2c1e12331ce6a3f21,4,candy,critical,D,25,candy15.jpg,candy35.jpg,high,NULL
1687287535,b7852ac2a62166dac52ab910d10fe73c,PennController,7,0,experiment,NULL,PennController,6,_Header_,Start,1687287445145,60267ea2c1e12331ce6a3f21,60267ea2c1e12331ce6a3f21,4,candy,critical,D,25,candy15.jpg,candy35.jpg,high,NULL
1687287535,b7852ac2a62166dac52ab910d10fe73c,PennController,7,0,experiment,NULL,PennController,6,_Header_,End,1687287445145,60267ea2c1e12331ce6a3f21,60267ea2c1e12331ce6a3f21,4,candy,critical,D,25,candy15.jpg,candy35.jpg,high,NULL
1687287535,b7852ac2a62166dac52ab910d10fe73c,PennController,7,0,experiment,NULL,Canvas,canvas6,Print,NA,1687287450832,60267ea2c1e12331ce6a3f21,60267ea2c1e12331ce6a3f21,4,candy,critical,D,25,candy15.jpg,candy35.jpg,high,NULL
1687287535,b7852ac2a62166dac52ab910d10fe73c,PennController,7,0,experiment,NULL,Video,progression,buffer,0.004855,1687287448662,60267ea2c1e12331ce6a3f21,60267ea2c1e12331ce6a3f21,4,candy,critical,D,25,candy15.jpg,candy35.jpg,high,NULL
1687287535,b7852ac2a62166dac52ab910d10fe73c,PennController,7,0,experiment,NULL,Selector,choice,Selection,option2,1687287452433,60267ea2c1e12331ce6a3f21,60267ea2c1e12331ce6a3f21,4,candy,critical,D,25,candy15.jpg,candy35.jpg,high,option2;option1
1687287535,b7852ac2a62166dac52ab910d10fe73c,PennController,7,0,experiment,NULL,PennController,6,_Trial_,End,1687287452434,60267ea2c1e12331ce6a3f21,60267ea2c1e12331ce6a3f21,4,candy,critical,D,25,candy15.jpg,candy35.jpg,high,NULL
1687287535,b7852ac2a62166dac52ab910d10fe73c,PennController,29,0,experiment,NULL,PennController,28,_Trial_,Start,1687287452435,60267ea2c1e12331ce6a3f21,60267ea2c1e12331ce6a3f21,26,sandwich,filler,D,50,sandwich40.jpg,sandwich60.jpg,GoalA,NULL
1687287535,b7852ac2a62166dac52ab910d10fe73c,PennController,29,0,experiment,NULL,PennController,28,_Header_,Start,1687287452435,60267ea2c1e12331ce6a3f21,60267ea2c1e12331ce6a3f21,26,sandwich,filler,D,50,sandwich40.jpg,sandwich60.jpg,GoalA,NULL
1687287535,b7852ac2a62166dac52ab910d10fe73c,PennController,29,0,experiment,NULL,PennController,28,_Header_,End,1687287452435,60267ea2c1e12331ce6a3f21,60267ea2c1e12331ce6a3f21,26,sandwich,filler,D,50,sandwich40.jpg,sandwich60.jpg,GoalA,NULL
1687287535,b7852ac2a62166dac52ab910d10fe73c,PennController,29,0,experiment,NULL,Canvas,canvas6,Print,NA,1687287459117,60267ea2c1e12331ce6a3f21,60267ea2c1e12331ce6a3f21,26,sandwich,filler,D,50,sandwich40.jpg,sandwich60.jpg,GoalA,NULL
1687287535,b7852ac2a62166dac52ab910d10fe73c,PennController,29,0,experiment,NULL,Video,progression,buffer,0.002755,1687287455954,60267ea2c1e12331ce6a3f21,60267ea2c1e12331ce6a3f21,26,sandwich,filler,D,50,sandwich40.jpg,sandwich60.jpg,GoalA,NULL
1687287535,b7852ac2a62166dac52ab910d10fe73c,PennController,29,0,experiment,NULL,Selector,choice,Selection,option1,1687287460411,60267ea2c1e12331ce6a3f21,60267ea2c1e12331ce6a3f21,26,sandwich,filler,D,50,sandwich40.jpg,sandwich60.jpg,GoalA,option2;option1
1687287535,b7852ac2a62166dac52ab910d10fe73c,PennController,29,0,experiment,NULL,PennController,28,_Trial_,End,1687287460412,60267ea2c1e12331ce6a3f21,60267ea2c1e12331ce6a3f21,26,sandwich,filler,D,50,sandwich40.jpg,sandwich60.jpg,GoalA,NULL
1687287535,b7852ac2a62166dac52ab910d10fe73c,PennController,13,0,experiment,NULL,PennController,12,_Trial_,Start,1687287460412,60267ea2c1e12331ce6a3f21,60267ea2c1e12331ce6a3f21,10,train,critical,D,25,train15.jpg,train35.jpg,high,NULL
1687287535,b7852ac2a62166dac52ab910d10fe73c,PennController,13,0,experiment,NULL,PennController,12,_Header_,Start,1687287460412,60267ea2c1e12331ce6a3f21,60267ea2c1e12331ce6a3f21,10,train,critical,D,25,train15.jpg,train35.jpg,high,NULL
1687287535,b7852ac2a62166dac52ab910d10fe73c,PennController,13,0,experiment,NULL,PennController,12,_Header_,End,1687287460412,60267ea2c1e12331ce6a3f21,60267ea2c1e12331ce6a3f21,10,train,critical,D,25,train15.jpg,train35.jpg,high,NULL
1687287535,b7852ac2a62166dac52ab910d10fe73c,PennController,13,0,experiment,NULL,Canvas,canvas6,Print,NA,1687287466097,60267ea2c1e12331ce6a3f21,60267ea2c1e12331ce6a3f21,10,train,critical,D,25,train15.jpg,train35.jpg,high,NULL
1687287535,b7852ac2a62166dac52ab910d10fe73c,PennController,13,0,experiment,NULL,Video,progression,buffer,0.00416,1687287463927,60267ea2c1e12331ce6a3f21,60267ea2c1e12331ce6a3f21,10,train,critical,D,25,train15.jpg,train35.jpg,high,NULL
1687287535,b7852ac2a62166dac52ab910d10fe73c,PennController,13,0,experiment,NULL,Selector,choice,Selection,option1,1687287469359,60267ea2c1e12331ce6a3f21,60267ea2c1e12331ce6a3f21,10,train,critical,D,25,train15.jpg,train35.jpg,high,option1;option2
1687287535,b7852ac2a62166dac52ab910d10fe73c,PennController,13,0,experiment,NULL,PennController,12,_Trial_,End,1687287469360,60267ea2c1e12331ce6a3f21,60267ea2c1e12331ce6a3f21,10,train,critical,D,25,train15.jpg,train35.jpg,high,NULL
1687287535,b7852ac2a62166dac52ab910d10fe73c,PennController,8,0,experiment,NULL,PennController,7,_Trial_,Start,1687287469361,60267ea2c1e12331ce6a3f21,60267ea2c1e12331ce6a3f21,5,book,critical,D,50,book40.jpg,book60.jpg,high,NULL
1687287535,b7852ac2a62166dac52ab910d10fe73c,PennController,8,0,experiment,NULL,PennController,7,_Header_,Start,1687287469361,60267ea2c1e12331ce6a3f21,60267ea2c1e12331ce6a3f21,5,book,critical,D,50,book40.jpg,book60.jpg,high,NULL
1687287535,b7852ac2a62166dac52ab910d10fe73c,PennController,8,0,experiment,NULL,PennController,7,_Header_,End,1687287469361,60267ea2c1e12331ce6a3f21,60267ea2c1e12331ce6a3f21,5,book,critical,D,50,book40.jpg,book60.jpg,high,NULL
1687287535,b7852ac2a62166dac52ab910d10fe73c,PennController,8,0,experiment,NULL,Canvas,canvas6,Print,NA,1687287476051,60267ea2c1e12331ce6a3f21,60267ea2c1e12331ce6a3f21,5,book,critical,D,50,book40.jpg,book60.jpg,high,NULL
1687287535,b7852ac2a62166dac52ab910d10fe73c,PennController,8,0,experiment,NULL,Video,progression,buffer,0.003217,1687287472880,60267ea2c1e12331ce6a3f21,60267ea2c1e12331ce6a3f21,5,book,critical,D,50,book40.jpg,book60.jpg,high,NULL
1687287535,b7852ac2a62166dac52ab910d10fe73c,PennController,8,0,experiment,NULL,Selector,choice,Selection,option1,1687287478944,60267ea2c1e12331ce6a3f21,60267ea2c1e12331ce6a3f21,5,book,critical,D,50,book40.jpg,book60.jpg,high,option1;option2
1687287535,b7852ac2a62166dac52ab910d10fe73c,PennController,8,0,experiment,NULL,PennController,7,_Trial_,End,1687287478945,60267ea2c1e12331ce6a3f21,60267ea2c1e12331ce6a3f21,5,book,critical,D,50,book40.jpg,book60.jpg,high,NULL
1687287535,b7852ac2a62166dac52ab910d10fe73c,PennController,21,0,experiment,NULL,PennController,20,_Trial_,Start,1687287478946,60267ea2c1e12331ce6a3f21,60267ea2c1e12331ce6a3f21,18,ball,critical,D,75,ball65.jpg,ball85.jpg,high,NULL
1687287535,b7852ac2a62166dac52ab910d10fe73c,PennController,21,0,experiment,NULL,PennController,20,_Header_,Start,1687287478946,60267ea2c1e12331ce6a3f21,60267ea2c1e12331ce6a3f21,18,ball,critical,D,75,ball65.jpg,ball85.jpg,high,NULL
1687287535,b7852ac2a62166dac52ab910d10fe73c,PennController,21,0,experiment,NULL,PennController,20,_Header_,End,1687287478946,60267ea2c1e12331ce6a3f21,60267ea2c1e12331ce6a3f21,18,ball,critical,D,75,ball65.jpg,ball85.jpg,high,NULL
1687287535,b7852ac2a62166dac52ab910d10fe73c,PennController,21,0,experiment,NULL,Canvas,canvas6,Print,NA,1687287486629,60267ea2c1e12331ce6a3f21,60267ea2c1e12331ce6a3f21,18,ball,critical,D,75,ball65.jpg,ball85.jpg,high,NULL
1687287535,b7852ac2a62166dac52ab910d10fe73c,PennController,21,0,experiment,NULL,Video,progression,buffer,0.002247,1687287482461,60267ea2c1e12331ce6a3f21,60267ea2c1e12331ce6a3f21,18,ball,critical,D,75,ball65.jpg,ball85.jpg,high,NULL
1687287535,b7852ac2a62166dac52ab910d10fe73c,PennController,21,0,experiment,NULL,Selector,choice,Selection,option2,1687287490365,60267ea2c1e12331ce6a3f21,60267ea2c1e12331ce6a3f21,18,ball,critical,D,75,ball65.jpg,ball85.jpg,high,option2;option1
1687287535,b7852ac2a62166dac52ab910d10fe73c,PennController,21,0,experiment,NULL,PennController,20,_Trial_,End,1687287490366,60267ea2c1e12331ce6a3f21,60267ea2c1e12331ce6a3f21,18,ball,critical,D,75,ball65.jpg,ball85.jpg,high,NULL
1687287535,b7852ac2a62166dac52ab910d10fe73c,PennController,23,0,experiment,NULL,PennController,22,_Trial_,Start,1687287490367,60267ea2c1e12331ce6a3f21,60267ea2c1e12331ce6a3f21,20,cat,filler,D,50,cat40.jpg,cat60.jpg,GoalA,NULL
1687287535,b7852ac2a62166dac52ab910d10fe73c,PennController,23,0,experiment,NULL,PennController,22,_Header_,Start,1687287490367,60267ea2c1e12331ce6a3f21,60267ea2c1e12331ce6a3f21,20,cat,filler,D,50,cat40.jpg,cat60.jpg,GoalA,NULL
1687287535,b7852ac2a62166dac52ab910d10fe73c,PennController,23,0,experiment,NULL,PennController,22,_Header_,End,1687287490367,60267ea2c1e12331ce6a3f21,60267ea2c1e12331ce6a3f21,20,cat,filler,D,50,cat40.jpg,cat60.jpg,GoalA,NULL
1687287535,b7852ac2a62166dac52ab910d10fe73c,PennController,23,0,experiment,NULL,Canvas,canvas6,Print,NA,1687287497045,60267ea2c1e12331ce6a3f21,60267ea2c1e12331ce6a3f21,20,cat,filler,D,50,cat40.jpg,cat60.jpg,GoalA,NULL
1687287535,b7852ac2a62166dac52ab910d10fe73c,PennController,23,0,experiment,NULL,Video,progression,buffer,0.00234,1687287493881,60267ea2c1e12331ce6a3f21,60267ea2c1e12331ce6a3f21,20,cat,filler,D,50,cat40.jpg,cat60.jpg,GoalA,NULL
1687287535,b7852ac2a62166dac52ab910d10fe73c,PennController,23,0,experiment,NULL,Selector,choice,Selection,option2,1687287498465,60267ea2c1e12331ce6a3f21,60267ea2c1e12331ce6a3f21,20,cat,filler,D,50,cat40.jpg,cat60.jpg,GoalA,option2;option1
1687287535,b7852ac2a62166dac52ab910d10fe73c,PennController,23,0,experiment,NULL,PennController,22,_Trial_,End,1687287498466,60267ea2c1e12331ce6a3f21,60267ea2c1e12331ce6a3f21,20,cat,filler,D,50,cat40.jpg,cat60.jpg,GoalA,NULL
1687287535,b7852ac2a62166dac52ab910d10fe73c,PennController,12,0,experiment,NULL,PennController,11,_Trial_,Start,1687287498466,60267ea2c1e12331ce6a3f21,60267ea2c1e12331ce6a3f21,9,cake,critical,D,75,cake66.jpg,cake84.jpg,high,NULL
1687287535,b7852ac2a62166dac52ab910d10fe73c,PennController,12,0,experiment,NULL,PennController,11,_Header_,Start,1687287498466,60267ea2c1e12331ce6a3f21,60267ea2c1e12331ce6a3f21,9,cake,critical,D,75,cake66.jpg,cake84.jpg,high,NULL
1687287535,b7852ac2a62166dac52ab910d10fe73c,PennController,12,0,experiment,NULL,PennController,11,_Header_,End,1687287498466,60267ea2c1e12331ce6a3f21,60267ea2c1e12331ce6a3f21,9,cake,critical,D,75,cake66.jpg,cake84.jpg,high,NULL
1687287535,b7852ac2a62166dac52ab910d10fe73c,PennController,12,0,experiment,NULL,Canvas,canvas6,Print,NA,1687287508148,60267ea2c1e12331ce6a3f21,60267ea2c1e12331ce6a3f21,9,cake,critical,D,75,cake66.jpg,cake84.jpg,high,NULL
1687287535,b7852ac2a62166dac52ab910d10fe73c,PennController,12,0,experiment,NULL,Video,progression,buffer,0.003213,1687287501988,60267ea2c1e12331ce6a3f21,60267ea2c1e12331ce6a3f21,9,cake,critical,D,75,cake66.jpg,cake84.jpg,high,NULL
1687287535,b7852ac2a62166dac52ab910d10fe73c,PennController,12,0,experiment,NULL,Selector,choice,Selection,option1,1687287510663,60267ea2c1e12331ce6a3f21,60267ea2c1e12331ce6a3f21,9,cake,critical,D,75,cake66.jpg,cake84.jpg,high,option1;option2
1687287535,b7852ac2a62166dac52ab910d10fe73c,PennController,12,0,experiment,NULL,PennController,11,_Trial_,End,1687287510664,60267ea2c1e12331ce6a3f21,60267ea2c1e12331ce6a3f21,9,cake,critical,D,75,cake66.jpg,cake84.jpg,high,NULL
1687287535,b7852ac2a62166dac52ab910d10fe73c,PennController,17,0,experiment,NULL,PennController,16,_Trial_,Start,1687287510664,60267ea2c1e12331ce6a3f21,60267ea2c1e12331ce6a3f21,14,cover,critical,D,50,cover42.jpg,cover60.jpg,high,NULL
1687287535,b7852ac2a62166dac52ab910d10fe73c,PennController,17,0,experiment,NULL,PennController,16,_Header_,Start,1687287510664,60267ea2c1e12331ce6a3f21,60267ea2c1e12331ce6a3f21,14,cover,critical,D,50,cover42.jpg,cover60.jpg,high,NULL
1687287535,b7852ac2a62166dac52ab910d10fe73c,PennController,17,0,experiment,NULL,PennController,16,_Header_,End,1687287510664,60267ea2c1e12331ce6a3f21,60267ea2c1e12331ce6a3f21,14,cover,critical,D,50,cover42.jpg,cover60.jpg,high,NULL
1687287535,b7852ac2a62166dac52ab910d10fe73c,PennController,17,0,experiment,NULL,Canvas,canvas6,Print,NA,1687287518744,60267ea2c1e12331ce6a3f21,60267ea2c1e12331ce6a3f21,14,cover,critical,D,50,cover42.jpg,cover60.jpg,high,NULL
1687287535,b7852ac2a62166dac52ab910d10fe73c,PennController,17,0,experiment,NULL,Video,progression,buffer,0.002315,1687287514185,60267ea2c1e12331ce6a3f21,60267ea2c1e12331ce6a3f21,14,cover,critical,D,50,cover42.jpg,cover60.jpg,high,NULL
1687287535,b7852ac2a62166dac52ab910d10fe73c,PennController,17,0,experiment,NULL,Selector,choice,Selection,option1,1687287522833,60267ea2c1e12331ce6a3f21,60267ea2c1e12331ce6a3f21,14,cover,critical,D,50,cover42.jpg,cover60.jpg,high,option1;option2
1687287535,b7852ac2a62166dac52ab910d10fe73c,PennController,17,0,experiment,NULL,PennController,16,_Trial_,End,1687287522834,60267ea2c1e12331ce6a3f21,60267ea2c1e12331ce6a3f21,14,cover,critical,D,50,cover42.jpg,cover60.jpg,high,NULL
1687287535,b7852ac2a62166dac52ab910d10fe73c,PennController,4,0,experiment,NULL,PennController,3,_Trial_,Start,1687287522835,60267ea2c1e12331ce6a3f21,60267ea2c1e12331ce6a3f21,1,vase,critical,D,25,vase15.jpg,vase35.jpg,high,NULL
1687287535,b7852ac2a62166dac52ab910d10fe73c,PennController,4,0,experiment,NULL,PennController,3,_Header_,Start,1687287522835,60267ea2c1e12331ce6a3f21,60267ea2c1e12331ce6a3f21,1,vase,critical,D,25,vase15.jpg,vase35.jpg,high,NULL
1687287535,b7852ac2a62166dac52ab910d10fe73c,PennController,4,0,experiment,NULL,PennController,3,_Header_,End,1687287522835,60267ea2c1e12331ce6a3f21,60267ea2c1e12331ce6a3f21,1,vase,critical,D,25,vase15.jpg,vase35.jpg,high,NULL
1687287535,b7852ac2a62166dac52ab910d10fe73c,PennController,4,0,experiment,NULL,Canvas,canvas6,Print,NA,1687287528516,60267ea2c1e12331ce6a3f21,60267ea2c1e12331ce6a3f21,1,vase,critical,D,25,vase15.jpg,vase35.jpg,high,NULL
1687287535,b7852ac2a62166dac52ab910d10fe73c,PennController,4,0,experiment,NULL,Video,progression,buffer,0.004164,1687287526353,60267ea2c1e12331ce6a3f21,60267ea2c1e12331ce6a3f21,1,vase,critical,D,25,vase15.jpg,vase35.jpg,high,NULL
1687287535,b7852ac2a62166dac52ab910d10fe73c,PennController,4,0,experiment,NULL,Selector,choice,Selection,option2,1687287533218,60267ea2c1e12331ce6a3f21,60267ea2c1e12331ce6a3f21,1,vase,critical,D,25,vase15.jpg,vase35.jpg,high,option1;option2
1687287535,b7852ac2a62166dac52ab910d10fe73c,PennController,4,0,experiment,NULL,PennController,3,_Trial_,End,1687287533219,60267ea2c1e12331ce6a3f21,60267ea2c1e12331ce6a3f21,1,vase,critical,D,25,vase15.jpg,vase35.jpg,high,NULL
