#
# Results on Tuesday June 20 2023 19:00:36 UTC
# USER AGENT: Mozilla/5.0 (Windows NT 10.0; Win64; x64) AppleWebKit/537.36 (KHTML, like Gecko) Chrome/114.0.0.0 Safari/537.36
# Design number was non-random = 17
#
# Columns below this comment are as follows:
# 1. Results reception time.
# 2. MD5 hash of participant's IP address.
# 3. Controller name.
# 4. Order number of item.
# 5. Inner element number.
# 6. Label.
# 7. Latin Square Group.
# 8. PennElementType.
# 9. PennElementName.
# 10. Parameter.
# 11. Value.
# 12. EventTime.
# 13. PROLIFIC_ID.
# 14. Comments.
1687287636,1d4b68cc04d78969b0230bf04662ff13,PennController,2,0,consent,NULL,PennController,0,_Trial_,Start,1687287364385,615f04836985bb3ce5815f3c,NULL
1687287636,1d4b68cc04d78969b0230bf04662ff13,PennController,2,0,consent,NULL,PennController,0,_Header_,Start,1687287364385,615f04836985bb3ce5815f3c,NULL
1687287636,1d4b68cc04d78969b0230bf04662ff13,PennController,2,0,consent,NULL,PennController,0,_Header_,End,1687287364386,615f04836985bb3ce5815f3c,NULL
1687287636,1d4b68cc04d78969b0230bf04662ff13,PennController,2,0,consent,NULL,PennController,0,_Trial_,End,1687287371438,615f04836985bb3ce5815f3c,NULL
# Columns below this comment are as follows:
# 14. ID.
# 15. Comments.
1687287636,1d4b68cc04d78969b0230bf04662ff13,PennController,3,0,intro,NULL,PennController,1,_Trial_,Start,1687287371440,615f04836985bb3ce5815f3c,615f04836985bb3ce5815f3c,NULL
1687287636,1d4b68cc04d78969b0230bf04662ff13,PennController,3,0,intro,NULL,PennController,1,_Header_,Start,1687287371440,615f04836985bb3ce5815f3c,615f04836985bb3ce5815f3c,NULL
1687287636,1d4b68cc04d78969b0230bf04662ff13,PennController,3,0,intro,NULL,PennController,1,_Header_,End,1687287371440,615f04836985bb3ce5815f3c,615f04836985bb3ce5815f3c,NULL
1687287636,1d4b68cc04d78969b0230bf04662ff13,PennController,3,0,intro,NULL,PennController,1,_Trial_,End,1687287383468,615f04836985bb3ce5815f3c,615f04836985bb3ce5815f3c,NULL
# Columns below this comment are as follows:
# 15. item_number.
# 16. item.
# 17. type.
# 18. Group.
# 19. prog.
# 20. prev_image.
# 21. next_image.
# 22. height.
# 23. Comments.
1687287636,1d4b68cc04d78969b0230bf04662ff13,PennController,31,0,experiment,NULL,PennController,30,_Trial_,Start,1687287383469,615f04836985bb3ce5815f3c,615f04836985bb3ce5815f3c,28,sort,filler,F,75,sort65.jpg,sort85.jpg,GoalA,NULL
1687287636,1d4b68cc04d78969b0230bf04662ff13,PennController,31,0,experiment,NULL,PennController,30,_Header_,Start,1687287383469,615f04836985bb3ce5815f3c,615f04836985bb3ce5815f3c,28,sort,filler,F,75,sort65.jpg,sort85.jpg,GoalA,NULL
1687287636,1d4b68cc04d78969b0230bf04662ff13,PennController,31,0,experiment,NULL,PennController,30,_Header_,End,1687287383470,615f04836985bb3ce5815f3c,615f04836985bb3ce5815f3c,28,sort,filler,F,75,sort65.jpg,sort85.jpg,GoalA,NULL
1687287636,1d4b68cc04d78969b0230bf04662ff13,PennController,31,0,experiment,NULL,Canvas,canvas6,Print,NA,1687287391204,615f04836985bb3ce5815f3c,615f04836985bb3ce5815f3c,28,sort,filler,F,75,sort65.jpg,sort85.jpg,GoalA,NULL
1687287636,1d4b68cc04d78969b0230bf04662ff13,PennController,31,0,experiment,NULL,Video,progression,buffer,0.007791,1687287387024,615f04836985bb3ce5815f3c,615f04836985bb3ce5815f3c,28,sort,filler,F,75,sort65.jpg,sort85.jpg,GoalA,NULL
1687287636,1d4b68cc04d78969b0230bf04662ff13,PennController,31,0,experiment,NULL,Selector,choice,Selection,option2,1687287392576,615f04836985bb3ce5815f3c,615f04836985bb3ce5815f3c,28,sort,filler,F,75,sort65.jpg,sort85.jpg,GoalA,option2;option1
1687287636,1d4b68cc04d78969b0230bf04662ff13,PennController,31,0,experiment,NULL,PennController,30,_Trial_,End,1687287392579,615f04836985bb3ce5815f3c,615f04836985bb3ce5815f3c,28,sort,filler,F,75,sort65.jpg,sort85.jpg,GoalA,NULL
1687287636,1d4b68cc04d78969b0230bf04662ff13,PennController,8,0,experiment,NULL,PennController,7,_Trial_,Start,1687287392581,615f04836985bb3ce5815f3c,615f04836985bb3ce5815f3c,5,book,critical,F,25,book15.jpg,book35.jpg,high,NULL
1687287636,1d4b68cc04d78969b0230bf04662ff13,PennController,8,0,experiment,NULL,PennController,7,_Header_,Start,1687287392581,615f04836985bb3ce5815f3c,615f04836985bb3ce5815f3c,5,book,critical,F,25,book15.jpg,book35.jpg,high,NULL
1687287636,1d4b68cc04d78969b0230bf04662ff13,PennController,8,0,experiment,NULL,PennController,7,_Header_,End,1687287392581,615f04836985bb3ce5815f3c,615f04836985bb3ce5815f3c,5,book,critical,F,25,book15.jpg,book35.jpg,high,NULL
1687287636,1d4b68cc04d78969b0230bf04662ff13,PennController,8,0,experiment,NULL,Canvas,canvas6,Print,NA,1687287398290,615f04836985bb3ce5815f3c,615f04836985bb3ce5815f3c,5,book,critical,F,25,book15.jpg,book35.jpg,high,NULL
1687287636,1d4b68cc04d78969b0230bf04662ff13,PennController,8,0,experiment,NULL,Video,progression,buffer,0.012592,1687287396126,615f04836985bb3ce5815f3c,615f04836985bb3ce5815f3c,5,book,critical,F,25,book15.jpg,book35.jpg,high,NULL
1687287636,1d4b68cc04d78969b0230bf04662ff13,PennController,8,0,experiment,NULL,Selector,choice,Selection,option1,1687287399827,615f04836985bb3ce5815f3c,615f04836985bb3ce5815f3c,5,book,critical,F,25,book15.jpg,book35.jpg,high,option2;option1
1687287636,1d4b68cc04d78969b0230bf04662ff13,PennController,8,0,experiment,NULL,PennController,7,_Trial_,End,1687287399830,615f04836985bb3ce5815f3c,615f04836985bb3ce5815f3c,5,book,critical,F,25,book15.jpg,book35.jpg,high,NULL
1687287636,1d4b68cc04d78969b0230bf04662ff13,PennController,22,0,experiment,NULL,PennController,21,_Trial_,Start,1687287399833,615f04836985bb3ce5815f3c,615f04836985bb3ce5815f3c,19,cup,filler,F,75,cup65.jpg,cup85.jpg,GoalB,NULL
1687287636,1d4b68cc04d78969b0230bf04662ff13,PennController,22,0,experiment,NULL,PennController,21,_Header_,Start,1687287399833,615f04836985bb3ce5815f3c,615f04836985bb3ce5815f3c,19,cup,filler,F,75,cup65.jpg,cup85.jpg,GoalB,NULL
1687287636,1d4b68cc04d78969b0230bf04662ff13,PennController,22,0,experiment,NULL,PennController,21,_Header_,End,1687287399833,615f04836985bb3ce5815f3c,615f04836985bb3ce5815f3c,19,cup,filler,F,75,cup65.jpg,cup85.jpg,GoalB,NULL
1687287636,1d4b68cc04d78969b0230bf04662ff13,PennController,22,0,experiment,NULL,Canvas,canvas6,Print,NA,1687287407558,615f04836985bb3ce5815f3c,615f04836985bb3ce5815f3c,19,cup,filler,F,75,cup65.jpg,cup85.jpg,GoalB,NULL
1687287636,1d4b68cc04d78969b0230bf04662ff13,PennController,22,0,experiment,NULL,Video,progression,buffer,0.013981,1687287403392,615f04836985bb3ce5815f3c,615f04836985bb3ce5815f3c,19,cup,filler,F,75,cup65.jpg,cup85.jpg,GoalB,NULL
1687287636,1d4b68cc04d78969b0230bf04662ff13,PennController,22,0,experiment,NULL,Selector,choice,Selection,option1,1687287410936,615f04836985bb3ce5815f3c,615f04836985bb3ce5815f3c,19,cup,filler,F,75,cup65.jpg,cup85.jpg,GoalB,option2;option1
1687287636,1d4b68cc04d78969b0230bf04662ff13,PennController,22,0,experiment,NULL,PennController,21,_Trial_,End,1687287410938,615f04836985bb3ce5815f3c,615f04836985bb3ce5815f3c,19,cup,filler,F,75,cup65.jpg,cup85.jpg,GoalB,NULL
1687287636,1d4b68cc04d78969b0230bf04662ff13,PennController,12,0,experiment,NULL,PennController,11,_Trial_,Start,1687287410940,615f04836985bb3ce5815f3c,615f04836985bb3ce5815f3c,9,cake,critical,F,50,cake42.jpg,cake60.jpg,high,NULL
1687287636,1d4b68cc04d78969b0230bf04662ff13,PennController,12,0,experiment,NULL,PennController,11,_Header_,Start,1687287410940,615f04836985bb3ce5815f3c,615f04836985bb3ce5815f3c,9,cake,critical,F,50,cake42.jpg,cake60.jpg,high,NULL
1687287636,1d4b68cc04d78969b0230bf04662ff13,PennController,12,0,experiment,NULL,PennController,11,_Header_,End,1687287410940,615f04836985bb3ce5815f3c,615f04836985bb3ce5815f3c,9,cake,critical,F,50,cake42.jpg,cake60.jpg,high,NULL
1687287636,1d4b68cc04d78969b0230bf04662ff13,PennController,12,0,experiment,NULL,Canvas,canvas6,Print,NA,1687287419053,615f04836985bb3ce5815f3c,615f04836985bb3ce5815f3c,9,cake,critical,F,50,cake42.jpg,cake60.jpg,high,NULL
1687287636,1d4b68cc04d78969b0230bf04662ff13,PennController,12,0,experiment,NULL,Video,progression,buffer,0.01241,1687287414492,615f04836985bb3ce5815f3c,615f04836985bb3ce5815f3c,9,cake,critical,F,50,cake42.jpg,cake60.jpg,high,NULL
1687287636,1d4b68cc04d78969b0230bf04662ff13,PennController,12,0,experiment,NULL,Selector,choice,Selection,option2,1687287420188,615f04836985bb3ce5815f3c,615f04836985bb3ce5815f3c,9,cake,critical,F,50,cake42.jpg,cake60.jpg,high,option1;option2
1687287636,1d4b68cc04d78969b0230bf04662ff13,PennController,12,0,experiment,NULL,PennController,11,_Trial_,End,1687287420189,615f04836985bb3ce5815f3c,615f04836985bb3ce5815f3c,9,cake,critical,F,50,cake42.jpg,cake60.jpg,high,NULL
1687287636,1d4b68cc04d78969b0230bf04662ff13,PennController,18,0,experiment,NULL,PennController,17,_Trial_,Start,1687287420190,615f04836985bb3ce5815f3c,615f04836985bb3ce5815f3c,15,zip,critical,F,50,zip40.jpg,zip60.jpg,high,NULL
1687287636,1d4b68cc04d78969b0230bf04662ff13,PennController,18,0,experiment,NULL,PennController,17,_Header_,Start,1687287420190,615f04836985bb3ce5815f3c,615f04836985bb3ce5815f3c,15,zip,critical,F,50,zip40.jpg,zip60.jpg,high,NULL
1687287636,1d4b68cc04d78969b0230bf04662ff13,PennController,18,0,experiment,NULL,PennController,17,_Header_,End,1687287420191,615f04836985bb3ce5815f3c,615f04836985bb3ce5815f3c,15,zip,critical,F,50,zip40.jpg,zip60.jpg,high,NULL
1687287636,1d4b68cc04d78969b0230bf04662ff13,PennController,18,0,experiment,NULL,Canvas,canvas6,Print,NA,1687287426913,615f04836985bb3ce5815f3c,615f04836985bb3ce5815f3c,15,zip,critical,F,50,zip40.jpg,zip60.jpg,high,NULL
1687287636,1d4b68cc04d78969b0230bf04662ff13,PennController,18,0,experiment,NULL,Video,progression,buffer,0.006796,1687287423744,615f04836985bb3ce5815f3c,615f04836985bb3ce5815f3c,15,zip,critical,F,50,zip40.jpg,zip60.jpg,high,NULL
1687287636,1d4b68cc04d78969b0230bf04662ff13,PennController,18,0,experiment,NULL,Selector,choice,Selection,option2,1687287428360,615f04836985bb3ce5815f3c,615f04836985bb3ce5815f3c,15,zip,critical,F,50,zip40.jpg,zip60.jpg,high,option2;option1
1687287636,1d4b68cc04d78969b0230bf04662ff13,PennController,18,0,experiment,NULL,PennController,17,_Trial_,End,1687287428362,615f04836985bb3ce5815f3c,615f04836985bb3ce5815f3c,15,zip,critical,F,50,zip40.jpg,zip60.jpg,high,NULL
1687287636,1d4b68cc04d78969b0230bf04662ff13,PennController,19,0,experiment,NULL,PennController,18,_Trial_,Start,1687287428364,615f04836985bb3ce5815f3c,615f04836985bb3ce5815f3c,16,blinds,critical,F,75,blinds66.jpg,blinds84.jpg,high,NULL
1687287636,1d4b68cc04d78969b0230bf04662ff13,PennController,19,0,experiment,NULL,PennController,18,_Header_,Start,1687287428364,615f04836985bb3ce5815f3c,615f04836985bb3ce5815f3c,16,blinds,critical,F,75,blinds66.jpg,blinds84.jpg,high,NULL
1687287636,1d4b68cc04d78969b0230bf04662ff13,PennController,19,0,experiment,NULL,PennController,18,_Header_,End,1687287428364,615f04836985bb3ce5815f3c,615f04836985bb3ce5815f3c,16,blinds,critical,F,75,blinds66.jpg,blinds84.jpg,high,NULL
1687287636,1d4b68cc04d78969b0230bf04662ff13,PennController,19,0,experiment,NULL,Canvas,canvas6,Print,NA,1687287438068,615f04836985bb3ce5815f3c,615f04836985bb3ce5815f3c,16,blinds,critical,F,75,blinds66.jpg,blinds84.jpg,high,NULL
1687287636,1d4b68cc04d78969b0230bf04662ff13,PennController,19,0,experiment,NULL,Video,progression,buffer,0.011059,1687287431900,615f04836985bb3ce5815f3c,615f04836985bb3ce5815f3c,16,blinds,critical,F,75,blinds66.jpg,blinds84.jpg,high,NULL
1687287636,1d4b68cc04d78969b0230bf04662ff13,PennController,19,0,experiment,NULL,Selector,choice,Selection,option2,1687287439372,615f04836985bb3ce5815f3c,615f04836985bb3ce5815f3c,16,blinds,critical,F,75,blinds66.jpg,blinds84.jpg,high,option2;option1
1687287636,1d4b68cc04d78969b0230bf04662ff13,PennController,19,0,experiment,NULL,PennController,18,_Trial_,End,1687287439374,615f04836985bb3ce5815f3c,615f04836985bb3ce5815f3c,16,blinds,critical,F,75,blinds66.jpg,blinds84.jpg,high,NULL
1687287636,1d4b68cc04d78969b0230bf04662ff13,PennController,26,0,experiment,NULL,PennController,25,_Trial_,Start,1687287439375,615f04836985bb3ce5815f3c,615f04836985bb3ce5815f3c,23,color,filler,F,25,color15.jpg,color35.jpg,GoalB,NULL
1687287636,1d4b68cc04d78969b0230bf04662ff13,PennController,26,0,experiment,NULL,PennController,25,_Header_,Start,1687287439375,615f04836985bb3ce5815f3c,615f04836985bb3ce5815f3c,23,color,filler,F,25,color15.jpg,color35.jpg,GoalB,NULL
1687287636,1d4b68cc04d78969b0230bf04662ff13,PennController,26,0,experiment,NULL,PennController,25,_Header_,End,1687287439375,615f04836985bb3ce5815f3c,615f04836985bb3ce5815f3c,23,color,filler,F,25,color15.jpg,color35.jpg,GoalB,NULL
1687287636,1d4b68cc04d78969b0230bf04662ff13,PennController,26,0,experiment,NULL,Canvas,canvas6,Print,NA,1687287445079,615f04836985bb3ce5815f3c,615f04836985bb3ce5815f3c,23,color,filler,F,25,color15.jpg,color35.jpg,GoalB,NULL
1687287636,1d4b68cc04d78969b0230bf04662ff13,PennController,26,0,experiment,NULL,Video,progression,buffer,0.007035,1687287442918,615f04836985bb3ce5815f3c,615f04836985bb3ce5815f3c,23,color,filler,F,25,color15.jpg,color35.jpg,GoalB,NULL
1687287636,1d4b68cc04d78969b0230bf04662ff13,PennController,26,0,experiment,NULL,Selector,choice,Selection,option2,1687287447620,615f04836985bb3ce5815f3c,615f04836985bb3ce5815f3c,23,color,filler,F,25,color15.jpg,color35.jpg,GoalB,option2;option1
1687287636,1d4b68cc04d78969b0230bf04662ff13,PennController,26,0,experiment,NULL,PennController,25,_Trial_,End,1687287447622,615f04836985bb3ce5815f3c,615f04836985bb3ce5815f3c,23,color,filler,F,25,color15.jpg,color35.jpg,GoalB,NULL
1687287636,1d4b68cc04d78969b0230bf04662ff13,PennController,28,0,experiment,NULL,PennController,27,_Trial_,Start,1687287447623,615f04836985bb3ce5815f3c,615f04836985bb3ce5815f3c,25,house,filler,F,75,house65.jpg,house85.jpg,GoalB,NULL
1687287636,1d4b68cc04d78969b0230bf04662ff13,PennController,28,0,experiment,NULL,PennController,27,_Header_,Start,1687287447623,615f04836985bb3ce5815f3c,615f04836985bb3ce5815f3c,25,house,filler,F,75,house65.jpg,house85.jpg,GoalB,NULL
1687287636,1d4b68cc04d78969b0230bf04662ff13,PennController,28,0,experiment,NULL,PennController,27,_Header_,End,1687287447624,615f04836985bb3ce5815f3c,615f04836985bb3ce5815f3c,25,house,filler,F,75,house65.jpg,house85.jpg,GoalB,NULL
1687287636,1d4b68cc04d78969b0230bf04662ff13,PennController,28,0,experiment,NULL,Canvas,canvas6,Print,NA,1687287455336,615f04836985bb3ce5815f3c,615f04836985bb3ce5815f3c,25,house,filler,F,75,house65.jpg,house85.jpg,GoalB,NULL
1687287636,1d4b68cc04d78969b0230bf04662ff13,PennController,28,0,experiment,NULL,Video,progression,buffer,0.014584,1687287451171,615f04836985bb3ce5815f3c,615f04836985bb3ce5815f3c,25,house,filler,F,75,house65.jpg,house85.jpg,GoalB,NULL
1687287636,1d4b68cc04d78969b0230bf04662ff13,PennController,28,0,experiment,NULL,Selector,choice,Selection,option1,1687287457628,615f04836985bb3ce5815f3c,615f04836985bb3ce5815f3c,25,house,filler,F,75,house65.jpg,house85.jpg,GoalB,option2;option1
1687287636,1d4b68cc04d78969b0230bf04662ff13,PennController,28,0,experiment,NULL,PennController,27,_Trial_,End,1687287457629,615f04836985bb3ce5815f3c,615f04836985bb3ce5815f3c,25,house,filler,F,75,house65.jpg,house85.jpg,GoalB,NULL
1687287636,1d4b68cc04d78969b0230bf04662ff13,PennController,14,0,experiment,NULL,PennController,13,_Trial_,Start,1687287457631,615f04836985bb3ce5815f3c,615f04836985bb3ce5815f3c,11,beads,critical,F,25,beads15.jpg,beads35.jpg,high,NULL
1687287636,1d4b68cc04d78969b0230bf04662ff13,PennController,14,0,experiment,NULL,PennController,13,_Header_,Start,1687287457631,615f04836985bb3ce5815f3c,615f04836985bb3ce5815f3c,11,beads,critical,F,25,beads15.jpg,beads35.jpg,high,NULL
1687287636,1d4b68cc04d78969b0230bf04662ff13,PennController,14,0,experiment,NULL,PennController,13,_Header_,End,1687287457631,615f04836985bb3ce5815f3c,615f04836985bb3ce5815f3c,11,beads,critical,F,25,beads15.jpg,beads35.jpg,high,NULL
1687287636,1d4b68cc04d78969b0230bf04662ff13,PennController,14,0,experiment,NULL,Canvas,canvas6,Print,NA,1687287463331,615f04836985bb3ce5815f3c,615f04836985bb3ce5815f3c,11,beads,critical,F,25,beads15.jpg,beads35.jpg,high,NULL
1687287636,1d4b68cc04d78969b0230bf04662ff13,PennController,14,0,experiment,NULL,Video,progression,buffer,0.00967,1687287461171,615f04836985bb3ce5815f3c,615f04836985bb3ce5815f3c,11,beads,critical,F,25,beads15.jpg,beads35.jpg,high,NULL
1687287636,1d4b68cc04d78969b0230bf04662ff13,PennController,14,0,experiment,NULL,Selector,choice,Selection,option2,1687287464668,615f04836985bb3ce5815f3c,615f04836985bb3ce5815f3c,11,beads,critical,F,25,beads15.jpg,beads35.jpg,high,option2;option1
1687287636,1d4b68cc04d78969b0230bf04662ff13,PennController,14,0,experiment,NULL,PennController,13,_Trial_,End,1687287464670,615f04836985bb3ce5815f3c,615f04836985bb3ce5815f3c,11,beads,critical,F,25,beads15.jpg,beads35.jpg,high,NULL
1687287636,1d4b68cc04d78969b0230bf04662ff13,PennController,29,0,experiment,NULL,PennController,28,_Trial_,Start,1687287464672,615f04836985bb3ce5815f3c,615f04836985bb3ce5815f3c,26,sandwich,filler,F,25,sandwich15.jpg,sandwich35.jpg,GoalA,NULL
1687287636,1d4b68cc04d78969b0230bf04662ff13,PennController,29,0,experiment,NULL,PennController,28,_Header_,Start,1687287464672,615f04836985bb3ce5815f3c,615f04836985bb3ce5815f3c,26,sandwich,filler,F,25,sandwich15.jpg,sandwich35.jpg,GoalA,NULL
1687287636,1d4b68cc04d78969b0230bf04662ff13,PennController,29,0,experiment,NULL,PennController,28,_Header_,End,1687287464672,615f04836985bb3ce5815f3c,615f04836985bb3ce5815f3c,26,sandwich,filler,F,25,sandwich15.jpg,sandwich35.jpg,GoalA,NULL
1687287636,1d4b68cc04d78969b0230bf04662ff13,PennController,29,0,experiment,NULL,Canvas,canvas6,Print,NA,1687287470397,615f04836985bb3ce5815f3c,615f04836985bb3ce5815f3c,26,sandwich,filler,F,25,sandwich15.jpg,sandwich35.jpg,GoalA,NULL
1687287636,1d4b68cc04d78969b0230bf04662ff13,PennController,29,0,experiment,NULL,Video,progression,buffer,0.0122,1687287468228,615f04836985bb3ce5815f3c,615f04836985bb3ce5815f3c,26,sandwich,filler,F,25,sandwich15.jpg,sandwich35.jpg,GoalA,NULL
1687287636,1d4b68cc04d78969b0230bf04662ff13,PennController,29,0,experiment,NULL,Selector,choice,Selection,option1,1687287471719,615f04836985bb3ce5815f3c,615f04836985bb3ce5815f3c,26,sandwich,filler,F,25,sandwich15.jpg,sandwich35.jpg,GoalA,option2;option1
1687287636,1d4b68cc04d78969b0230bf04662ff13,PennController,29,0,experiment,NULL,PennController,28,_Trial_,End,1687287471721,615f04836985bb3ce5815f3c,615f04836985bb3ce5815f3c,26,sandwich,filler,F,25,sandwich15.jpg,sandwich35.jpg,GoalA,NULL
1687287636,1d4b68cc04d78969b0230bf04662ff13,PennController,30,0,experiment,NULL,PennController,29,_Trial_,Start,1687287471723,615f04836985bb3ce5815f3c,615f04836985bb3ce5815f3c,27,square,filler,F,50,square40.jpg,square60.jpg,GoalB,NULL
1687287636,1d4b68cc04d78969b0230bf04662ff13,PennController,30,0,experiment,NULL,PennController,29,_Header_,Start,1687287471723,615f04836985bb3ce5815f3c,615f04836985bb3ce5815f3c,27,square,filler,F,50,square40.jpg,square60.jpg,GoalB,NULL
1687287636,1d4b68cc04d78969b0230bf04662ff13,PennController,30,0,experiment,NULL,PennController,29,_Header_,End,1687287471723,615f04836985bb3ce5815f3c,615f04836985bb3ce5815f3c,27,square,filler,F,50,square40.jpg,square60.jpg,GoalB,NULL
1687287636,1d4b68cc04d78969b0230bf04662ff13,PennController,30,0,experiment,NULL,Canvas,canvas6,Print,NA,1687287478433,615f04836985bb3ce5815f3c,615f04836985bb3ce5815f3c,27,square,filler,F,50,square40.jpg,square60.jpg,GoalB,NULL
1687287636,1d4b68cc04d78969b0230bf04662ff13,PennController,30,0,experiment,NULL,Video,progression,buffer,0.010783,1687287475269,615f04836985bb3ce5815f3c,615f04836985bb3ce5815f3c,27,square,filler,F,50,square40.jpg,square60.jpg,GoalB,NULL
1687287636,1d4b68cc04d78969b0230bf04662ff13,PennController,30,0,experiment,NULL,Selector,choice,Selection,option1,1687287480308,615f04836985bb3ce5815f3c,615f04836985bb3ce5815f3c,27,square,filler,F,50,square40.jpg,square60.jpg,GoalB,option1;option2
1687287636,1d4b68cc04d78969b0230bf04662ff13,PennController,30,0,experiment,NULL,PennController,29,_Trial_,End,1687287480310,615f04836985bb3ce5815f3c,615f04836985bb3ce5815f3c,27,square,filler,F,50,square40.jpg,square60.jpg,GoalB,NULL
1687287636,1d4b68cc04d78969b0230bf04662ff13,PennController,32,0,experiment,NULL,PennController,31,_Trial_,Start,1687287480311,615f04836985bb3ce5815f3c,615f04836985bb3ce5815f3c,29,frog,filler,F,25,frog15.jpg,frog35.jpg,GoalB,NULL
1687287636,1d4b68cc04d78969b0230bf04662ff13,PennController,32,0,experiment,NULL,PennController,31,_Header_,Start,1687287480311,615f04836985bb3ce5815f3c,615f04836985bb3ce5815f3c,29,frog,filler,F,25,frog15.jpg,frog35.jpg,GoalB,NULL
1687287636,1d4b68cc04d78969b0230bf04662ff13,PennController,32,0,experiment,NULL,PennController,31,_Header_,End,1687287480311,615f04836985bb3ce5815f3c,615f04836985bb3ce5815f3c,29,frog,filler,F,25,frog15.jpg,frog35.jpg,GoalB,NULL
1687287636,1d4b68cc04d78969b0230bf04662ff13,PennController,32,0,experiment,NULL,Canvas,canvas6,Print,NA,1687287486026,615f04836985bb3ce5815f3c,615f04836985bb3ce5815f3c,29,frog,filler,F,25,frog15.jpg,frog35.jpg,GoalB,NULL
1687287636,1d4b68cc04d78969b0230bf04662ff13,PennController,32,0,experiment,NULL,Video,progression,buffer,0.01057,1687287483863,615f04836985bb3ce5815f3c,615f04836985bb3ce5815f3c,29,frog,filler,F,25,frog15.jpg,frog35.jpg,GoalB,NULL
1687287636,1d4b68cc04d78969b0230bf04662ff13,PennController,32,0,experiment,NULL,Selector,choice,Selection,option2,1687287487168,615f04836985bb3ce5815f3c,615f04836985bb3ce5815f3c,29,frog,filler,F,25,frog15.jpg,frog35.jpg,GoalB,option1;option2
1687287636,1d4b68cc04d78969b0230bf04662ff13,PennController,32,0,experiment,NULL,PennController,31,_Trial_,End,1687287487169,615f04836985bb3ce5815f3c,615f04836985bb3ce5815f3c,29,frog,filler,F,25,frog15.jpg,frog35.jpg,GoalB,NULL
1687287636,1d4b68cc04d78969b0230bf04662ff13,PennController,25,0,experiment,NULL,PennController,24,_Trial_,Start,1687287487171,615f04836985bb3ce5815f3c,615f04836985bb3ce5815f3c,22,wall,filler,F,75,wall65.jpg,wall85.jpg,GoalA,NULL
1687287636,1d4b68cc04d78969b0230bf04662ff13,PennController,25,0,experiment,NULL,PennController,24,_Header_,Start,1687287487171,615f04836985bb3ce5815f3c,615f04836985bb3ce5815f3c,22,wall,filler,F,75,wall65.jpg,wall85.jpg,GoalA,NULL
1687287636,1d4b68cc04d78969b0230bf04662ff13,PennController,25,0,experiment,NULL,PennController,24,_Header_,End,1687287487171,615f04836985bb3ce5815f3c,615f04836985bb3ce5815f3c,22,wall,filler,F,75,wall65.jpg,wall85.jpg,GoalA,NULL
1687287636,1d4b68cc04d78969b0230bf04662ff13,PennController,25,0,experiment,NULL,Canvas,canvas6,Print,NA,1687287494875,615f04836985bb3ce5815f3c,615f04836985bb3ce5815f3c,22,wall,filler,F,75,wall65.jpg,wall85.jpg,GoalA,NULL
1687287636,1d4b68cc04d78969b0230bf04662ff13,PennController,25,0,experiment,NULL,Video,progression,buffer,0.002829,1687287490705,615f04836985bb3ce5815f3c,615f04836985bb3ce5815f3c,22,wall,filler,F,75,wall65.jpg,wall85.jpg,GoalA,NULL
1687287636,1d4b68cc04d78969b0230bf04662ff13,PennController,25,0,experiment,NULL,Selector,choice,Selection,option2,1687287496044,615f04836985bb3ce5815f3c,615f04836985bb3ce5815f3c,22,wall,filler,F,75,wall65.jpg,wall85.jpg,GoalA,option1;option2
1687287636,1d4b68cc04d78969b0230bf04662ff13,PennController,25,0,experiment,NULL,PennController,24,_Trial_,End,1687287496045,615f04836985bb3ce5815f3c,615f04836985bb3ce5815f3c,22,wall,filler,F,75,wall65.jpg,wall85.jpg,GoalA,NULL
1687287636,1d4b68cc04d78969b0230bf04662ff13,PennController,16,0,experiment,NULL,PennController,15,_Trial_,Start,1687287496047,615f04836985bb3ce5815f3c,615f04836985bb3ce5815f3c,13,mix,critical,F,75,mix65.jpg,mix85.jpg,high,NULL
1687287636,1d4b68cc04d78969b0230bf04662ff13,PennController,16,0,experiment,NULL,PennController,15,_Header_,Start,1687287496047,615f04836985bb3ce5815f3c,615f04836985bb3ce5815f3c,13,mix,critical,F,75,mix65.jpg,mix85.jpg,high,NULL
1687287636,1d4b68cc04d78969b0230bf04662ff13,PennController,16,0,experiment,NULL,PennController,15,_Header_,End,1687287496047,615f04836985bb3ce5815f3c,615f04836985bb3ce5815f3c,13,mix,critical,F,75,mix65.jpg,mix85.jpg,high,NULL
1687287636,1d4b68cc04d78969b0230bf04662ff13,PennController,16,0,experiment,NULL,Canvas,canvas6,Print,NA,1687287503766,615f04836985bb3ce5815f3c,615f04836985bb3ce5815f3c,13,mix,critical,F,75,mix65.jpg,mix85.jpg,high,NULL
1687287636,1d4b68cc04d78969b0230bf04662ff13,PennController,16,0,experiment,NULL,Video,progression,buffer,0.013666,1687287499593,615f04836985bb3ce5815f3c,615f04836985bb3ce5815f3c,13,mix,critical,F,75,mix65.jpg,mix85.jpg,high,NULL
1687287636,1d4b68cc04d78969b0230bf04662ff13,PennController,16,0,experiment,NULL,Selector,choice,Selection,option2,1687287505155,615f04836985bb3ce5815f3c,615f04836985bb3ce5815f3c,13,mix,critical,F,75,mix65.jpg,mix85.jpg,high,option2;option1
1687287636,1d4b68cc04d78969b0230bf04662ff13,PennController,16,0,experiment,NULL,PennController,15,_Trial_,End,1687287505157,615f04836985bb3ce5815f3c,615f04836985bb3ce5815f3c,13,mix,critical,F,75,mix65.jpg,mix85.jpg,high,NULL
1687287636,1d4b68cc04d78969b0230bf04662ff13,PennController,9,0,experiment,NULL,PennController,8,_Trial_,Start,1687287505159,615f04836985bb3ce5815f3c,615f04836985bb3ce5815f3c,6,flower,critical,F,50,flower40.jpg,flower60.jpg,high,NULL
1687287636,1d4b68cc04d78969b0230bf04662ff13,PennController,9,0,experiment,NULL,PennController,8,_Header_,Start,1687287505159,615f04836985bb3ce5815f3c,615f04836985bb3ce5815f3c,6,flower,critical,F,50,flower40.jpg,flower60.jpg,high,NULL
1687287636,1d4b68cc04d78969b0230bf04662ff13,PennController,9,0,experiment,NULL,PennController,8,_Header_,End,1687287505159,615f04836985bb3ce5815f3c,615f04836985bb3ce5815f3c,6,flower,critical,F,50,flower40.jpg,flower60.jpg,high,NULL
1687287636,1d4b68cc04d78969b0230bf04662ff13,PennController,9,0,experiment,NULL,Canvas,canvas6,Print,NA,1687287511864,615f04836985bb3ce5815f3c,615f04836985bb3ce5815f3c,6,flower,critical,F,50,flower40.jpg,flower60.jpg,high,NULL
1687287636,1d4b68cc04d78969b0230bf04662ff13,PennController,9,0,experiment,NULL,Video,progression,buffer,0.004369,1687287508692,615f04836985bb3ce5815f3c,615f04836985bb3ce5815f3c,6,flower,critical,F,50,flower40.jpg,flower60.jpg,high,NULL
1687287636,1d4b68cc04d78969b0230bf04662ff13,PennController,9,0,experiment,NULL,Selector,choice,Selection,option1,1687287512812,615f04836985bb3ce5815f3c,615f04836985bb3ce5815f3c,6,flower,critical,F,50,flower40.jpg,flower60.jpg,high,option1;option2
1687287636,1d4b68cc04d78969b0230bf04662ff13,PennController,9,0,experiment,NULL,PennController,8,_Trial_,End,1687287512814,615f04836985bb3ce5815f3c,615f04836985bb3ce5815f3c,6,flower,critical,F,50,flower40.jpg,flower60.jpg,high,NULL
1687287636,1d4b68cc04d78969b0230bf04662ff13,PennController,5,0,experiment,NULL,PennController,4,_Trial_,Start,1687287512815,615f04836985bb3ce5815f3c,615f04836985bb3ce5815f3c,2,door,critical,F,25,door15.jpg,door35.jpg,high,NULL
1687287636,1d4b68cc04d78969b0230bf04662ff13,PennController,5,0,experiment,NULL,PennController,4,_Header_,Start,1687287512815,615f04836985bb3ce5815f3c,615f04836985bb3ce5815f3c,2,door,critical,F,25,door15.jpg,door35.jpg,high,NULL
1687287636,1d4b68cc04d78969b0230bf04662ff13,PennController,5,0,experiment,NULL,PennController,4,_Header_,End,1687287512815,615f04836985bb3ce5815f3c,615f04836985bb3ce5815f3c,2,door,critical,F,25,door15.jpg,door35.jpg,high,NULL
1687287636,1d4b68cc04d78969b0230bf04662ff13,PennController,5,0,experiment,NULL,Canvas,canvas6,Print,NA,1687287518528,615f04836985bb3ce5815f3c,615f04836985bb3ce5815f3c,2,door,critical,F,25,door15.jpg,door35.jpg,high,NULL
1687287636,1d4b68cc04d78969b0230bf04662ff13,PennController,5,0,experiment,NULL,Video,progression,buffer,0.008275,1687287516367,615f04836985bb3ce5815f3c,615f04836985bb3ce5815f3c,2,door,critical,F,25,door15.jpg,door35.jpg,high,NULL
1687287636,1d4b68cc04d78969b0230bf04662ff13,PennController,5,0,experiment,NULL,Selector,choice,Selection,option2,1687287519696,615f04836985bb3ce5815f3c,615f04836985bb3ce5815f3c,2,door,critical,F,25,door15.jpg,door35.jpg,high,option2;option1
1687287636,1d4b68cc04d78969b0230bf04662ff13,PennController,5,0,experiment,NULL,PennController,4,_Trial_,End,1687287519697,615f04836985bb3ce5815f3c,615f04836985bb3ce5815f3c,2,door,critical,F,25,door15.jpg,door35.jpg,high,NULL
1687287636,1d4b68cc04d78969b0230bf04662ff13,PennController,13,0,experiment,NULL,PennController,12,_Trial_,Start,1687287519699,615f04836985bb3ce5815f3c,615f04836985bb3ce5815f3c,10,train,critical,F,75,train65.jpg,train85.jpg,high,NULL
1687287636,1d4b68cc04d78969b0230bf04662ff13,PennController,13,0,experiment,NULL,PennController,12,_Header_,Start,1687287519699,615f04836985bb3ce5815f3c,615f04836985bb3ce5815f3c,10,train,critical,F,75,train65.jpg,train85.jpg,high,NULL
1687287636,1d4b68cc04d78969b0230bf04662ff13,PennController,13,0,experiment,NULL,PennController,12,_Header_,End,1687287519699,615f04836985bb3ce5815f3c,615f04836985bb3ce5815f3c,10,train,critical,F,75,train65.jpg,train85.jpg,high,NULL
1687287636,1d4b68cc04d78969b0230bf04662ff13,PennController,13,0,experiment,NULL,Canvas,canvas6,Print,NA,1687287527418,615f04836985bb3ce5815f3c,615f04836985bb3ce5815f3c,10,train,critical,F,75,train65.jpg,train85.jpg,high,NULL
1687287636,1d4b68cc04d78969b0230bf04662ff13,PennController,13,0,experiment,NULL,Video,progression,buffer,0.010644,1687287523244,615f04836985bb3ce5815f3c,615f04836985bb3ce5815f3c,10,train,critical,F,75,train65.jpg,train85.jpg,high,NULL
1687287636,1d4b68cc04d78969b0230bf04662ff13,PennController,13,0,experiment,NULL,Selector,choice,Selection,option2,1687287528795,615f04836985bb3ce5815f3c,615f04836985bb3ce5815f3c,10,train,critical,F,75,train65.jpg,train85.jpg,high,option1;option2
1687287636,1d4b68cc04d78969b0230bf04662ff13,PennController,13,0,experiment,NULL,PennController,12,_Trial_,End,1687287528797,615f04836985bb3ce5815f3c,615f04836985bb3ce5815f3c,10,train,critical,F,75,train65.jpg,train85.jpg,high,NULL
1687287636,1d4b68cc04d78969b0230bf04662ff13,PennController,17,0,experiment,NULL,PennController,16,_Trial_,Start,1687287528799,615f04836985bb3ce5815f3c,615f04836985bb3ce5815f3c,14,cover,critical,F,25,cover15.jpg,cover33.jpg,high,NULL
1687287636,1d4b68cc04d78969b0230bf04662ff13,PennController,17,0,experiment,NULL,PennController,16,_Header_,Start,1687287528799,615f04836985bb3ce5815f3c,615f04836985bb3ce5815f3c,14,cover,critical,F,25,cover15.jpg,cover33.jpg,high,NULL
1687287636,1d4b68cc04d78969b0230bf04662ff13,PennController,17,0,experiment,NULL,PennController,16,_Header_,End,1687287528799,615f04836985bb3ce5815f3c,615f04836985bb3ce5815f3c,14,cover,critical,F,25,cover15.jpg,cover33.jpg,high,NULL
1687287636,1d4b68cc04d78969b0230bf04662ff13,PennController,17,0,experiment,NULL,Canvas,canvas6,Print,NA,1687287535116,615f04836985bb3ce5815f3c,615f04836985bb3ce5815f3c,14,cover,critical,F,25,cover15.jpg,cover33.jpg,high,NULL
1687287636,1d4b68cc04d78969b0230bf04662ff13,PennController,17,0,experiment,NULL,Video,progression,buffer,0.011157,1687287532349,615f04836985bb3ce5815f3c,615f04836985bb3ce5815f3c,14,cover,critical,F,25,cover15.jpg,cover33.jpg,high,NULL
1687287636,1d4b68cc04d78969b0230bf04662ff13,PennController,17,0,experiment,NULL,Selector,choice,Selection,option1,1687287536381,615f04836985bb3ce5815f3c,615f04836985bb3ce5815f3c,14,cover,critical,F,25,cover15.jpg,cover33.jpg,high,option2;option1
1687287636,1d4b68cc04d78969b0230bf04662ff13,PennController,17,0,experiment,NULL,PennController,16,_Trial_,End,1687287536383,615f04836985bb3ce5815f3c,615f04836985bb3ce5815f3c,14,cover,critical,F,25,cover15.jpg,cover33.jpg,high,NULL
1687287636,1d4b68cc04d78969b0230bf04662ff13,PennController,24,0,experiment,NULL,PennController,23,_Trial_,Start,1687287536385,615f04836985bb3ce5815f3c,615f04836985bb3ce5815f3c,21,visit,filler,F,50,visit40.jpg,visit60.jpg,GoalB,NULL
1687287636,1d4b68cc04d78969b0230bf04662ff13,PennController,24,0,experiment,NULL,PennController,23,_Header_,Start,1687287536386,615f04836985bb3ce5815f3c,615f04836985bb3ce5815f3c,21,visit,filler,F,50,visit40.jpg,visit60.jpg,GoalB,NULL
1687287636,1d4b68cc04d78969b0230bf04662ff13,PennController,24,0,experiment,NULL,PennController,23,_Header_,End,1687287536386,615f04836985bb3ce5815f3c,615f04836985bb3ce5815f3c,21,visit,filler,F,50,visit40.jpg,visit60.jpg,GoalB,NULL
1687287636,1d4b68cc04d78969b0230bf04662ff13,PennController,24,0,experiment,NULL,Canvas,canvas6,Print,NA,1687287543071,615f04836985bb3ce5815f3c,615f04836985bb3ce5815f3c,21,visit,filler,F,50,visit40.jpg,visit60.jpg,GoalB,NULL
1687287636,1d4b68cc04d78969b0230bf04662ff13,PennController,24,0,experiment,NULL,Video,progression,buffer,0.003015,1687287539910,615f04836985bb3ce5815f3c,615f04836985bb3ce5815f3c,21,visit,filler,F,50,visit40.jpg,visit60.jpg,GoalB,NULL
1687287636,1d4b68cc04d78969b0230bf04662ff13,PennController,24,0,experiment,NULL,Selector,choice,Selection,option1,1687287544795,615f04836985bb3ce5815f3c,615f04836985bb3ce5815f3c,21,visit,filler,F,50,visit40.jpg,visit60.jpg,GoalB,option2;option1
1687287636,1d4b68cc04d78969b0230bf04662ff13,PennController,24,0,experiment,NULL,PennController,23,_Trial_,End,1687287544797,615f04836985bb3ce5815f3c,615f04836985bb3ce5815f3c,21,visit,filler,F,50,visit40.jpg,visit60.jpg,GoalB,NULL
1687287636,1d4b68cc04d78969b0230bf04662ff13,PennController,23,0,experiment,NULL,PennController,22,_Trial_,Start,1687287544799,615f04836985bb3ce5815f3c,615f04836985bb3ce5815f3c,20,cat,filler,F,25,cat15.jpg,cat35.jpg,GoalA,NULL
1687287636,1d4b68cc04d78969b0230bf04662ff13,PennController,23,0,experiment,NULL,PennController,22,_Header_,Start,1687287544799,615f04836985bb3ce5815f3c,615f04836985bb3ce5815f3c,20,cat,filler,F,25,cat15.jpg,cat35.jpg,GoalA,NULL
1687287636,1d4b68cc04d78969b0230bf04662ff13,PennController,23,0,experiment,NULL,PennController,22,_Header_,End,1687287544799,615f04836985bb3ce5815f3c,615f04836985bb3ce5815f3c,20,cat,filler,F,25,cat15.jpg,cat35.jpg,GoalA,NULL
1687287636,1d4b68cc04d78969b0230bf04662ff13,PennController,23,0,experiment,NULL,Canvas,canvas6,Print,NA,1687287550516,615f04836985bb3ce5815f3c,615f04836985bb3ce5815f3c,20,cat,filler,F,25,cat15.jpg,cat35.jpg,GoalA,NULL
1687287636,1d4b68cc04d78969b0230bf04662ff13,PennController,23,0,experiment,NULL,Video,progression,buffer,0.004052,1687287548332,615f04836985bb3ce5815f3c,615f04836985bb3ce5815f3c,20,cat,filler,F,25,cat15.jpg,cat35.jpg,GoalA,NULL
1687287636,1d4b68cc04d78969b0230bf04662ff13,PennController,23,0,experiment,NULL,Selector,choice,Selection,option2,1687287553319,615f04836985bb3ce5815f3c,615f04836985bb3ce5815f3c,20,cat,filler,F,25,cat15.jpg,cat35.jpg,GoalA,option1;option2
1687287636,1d4b68cc04d78969b0230bf04662ff13,PennController,23,0,experiment,NULL,PennController,22,_Trial_,End,1687287553321,615f04836985bb3ce5815f3c,615f04836985bb3ce5815f3c,20,cat,filler,F,25,cat15.jpg,cat35.jpg,GoalA,NULL
1687287636,1d4b68cc04d78969b0230bf04662ff13,PennController,10,0,experiment,NULL,PennController,9,_Trial_,Start,1687287553322,615f04836985bb3ce5815f3c,615f04836985bb3ce5815f3c,7,stack,critical,F,75,stack65.jpg,stack85.jpg,high,NULL
1687287636,1d4b68cc04d78969b0230bf04662ff13,PennController,10,0,experiment,NULL,PennController,9,_Header_,Start,1687287553322,615f04836985bb3ce5815f3c,615f04836985bb3ce5815f3c,7,stack,critical,F,75,stack65.jpg,stack85.jpg,high,NULL
1687287636,1d4b68cc04d78969b0230bf04662ff13,PennController,10,0,experiment,NULL,PennController,9,_Header_,End,1687287553323,615f04836985bb3ce5815f3c,615f04836985bb3ce5815f3c,7,stack,critical,F,75,stack65.jpg,stack85.jpg,high,NULL
1687287636,1d4b68cc04d78969b0230bf04662ff13,PennController,10,0,experiment,NULL,Canvas,canvas6,Print,NA,1687287561032,615f04836985bb3ce5815f3c,615f04836985bb3ce5815f3c,7,stack,critical,F,75,stack65.jpg,stack85.jpg,high,NULL
1687287636,1d4b68cc04d78969b0230bf04662ff13,PennController,10,0,experiment,NULL,Video,progression,buffer,0.004445,1687287556860,615f04836985bb3ce5815f3c,615f04836985bb3ce5815f3c,7,stack,critical,F,75,stack65.jpg,stack85.jpg,high,NULL
1687287636,1d4b68cc04d78969b0230bf04662ff13,PennController,10,0,experiment,NULL,Selector,choice,Selection,option2,1687287562807,615f04836985bb3ce5815f3c,615f04836985bb3ce5815f3c,7,stack,critical,F,75,stack65.jpg,stack85.jpg,high,option2;option1
1687287636,1d4b68cc04d78969b0230bf04662ff13,PennController,10,0,experiment,NULL,PennController,9,_Trial_,End,1687287562809,615f04836985bb3ce5815f3c,615f04836985bb3ce5815f3c,7,stack,critical,F,75,stack65.jpg,stack85.jpg,high,NULL
1687287636,1d4b68cc04d78969b0230bf04662ff13,PennController,21,0,experiment,NULL,PennController,20,_Trial_,Start,1687287562810,615f04836985bb3ce5815f3c,615f04836985bb3ce5815f3c,18,ball,critical,F,50,ball40.jpg,ball60.jpg,high,NULL
1687287636,1d4b68cc04d78969b0230bf04662ff13,PennController,21,0,experiment,NULL,PennController,20,_Header_,Start,1687287562810,615f04836985bb3ce5815f3c,615f04836985bb3ce5815f3c,18,ball,critical,F,50,ball40.jpg,ball60.jpg,high,NULL
1687287636,1d4b68cc04d78969b0230bf04662ff13,PennController,21,0,experiment,NULL,PennController,20,_Header_,End,1687287562810,615f04836985bb3ce5815f3c,615f04836985bb3ce5815f3c,18,ball,critical,F,50,ball40.jpg,ball60.jpg,high,NULL
1687287636,1d4b68cc04d78969b0230bf04662ff13,PennController,21,0,experiment,NULL,Canvas,canvas6,Print,NA,1687287569532,615f04836985bb3ce5815f3c,615f04836985bb3ce5815f3c,18,ball,critical,F,50,ball40.jpg,ball60.jpg,high,NULL
1687287636,1d4b68cc04d78969b0230bf04662ff13,PennController,21,0,experiment,NULL,Video,progression,buffer,0.010475,1687287566357,615f04836985bb3ce5815f3c,615f04836985bb3ce5815f3c,18,ball,critical,F,50,ball40.jpg,ball60.jpg,high,NULL
1687287636,1d4b68cc04d78969b0230bf04662ff13,PennController,21,0,experiment,NULL,Selector,choice,Selection,option2,1687287571203,615f04836985bb3ce5815f3c,615f04836985bb3ce5815f3c,18,ball,critical,F,50,ball40.jpg,ball60.jpg,high,option2;option1
1687287636,1d4b68cc04d78969b0230bf04662ff13,PennController,21,0,experiment,NULL,PennController,20,_Trial_,End,1687287571205,615f04836985bb3ce5815f3c,615f04836985bb3ce5815f3c,18,ball,critical,F,50,ball40.jpg,ball60.jpg,high,NULL
1687287636,1d4b68cc04d78969b0230bf04662ff13,PennController,6,0,experiment,NULL,PennController,5,_Trial_,Start,1687287571208,615f04836985bb3ce5815f3c,615f04836985bb3ce5815f3c,3,clean,critical,F,50,clean40.jpg,clean60.jpg,high,NULL
1687287636,1d4b68cc04d78969b0230bf04662ff13,PennController,6,0,experiment,NULL,PennController,5,_Header_,Start,1687287571208,615f04836985bb3ce5815f3c,615f04836985bb3ce5815f3c,3,clean,critical,F,50,clean40.jpg,clean60.jpg,high,NULL
1687287636,1d4b68cc04d78969b0230bf04662ff13,PennController,6,0,experiment,NULL,PennController,5,_Header_,End,1687287571208,615f04836985bb3ce5815f3c,615f04836985bb3ce5815f3c,3,clean,critical,F,50,clean40.jpg,clean60.jpg,high,NULL
1687287636,1d4b68cc04d78969b0230bf04662ff13,PennController,6,0,experiment,NULL,Canvas,canvas6,Print,NA,1687287577918,615f04836985bb3ce5815f3c,615f04836985bb3ce5815f3c,3,clean,critical,F,50,clean40.jpg,clean60.jpg,high,NULL
1687287636,1d4b68cc04d78969b0230bf04662ff13,PennController,6,0,experiment,NULL,Video,progression,buffer,0.010081,1687287574748,615f04836985bb3ce5815f3c,615f04836985bb3ce5815f3c,3,clean,critical,F,50,clean40.jpg,clean60.jpg,high,NULL
1687287636,1d4b68cc04d78969b0230bf04662ff13,PennController,6,0,experiment,NULL,Selector,choice,Selection,option2,1687287579375,615f04836985bb3ce5815f3c,615f04836985bb3ce5815f3c,3,clean,critical,F,50,clean40.jpg,clean60.jpg,high,option1;option2
1687287636,1d4b68cc04d78969b0230bf04662ff13,PennController,6,0,experiment,NULL,PennController,5,_Trial_,End,1687287579376,615f04836985bb3ce5815f3c,615f04836985bb3ce5815f3c,3,clean,critical,F,50,clean40.jpg,clean60.jpg,high,NULL
1687287636,1d4b68cc04d78969b0230bf04662ff13,PennController,15,0,experiment,NULL,PennController,14,_Trial_,Start,1687287579377,615f04836985bb3ce5815f3c,615f04836985bb3ce5815f3c,12,erase,critical,F,50,erase42.jpg,erase60.jpg,high,NULL
1687287636,1d4b68cc04d78969b0230bf04662ff13,PennController,15,0,experiment,NULL,PennController,14,_Header_,Start,1687287579377,615f04836985bb3ce5815f3c,615f04836985bb3ce5815f3c,12,erase,critical,F,50,erase42.jpg,erase60.jpg,high,NULL
1687287636,1d4b68cc04d78969b0230bf04662ff13,PennController,15,0,experiment,NULL,PennController,14,_Header_,End,1687287579378,615f04836985bb3ce5815f3c,615f04836985bb3ce5815f3c,12,erase,critical,F,50,erase42.jpg,erase60.jpg,high,NULL
1687287636,1d4b68cc04d78969b0230bf04662ff13,PennController,15,0,experiment,NULL,Canvas,canvas6,Print,NA,1687287587480,615f04836985bb3ce5815f3c,615f04836985bb3ce5815f3c,12,erase,critical,F,50,erase42.jpg,erase60.jpg,high,NULL
1687287636,1d4b68cc04d78969b0230bf04662ff13,PennController,15,0,experiment,NULL,Video,progression,buffer,0.008397,1687287582917,615f04836985bb3ce5815f3c,615f04836985bb3ce5815f3c,12,erase,critical,F,50,erase42.jpg,erase60.jpg,high,NULL
1687287636,1d4b68cc04d78969b0230bf04662ff13,PennController,15,0,experiment,NULL,Selector,choice,Selection,option2,1687287588875,615f04836985bb3ce5815f3c,615f04836985bb3ce5815f3c,12,erase,critical,F,50,erase42.jpg,erase60.jpg,high,option2;option1
1687287636,1d4b68cc04d78969b0230bf04662ff13,PennController,15,0,experiment,NULL,PennController,14,_Trial_,End,1687287588877,615f04836985bb3ce5815f3c,615f04836985bb3ce5815f3c,12,erase,critical,F,50,erase42.jpg,erase60.jpg,high,NULL
1687287636,1d4b68cc04d78969b0230bf04662ff13,PennController,4,0,experiment,NULL,PennController,3,_Trial_,Start,1687287588878,615f04836985bb3ce5815f3c,615f04836985bb3ce5815f3c,1,vase,critical,F,75,vase65.jpg,vase85.jpg,high,NULL
1687287636,1d4b68cc04d78969b0230bf04662ff13,PennController,4,0,experiment,NULL,PennController,3,_Header_,Start,1687287588878,615f04836985bb3ce5815f3c,615f04836985bb3ce5815f3c,1,vase,critical,F,75,vase65.jpg,vase85.jpg,high,NULL
1687287636,1d4b68cc04d78969b0230bf04662ff13,PennController,4,0,experiment,NULL,PennController,3,_Header_,End,1687287588878,615f04836985bb3ce5815f3c,615f04836985bb3ce5815f3c,1,vase,critical,F,75,vase65.jpg,vase85.jpg,high,NULL
1687287636,1d4b68cc04d78969b0230bf04662ff13,PennController,4,0,experiment,NULL,Canvas,canvas6,Print,NA,1687287596581,615f04836985bb3ce5815f3c,615f04836985bb3ce5815f3c,1,vase,critical,F,75,vase65.jpg,vase85.jpg,high,NULL
1687287636,1d4b68cc04d78969b0230bf04662ff13,PennController,4,0,experiment,NULL,Video,progression,buffer,0.009003,1687287592419,615f04836985bb3ce5815f3c,615f04836985bb3ce5815f3c,1,vase,critical,F,75,vase65.jpg,vase85.jpg,high,NULL
1687287636,1d4b68cc04d78969b0230bf04662ff13,PennController,4,0,experiment,NULL,Selector,choice,Selection,option1,1687287598224,615f04836985bb3ce5815f3c,615f04836985bb3ce5815f3c,1,vase,critical,F,75,vase65.jpg,vase85.jpg,high,option1;option2
1687287636,1d4b68cc04d78969b0230bf04662ff13,PennController,4,0,experiment,NULL,PennController,3,_Trial_,End,1687287598225,615f04836985bb3ce5815f3c,615f04836985bb3ce5815f3c,1,vase,critical,F,75,vase65.jpg,vase85.jpg,high,NULL
1687287636,1d4b68cc04d78969b0230bf04662ff13,PennController,11,0,experiment,NULL,PennController,10,_Trial_,Start,1687287598227,615f04836985bb3ce5815f3c,615f04836985bb3ce5815f3c,8,cucumber,critical,F,25,cucumber15.jpg,cucumber33.jpg,high,NULL
1687287636,1d4b68cc04d78969b0230bf04662ff13,PennController,11,0,experiment,NULL,PennController,10,_Header_,Start,1687287598227,615f04836985bb3ce5815f3c,615f04836985bb3ce5815f3c,8,cucumber,critical,F,25,cucumber15.jpg,cucumber33.jpg,high,NULL
1687287636,1d4b68cc04d78969b0230bf04662ff13,PennController,11,0,experiment,NULL,PennController,10,_Header_,End,1687287598227,615f04836985bb3ce5815f3c,615f04836985bb3ce5815f3c,8,cucumber,critical,F,25,cucumber15.jpg,cucumber33.jpg,high,NULL
1687287636,1d4b68cc04d78969b0230bf04662ff13,PennController,11,0,experiment,NULL,Canvas,canvas6,Print,NA,1687287604529,615f04836985bb3ce5815f3c,615f04836985bb3ce5815f3c,8,cucumber,critical,F,25,cucumber15.jpg,cucumber33.jpg,high,NULL
1687287636,1d4b68cc04d78969b0230bf04662ff13,PennController,11,0,experiment,NULL,Video,progression,buffer,0.002824,1687287601753,615f04836985bb3ce5815f3c,615f04836985bb3ce5815f3c,8,cucumber,critical,F,25,cucumber15.jpg,cucumber33.jpg,high,NULL
1687287636,1d4b68cc04d78969b0230bf04662ff13,PennController,11,0,experiment,NULL,Selector,choice,Selection,option1,1687287605792,615f04836985bb3ce5815f3c,615f04836985bb3ce5815f3c,8,cucumber,critical,F,25,cucumber15.jpg,cucumber33.jpg,high,option1;option2
1687287636,1d4b68cc04d78969b0230bf04662ff13,PennController,11,0,experiment,NULL,PennController,10,_Trial_,End,1687287605793,615f04836985bb3ce5815f3c,615f04836985bb3ce5815f3c,8,cucumber,critical,F,25,cucumber15.jpg,cucumber33.jpg,high,NULL
1687287636,1d4b68cc04d78969b0230bf04662ff13,PennController,20,0,experiment,NULL,PennController,19,_Trial_,Start,1687287605795,615f04836985bb3ce5815f3c,615f04836985bb3ce5815f3c,17,roll,critical,F,25,roll15.jpg,roll35.jpg,high,NULL
1687287636,1d4b68cc04d78969b0230bf04662ff13,PennController,20,0,experiment,NULL,PennController,19,_Header_,Start,1687287605795,615f04836985bb3ce5815f3c,615f04836985bb3ce5815f3c,17,roll,critical,F,25,roll15.jpg,roll35.jpg,high,NULL
1687287636,1d4b68cc04d78969b0230bf04662ff13,PennController,20,0,experiment,NULL,PennController,19,_Header_,End,1687287605795,615f04836985bb3ce5815f3c,615f04836985bb3ce5815f3c,17,roll,critical,F,25,roll15.jpg,roll35.jpg,high,NULL
1687287636,1d4b68cc04d78969b0230bf04662ff13,PennController,20,0,experiment,NULL,Canvas,canvas6,Print,NA,1687287611547,615f04836985bb3ce5815f3c,615f04836985bb3ce5815f3c,17,roll,critical,F,25,roll15.jpg,roll35.jpg,high,NULL
1687287636,1d4b68cc04d78969b0230bf04662ff13,PennController,20,0,experiment,NULL,Video,progression,buffer,0,1687287609332,615f04836985bb3ce5815f3c,615f04836985bb3ce5815f3c,17,roll,critical,F,25,roll15.jpg,roll35.jpg,high,NULL
1687287636,1d4b68cc04d78969b0230bf04662ff13,PennController,20,0,experiment,NULL,Selector,choice,Selection,option1,1687287614009,615f04836985bb3ce5815f3c,615f04836985bb3ce5815f3c,17,roll,critical,F,25,roll15.jpg,roll35.jpg,high,option1;option2
1687287636,1d4b68cc04d78969b0230bf04662ff13,PennController,20,0,experiment,NULL,PennController,19,_Trial_,End,1687287614011,615f04836985bb3ce5815f3c,615f04836985bb3ce5815f3c,17,roll,critical,F,25,roll15.jpg,roll35.jpg,high,NULL
1687287636,1d4b68cc04d78969b0230bf04662ff13,PennController,27,0,experiment,NULL,PennController,26,_Trial_,Start,1687287614012,615f04836985bb3ce5815f3c,615f04836985bb3ce5815f3c,24,match,filler,F,50,match40.jpg,match60.jpg,GoalA,NULL
1687287636,1d4b68cc04d78969b0230bf04662ff13,PennController,27,0,experiment,NULL,PennController,26,_Header_,Start,1687287614012,615f04836985bb3ce5815f3c,615f04836985bb3ce5815f3c,24,match,filler,F,50,match40.jpg,match60.jpg,GoalA,NULL
1687287636,1d4b68cc04d78969b0230bf04662ff13,PennController,27,0,experiment,NULL,PennController,26,_Header_,End,1687287614013,615f04836985bb3ce5815f3c,615f04836985bb3ce5815f3c,24,match,filler,F,50,match40.jpg,match60.jpg,GoalA,NULL
1687287636,1d4b68cc04d78969b0230bf04662ff13,PennController,27,0,experiment,NULL,Canvas,canvas6,Print,NA,1687287620730,615f04836985bb3ce5815f3c,615f04836985bb3ce5815f3c,24,match,filler,F,50,match40.jpg,match60.jpg,GoalA,NULL
1687287636,1d4b68cc04d78969b0230bf04662ff13,PennController,27,0,experiment,NULL,Video,progression,buffer,0.009929,1687287617560,615f04836985bb3ce5815f3c,615f04836985bb3ce5815f3c,24,match,filler,F,50,match40.jpg,match60.jpg,GoalA,NULL
1687287636,1d4b68cc04d78969b0230bf04662ff13,PennController,27,0,experiment,NULL,Selector,choice,Selection,option1,1687287623524,615f04836985bb3ce5815f3c,615f04836985bb3ce5815f3c,24,match,filler,F,50,match40.jpg,match60.jpg,GoalA,option2;option1
1687287636,1d4b68cc04d78969b0230bf04662ff13,PennController,27,0,experiment,NULL,PennController,26,_Trial_,End,1687287623526,615f04836985bb3ce5815f3c,615f04836985bb3ce5815f3c,24,match,filler,F,50,match40.jpg,match60.jpg,GoalA,NULL
1687287636,1d4b68cc04d78969b0230bf04662ff13,PennController,7,0,experiment,NULL,PennController,6,_Trial_,Start,1687287623527,615f04836985bb3ce5815f3c,615f04836985bb3ce5815f3c,4,candy,critical,F,75,candy65.jpg,candy85.jpg,high,NULL
1687287636,1d4b68cc04d78969b0230bf04662ff13,PennController,7,0,experiment,NULL,PennController,6,_Header_,Start,1687287623527,615f04836985bb3ce5815f3c,615f04836985bb3ce5815f3c,4,candy,critical,F,75,candy65.jpg,candy85.jpg,high,NULL
1687287636,1d4b68cc04d78969b0230bf04662ff13,PennController,7,0,experiment,NULL,PennController,6,_Header_,End,1687287623527,615f04836985bb3ce5815f3c,615f04836985bb3ce5815f3c,4,candy,critical,F,75,candy65.jpg,candy85.jpg,high,NULL
1687287636,1d4b68cc04d78969b0230bf04662ff13,PennController,7,0,experiment,NULL,Canvas,canvas6,Print,NA,1687287631230,615f04836985bb3ce5815f3c,615f04836985bb3ce5815f3c,4,candy,critical,F,75,candy65.jpg,candy85.jpg,high,NULL
1687287636,1d4b68cc04d78969b0230bf04662ff13,PennController,7,0,experiment,NULL,Video,progression,buffer,0.010792,1687287627070,615f04836985bb3ce5815f3c,615f04836985bb3ce5815f3c,4,candy,critical,F,75,candy65.jpg,candy85.jpg,high,NULL
1687287636,1d4b68cc04d78969b0230bf04662ff13,PennController,7,0,experiment,NULL,Selector,choice,Selection,option1,1687287633691,615f04836985bb3ce5815f3c,615f04836985bb3ce5815f3c,4,candy,critical,F,75,candy65.jpg,candy85.jpg,high,option1;option2
1687287636,1d4b68cc04d78969b0230bf04662ff13,PennController,7,0,experiment,NULL,PennController,6,_Trial_,End,1687287633693,615f04836985bb3ce5815f3c,615f04836985bb3ce5815f3c,4,candy,critical,F,75,candy65.jpg,candy85.jpg,high,NULL
