#
# Results on Tuesday June 20 2023 19:04:46 UTC
# USER AGENT: Mozilla/5.0 (Windows NT 10.0; Win64; x64) AppleWebKit/537.36 (KHTML, like Gecko) Chrome/114.0.0.0 Safari/537.36
# Design number was non-random = 45
#
# Columns below this comment are as follows:
# 1. Results reception time.
# 2. MD5 hash of participant's IP address.
# 3. Controller name.
# 4. Order number of item.
# 5. Inner element number.
# 6. Label.
# 7. Latin Square Group.
# 8. PennElementType.
# 9. PennElementName.
# 10. Parameter.
# 11. Value.
# 12. EventTime.
# 13. PROLIFIC_ID.
# 14. Comments.
1687287886,d8190a22e9e66915fb7d0dbe5f6c1cef,PennController,2,0,consent,NULL,PennController,0,_Trial_,Start,1687287524975,6144967ffe41b9c5f9e9f41c,NULL
1687287886,d8190a22e9e66915fb7d0dbe5f6c1cef,PennController,2,0,consent,NULL,PennController,0,_Header_,Start,1687287524975,6144967ffe41b9c5f9e9f41c,NULL
1687287886,d8190a22e9e66915fb7d0dbe5f6c1cef,PennController,2,0,consent,NULL,PennController,0,_Header_,End,1687287524975,6144967ffe41b9c5f9e9f41c,NULL
1687287886,d8190a22e9e66915fb7d0dbe5f6c1cef,PennController,2,0,consent,NULL,PennController,0,_Trial_,End,1687287532212,6144967ffe41b9c5f9e9f41c,NULL
# Columns below this comment are as follows:
# 14. ID.
# 15. Comments.
1687287886,d8190a22e9e66915fb7d0dbe5f6c1cef,PennController,3,0,intro,NULL,PennController,1,_Trial_,Start,1687287532217,6144967ffe41b9c5f9e9f41c,6144967ffe41b9c5f9e9f41c,NULL
1687287886,d8190a22e9e66915fb7d0dbe5f6c1cef,PennController,3,0,intro,NULL,PennController,1,_Header_,Start,1687287532217,6144967ffe41b9c5f9e9f41c,6144967ffe41b9c5f9e9f41c,NULL
1687287886,d8190a22e9e66915fb7d0dbe5f6c1cef,PennController,3,0,intro,NULL,PennController,1,_Header_,End,1687287532217,6144967ffe41b9c5f9e9f41c,6144967ffe41b9c5f9e9f41c,NULL
1687287886,d8190a22e9e66915fb7d0dbe5f6c1cef,PennController,3,0,intro,NULL,PennController,1,_Trial_,End,1687287546540,6144967ffe41b9c5f9e9f41c,6144967ffe41b9c5f9e9f41c,NULL
# Columns below this comment are as follows:
# 15. item_number.
# 16. item.
# 17. type.
# 18. Group.
# 19. prog.
# 20. prev_image.
# 21. next_image.
# 22. height.
# 23. Comments.
1687287886,d8190a22e9e66915fb7d0dbe5f6c1cef,PennController,16,0,experiment,NULL,PennController,15,_Trial_,Start,1687287546542,6144967ffe41b9c5f9e9f41c,6144967ffe41b9c5f9e9f41c,13,mix,critical,D,25,mix15.jpg,mix35.jpg,high,NULL
1687287886,d8190a22e9e66915fb7d0dbe5f6c1cef,PennController,16,0,experiment,NULL,PennController,15,_Header_,Start,1687287546542,6144967ffe41b9c5f9e9f41c,6144967ffe41b9c5f9e9f41c,13,mix,critical,D,25,mix15.jpg,mix35.jpg,high,NULL
1687287886,d8190a22e9e66915fb7d0dbe5f6c1cef,PennController,16,0,experiment,NULL,PennController,15,_Header_,End,1687287546542,6144967ffe41b9c5f9e9f41c,6144967ffe41b9c5f9e9f41c,13,mix,critical,D,25,mix15.jpg,mix35.jpg,high,NULL
1687287886,d8190a22e9e66915fb7d0dbe5f6c1cef,PennController,16,0,experiment,NULL,Canvas,canvas6,Print,NA,1687287552281,6144967ffe41b9c5f9e9f41c,6144967ffe41b9c5f9e9f41c,13,mix,critical,D,25,mix15.jpg,mix35.jpg,high,NULL
1687287886,d8190a22e9e66915fb7d0dbe5f6c1cef,PennController,16,0,experiment,NULL,Video,progression,buffer,0.005691,1687287550113,6144967ffe41b9c5f9e9f41c,6144967ffe41b9c5f9e9f41c,13,mix,critical,D,25,mix15.jpg,mix35.jpg,high,NULL
1687287886,d8190a22e9e66915fb7d0dbe5f6c1cef,PennController,16,0,experiment,NULL,Selector,choice,Selection,option1,1687287553409,6144967ffe41b9c5f9e9f41c,6144967ffe41b9c5f9e9f41c,13,mix,critical,D,25,mix15.jpg,mix35.jpg,high,option2;option1
1687287886,d8190a22e9e66915fb7d0dbe5f6c1cef,PennController,16,0,experiment,NULL,PennController,15,_Trial_,End,1687287553414,6144967ffe41b9c5f9e9f41c,6144967ffe41b9c5f9e9f41c,13,mix,critical,D,25,mix15.jpg,mix35.jpg,high,NULL
1687287886,d8190a22e9e66915fb7d0dbe5f6c1cef,PennController,11,0,experiment,NULL,PennController,10,_Trial_,Start,1687287553419,6144967ffe41b9c5f9e9f41c,6144967ffe41b9c5f9e9f41c,8,cucumber,critical,D,50,cucumber42.jpg,cucumber60.jpg,high,NULL
1687287886,d8190a22e9e66915fb7d0dbe5f6c1cef,PennController,11,0,experiment,NULL,PennController,10,_Header_,Start,1687287553419,6144967ffe41b9c5f9e9f41c,6144967ffe41b9c5f9e9f41c,8,cucumber,critical,D,50,cucumber42.jpg,cucumber60.jpg,high,NULL
1687287886,d8190a22e9e66915fb7d0dbe5f6c1cef,PennController,11,0,experiment,NULL,PennController,10,_Header_,End,1687287553419,6144967ffe41b9c5f9e9f41c,6144967ffe41b9c5f9e9f41c,8,cucumber,critical,D,50,cucumber42.jpg,cucumber60.jpg,high,NULL
1687287886,d8190a22e9e66915fb7d0dbe5f6c1cef,PennController,11,0,experiment,NULL,Canvas,canvas6,Print,NA,1687287561533,6144967ffe41b9c5f9e9f41c,6144967ffe41b9c5f9e9f41c,8,cucumber,critical,D,50,cucumber42.jpg,cucumber60.jpg,high,NULL
1687287886,d8190a22e9e66915fb7d0dbe5f6c1cef,PennController,11,0,experiment,NULL,Video,progression,buffer,0.006835,1687287556962,6144967ffe41b9c5f9e9f41c,6144967ffe41b9c5f9e9f41c,8,cucumber,critical,D,50,cucumber42.jpg,cucumber60.jpg,high,NULL
1687287886,d8190a22e9e66915fb7d0dbe5f6c1cef,PennController,11,0,experiment,NULL,Selector,choice,Selection,option2,1687287565859,6144967ffe41b9c5f9e9f41c,6144967ffe41b9c5f9e9f41c,8,cucumber,critical,D,50,cucumber42.jpg,cucumber60.jpg,high,option1;option2
1687287886,d8190a22e9e66915fb7d0dbe5f6c1cef,PennController,11,0,experiment,NULL,PennController,10,_Trial_,End,1687287565863,6144967ffe41b9c5f9e9f41c,6144967ffe41b9c5f9e9f41c,8,cucumber,critical,D,50,cucumber42.jpg,cucumber60.jpg,high,NULL
1687287886,d8190a22e9e66915fb7d0dbe5f6c1cef,PennController,5,0,experiment,NULL,PennController,4,_Trial_,Start,1687287565869,6144967ffe41b9c5f9e9f41c,6144967ffe41b9c5f9e9f41c,2,door,critical,D,50,door40.jpg,door60.jpg,high,NULL
1687287886,d8190a22e9e66915fb7d0dbe5f6c1cef,PennController,5,0,experiment,NULL,PennController,4,_Header_,Start,1687287565869,6144967ffe41b9c5f9e9f41c,6144967ffe41b9c5f9e9f41c,2,door,critical,D,50,door40.jpg,door60.jpg,high,NULL
1687287886,d8190a22e9e66915fb7d0dbe5f6c1cef,PennController,5,0,experiment,NULL,PennController,4,_Header_,End,1687287565869,6144967ffe41b9c5f9e9f41c,6144967ffe41b9c5f9e9f41c,2,door,critical,D,50,door40.jpg,door60.jpg,high,NULL
1687287886,d8190a22e9e66915fb7d0dbe5f6c1cef,PennController,5,0,experiment,NULL,Canvas,canvas6,Print,NA,1687287572613,6144967ffe41b9c5f9e9f41c,6144967ffe41b9c5f9e9f41c,2,door,critical,D,50,door40.jpg,door60.jpg,high,NULL
1687287886,d8190a22e9e66915fb7d0dbe5f6c1cef,PennController,5,0,experiment,NULL,Video,progression,buffer,0,1687287569415,6144967ffe41b9c5f9e9f41c,6144967ffe41b9c5f9e9f41c,2,door,critical,D,50,door40.jpg,door60.jpg,high,NULL
1687287886,d8190a22e9e66915fb7d0dbe5f6c1cef,PennController,5,0,experiment,NULL,Selector,choice,Selection,option2,1687287574728,6144967ffe41b9c5f9e9f41c,6144967ffe41b9c5f9e9f41c,2,door,critical,D,50,door40.jpg,door60.jpg,high,option1;option2
1687287886,d8190a22e9e66915fb7d0dbe5f6c1cef,PennController,5,0,experiment,NULL,PennController,4,_Trial_,End,1687287574731,6144967ffe41b9c5f9e9f41c,6144967ffe41b9c5f9e9f41c,2,door,critical,D,50,door40.jpg,door60.jpg,high,NULL
1687287886,d8190a22e9e66915fb7d0dbe5f6c1cef,PennController,15,0,experiment,NULL,PennController,14,_Trial_,Start,1687287574734,6144967ffe41b9c5f9e9f41c,6144967ffe41b9c5f9e9f41c,12,erase,critical,D,75,erase66.jpg,erase84.jpg,high,NULL
1687287886,d8190a22e9e66915fb7d0dbe5f6c1cef,PennController,15,0,experiment,NULL,PennController,14,_Header_,Start,1687287574735,6144967ffe41b9c5f9e9f41c,6144967ffe41b9c5f9e9f41c,12,erase,critical,D,75,erase66.jpg,erase84.jpg,high,NULL
1687287886,d8190a22e9e66915fb7d0dbe5f6c1cef,PennController,15,0,experiment,NULL,PennController,14,_Header_,End,1687287574735,6144967ffe41b9c5f9e9f41c,6144967ffe41b9c5f9e9f41c,12,erase,critical,D,75,erase66.jpg,erase84.jpg,high,NULL
1687287886,d8190a22e9e66915fb7d0dbe5f6c1cef,PennController,15,0,experiment,NULL,Canvas,canvas6,Print,NA,1687287584440,6144967ffe41b9c5f9e9f41c,6144967ffe41b9c5f9e9f41c,12,erase,critical,D,75,erase66.jpg,erase84.jpg,high,NULL
1687287886,d8190a22e9e66915fb7d0dbe5f6c1cef,PennController,15,0,experiment,NULL,Video,progression,buffer,0.005967,1687287578267,6144967ffe41b9c5f9e9f41c,6144967ffe41b9c5f9e9f41c,12,erase,critical,D,75,erase66.jpg,erase84.jpg,high,NULL
1687287886,d8190a22e9e66915fb7d0dbe5f6c1cef,PennController,15,0,experiment,NULL,Selector,choice,Selection,option2,1687287587120,6144967ffe41b9c5f9e9f41c,6144967ffe41b9c5f9e9f41c,12,erase,critical,D,75,erase66.jpg,erase84.jpg,high,option2;option1
1687287886,d8190a22e9e66915fb7d0dbe5f6c1cef,PennController,15,0,experiment,NULL,PennController,14,_Trial_,End,1687287587123,6144967ffe41b9c5f9e9f41c,6144967ffe41b9c5f9e9f41c,12,erase,critical,D,75,erase66.jpg,erase84.jpg,high,NULL
1687287886,d8190a22e9e66915fb7d0dbe5f6c1cef,PennController,4,0,experiment,NULL,PennController,3,_Trial_,Start,1687287587126,6144967ffe41b9c5f9e9f41c,6144967ffe41b9c5f9e9f41c,1,vase,critical,D,25,vase15.jpg,vase35.jpg,high,NULL
1687287886,d8190a22e9e66915fb7d0dbe5f6c1cef,PennController,4,0,experiment,NULL,PennController,3,_Header_,Start,1687287587126,6144967ffe41b9c5f9e9f41c,6144967ffe41b9c5f9e9f41c,1,vase,critical,D,25,vase15.jpg,vase35.jpg,high,NULL
1687287886,d8190a22e9e66915fb7d0dbe5f6c1cef,PennController,4,0,experiment,NULL,PennController,3,_Header_,End,1687287587126,6144967ffe41b9c5f9e9f41c,6144967ffe41b9c5f9e9f41c,1,vase,critical,D,25,vase15.jpg,vase35.jpg,high,NULL
1687287886,d8190a22e9e66915fb7d0dbe5f6c1cef,PennController,4,0,experiment,NULL,Canvas,canvas6,Print,NA,1687287592831,6144967ffe41b9c5f9e9f41c,6144967ffe41b9c5f9e9f41c,1,vase,critical,D,25,vase15.jpg,vase35.jpg,high,NULL
1687287886,d8190a22e9e66915fb7d0dbe5f6c1cef,PennController,4,0,experiment,NULL,Video,progression,buffer,0.001913,1687287590654,6144967ffe41b9c5f9e9f41c,6144967ffe41b9c5f9e9f41c,1,vase,critical,D,25,vase15.jpg,vase35.jpg,high,NULL
1687287886,d8190a22e9e66915fb7d0dbe5f6c1cef,PennController,4,0,experiment,NULL,Selector,choice,Selection,option2,1687287594749,6144967ffe41b9c5f9e9f41c,6144967ffe41b9c5f9e9f41c,1,vase,critical,D,25,vase15.jpg,vase35.jpg,high,option2;option1
1687287886,d8190a22e9e66915fb7d0dbe5f6c1cef,PennController,4,0,experiment,NULL,PennController,3,_Trial_,End,1687287594752,6144967ffe41b9c5f9e9f41c,6144967ffe41b9c5f9e9f41c,1,vase,critical,D,25,vase15.jpg,vase35.jpg,high,NULL
1687287886,d8190a22e9e66915fb7d0dbe5f6c1cef,PennController,32,0,experiment,NULL,PennController,31,_Trial_,Start,1687287594755,6144967ffe41b9c5f9e9f41c,6144967ffe41b9c5f9e9f41c,29,frog,filler,D,50,frog40.jpg,frog60.jpg,GoalB,NULL
1687287886,d8190a22e9e66915fb7d0dbe5f6c1cef,PennController,32,0,experiment,NULL,PennController,31,_Header_,Start,1687287594755,6144967ffe41b9c5f9e9f41c,6144967ffe41b9c5f9e9f41c,29,frog,filler,D,50,frog40.jpg,frog60.jpg,GoalB,NULL
1687287886,d8190a22e9e66915fb7d0dbe5f6c1cef,PennController,32,0,experiment,NULL,PennController,31,_Header_,End,1687287594756,6144967ffe41b9c5f9e9f41c,6144967ffe41b9c5f9e9f41c,29,frog,filler,D,50,frog40.jpg,frog60.jpg,GoalB,NULL
1687287886,d8190a22e9e66915fb7d0dbe5f6c1cef,PennController,32,0,experiment,NULL,Canvas,canvas6,Print,NA,1687287601457,6144967ffe41b9c5f9e9f41c,6144967ffe41b9c5f9e9f41c,29,frog,filler,D,50,frog40.jpg,frog60.jpg,GoalB,NULL
1687287886,d8190a22e9e66915fb7d0dbe5f6c1cef,PennController,32,0,experiment,NULL,Video,progression,buffer,0.007251,1687287598300,6144967ffe41b9c5f9e9f41c,6144967ffe41b9c5f9e9f41c,29,frog,filler,D,50,frog40.jpg,frog60.jpg,GoalB,NULL
1687287886,d8190a22e9e66915fb7d0dbe5f6c1cef,PennController,32,0,experiment,NULL,Selector,choice,Selection,option2,1687287603274,6144967ffe41b9c5f9e9f41c,6144967ffe41b9c5f9e9f41c,29,frog,filler,D,50,frog40.jpg,frog60.jpg,GoalB,option1;option2
1687287886,d8190a22e9e66915fb7d0dbe5f6c1cef,PennController,32,0,experiment,NULL,PennController,31,_Trial_,End,1687287603275,6144967ffe41b9c5f9e9f41c,6144967ffe41b9c5f9e9f41c,29,frog,filler,D,50,frog40.jpg,frog60.jpg,GoalB,NULL
1687287886,d8190a22e9e66915fb7d0dbe5f6c1cef,PennController,21,0,experiment,NULL,PennController,20,_Trial_,Start,1687287603276,6144967ffe41b9c5f9e9f41c,6144967ffe41b9c5f9e9f41c,18,ball,critical,D,75,ball65.jpg,ball85.jpg,high,NULL
1687287886,d8190a22e9e66915fb7d0dbe5f6c1cef,PennController,21,0,experiment,NULL,PennController,20,_Header_,Start,1687287603276,6144967ffe41b9c5f9e9f41c,6144967ffe41b9c5f9e9f41c,18,ball,critical,D,75,ball65.jpg,ball85.jpg,high,NULL
1687287886,d8190a22e9e66915fb7d0dbe5f6c1cef,PennController,21,0,experiment,NULL,PennController,20,_Header_,End,1687287603276,6144967ffe41b9c5f9e9f41c,6144967ffe41b9c5f9e9f41c,18,ball,critical,D,75,ball65.jpg,ball85.jpg,high,NULL
1687287886,d8190a22e9e66915fb7d0dbe5f6c1cef,PennController,21,0,experiment,NULL,Canvas,canvas6,Print,NA,1687287610963,6144967ffe41b9c5f9e9f41c,6144967ffe41b9c5f9e9f41c,18,ball,critical,D,75,ball65.jpg,ball85.jpg,high,NULL
1687287886,d8190a22e9e66915fb7d0dbe5f6c1cef,PennController,21,0,experiment,NULL,Video,progression,buffer,0.003481,1687287606794,6144967ffe41b9c5f9e9f41c,6144967ffe41b9c5f9e9f41c,18,ball,critical,D,75,ball65.jpg,ball85.jpg,high,NULL
1687287886,d8190a22e9e66915fb7d0dbe5f6c1cef,PennController,21,0,experiment,NULL,Selector,choice,Selection,option2,1687287613337,6144967ffe41b9c5f9e9f41c,6144967ffe41b9c5f9e9f41c,18,ball,critical,D,75,ball65.jpg,ball85.jpg,high,option2;option1
1687287886,d8190a22e9e66915fb7d0dbe5f6c1cef,PennController,21,0,experiment,NULL,PennController,20,_Trial_,End,1687287613338,6144967ffe41b9c5f9e9f41c,6144967ffe41b9c5f9e9f41c,18,ball,critical,D,75,ball65.jpg,ball85.jpg,high,NULL
1687287886,d8190a22e9e66915fb7d0dbe5f6c1cef,PennController,23,0,experiment,NULL,PennController,22,_Trial_,Start,1687287613339,6144967ffe41b9c5f9e9f41c,6144967ffe41b9c5f9e9f41c,20,cat,filler,D,50,cat40.jpg,cat60.jpg,GoalA,NULL
1687287886,d8190a22e9e66915fb7d0dbe5f6c1cef,PennController,23,0,experiment,NULL,PennController,22,_Header_,Start,1687287613339,6144967ffe41b9c5f9e9f41c,6144967ffe41b9c5f9e9f41c,20,cat,filler,D,50,cat40.jpg,cat60.jpg,GoalA,NULL
1687287886,d8190a22e9e66915fb7d0dbe5f6c1cef,PennController,23,0,experiment,NULL,PennController,22,_Header_,End,1687287613339,6144967ffe41b9c5f9e9f41c,6144967ffe41b9c5f9e9f41c,20,cat,filler,D,50,cat40.jpg,cat60.jpg,GoalA,NULL
1687287886,d8190a22e9e66915fb7d0dbe5f6c1cef,PennController,23,0,experiment,NULL,Canvas,canvas6,Print,NA,1687287620024,6144967ffe41b9c5f9e9f41c,6144967ffe41b9c5f9e9f41c,20,cat,filler,D,50,cat40.jpg,cat60.jpg,GoalA,NULL
1687287886,d8190a22e9e66915fb7d0dbe5f6c1cef,PennController,23,0,experiment,NULL,Video,progression,buffer,0.00201,1687287616863,6144967ffe41b9c5f9e9f41c,6144967ffe41b9c5f9e9f41c,20,cat,filler,D,50,cat40.jpg,cat60.jpg,GoalA,NULL
1687287886,d8190a22e9e66915fb7d0dbe5f6c1cef,PennController,23,0,experiment,NULL,Selector,choice,Selection,option2,1687287621510,6144967ffe41b9c5f9e9f41c,6144967ffe41b9c5f9e9f41c,20,cat,filler,D,50,cat40.jpg,cat60.jpg,GoalA,option1;option2
1687287886,d8190a22e9e66915fb7d0dbe5f6c1cef,PennController,23,0,experiment,NULL,PennController,22,_Trial_,End,1687287621513,6144967ffe41b9c5f9e9f41c,6144967ffe41b9c5f9e9f41c,20,cat,filler,D,50,cat40.jpg,cat60.jpg,GoalA,NULL
1687287886,d8190a22e9e66915fb7d0dbe5f6c1cef,PennController,13,0,experiment,NULL,PennController,12,_Trial_,Start,1687287621516,6144967ffe41b9c5f9e9f41c,6144967ffe41b9c5f9e9f41c,10,train,critical,D,25,train15.jpg,train35.jpg,high,NULL
1687287886,d8190a22e9e66915fb7d0dbe5f6c1cef,PennController,13,0,experiment,NULL,PennController,12,_Header_,Start,1687287621516,6144967ffe41b9c5f9e9f41c,6144967ffe41b9c5f9e9f41c,10,train,critical,D,25,train15.jpg,train35.jpg,high,NULL
1687287886,d8190a22e9e66915fb7d0dbe5f6c1cef,PennController,13,0,experiment,NULL,PennController,12,_Header_,End,1687287621516,6144967ffe41b9c5f9e9f41c,6144967ffe41b9c5f9e9f41c,10,train,critical,D,25,train15.jpg,train35.jpg,high,NULL
1687287886,d8190a22e9e66915fb7d0dbe5f6c1cef,PennController,13,0,experiment,NULL,Canvas,canvas6,Print,NA,1687287627228,6144967ffe41b9c5f9e9f41c,6144967ffe41b9c5f9e9f41c,10,train,critical,D,25,train15.jpg,train35.jpg,high,NULL
1687287886,d8190a22e9e66915fb7d0dbe5f6c1cef,PennController,13,0,experiment,NULL,Video,progression,buffer,0.006092,1687287625052,6144967ffe41b9c5f9e9f41c,6144967ffe41b9c5f9e9f41c,10,train,critical,D,25,train15.jpg,train35.jpg,high,NULL
1687287886,d8190a22e9e66915fb7d0dbe5f6c1cef,PennController,13,0,experiment,NULL,Selector,choice,Selection,option1,1687287629232,6144967ffe41b9c5f9e9f41c,6144967ffe41b9c5f9e9f41c,10,train,critical,D,25,train15.jpg,train35.jpg,high,option1;option2
1687287886,d8190a22e9e66915fb7d0dbe5f6c1cef,PennController,13,0,experiment,NULL,PennController,12,_Trial_,End,1687287629235,6144967ffe41b9c5f9e9f41c,6144967ffe41b9c5f9e9f41c,10,train,critical,D,25,train15.jpg,train35.jpg,high,NULL
1687287886,d8190a22e9e66915fb7d0dbe5f6c1cef,PennController,20,0,experiment,NULL,PennController,19,_Trial_,Start,1687287629239,6144967ffe41b9c5f9e9f41c,6144967ffe41b9c5f9e9f41c,17,roll,critical,D,50,roll40.jpg,roll60.jpg,high,NULL
1687287886,d8190a22e9e66915fb7d0dbe5f6c1cef,PennController,20,0,experiment,NULL,PennController,19,_Header_,Start,1687287629239,6144967ffe41b9c5f9e9f41c,6144967ffe41b9c5f9e9f41c,17,roll,critical,D,50,roll40.jpg,roll60.jpg,high,NULL
1687287886,d8190a22e9e66915fb7d0dbe5f6c1cef,PennController,20,0,experiment,NULL,PennController,19,_Header_,End,1687287629239,6144967ffe41b9c5f9e9f41c,6144967ffe41b9c5f9e9f41c,17,roll,critical,D,50,roll40.jpg,roll60.jpg,high,NULL
1687287886,d8190a22e9e66915fb7d0dbe5f6c1cef,PennController,20,0,experiment,NULL,Canvas,canvas6,Print,NA,1687287635930,6144967ffe41b9c5f9e9f41c,6144967ffe41b9c5f9e9f41c,17,roll,critical,D,50,roll40.jpg,roll60.jpg,high,NULL
1687287886,d8190a22e9e66915fb7d0dbe5f6c1cef,PennController,20,0,experiment,NULL,Video,progression,buffer,0.013032,1687287632780,6144967ffe41b9c5f9e9f41c,6144967ffe41b9c5f9e9f41c,17,roll,critical,D,50,roll40.jpg,roll60.jpg,high,NULL
1687287886,d8190a22e9e66915fb7d0dbe5f6c1cef,PennController,20,0,experiment,NULL,Selector,choice,Selection,option1,1687287638136,6144967ffe41b9c5f9e9f41c,6144967ffe41b9c5f9e9f41c,17,roll,critical,D,50,roll40.jpg,roll60.jpg,high,option1;option2
1687287886,d8190a22e9e66915fb7d0dbe5f6c1cef,PennController,20,0,experiment,NULL,PennController,19,_Trial_,End,1687287638139,6144967ffe41b9c5f9e9f41c,6144967ffe41b9c5f9e9f41c,17,roll,critical,D,50,roll40.jpg,roll60.jpg,high,NULL
1687287886,d8190a22e9e66915fb7d0dbe5f6c1cef,PennController,30,0,experiment,NULL,PennController,29,_Trial_,Start,1687287638143,6144967ffe41b9c5f9e9f41c,6144967ffe41b9c5f9e9f41c,27,square,filler,D,75,square65.jpg,square85.jpg,GoalB,NULL
1687287886,d8190a22e9e66915fb7d0dbe5f6c1cef,PennController,30,0,experiment,NULL,PennController,29,_Header_,Start,1687287638143,6144967ffe41b9c5f9e9f41c,6144967ffe41b9c5f9e9f41c,27,square,filler,D,75,square65.jpg,square85.jpg,GoalB,NULL
1687287886,d8190a22e9e66915fb7d0dbe5f6c1cef,PennController,30,0,experiment,NULL,PennController,29,_Header_,End,1687287638143,6144967ffe41b9c5f9e9f41c,6144967ffe41b9c5f9e9f41c,27,square,filler,D,75,square65.jpg,square85.jpg,GoalB,NULL
1687287886,d8190a22e9e66915fb7d0dbe5f6c1cef,PennController,30,0,experiment,NULL,Canvas,canvas6,Print,NA,1687287645854,6144967ffe41b9c5f9e9f41c,6144967ffe41b9c5f9e9f41c,27,square,filler,D,75,square65.jpg,square85.jpg,GoalB,NULL
1687287886,d8190a22e9e66915fb7d0dbe5f6c1cef,PennController,30,0,experiment,NULL,Video,progression,buffer,0.006973,1687287641682,6144967ffe41b9c5f9e9f41c,6144967ffe41b9c5f9e9f41c,27,square,filler,D,75,square65.jpg,square85.jpg,GoalB,NULL
1687287886,d8190a22e9e66915fb7d0dbe5f6c1cef,PennController,30,0,experiment,NULL,Selector,choice,Selection,option1,1687287648808,6144967ffe41b9c5f9e9f41c,6144967ffe41b9c5f9e9f41c,27,square,filler,D,75,square65.jpg,square85.jpg,GoalB,option1;option2
1687287886,d8190a22e9e66915fb7d0dbe5f6c1cef,PennController,30,0,experiment,NULL,PennController,29,_Trial_,End,1687287648810,6144967ffe41b9c5f9e9f41c,6144967ffe41b9c5f9e9f41c,27,square,filler,D,75,square65.jpg,square85.jpg,GoalB,NULL
1687287886,d8190a22e9e66915fb7d0dbe5f6c1cef,PennController,29,0,experiment,NULL,PennController,28,_Trial_,Start,1687287648813,6144967ffe41b9c5f9e9f41c,6144967ffe41b9c5f9e9f41c,26,sandwich,filler,D,50,sandwich40.jpg,sandwich60.jpg,GoalA,NULL
1687287886,d8190a22e9e66915fb7d0dbe5f6c1cef,PennController,29,0,experiment,NULL,PennController,28,_Header_,Start,1687287648813,6144967ffe41b9c5f9e9f41c,6144967ffe41b9c5f9e9f41c,26,sandwich,filler,D,50,sandwich40.jpg,sandwich60.jpg,GoalA,NULL
1687287886,d8190a22e9e66915fb7d0dbe5f6c1cef,PennController,29,0,experiment,NULL,PennController,28,_Header_,End,1687287648813,6144967ffe41b9c5f9e9f41c,6144967ffe41b9c5f9e9f41c,26,sandwich,filler,D,50,sandwich40.jpg,sandwich60.jpg,GoalA,NULL
1687287886,d8190a22e9e66915fb7d0dbe5f6c1cef,PennController,29,0,experiment,NULL,Canvas,canvas6,Print,NA,1687287655522,6144967ffe41b9c5f9e9f41c,6144967ffe41b9c5f9e9f41c,26,sandwich,filler,D,50,sandwich40.jpg,sandwich60.jpg,GoalA,NULL
1687287886,d8190a22e9e66915fb7d0dbe5f6c1cef,PennController,29,0,experiment,NULL,Video,progression,buffer,0.005006,1687287652353,6144967ffe41b9c5f9e9f41c,6144967ffe41b9c5f9e9f41c,26,sandwich,filler,D,50,sandwich40.jpg,sandwich60.jpg,GoalA,NULL
1687287886,d8190a22e9e66915fb7d0dbe5f6c1cef,PennController,29,0,experiment,NULL,Selector,choice,Selection,option1,1687287657100,6144967ffe41b9c5f9e9f41c,6144967ffe41b9c5f9e9f41c,26,sandwich,filler,D,50,sandwich40.jpg,sandwich60.jpg,GoalA,option1;option2
1687287886,d8190a22e9e66915fb7d0dbe5f6c1cef,PennController,29,0,experiment,NULL,PennController,28,_Trial_,End,1687287657101,6144967ffe41b9c5f9e9f41c,6144967ffe41b9c5f9e9f41c,26,sandwich,filler,D,50,sandwich40.jpg,sandwich60.jpg,GoalA,NULL
1687287886,d8190a22e9e66915fb7d0dbe5f6c1cef,PennController,14,0,experiment,NULL,PennController,13,_Trial_,Start,1687287657102,6144967ffe41b9c5f9e9f41c,6144967ffe41b9c5f9e9f41c,11,beads,critical,D,50,beads40.jpg,beads60.jpg,high,NULL
1687287886,d8190a22e9e66915fb7d0dbe5f6c1cef,PennController,14,0,experiment,NULL,PennController,13,_Header_,Start,1687287657102,6144967ffe41b9c5f9e9f41c,6144967ffe41b9c5f9e9f41c,11,beads,critical,D,50,beads40.jpg,beads60.jpg,high,NULL
1687287886,d8190a22e9e66915fb7d0dbe5f6c1cef,PennController,14,0,experiment,NULL,PennController,13,_Header_,End,1687287657102,6144967ffe41b9c5f9e9f41c,6144967ffe41b9c5f9e9f41c,11,beads,critical,D,50,beads40.jpg,beads60.jpg,high,NULL
1687287886,d8190a22e9e66915fb7d0dbe5f6c1cef,PennController,14,0,experiment,NULL,Canvas,canvas6,Print,NA,1687287663796,6144967ffe41b9c5f9e9f41c,6144967ffe41b9c5f9e9f41c,11,beads,critical,D,50,beads40.jpg,beads60.jpg,high,NULL
1687287886,d8190a22e9e66915fb7d0dbe5f6c1cef,PennController,14,0,experiment,NULL,Video,progression,buffer,0.002182,1687287660619,6144967ffe41b9c5f9e9f41c,6144967ffe41b9c5f9e9f41c,11,beads,critical,D,50,beads40.jpg,beads60.jpg,high,NULL
1687287886,d8190a22e9e66915fb7d0dbe5f6c1cef,PennController,14,0,experiment,NULL,Selector,choice,Selection,option1,1687287666368,6144967ffe41b9c5f9e9f41c,6144967ffe41b9c5f9e9f41c,11,beads,critical,D,50,beads40.jpg,beads60.jpg,high,option1;option2
1687287886,d8190a22e9e66915fb7d0dbe5f6c1cef,PennController,14,0,experiment,NULL,PennController,13,_Trial_,End,1687287666369,6144967ffe41b9c5f9e9f41c,6144967ffe41b9c5f9e9f41c,11,beads,critical,D,50,beads40.jpg,beads60.jpg,high,NULL
1687287886,d8190a22e9e66915fb7d0dbe5f6c1cef,PennController,24,0,experiment,NULL,PennController,23,_Trial_,Start,1687287666370,6144967ffe41b9c5f9e9f41c,6144967ffe41b9c5f9e9f41c,21,visit,filler,D,75,visit65.jpg,visit85.jpg,GoalB,NULL
1687287886,d8190a22e9e66915fb7d0dbe5f6c1cef,PennController,24,0,experiment,NULL,PennController,23,_Header_,Start,1687287666370,6144967ffe41b9c5f9e9f41c,6144967ffe41b9c5f9e9f41c,21,visit,filler,D,75,visit65.jpg,visit85.jpg,GoalB,NULL
1687287886,d8190a22e9e66915fb7d0dbe5f6c1cef,PennController,24,0,experiment,NULL,PennController,23,_Header_,End,1687287666370,6144967ffe41b9c5f9e9f41c,6144967ffe41b9c5f9e9f41c,21,visit,filler,D,75,visit65.jpg,visit85.jpg,GoalB,NULL
1687287886,d8190a22e9e66915fb7d0dbe5f6c1cef,PennController,24,0,experiment,NULL,Canvas,canvas6,Print,NA,1687287674083,6144967ffe41b9c5f9e9f41c,6144967ffe41b9c5f9e9f41c,21,visit,filler,D,75,visit65.jpg,visit85.jpg,GoalB,NULL
1687287886,d8190a22e9e66915fb7d0dbe5f6c1cef,PennController,24,0,experiment,NULL,Video,progression,buffer,0.009498,1687287669914,6144967ffe41b9c5f9e9f41c,6144967ffe41b9c5f9e9f41c,21,visit,filler,D,75,visit65.jpg,visit85.jpg,GoalB,NULL
1687287886,d8190a22e9e66915fb7d0dbe5f6c1cef,PennController,24,0,experiment,NULL,Selector,choice,Selection,option2,1687287676739,6144967ffe41b9c5f9e9f41c,6144967ffe41b9c5f9e9f41c,21,visit,filler,D,75,visit65.jpg,visit85.jpg,GoalB,option1;option2
1687287886,d8190a22e9e66915fb7d0dbe5f6c1cef,PennController,24,0,experiment,NULL,PennController,23,_Trial_,End,1687287676741,6144967ffe41b9c5f9e9f41c,6144967ffe41b9c5f9e9f41c,21,visit,filler,D,75,visit65.jpg,visit85.jpg,GoalB,NULL
1687287886,d8190a22e9e66915fb7d0dbe5f6c1cef,PennController,19,0,experiment,NULL,PennController,18,_Trial_,Start,1687287676744,6144967ffe41b9c5f9e9f41c,6144967ffe41b9c5f9e9f41c,16,blinds,critical,D,25,blinds15.jpg,blinds33.jpg,high,NULL
1687287886,d8190a22e9e66915fb7d0dbe5f6c1cef,PennController,19,0,experiment,NULL,PennController,18,_Header_,Start,1687287676744,6144967ffe41b9c5f9e9f41c,6144967ffe41b9c5f9e9f41c,16,blinds,critical,D,25,blinds15.jpg,blinds33.jpg,high,NULL
1687287886,d8190a22e9e66915fb7d0dbe5f6c1cef,PennController,19,0,experiment,NULL,PennController,18,_Header_,End,1687287676744,6144967ffe41b9c5f9e9f41c,6144967ffe41b9c5f9e9f41c,16,blinds,critical,D,25,blinds15.jpg,blinds33.jpg,high,NULL
1687287886,d8190a22e9e66915fb7d0dbe5f6c1cef,PennController,19,0,experiment,NULL,Canvas,canvas6,Print,NA,1687287683041,6144967ffe41b9c5f9e9f41c,6144967ffe41b9c5f9e9f41c,16,blinds,critical,D,25,blinds15.jpg,blinds33.jpg,high,NULL
1687287886,d8190a22e9e66915fb7d0dbe5f6c1cef,PennController,19,0,experiment,NULL,Video,progression,buffer,0.002186,1687287680275,6144967ffe41b9c5f9e9f41c,6144967ffe41b9c5f9e9f41c,16,blinds,critical,D,25,blinds15.jpg,blinds33.jpg,high,NULL
1687287886,d8190a22e9e66915fb7d0dbe5f6c1cef,PennController,19,0,experiment,NULL,Selector,choice,Selection,option1,1687287686763,6144967ffe41b9c5f9e9f41c,6144967ffe41b9c5f9e9f41c,16,blinds,critical,D,25,blinds15.jpg,blinds33.jpg,high,option1;option2
1687287886,d8190a22e9e66915fb7d0dbe5f6c1cef,PennController,19,0,experiment,NULL,PennController,18,_Trial_,End,1687287686766,6144967ffe41b9c5f9e9f41c,6144967ffe41b9c5f9e9f41c,16,blinds,critical,D,25,blinds15.jpg,blinds33.jpg,high,NULL
1687287886,d8190a22e9e66915fb7d0dbe5f6c1cef,PennController,8,0,experiment,NULL,PennController,7,_Trial_,Start,1687287686769,6144967ffe41b9c5f9e9f41c,6144967ffe41b9c5f9e9f41c,5,book,critical,D,50,book40.jpg,book60.jpg,high,NULL
1687287886,d8190a22e9e66915fb7d0dbe5f6c1cef,PennController,8,0,experiment,NULL,PennController,7,_Header_,Start,1687287686769,6144967ffe41b9c5f9e9f41c,6144967ffe41b9c5f9e9f41c,5,book,critical,D,50,book40.jpg,book60.jpg,high,NULL
1687287886,d8190a22e9e66915fb7d0dbe5f6c1cef,PennController,8,0,experiment,NULL,PennController,7,_Header_,End,1687287686769,6144967ffe41b9c5f9e9f41c,6144967ffe41b9c5f9e9f41c,5,book,critical,D,50,book40.jpg,book60.jpg,high,NULL
1687287886,d8190a22e9e66915fb7d0dbe5f6c1cef,PennController,8,0,experiment,NULL,Canvas,canvas6,Print,NA,1687287693461,6144967ffe41b9c5f9e9f41c,6144967ffe41b9c5f9e9f41c,5,book,critical,D,50,book40.jpg,book60.jpg,high,NULL
1687287886,d8190a22e9e66915fb7d0dbe5f6c1cef,PennController,8,0,experiment,NULL,Video,progression,buffer,0.005515,1687287690301,6144967ffe41b9c5f9e9f41c,6144967ffe41b9c5f9e9f41c,5,book,critical,D,50,book40.jpg,book60.jpg,high,NULL
1687287886,d8190a22e9e66915fb7d0dbe5f6c1cef,PennController,8,0,experiment,NULL,Selector,choice,Selection,option1,1687287695426,6144967ffe41b9c5f9e9f41c,6144967ffe41b9c5f9e9f41c,5,book,critical,D,50,book40.jpg,book60.jpg,high,option1;option2
1687287886,d8190a22e9e66915fb7d0dbe5f6c1cef,PennController,8,0,experiment,NULL,PennController,7,_Trial_,End,1687287695427,6144967ffe41b9c5f9e9f41c,6144967ffe41b9c5f9e9f41c,5,book,critical,D,50,book40.jpg,book60.jpg,high,NULL
1687287886,d8190a22e9e66915fb7d0dbe5f6c1cef,PennController,7,0,experiment,NULL,PennController,6,_Trial_,Start,1687287695427,6144967ffe41b9c5f9e9f41c,6144967ffe41b9c5f9e9f41c,4,candy,critical,D,25,candy15.jpg,candy35.jpg,high,NULL
1687287886,d8190a22e9e66915fb7d0dbe5f6c1cef,PennController,7,0,experiment,NULL,PennController,6,_Header_,Start,1687287695427,6144967ffe41b9c5f9e9f41c,6144967ffe41b9c5f9e9f41c,4,candy,critical,D,25,candy15.jpg,candy35.jpg,high,NULL
1687287886,d8190a22e9e66915fb7d0dbe5f6c1cef,PennController,7,0,experiment,NULL,PennController,6,_Header_,End,1687287695427,6144967ffe41b9c5f9e9f41c,6144967ffe41b9c5f9e9f41c,4,candy,critical,D,25,candy15.jpg,candy35.jpg,high,NULL
1687287886,d8190a22e9e66915fb7d0dbe5f6c1cef,PennController,7,0,experiment,NULL,Canvas,canvas6,Print,NA,1687287701120,6144967ffe41b9c5f9e9f41c,6144967ffe41b9c5f9e9f41c,4,candy,critical,D,25,candy15.jpg,candy35.jpg,high,NULL
1687287886,d8190a22e9e66915fb7d0dbe5f6c1cef,PennController,7,0,experiment,NULL,Video,progression,buffer,0.002252,1687287698952,6144967ffe41b9c5f9e9f41c,6144967ffe41b9c5f9e9f41c,4,candy,critical,D,25,candy15.jpg,candy35.jpg,high,NULL
1687287886,d8190a22e9e66915fb7d0dbe5f6c1cef,PennController,7,0,experiment,NULL,Selector,choice,Selection,option1,1687287702286,6144967ffe41b9c5f9e9f41c,6144967ffe41b9c5f9e9f41c,4,candy,critical,D,25,candy15.jpg,candy35.jpg,high,option1;option2
1687287886,d8190a22e9e66915fb7d0dbe5f6c1cef,PennController,7,0,experiment,NULL,PennController,6,_Trial_,End,1687287702287,6144967ffe41b9c5f9e9f41c,6144967ffe41b9c5f9e9f41c,4,candy,critical,D,25,candy15.jpg,candy35.jpg,high,NULL
1687287886,d8190a22e9e66915fb7d0dbe5f6c1cef,PennController,6,0,experiment,NULL,PennController,5,_Trial_,Start,1687287702288,6144967ffe41b9c5f9e9f41c,6144967ffe41b9c5f9e9f41c,3,clean,critical,D,75,clean65.jpg,clean85.jpg,high,NULL
1687287886,d8190a22e9e66915fb7d0dbe5f6c1cef,PennController,6,0,experiment,NULL,PennController,5,_Header_,Start,1687287702288,6144967ffe41b9c5f9e9f41c,6144967ffe41b9c5f9e9f41c,3,clean,critical,D,75,clean65.jpg,clean85.jpg,high,NULL
1687287886,d8190a22e9e66915fb7d0dbe5f6c1cef,PennController,6,0,experiment,NULL,PennController,5,_Header_,End,1687287702288,6144967ffe41b9c5f9e9f41c,6144967ffe41b9c5f9e9f41c,3,clean,critical,D,75,clean65.jpg,clean85.jpg,high,NULL
1687287886,d8190a22e9e66915fb7d0dbe5f6c1cef,PennController,6,0,experiment,NULL,Canvas,canvas6,Print,NA,1687287709977,6144967ffe41b9c5f9e9f41c,6144967ffe41b9c5f9e9f41c,3,clean,critical,D,75,clean65.jpg,clean85.jpg,high,NULL
1687287886,d8190a22e9e66915fb7d0dbe5f6c1cef,PennController,6,0,experiment,NULL,Video,progression,buffer,0.004128,1687287705808,6144967ffe41b9c5f9e9f41c,6144967ffe41b9c5f9e9f41c,3,clean,critical,D,75,clean65.jpg,clean85.jpg,high,NULL
1687287886,d8190a22e9e66915fb7d0dbe5f6c1cef,PennController,6,0,experiment,NULL,Selector,choice,Selection,option1,1687287712466,6144967ffe41b9c5f9e9f41c,6144967ffe41b9c5f9e9f41c,3,clean,critical,D,75,clean65.jpg,clean85.jpg,high,option2;option1
1687287886,d8190a22e9e66915fb7d0dbe5f6c1cef,PennController,6,0,experiment,NULL,PennController,5,_Trial_,End,1687287712467,6144967ffe41b9c5f9e9f41c,6144967ffe41b9c5f9e9f41c,3,clean,critical,D,75,clean65.jpg,clean85.jpg,high,NULL
1687287886,d8190a22e9e66915fb7d0dbe5f6c1cef,PennController,28,0,experiment,NULL,PennController,27,_Trial_,Start,1687287712469,6144967ffe41b9c5f9e9f41c,6144967ffe41b9c5f9e9f41c,25,house,filler,D,25,house15.jpg,house35.jpg,GoalB,NULL
1687287886,d8190a22e9e66915fb7d0dbe5f6c1cef,PennController,28,0,experiment,NULL,PennController,27,_Header_,Start,1687287712469,6144967ffe41b9c5f9e9f41c,6144967ffe41b9c5f9e9f41c,25,house,filler,D,25,house15.jpg,house35.jpg,GoalB,NULL
1687287886,d8190a22e9e66915fb7d0dbe5f6c1cef,PennController,28,0,experiment,NULL,PennController,27,_Header_,End,1687287712469,6144967ffe41b9c5f9e9f41c,6144967ffe41b9c5f9e9f41c,25,house,filler,D,25,house15.jpg,house35.jpg,GoalB,NULL
1687287886,d8190a22e9e66915fb7d0dbe5f6c1cef,PennController,28,0,experiment,NULL,Canvas,canvas6,Print,NA,1687287718183,6144967ffe41b9c5f9e9f41c,6144967ffe41b9c5f9e9f41c,25,house,filler,D,25,house15.jpg,house35.jpg,GoalB,NULL
1687287886,d8190a22e9e66915fb7d0dbe5f6c1cef,PennController,28,0,experiment,NULL,Video,progression,buffer,0.006491,1687287716009,6144967ffe41b9c5f9e9f41c,6144967ffe41b9c5f9e9f41c,25,house,filler,D,25,house15.jpg,house35.jpg,GoalB,NULL
1687287886,d8190a22e9e66915fb7d0dbe5f6c1cef,PennController,28,0,experiment,NULL,Selector,choice,Selection,option2,1687287719432,6144967ffe41b9c5f9e9f41c,6144967ffe41b9c5f9e9f41c,25,house,filler,D,25,house15.jpg,house35.jpg,GoalB,option1;option2
1687287886,d8190a22e9e66915fb7d0dbe5f6c1cef,PennController,28,0,experiment,NULL,PennController,27,_Trial_,End,1687287719435,6144967ffe41b9c5f9e9f41c,6144967ffe41b9c5f9e9f41c,25,house,filler,D,25,house15.jpg,house35.jpg,GoalB,NULL
1687287886,d8190a22e9e66915fb7d0dbe5f6c1cef,PennController,17,0,experiment,NULL,PennController,16,_Trial_,Start,1687287719438,6144967ffe41b9c5f9e9f41c,6144967ffe41b9c5f9e9f41c,14,cover,critical,D,50,cover42.jpg,cover60.jpg,high,NULL
1687287886,d8190a22e9e66915fb7d0dbe5f6c1cef,PennController,17,0,experiment,NULL,PennController,16,_Header_,Start,1687287719438,6144967ffe41b9c5f9e9f41c,6144967ffe41b9c5f9e9f41c,14,cover,critical,D,50,cover42.jpg,cover60.jpg,high,NULL
1687287886,d8190a22e9e66915fb7d0dbe5f6c1cef,PennController,17,0,experiment,NULL,PennController,16,_Header_,End,1687287719438,6144967ffe41b9c5f9e9f41c,6144967ffe41b9c5f9e9f41c,14,cover,critical,D,50,cover42.jpg,cover60.jpg,high,NULL
1687287886,d8190a22e9e66915fb7d0dbe5f6c1cef,PennController,17,0,experiment,NULL,Canvas,canvas6,Print,NA,1687287727545,6144967ffe41b9c5f9e9f41c,6144967ffe41b9c5f9e9f41c,14,cover,critical,D,50,cover42.jpg,cover60.jpg,high,NULL
1687287886,d8190a22e9e66915fb7d0dbe5f6c1cef,PennController,17,0,experiment,NULL,Video,progression,buffer,0.005386,1687287722978,6144967ffe41b9c5f9e9f41c,6144967ffe41b9c5f9e9f41c,14,cover,critical,D,50,cover42.jpg,cover60.jpg,high,NULL
1687287886,d8190a22e9e66915fb7d0dbe5f6c1cef,PennController,17,0,experiment,NULL,Selector,choice,Selection,option1,1687287728803,6144967ffe41b9c5f9e9f41c,6144967ffe41b9c5f9e9f41c,14,cover,critical,D,50,cover42.jpg,cover60.jpg,high,option2;option1
1687287886,d8190a22e9e66915fb7d0dbe5f6c1cef,PennController,17,0,experiment,NULL,PennController,16,_Trial_,End,1687287728806,6144967ffe41b9c5f9e9f41c,6144967ffe41b9c5f9e9f41c,14,cover,critical,D,50,cover42.jpg,cover60.jpg,high,NULL
1687287886,d8190a22e9e66915fb7d0dbe5f6c1cef,PennController,10,0,experiment,NULL,PennController,9,_Trial_,Start,1687287728810,6144967ffe41b9c5f9e9f41c,6144967ffe41b9c5f9e9f41c,7,stack,critical,D,25,stack15.jpg,stack35.jpg,high,NULL
1687287886,d8190a22e9e66915fb7d0dbe5f6c1cef,PennController,10,0,experiment,NULL,PennController,9,_Header_,Start,1687287728810,6144967ffe41b9c5f9e9f41c,6144967ffe41b9c5f9e9f41c,7,stack,critical,D,25,stack15.jpg,stack35.jpg,high,NULL
1687287886,d8190a22e9e66915fb7d0dbe5f6c1cef,PennController,10,0,experiment,NULL,PennController,9,_Header_,End,1687287728810,6144967ffe41b9c5f9e9f41c,6144967ffe41b9c5f9e9f41c,7,stack,critical,D,25,stack15.jpg,stack35.jpg,high,NULL
1687287886,d8190a22e9e66915fb7d0dbe5f6c1cef,PennController,10,0,experiment,NULL,Canvas,canvas6,Print,NA,1687287734522,6144967ffe41b9c5f9e9f41c,6144967ffe41b9c5f9e9f41c,7,stack,critical,D,25,stack15.jpg,stack35.jpg,high,NULL
1687287886,d8190a22e9e66915fb7d0dbe5f6c1cef,PennController,10,0,experiment,NULL,Video,progression,buffer,0.008771,1687287732351,6144967ffe41b9c5f9e9f41c,6144967ffe41b9c5f9e9f41c,7,stack,critical,D,25,stack15.jpg,stack35.jpg,high,NULL
1687287886,d8190a22e9e66915fb7d0dbe5f6c1cef,PennController,10,0,experiment,NULL,Selector,choice,Selection,option1,1687287736385,6144967ffe41b9c5f9e9f41c,6144967ffe41b9c5f9e9f41c,7,stack,critical,D,25,stack15.jpg,stack35.jpg,high,option1;option2
1687287886,d8190a22e9e66915fb7d0dbe5f6c1cef,PennController,10,0,experiment,NULL,PennController,9,_Trial_,End,1687287736386,6144967ffe41b9c5f9e9f41c,6144967ffe41b9c5f9e9f41c,7,stack,critical,D,25,stack15.jpg,stack35.jpg,high,NULL
1687287886,d8190a22e9e66915fb7d0dbe5f6c1cef,PennController,12,0,experiment,NULL,PennController,11,_Trial_,Start,1687287736388,6144967ffe41b9c5f9e9f41c,6144967ffe41b9c5f9e9f41c,9,cake,critical,D,75,cake66.jpg,cake84.jpg,high,NULL
1687287886,d8190a22e9e66915fb7d0dbe5f6c1cef,PennController,12,0,experiment,NULL,PennController,11,_Header_,Start,1687287736388,6144967ffe41b9c5f9e9f41c,6144967ffe41b9c5f9e9f41c,9,cake,critical,D,75,cake66.jpg,cake84.jpg,high,NULL
1687287886,d8190a22e9e66915fb7d0dbe5f6c1cef,PennController,12,0,experiment,NULL,PennController,11,_Header_,End,1687287736388,6144967ffe41b9c5f9e9f41c,6144967ffe41b9c5f9e9f41c,9,cake,critical,D,75,cake66.jpg,cake84.jpg,high,NULL
1687287886,d8190a22e9e66915fb7d0dbe5f6c1cef,PennController,12,0,experiment,NULL,Canvas,canvas6,Print,NA,1687287746083,6144967ffe41b9c5f9e9f41c,6144967ffe41b9c5f9e9f41c,9,cake,critical,D,75,cake66.jpg,cake84.jpg,high,NULL
1687287886,d8190a22e9e66915fb7d0dbe5f6c1cef,PennController,12,0,experiment,NULL,Video,progression,buffer,0.005989,1687287739925,6144967ffe41b9c5f9e9f41c,6144967ffe41b9c5f9e9f41c,9,cake,critical,D,75,cake66.jpg,cake84.jpg,high,NULL
1687287886,d8190a22e9e66915fb7d0dbe5f6c1cef,PennController,12,0,experiment,NULL,Selector,choice,Selection,option2,1687287748779,6144967ffe41b9c5f9e9f41c,6144967ffe41b9c5f9e9f41c,9,cake,critical,D,75,cake66.jpg,cake84.jpg,high,option1;option2
1687287886,d8190a22e9e66915fb7d0dbe5f6c1cef,PennController,12,0,experiment,NULL,PennController,11,_Trial_,End,1687287748781,6144967ffe41b9c5f9e9f41c,6144967ffe41b9c5f9e9f41c,9,cake,critical,D,75,cake66.jpg,cake84.jpg,high,NULL
1687287886,d8190a22e9e66915fb7d0dbe5f6c1cef,PennController,18,0,experiment,NULL,PennController,17,_Trial_,Start,1687287748785,6144967ffe41b9c5f9e9f41c,6144967ffe41b9c5f9e9f41c,15,zip,critical,D,75,zip65.jpg,zip85.jpg,high,NULL
1687287886,d8190a22e9e66915fb7d0dbe5f6c1cef,PennController,18,0,experiment,NULL,PennController,17,_Header_,Start,1687287748785,6144967ffe41b9c5f9e9f41c,6144967ffe41b9c5f9e9f41c,15,zip,critical,D,75,zip65.jpg,zip85.jpg,high,NULL
1687287886,d8190a22e9e66915fb7d0dbe5f6c1cef,PennController,18,0,experiment,NULL,PennController,17,_Header_,End,1687287748785,6144967ffe41b9c5f9e9f41c,6144967ffe41b9c5f9e9f41c,15,zip,critical,D,75,zip65.jpg,zip85.jpg,high,NULL
1687287886,d8190a22e9e66915fb7d0dbe5f6c1cef,PennController,18,0,experiment,NULL,Canvas,canvas6,Print,NA,1687287755684,6144967ffe41b9c5f9e9f41c,6144967ffe41b9c5f9e9f41c,15,zip,critical,D,75,zip65.jpg,zip85.jpg,high,NULL
1687287886,d8190a22e9e66915fb7d0dbe5f6c1cef,PennController,18,0,experiment,NULL,Video,progression,buffer,0.00726,1687287752323,6144967ffe41b9c5f9e9f41c,6144967ffe41b9c5f9e9f41c,15,zip,critical,D,75,zip65.jpg,zip85.jpg,high,NULL
1687287886,d8190a22e9e66915fb7d0dbe5f6c1cef,PennController,18,0,experiment,NULL,Selector,choice,Selection,option2,1687287757707,6144967ffe41b9c5f9e9f41c,6144967ffe41b9c5f9e9f41c,15,zip,critical,D,75,zip65.jpg,zip85.jpg,high,option2;option1
1687287886,d8190a22e9e66915fb7d0dbe5f6c1cef,PennController,18,0,experiment,NULL,PennController,17,_Trial_,End,1687287757710,6144967ffe41b9c5f9e9f41c,6144967ffe41b9c5f9e9f41c,15,zip,critical,D,75,zip65.jpg,zip85.jpg,high,NULL
1687287886,d8190a22e9e66915fb7d0dbe5f6c1cef,PennController,22,0,experiment,NULL,PennController,21,_Trial_,Start,1687287757712,6144967ffe41b9c5f9e9f41c,6144967ffe41b9c5f9e9f41c,19,cup,filler,D,25,cup15.jpg,cup35.jpg,GoalB,NULL
1687287886,d8190a22e9e66915fb7d0dbe5f6c1cef,PennController,22,0,experiment,NULL,PennController,21,_Header_,Start,1687287757712,6144967ffe41b9c5f9e9f41c,6144967ffe41b9c5f9e9f41c,19,cup,filler,D,25,cup15.jpg,cup35.jpg,GoalB,NULL
1687287886,d8190a22e9e66915fb7d0dbe5f6c1cef,PennController,22,0,experiment,NULL,PennController,21,_Header_,End,1687287757712,6144967ffe41b9c5f9e9f41c,6144967ffe41b9c5f9e9f41c,19,cup,filler,D,25,cup15.jpg,cup35.jpg,GoalB,NULL
1687287886,d8190a22e9e66915fb7d0dbe5f6c1cef,PennController,22,0,experiment,NULL,Canvas,canvas6,Print,NA,1687287763428,6144967ffe41b9c5f9e9f41c,6144967ffe41b9c5f9e9f41c,19,cup,filler,D,25,cup15.jpg,cup35.jpg,GoalB,NULL
1687287886,d8190a22e9e66915fb7d0dbe5f6c1cef,PennController,22,0,experiment,NULL,Video,progression,buffer,0.007681,1687287761256,6144967ffe41b9c5f9e9f41c,6144967ffe41b9c5f9e9f41c,19,cup,filler,D,25,cup15.jpg,cup35.jpg,GoalB,NULL
1687287886,d8190a22e9e66915fb7d0dbe5f6c1cef,PennController,22,0,experiment,NULL,Selector,choice,Selection,option2,1687287764543,6144967ffe41b9c5f9e9f41c,6144967ffe41b9c5f9e9f41c,19,cup,filler,D,25,cup15.jpg,cup35.jpg,GoalB,option2;option1
1687287886,d8190a22e9e66915fb7d0dbe5f6c1cef,PennController,22,0,experiment,NULL,PennController,21,_Trial_,End,1687287764546,6144967ffe41b9c5f9e9f41c,6144967ffe41b9c5f9e9f41c,19,cup,filler,D,25,cup15.jpg,cup35.jpg,GoalB,NULL
1687287886,d8190a22e9e66915fb7d0dbe5f6c1cef,PennController,31,0,experiment,NULL,PennController,30,_Trial_,Start,1687287764548,6144967ffe41b9c5f9e9f41c,6144967ffe41b9c5f9e9f41c,28,sort,filler,D,25,sort15.jpg,sort35.jpg,GoalA,NULL
1687287886,d8190a22e9e66915fb7d0dbe5f6c1cef,PennController,31,0,experiment,NULL,PennController,30,_Header_,Start,1687287764548,6144967ffe41b9c5f9e9f41c,6144967ffe41b9c5f9e9f41c,28,sort,filler,D,25,sort15.jpg,sort35.jpg,GoalA,NULL
1687287886,d8190a22e9e66915fb7d0dbe5f6c1cef,PennController,31,0,experiment,NULL,PennController,30,_Header_,End,1687287764548,6144967ffe41b9c5f9e9f41c,6144967ffe41b9c5f9e9f41c,28,sort,filler,D,25,sort15.jpg,sort35.jpg,GoalA,NULL
1687287886,d8190a22e9e66915fb7d0dbe5f6c1cef,PennController,31,0,experiment,NULL,Canvas,canvas6,Print,NA,1687287770256,6144967ffe41b9c5f9e9f41c,6144967ffe41b9c5f9e9f41c,28,sort,filler,D,25,sort15.jpg,sort35.jpg,GoalA,NULL
1687287886,d8190a22e9e66915fb7d0dbe5f6c1cef,PennController,31,0,experiment,NULL,Video,progression,buffer,0.004315,1687287768083,6144967ffe41b9c5f9e9f41c,6144967ffe41b9c5f9e9f41c,28,sort,filler,D,25,sort15.jpg,sort35.jpg,GoalA,NULL
1687287886,d8190a22e9e66915fb7d0dbe5f6c1cef,PennController,31,0,experiment,NULL,Selector,choice,Selection,option2,1687287771940,6144967ffe41b9c5f9e9f41c,6144967ffe41b9c5f9e9f41c,28,sort,filler,D,25,sort15.jpg,sort35.jpg,GoalA,option1;option2
1687287886,d8190a22e9e66915fb7d0dbe5f6c1cef,PennController,31,0,experiment,NULL,PennController,30,_Trial_,End,1687287771941,6144967ffe41b9c5f9e9f41c,6144967ffe41b9c5f9e9f41c,28,sort,filler,D,25,sort15.jpg,sort35.jpg,GoalA,NULL
1687287886,d8190a22e9e66915fb7d0dbe5f6c1cef,PennController,27,0,experiment,NULL,PennController,26,_Trial_,Start,1687287771943,6144967ffe41b9c5f9e9f41c,6144967ffe41b9c5f9e9f41c,24,match,filler,D,75,match65.jpg,match85.jpg,GoalA,NULL
1687287886,d8190a22e9e66915fb7d0dbe5f6c1cef,PennController,27,0,experiment,NULL,PennController,26,_Header_,Start,1687287771943,6144967ffe41b9c5f9e9f41c,6144967ffe41b9c5f9e9f41c,24,match,filler,D,75,match65.jpg,match85.jpg,GoalA,NULL
1687287886,d8190a22e9e66915fb7d0dbe5f6c1cef,PennController,27,0,experiment,NULL,PennController,26,_Header_,End,1687287771943,6144967ffe41b9c5f9e9f41c,6144967ffe41b9c5f9e9f41c,24,match,filler,D,75,match65.jpg,match85.jpg,GoalA,NULL
1687287886,d8190a22e9e66915fb7d0dbe5f6c1cef,PennController,27,0,experiment,NULL,Canvas,canvas6,Print,NA,1687287779655,6144967ffe41b9c5f9e9f41c,6144967ffe41b9c5f9e9f41c,24,match,filler,D,75,match65.jpg,match85.jpg,GoalA,NULL
1687287886,d8190a22e9e66915fb7d0dbe5f6c1cef,PennController,27,0,experiment,NULL,Video,progression,buffer,0.00483,1687287775484,6144967ffe41b9c5f9e9f41c,6144967ffe41b9c5f9e9f41c,24,match,filler,D,75,match65.jpg,match85.jpg,GoalA,NULL
1687287886,d8190a22e9e66915fb7d0dbe5f6c1cef,PennController,27,0,experiment,NULL,Selector,choice,Selection,option1,1687287780856,6144967ffe41b9c5f9e9f41c,6144967ffe41b9c5f9e9f41c,24,match,filler,D,75,match65.jpg,match85.jpg,GoalA,option1;option2
1687287886,d8190a22e9e66915fb7d0dbe5f6c1cef,PennController,27,0,experiment,NULL,PennController,26,_Trial_,End,1687287780857,6144967ffe41b9c5f9e9f41c,6144967ffe41b9c5f9e9f41c,24,match,filler,D,75,match65.jpg,match85.jpg,GoalA,NULL
1687287886,d8190a22e9e66915fb7d0dbe5f6c1cef,PennController,25,0,experiment,NULL,PennController,24,_Trial_,Start,1687287780857,6144967ffe41b9c5f9e9f41c,6144967ffe41b9c5f9e9f41c,22,wall,filler,D,25,wall15.jpg,wall35.jpg,GoalA,NULL
1687287886,d8190a22e9e66915fb7d0dbe5f6c1cef,PennController,25,0,experiment,NULL,PennController,24,_Header_,Start,1687287780857,6144967ffe41b9c5f9e9f41c,6144967ffe41b9c5f9e9f41c,22,wall,filler,D,25,wall15.jpg,wall35.jpg,GoalA,NULL
1687287886,d8190a22e9e66915fb7d0dbe5f6c1cef,PennController,25,0,experiment,NULL,PennController,24,_Header_,End,1687287780857,6144967ffe41b9c5f9e9f41c,6144967ffe41b9c5f9e9f41c,22,wall,filler,D,25,wall15.jpg,wall35.jpg,GoalA,NULL
1687287886,d8190a22e9e66915fb7d0dbe5f6c1cef,PennController,25,0,experiment,NULL,Canvas,canvas6,Print,NA,1687287786557,6144967ffe41b9c5f9e9f41c,6144967ffe41b9c5f9e9f41c,22,wall,filler,D,25,wall15.jpg,wall35.jpg,GoalA,NULL
1687287886,d8190a22e9e66915fb7d0dbe5f6c1cef,PennController,25,0,experiment,NULL,Video,progression,buffer,0.010324,1687287784395,6144967ffe41b9c5f9e9f41c,6144967ffe41b9c5f9e9f41c,22,wall,filler,D,25,wall15.jpg,wall35.jpg,GoalA,NULL
1687287886,d8190a22e9e66915fb7d0dbe5f6c1cef,PennController,25,0,experiment,NULL,Selector,choice,Selection,option1,1687287787826,6144967ffe41b9c5f9e9f41c,6144967ffe41b9c5f9e9f41c,22,wall,filler,D,25,wall15.jpg,wall35.jpg,GoalA,option2;option1
1687287886,d8190a22e9e66915fb7d0dbe5f6c1cef,PennController,25,0,experiment,NULL,PennController,24,_Trial_,End,1687287787826,6144967ffe41b9c5f9e9f41c,6144967ffe41b9c5f9e9f41c,22,wall,filler,D,25,wall15.jpg,wall35.jpg,GoalA,NULL
1687287886,d8190a22e9e66915fb7d0dbe5f6c1cef,PennController,26,0,experiment,NULL,PennController,25,_Trial_,Start,1687287787827,6144967ffe41b9c5f9e9f41c,6144967ffe41b9c5f9e9f41c,23,color,filler,D,50,color40.jpg,color60.jpg,GoalB,NULL
1687287886,d8190a22e9e66915fb7d0dbe5f6c1cef,PennController,26,0,experiment,NULL,PennController,25,_Header_,Start,1687287787827,6144967ffe41b9c5f9e9f41c,6144967ffe41b9c5f9e9f41c,23,color,filler,D,50,color40.jpg,color60.jpg,GoalB,NULL
1687287886,d8190a22e9e66915fb7d0dbe5f6c1cef,PennController,26,0,experiment,NULL,PennController,25,_Header_,End,1687287787827,6144967ffe41b9c5f9e9f41c,6144967ffe41b9c5f9e9f41c,23,color,filler,D,50,color40.jpg,color60.jpg,GoalB,NULL
1687287886,d8190a22e9e66915fb7d0dbe5f6c1cef,PennController,26,0,experiment,NULL,Canvas,canvas6,Print,NA,1687287794536,6144967ffe41b9c5f9e9f41c,6144967ffe41b9c5f9e9f41c,23,color,filler,D,50,color40.jpg,color60.jpg,GoalB,NULL
1687287886,d8190a22e9e66915fb7d0dbe5f6c1cef,PennController,26,0,experiment,NULL,Video,progression,buffer,0.002939,1687287791357,6144967ffe41b9c5f9e9f41c,6144967ffe41b9c5f9e9f41c,23,color,filler,D,50,color40.jpg,color60.jpg,GoalB,NULL
1687287886,d8190a22e9e66915fb7d0dbe5f6c1cef,PennController,26,0,experiment,NULL,Selector,choice,Selection,option2,1687287799566,6144967ffe41b9c5f9e9f41c,6144967ffe41b9c5f9e9f41c,23,color,filler,D,50,color40.jpg,color60.jpg,GoalB,option1;option2
1687287886,d8190a22e9e66915fb7d0dbe5f6c1cef,PennController,26,0,experiment,NULL,PennController,25,_Trial_,End,1687287799567,6144967ffe41b9c5f9e9f41c,6144967ffe41b9c5f9e9f41c,23,color,filler,D,50,color40.jpg,color60.jpg,GoalB,NULL
1687287886,d8190a22e9e66915fb7d0dbe5f6c1cef,PennController,9,0,experiment,NULL,PennController,8,_Trial_,Start,1687287799567,6144967ffe41b9c5f9e9f41c,6144967ffe41b9c5f9e9f41c,6,flower,critical,D,75,flower65.jpg,flower85.jpg,high,NULL
1687287886,d8190a22e9e66915fb7d0dbe5f6c1cef,PennController,9,0,experiment,NULL,PennController,8,_Header_,Start,1687287799567,6144967ffe41b9c5f9e9f41c,6144967ffe41b9c5f9e9f41c,6,flower,critical,D,75,flower65.jpg,flower85.jpg,high,NULL
1687287886,d8190a22e9e66915fb7d0dbe5f6c1cef,PennController,9,0,experiment,NULL,PennController,8,_Header_,End,1687287799567,6144967ffe41b9c5f9e9f41c,6144967ffe41b9c5f9e9f41c,6,flower,critical,D,75,flower65.jpg,flower85.jpg,high,NULL
1687287886,d8190a22e9e66915fb7d0dbe5f6c1cef,PennController,9,0,experiment,NULL,Canvas,canvas6,Print,NA,1687287807264,6144967ffe41b9c5f9e9f41c,6144967ffe41b9c5f9e9f41c,6,flower,critical,D,75,flower65.jpg,flower85.jpg,high,NULL
1687287886,d8190a22e9e66915fb7d0dbe5f6c1cef,PennController,9,0,experiment,NULL,Video,progression,buffer,0.008319,1687287803097,6144967ffe41b9c5f9e9f41c,6144967ffe41b9c5f9e9f41c,6,flower,critical,D,75,flower65.jpg,flower85.jpg,high,NULL
1687287886,d8190a22e9e66915fb7d0dbe5f6c1cef,PennController,9,0,experiment,NULL,Selector,choice,Selection,option2,1687287808722,6144967ffe41b9c5f9e9f41c,6144967ffe41b9c5f9e9f41c,6,flower,critical,D,75,flower65.jpg,flower85.jpg,high,option1;option2
1687287886,d8190a22e9e66915fb7d0dbe5f6c1cef,PennController,9,0,experiment,NULL,PennController,8,_Trial_,End,1687287808724,6144967ffe41b9c5f9e9f41c,6144967ffe41b9c5f9e9f41c,6,flower,critical,D,75,flower65.jpg,flower85.jpg,high,NULL
