#
# Results on Tuesday June 20 2023 19:05:08 UTC
# USER AGENT: Mozilla/5.0 (Windows NT 10.0; Win64; x64) AppleWebKit/537.36 (KHTML, like Gecko) Chrome/114.0.0.0 Safari/537.36
# Design number was non-random = 14
#
# Columns below this comment are as follows:
# 1. Results reception time.
# 2. MD5 hash of participant's IP address.
# 3. Controller name.
# 4. Order number of item.
# 5. Inner element number.
# 6. Label.
# 7. Latin Square Group.
# 8. PennElementType.
# 9. PennElementName.
# 10. Parameter.
# 11. Value.
# 12. EventTime.
# 13. PROLIFIC_ID.
# 14. Comments.
1687287908,33781ab82933af0b819b39375b954d25,PennController,2,0,consent,NULL,PennController,0,_Trial_,Start,1687287345762,648996cea4b4110ce0e8c6db,NULL
1687287908,33781ab82933af0b819b39375b954d25,PennController,2,0,consent,NULL,PennController,0,_Header_,Start,1687287345763,648996cea4b4110ce0e8c6db,NULL
1687287908,33781ab82933af0b819b39375b954d25,PennController,2,0,consent,NULL,PennController,0,_Header_,End,1687287345763,648996cea4b4110ce0e8c6db,NULL
1687287908,33781ab82933af0b819b39375b954d25,PennController,2,0,consent,NULL,PennController,0,_Trial_,End,1687287534413,648996cea4b4110ce0e8c6db,NULL
# Columns below this comment are as follows:
# 14. ID.
# 15. Comments.
1687287908,33781ab82933af0b819b39375b954d25,PennController,3,0,intro,NULL,PennController,1,_Trial_,Start,1687287534415,648996cea4b4110ce0e8c6db,648996cea4b4110ce0e8c6db,NULL
1687287908,33781ab82933af0b819b39375b954d25,PennController,3,0,intro,NULL,PennController,1,_Header_,Start,1687287534415,648996cea4b4110ce0e8c6db,648996cea4b4110ce0e8c6db,NULL
1687287908,33781ab82933af0b819b39375b954d25,PennController,3,0,intro,NULL,PennController,1,_Header_,End,1687287534415,648996cea4b4110ce0e8c6db,648996cea4b4110ce0e8c6db,NULL
1687287908,33781ab82933af0b819b39375b954d25,PennController,3,0,intro,NULL,PennController,1,_Trial_,End,1687287564211,648996cea4b4110ce0e8c6db,648996cea4b4110ce0e8c6db,NULL
# Columns below this comment are as follows:
# 15. item_number.
# 16. item.
# 17. type.
# 18. Group.
# 19. prog.
# 20. prev_image.
# 21. next_image.
# 22. height.
# 23. Comments.
1687287908,33781ab82933af0b819b39375b954d25,PennController,23,0,experiment,NULL,PennController,22,_Trial_,Start,1687287564213,648996cea4b4110ce0e8c6db,648996cea4b4110ce0e8c6db,20,cat,filler,C,25,cat15.jpg,cat35.jpg,GoalB,NULL
1687287908,33781ab82933af0b819b39375b954d25,PennController,23,0,experiment,NULL,PennController,22,_Header_,Start,1687287564213,648996cea4b4110ce0e8c6db,648996cea4b4110ce0e8c6db,20,cat,filler,C,25,cat15.jpg,cat35.jpg,GoalB,NULL
1687287908,33781ab82933af0b819b39375b954d25,PennController,23,0,experiment,NULL,PennController,22,_Header_,End,1687287564214,648996cea4b4110ce0e8c6db,648996cea4b4110ce0e8c6db,20,cat,filler,C,25,cat15.jpg,cat35.jpg,GoalB,NULL
1687287908,33781ab82933af0b819b39375b954d25,PennController,23,0,experiment,NULL,Canvas,canvas6,Print,NA,1687287569804,648996cea4b4110ce0e8c6db,648996cea4b4110ce0e8c6db,20,cat,filler,C,25,cat15.jpg,cat35.jpg,GoalB,NULL
1687287908,33781ab82933af0b819b39375b954d25,PennController,23,0,experiment,NULL,Video,progression,buffer,0.002819,1687287567746,648996cea4b4110ce0e8c6db,648996cea4b4110ce0e8c6db,20,cat,filler,C,25,cat15.jpg,cat35.jpg,GoalB,NULL
1687287908,33781ab82933af0b819b39375b954d25,PennController,23,0,experiment,NULL,Selector,choice,Selection,option2,1687287573917,648996cea4b4110ce0e8c6db,648996cea4b4110ce0e8c6db,20,cat,filler,C,25,cat15.jpg,cat35.jpg,GoalB,option1;option2
1687287908,33781ab82933af0b819b39375b954d25,PennController,23,0,experiment,NULL,PennController,22,_Trial_,End,1687287573918,648996cea4b4110ce0e8c6db,648996cea4b4110ce0e8c6db,20,cat,filler,C,25,cat15.jpg,cat35.jpg,GoalB,NULL
1687287908,33781ab82933af0b819b39375b954d25,PennController,21,0,experiment,NULL,PennController,20,_Trial_,Start,1687287573919,648996cea4b4110ce0e8c6db,648996cea4b4110ce0e8c6db,18,ball,critical,C,50,ball40.jpg,ball60.jpg,low,NULL
1687287908,33781ab82933af0b819b39375b954d25,PennController,21,0,experiment,NULL,PennController,20,_Header_,Start,1687287573919,648996cea4b4110ce0e8c6db,648996cea4b4110ce0e8c6db,18,ball,critical,C,50,ball40.jpg,ball60.jpg,low,NULL
1687287908,33781ab82933af0b819b39375b954d25,PennController,21,0,experiment,NULL,PennController,20,_Header_,End,1687287573919,648996cea4b4110ce0e8c6db,648996cea4b4110ce0e8c6db,18,ball,critical,C,50,ball40.jpg,ball60.jpg,low,NULL
1687287908,33781ab82933af0b819b39375b954d25,PennController,21,0,experiment,NULL,Canvas,canvas6,Print,NA,1687287580501,648996cea4b4110ce0e8c6db,648996cea4b4110ce0e8c6db,18,ball,critical,C,50,ball40.jpg,ball60.jpg,low,NULL
1687287908,33781ab82933af0b819b39375b954d25,PennController,21,0,experiment,NULL,Video,progression,buffer,0.002256,1687287577434,648996cea4b4110ce0e8c6db,648996cea4b4110ce0e8c6db,18,ball,critical,C,50,ball40.jpg,ball60.jpg,low,NULL
1687287908,33781ab82933af0b819b39375b954d25,PennController,21,0,experiment,NULL,Selector,choice,Selection,option1,1687287583902,648996cea4b4110ce0e8c6db,648996cea4b4110ce0e8c6db,18,ball,critical,C,50,ball40.jpg,ball60.jpg,low,option1;option2
1687287908,33781ab82933af0b819b39375b954d25,PennController,21,0,experiment,NULL,PennController,20,_Trial_,End,1687287583903,648996cea4b4110ce0e8c6db,648996cea4b4110ce0e8c6db,18,ball,critical,C,50,ball40.jpg,ball60.jpg,low,NULL
1687287908,33781ab82933af0b819b39375b954d25,PennController,17,0,experiment,NULL,PennController,16,_Trial_,Start,1687287583905,648996cea4b4110ce0e8c6db,648996cea4b4110ce0e8c6db,14,cover,critical,C,25,cover15.jpg,cover33.jpg,low,NULL
1687287908,33781ab82933af0b819b39375b954d25,PennController,17,0,experiment,NULL,PennController,16,_Header_,Start,1687287583905,648996cea4b4110ce0e8c6db,648996cea4b4110ce0e8c6db,14,cover,critical,C,25,cover15.jpg,cover33.jpg,low,NULL
1687287908,33781ab82933af0b819b39375b954d25,PennController,17,0,experiment,NULL,PennController,16,_Header_,End,1687287583905,648996cea4b4110ce0e8c6db,648996cea4b4110ce0e8c6db,14,cover,critical,C,25,cover15.jpg,cover33.jpg,low,NULL
1687287908,33781ab82933af0b819b39375b954d25,PennController,17,0,experiment,NULL,Canvas,canvas6,Print,NA,1687287590096,648996cea4b4110ce0e8c6db,648996cea4b4110ce0e8c6db,14,cover,critical,C,25,cover15.jpg,cover33.jpg,low,NULL
1687287908,33781ab82933af0b819b39375b954d25,PennController,17,0,experiment,NULL,Video,progression,buffer,0.00174,1687287587424,648996cea4b4110ce0e8c6db,648996cea4b4110ce0e8c6db,14,cover,critical,C,25,cover15.jpg,cover33.jpg,low,NULL
1687287908,33781ab82933af0b819b39375b954d25,PennController,17,0,experiment,NULL,Selector,choice,Selection,option2,1687287592658,648996cea4b4110ce0e8c6db,648996cea4b4110ce0e8c6db,14,cover,critical,C,25,cover15.jpg,cover33.jpg,low,option1;option2
1687287908,33781ab82933af0b819b39375b954d25,PennController,17,0,experiment,NULL,PennController,16,_Trial_,End,1687287592659,648996cea4b4110ce0e8c6db,648996cea4b4110ce0e8c6db,14,cover,critical,C,25,cover15.jpg,cover33.jpg,low,NULL
1687287908,33781ab82933af0b819b39375b954d25,PennController,19,0,experiment,NULL,PennController,18,_Trial_,Start,1687287592660,648996cea4b4110ce0e8c6db,648996cea4b4110ce0e8c6db,16,blinds,critical,C,75,blinds66.jpg,blinds84.jpg,low,NULL
1687287908,33781ab82933af0b819b39375b954d25,PennController,19,0,experiment,NULL,PennController,18,_Header_,Start,1687287592660,648996cea4b4110ce0e8c6db,648996cea4b4110ce0e8c6db,16,blinds,critical,C,75,blinds66.jpg,blinds84.jpg,low,NULL
1687287908,33781ab82933af0b819b39375b954d25,PennController,19,0,experiment,NULL,PennController,18,_Header_,End,1687287592660,648996cea4b4110ce0e8c6db,648996cea4b4110ce0e8c6db,16,blinds,critical,C,75,blinds66.jpg,blinds84.jpg,low,NULL
1687287908,33781ab82933af0b819b39375b954d25,PennController,19,0,experiment,NULL,Canvas,canvas6,Print,NA,1687287602241,648996cea4b4110ce0e8c6db,648996cea4b4110ce0e8c6db,16,blinds,critical,C,75,blinds66.jpg,blinds84.jpg,low,NULL
1687287908,33781ab82933af0b819b39375b954d25,PennController,19,0,experiment,NULL,Video,progression,buffer,0.001449,1687287596176,648996cea4b4110ce0e8c6db,648996cea4b4110ce0e8c6db,16,blinds,critical,C,75,blinds66.jpg,blinds84.jpg,low,NULL
1687287908,33781ab82933af0b819b39375b954d25,PennController,19,0,experiment,NULL,Selector,choice,Selection,option2,1687287612918,648996cea4b4110ce0e8c6db,648996cea4b4110ce0e8c6db,16,blinds,critical,C,75,blinds66.jpg,blinds84.jpg,low,option1;option2
1687287908,33781ab82933af0b819b39375b954d25,PennController,19,0,experiment,NULL,PennController,18,_Trial_,End,1687287612919,648996cea4b4110ce0e8c6db,648996cea4b4110ce0e8c6db,16,blinds,critical,C,75,blinds66.jpg,blinds84.jpg,low,NULL
1687287908,33781ab82933af0b819b39375b954d25,PennController,6,0,experiment,NULL,PennController,5,_Trial_,Start,1687287612920,648996cea4b4110ce0e8c6db,648996cea4b4110ce0e8c6db,3,clean,critical,C,50,clean40.jpg,clean60.jpg,low,NULL
1687287908,33781ab82933af0b819b39375b954d25,PennController,6,0,experiment,NULL,PennController,5,_Header_,Start,1687287612920,648996cea4b4110ce0e8c6db,648996cea4b4110ce0e8c6db,3,clean,critical,C,50,clean40.jpg,clean60.jpg,low,NULL
1687287908,33781ab82933af0b819b39375b954d25,PennController,6,0,experiment,NULL,PennController,5,_Header_,End,1687287612920,648996cea4b4110ce0e8c6db,648996cea4b4110ce0e8c6db,3,clean,critical,C,50,clean40.jpg,clean60.jpg,low,NULL
1687287908,33781ab82933af0b819b39375b954d25,PennController,6,0,experiment,NULL,Canvas,canvas6,Print,NA,1687287619507,648996cea4b4110ce0e8c6db,648996cea4b4110ce0e8c6db,3,clean,critical,C,50,clean40.jpg,clean60.jpg,low,NULL
1687287908,33781ab82933af0b819b39375b954d25,PennController,6,0,experiment,NULL,Video,progression,buffer,0.002786,1687287616436,648996cea4b4110ce0e8c6db,648996cea4b4110ce0e8c6db,3,clean,critical,C,50,clean40.jpg,clean60.jpg,low,NULL
1687287908,33781ab82933af0b819b39375b954d25,PennController,6,0,experiment,NULL,Selector,choice,Selection,option2,1687287624754,648996cea4b4110ce0e8c6db,648996cea4b4110ce0e8c6db,3,clean,critical,C,50,clean40.jpg,clean60.jpg,low,option1;option2
1687287908,33781ab82933af0b819b39375b954d25,PennController,6,0,experiment,NULL,PennController,5,_Trial_,End,1687287624755,648996cea4b4110ce0e8c6db,648996cea4b4110ce0e8c6db,3,clean,critical,C,50,clean40.jpg,clean60.jpg,low,NULL
1687287908,33781ab82933af0b819b39375b954d25,PennController,11,0,experiment,NULL,PennController,10,_Trial_,Start,1687287624756,648996cea4b4110ce0e8c6db,648996cea4b4110ce0e8c6db,8,cucumber,critical,C,25,cucumber15.jpg,cucumber33.jpg,low,NULL
1687287908,33781ab82933af0b819b39375b954d25,PennController,11,0,experiment,NULL,PennController,10,_Header_,Start,1687287624756,648996cea4b4110ce0e8c6db,648996cea4b4110ce0e8c6db,8,cucumber,critical,C,25,cucumber15.jpg,cucumber33.jpg,low,NULL
1687287908,33781ab82933af0b819b39375b954d25,PennController,11,0,experiment,NULL,PennController,10,_Header_,End,1687287624756,648996cea4b4110ce0e8c6db,648996cea4b4110ce0e8c6db,8,cucumber,critical,C,25,cucumber15.jpg,cucumber33.jpg,low,NULL
1687287908,33781ab82933af0b819b39375b954d25,PennController,11,0,experiment,NULL,Canvas,canvas6,Print,NA,1687287630952,648996cea4b4110ce0e8c6db,648996cea4b4110ce0e8c6db,8,cucumber,critical,C,25,cucumber15.jpg,cucumber33.jpg,low,NULL
1687287908,33781ab82933af0b819b39375b954d25,PennController,11,0,experiment,NULL,Video,progression,buffer,0.00257,1687287628274,648996cea4b4110ce0e8c6db,648996cea4b4110ce0e8c6db,8,cucumber,critical,C,25,cucumber15.jpg,cucumber33.jpg,low,NULL
1687287908,33781ab82933af0b819b39375b954d25,PennController,11,0,experiment,NULL,Selector,choice,Selection,option1,1687287634634,648996cea4b4110ce0e8c6db,648996cea4b4110ce0e8c6db,8,cucumber,critical,C,25,cucumber15.jpg,cucumber33.jpg,low,option2;option1
1687287908,33781ab82933af0b819b39375b954d25,PennController,11,0,experiment,NULL,PennController,10,_Trial_,End,1687287634634,648996cea4b4110ce0e8c6db,648996cea4b4110ce0e8c6db,8,cucumber,critical,C,25,cucumber15.jpg,cucumber33.jpg,low,NULL
1687287908,33781ab82933af0b819b39375b954d25,PennController,14,0,experiment,NULL,PennController,13,_Trial_,Start,1687287634635,648996cea4b4110ce0e8c6db,648996cea4b4110ce0e8c6db,11,beads,critical,C,25,beads15.jpg,beads35.jpg,low,NULL
1687287908,33781ab82933af0b819b39375b954d25,PennController,14,0,experiment,NULL,PennController,13,_Header_,Start,1687287634635,648996cea4b4110ce0e8c6db,648996cea4b4110ce0e8c6db,11,beads,critical,C,25,beads15.jpg,beads35.jpg,low,NULL
1687287908,33781ab82933af0b819b39375b954d25,PennController,14,0,experiment,NULL,PennController,13,_Header_,End,1687287634635,648996cea4b4110ce0e8c6db,648996cea4b4110ce0e8c6db,11,beads,critical,C,25,beads15.jpg,beads35.jpg,low,NULL
1687287908,33781ab82933af0b819b39375b954d25,PennController,14,0,experiment,NULL,Canvas,canvas6,Print,NA,1687287640284,648996cea4b4110ce0e8c6db,648996cea4b4110ce0e8c6db,11,beads,critical,C,25,beads15.jpg,beads35.jpg,low,NULL
1687287908,33781ab82933af0b819b39375b954d25,PennController,14,0,experiment,NULL,Video,progression,buffer,0.003337,1687287638151,648996cea4b4110ce0e8c6db,648996cea4b4110ce0e8c6db,11,beads,critical,C,25,beads15.jpg,beads35.jpg,low,NULL
1687287908,33781ab82933af0b819b39375b954d25,PennController,14,0,experiment,NULL,Selector,choice,Selection,option1,1687287653500,648996cea4b4110ce0e8c6db,648996cea4b4110ce0e8c6db,11,beads,critical,C,25,beads15.jpg,beads35.jpg,low,option1;option2
1687287908,33781ab82933af0b819b39375b954d25,PennController,14,0,experiment,NULL,PennController,13,_Trial_,End,1687287653501,648996cea4b4110ce0e8c6db,648996cea4b4110ce0e8c6db,11,beads,critical,C,25,beads15.jpg,beads35.jpg,low,NULL
1687287908,33781ab82933af0b819b39375b954d25,PennController,10,0,experiment,NULL,PennController,9,_Trial_,Start,1687287653502,648996cea4b4110ce0e8c6db,648996cea4b4110ce0e8c6db,7,stack,critical,C,75,stack65.jpg,stack85.jpg,low,NULL
1687287908,33781ab82933af0b819b39375b954d25,PennController,10,0,experiment,NULL,PennController,9,_Header_,Start,1687287653502,648996cea4b4110ce0e8c6db,648996cea4b4110ce0e8c6db,7,stack,critical,C,75,stack65.jpg,stack85.jpg,low,NULL
1687287908,33781ab82933af0b819b39375b954d25,PennController,10,0,experiment,NULL,PennController,9,_Header_,End,1687287653502,648996cea4b4110ce0e8c6db,648996cea4b4110ce0e8c6db,7,stack,critical,C,75,stack65.jpg,stack85.jpg,low,NULL
1687287908,33781ab82933af0b819b39375b954d25,PennController,10,0,experiment,NULL,Canvas,canvas6,Print,NA,1687287661105,648996cea4b4110ce0e8c6db,648996cea4b4110ce0e8c6db,7,stack,critical,C,75,stack65.jpg,stack85.jpg,low,NULL
1687287908,33781ab82933af0b819b39375b954d25,PennController,10,0,experiment,NULL,Video,progression,buffer,0.001521,1687287657014,648996cea4b4110ce0e8c6db,648996cea4b4110ce0e8c6db,7,stack,critical,C,75,stack65.jpg,stack85.jpg,low,NULL
1687287908,33781ab82933af0b819b39375b954d25,PennController,10,0,experiment,NULL,Selector,choice,Selection,option1,1687287667599,648996cea4b4110ce0e8c6db,648996cea4b4110ce0e8c6db,7,stack,critical,C,75,stack65.jpg,stack85.jpg,low,option2;option1
1687287908,33781ab82933af0b819b39375b954d25,PennController,10,0,experiment,NULL,PennController,9,_Trial_,End,1687287667600,648996cea4b4110ce0e8c6db,648996cea4b4110ce0e8c6db,7,stack,critical,C,75,stack65.jpg,stack85.jpg,low,NULL
1687287908,33781ab82933af0b819b39375b954d25,PennController,31,0,experiment,NULL,PennController,30,_Trial_,Start,1687287667600,648996cea4b4110ce0e8c6db,648996cea4b4110ce0e8c6db,28,sort,filler,C,75,sort65.jpg,sort85.jpg,GoalB,NULL
1687287908,33781ab82933af0b819b39375b954d25,PennController,31,0,experiment,NULL,PennController,30,_Header_,Start,1687287667600,648996cea4b4110ce0e8c6db,648996cea4b4110ce0e8c6db,28,sort,filler,C,75,sort65.jpg,sort85.jpg,GoalB,NULL
1687287908,33781ab82933af0b819b39375b954d25,PennController,31,0,experiment,NULL,PennController,30,_Header_,End,1687287667600,648996cea4b4110ce0e8c6db,648996cea4b4110ce0e8c6db,28,sort,filler,C,75,sort65.jpg,sort85.jpg,GoalB,NULL
1687287908,33781ab82933af0b819b39375b954d25,PennController,31,0,experiment,NULL,Canvas,canvas6,Print,NA,1687287675198,648996cea4b4110ce0e8c6db,648996cea4b4110ce0e8c6db,28,sort,filler,C,75,sort65.jpg,sort85.jpg,GoalB,NULL
1687287908,33781ab82933af0b819b39375b954d25,PennController,31,0,experiment,NULL,Video,progression,buffer,0.001657,1687287671111,648996cea4b4110ce0e8c6db,648996cea4b4110ce0e8c6db,28,sort,filler,C,75,sort65.jpg,sort85.jpg,GoalB,NULL
1687287908,33781ab82933af0b819b39375b954d25,PennController,31,0,experiment,NULL,Selector,choice,Selection,option2,1687287685674,648996cea4b4110ce0e8c6db,648996cea4b4110ce0e8c6db,28,sort,filler,C,75,sort65.jpg,sort85.jpg,GoalB,option1;option2
1687287908,33781ab82933af0b819b39375b954d25,PennController,31,0,experiment,NULL,PennController,30,_Trial_,End,1687287685674,648996cea4b4110ce0e8c6db,648996cea4b4110ce0e8c6db,28,sort,filler,C,75,sort65.jpg,sort85.jpg,GoalB,NULL
1687287908,33781ab82933af0b819b39375b954d25,PennController,9,0,experiment,NULL,PennController,8,_Trial_,Start,1687287685675,648996cea4b4110ce0e8c6db,648996cea4b4110ce0e8c6db,6,flower,critical,C,50,flower40.jpg,flower60.jpg,low,NULL
1687287908,33781ab82933af0b819b39375b954d25,PennController,9,0,experiment,NULL,PennController,8,_Header_,Start,1687287685675,648996cea4b4110ce0e8c6db,648996cea4b4110ce0e8c6db,6,flower,critical,C,50,flower40.jpg,flower60.jpg,low,NULL
1687287908,33781ab82933af0b819b39375b954d25,PennController,9,0,experiment,NULL,PennController,8,_Header_,End,1687287685675,648996cea4b4110ce0e8c6db,648996cea4b4110ce0e8c6db,6,flower,critical,C,50,flower40.jpg,flower60.jpg,low,NULL
1687287908,33781ab82933af0b819b39375b954d25,PennController,9,0,experiment,NULL,Canvas,canvas6,Print,NA,1687287692327,648996cea4b4110ce0e8c6db,648996cea4b4110ce0e8c6db,6,flower,critical,C,50,flower40.jpg,flower60.jpg,low,NULL
1687287908,33781ab82933af0b819b39375b954d25,PennController,9,0,experiment,NULL,Video,progression,buffer,0.001612,1687287689188,648996cea4b4110ce0e8c6db,648996cea4b4110ce0e8c6db,6,flower,critical,C,50,flower40.jpg,flower60.jpg,low,NULL
1687287908,33781ab82933af0b819b39375b954d25,PennController,9,0,experiment,NULL,Selector,choice,Selection,option1,1687287695993,648996cea4b4110ce0e8c6db,648996cea4b4110ce0e8c6db,6,flower,critical,C,50,flower40.jpg,flower60.jpg,low,option1;option2
1687287908,33781ab82933af0b819b39375b954d25,PennController,9,0,experiment,NULL,PennController,8,_Trial_,End,1687287695994,648996cea4b4110ce0e8c6db,648996cea4b4110ce0e8c6db,6,flower,critical,C,50,flower40.jpg,flower60.jpg,low,NULL
1687287908,33781ab82933af0b819b39375b954d25,PennController,16,0,experiment,NULL,PennController,15,_Trial_,Start,1687287695995,648996cea4b4110ce0e8c6db,648996cea4b4110ce0e8c6db,13,mix,critical,C,75,mix65.jpg,mix85.jpg,low,NULL
1687287908,33781ab82933af0b819b39375b954d25,PennController,16,0,experiment,NULL,PennController,15,_Header_,Start,1687287695995,648996cea4b4110ce0e8c6db,648996cea4b4110ce0e8c6db,13,mix,critical,C,75,mix65.jpg,mix85.jpg,low,NULL
1687287908,33781ab82933af0b819b39375b954d25,PennController,16,0,experiment,NULL,PennController,15,_Header_,End,1687287695995,648996cea4b4110ce0e8c6db,648996cea4b4110ce0e8c6db,13,mix,critical,C,75,mix65.jpg,mix85.jpg,low,NULL
1687287908,33781ab82933af0b819b39375b954d25,PennController,16,0,experiment,NULL,Canvas,canvas6,Print,NA,1687287703632,648996cea4b4110ce0e8c6db,648996cea4b4110ce0e8c6db,13,mix,critical,C,75,mix65.jpg,mix85.jpg,low,NULL
1687287908,33781ab82933af0b819b39375b954d25,PennController,16,0,experiment,NULL,Video,progression,buffer,0.003018,1687287699511,648996cea4b4110ce0e8c6db,648996cea4b4110ce0e8c6db,13,mix,critical,C,75,mix65.jpg,mix85.jpg,low,NULL
1687287908,33781ab82933af0b819b39375b954d25,PennController,16,0,experiment,NULL,Selector,choice,Selection,option2,1687287705934,648996cea4b4110ce0e8c6db,648996cea4b4110ce0e8c6db,13,mix,critical,C,75,mix65.jpg,mix85.jpg,low,option1;option2
1687287908,33781ab82933af0b819b39375b954d25,PennController,16,0,experiment,NULL,PennController,15,_Trial_,End,1687287705934,648996cea4b4110ce0e8c6db,648996cea4b4110ce0e8c6db,13,mix,critical,C,75,mix65.jpg,mix85.jpg,low,NULL
1687287908,33781ab82933af0b819b39375b954d25,PennController,25,0,experiment,NULL,PennController,24,_Trial_,Start,1687287705935,648996cea4b4110ce0e8c6db,648996cea4b4110ce0e8c6db,22,wall,filler,C,75,wall65.jpg,wall85.jpg,GoalB,NULL
1687287908,33781ab82933af0b819b39375b954d25,PennController,25,0,experiment,NULL,PennController,24,_Header_,Start,1687287705935,648996cea4b4110ce0e8c6db,648996cea4b4110ce0e8c6db,22,wall,filler,C,75,wall65.jpg,wall85.jpg,GoalB,NULL
1687287908,33781ab82933af0b819b39375b954d25,PennController,25,0,experiment,NULL,PennController,24,_Header_,End,1687287705935,648996cea4b4110ce0e8c6db,648996cea4b4110ce0e8c6db,22,wall,filler,C,75,wall65.jpg,wall85.jpg,GoalB,NULL
1687287908,33781ab82933af0b819b39375b954d25,PennController,25,0,experiment,NULL,Canvas,canvas6,Print,NA,1687287713581,648996cea4b4110ce0e8c6db,648996cea4b4110ce0e8c6db,22,wall,filler,C,75,wall65.jpg,wall85.jpg,GoalB,NULL
1687287908,33781ab82933af0b819b39375b954d25,PennController,25,0,experiment,NULL,Video,progression,buffer,0.002894,1687287709449,648996cea4b4110ce0e8c6db,648996cea4b4110ce0e8c6db,22,wall,filler,C,75,wall65.jpg,wall85.jpg,GoalB,NULL
1687287908,33781ab82933af0b819b39375b954d25,PennController,25,0,experiment,NULL,Selector,choice,Selection,option2,1687287715194,648996cea4b4110ce0e8c6db,648996cea4b4110ce0e8c6db,22,wall,filler,C,75,wall65.jpg,wall85.jpg,GoalB,option1;option2
1687287908,33781ab82933af0b819b39375b954d25,PennController,25,0,experiment,NULL,PennController,24,_Trial_,End,1687287715195,648996cea4b4110ce0e8c6db,648996cea4b4110ce0e8c6db,22,wall,filler,C,75,wall65.jpg,wall85.jpg,GoalB,NULL
1687287908,33781ab82933af0b819b39375b954d25,PennController,18,0,experiment,NULL,PennController,17,_Trial_,Start,1687287715196,648996cea4b4110ce0e8c6db,648996cea4b4110ce0e8c6db,15,zip,critical,C,50,zip40.jpg,zip60.jpg,low,NULL
1687287908,33781ab82933af0b819b39375b954d25,PennController,18,0,experiment,NULL,PennController,17,_Header_,Start,1687287715196,648996cea4b4110ce0e8c6db,648996cea4b4110ce0e8c6db,15,zip,critical,C,50,zip40.jpg,zip60.jpg,low,NULL
1687287908,33781ab82933af0b819b39375b954d25,PennController,18,0,experiment,NULL,PennController,17,_Header_,End,1687287715196,648996cea4b4110ce0e8c6db,648996cea4b4110ce0e8c6db,15,zip,critical,C,50,zip40.jpg,zip60.jpg,low,NULL
1687287908,33781ab82933af0b819b39375b954d25,PennController,18,0,experiment,NULL,Canvas,canvas6,Print,NA,1687287721880,648996cea4b4110ce0e8c6db,648996cea4b4110ce0e8c6db,15,zip,critical,C,50,zip40.jpg,zip60.jpg,low,NULL
1687287908,33781ab82933af0b819b39375b954d25,PennController,18,0,experiment,NULL,Video,progression,buffer,0.001348,1687287718706,648996cea4b4110ce0e8c6db,648996cea4b4110ce0e8c6db,15,zip,critical,C,50,zip40.jpg,zip60.jpg,low,NULL
1687287908,33781ab82933af0b819b39375b954d25,PennController,18,0,experiment,NULL,Selector,choice,Selection,option2,1687287725088,648996cea4b4110ce0e8c6db,648996cea4b4110ce0e8c6db,15,zip,critical,C,50,zip40.jpg,zip60.jpg,low,option2;option1
1687287908,33781ab82933af0b819b39375b954d25,PennController,18,0,experiment,NULL,PennController,17,_Trial_,End,1687287725089,648996cea4b4110ce0e8c6db,648996cea4b4110ce0e8c6db,15,zip,critical,C,50,zip40.jpg,zip60.jpg,low,NULL
1687287908,33781ab82933af0b819b39375b954d25,PennController,30,0,experiment,NULL,PennController,29,_Trial_,Start,1687287725090,648996cea4b4110ce0e8c6db,648996cea4b4110ce0e8c6db,27,square,filler,C,50,square40.jpg,square60.jpg,GoalA,NULL
1687287908,33781ab82933af0b819b39375b954d25,PennController,30,0,experiment,NULL,PennController,29,_Header_,Start,1687287725090,648996cea4b4110ce0e8c6db,648996cea4b4110ce0e8c6db,27,square,filler,C,50,square40.jpg,square60.jpg,GoalA,NULL
1687287908,33781ab82933af0b819b39375b954d25,PennController,30,0,experiment,NULL,PennController,29,_Header_,End,1687287725090,648996cea4b4110ce0e8c6db,648996cea4b4110ce0e8c6db,27,square,filler,C,50,square40.jpg,square60.jpg,GoalA,NULL
1687287908,33781ab82933af0b819b39375b954d25,PennController,30,0,experiment,NULL,Canvas,canvas6,Print,NA,1687287731765,648996cea4b4110ce0e8c6db,648996cea4b4110ce0e8c6db,27,square,filler,C,50,square40.jpg,square60.jpg,GoalA,NULL
1687287908,33781ab82933af0b819b39375b954d25,PennController,30,0,experiment,NULL,Video,progression,buffer,0.002338,1687287728601,648996cea4b4110ce0e8c6db,648996cea4b4110ce0e8c6db,27,square,filler,C,50,square40.jpg,square60.jpg,GoalA,NULL
1687287908,33781ab82933af0b819b39375b954d25,PennController,30,0,experiment,NULL,Selector,choice,Selection,option1,1687287735076,648996cea4b4110ce0e8c6db,648996cea4b4110ce0e8c6db,27,square,filler,C,50,square40.jpg,square60.jpg,GoalA,option2;option1
1687287908,33781ab82933af0b819b39375b954d25,PennController,30,0,experiment,NULL,PennController,29,_Trial_,End,1687287735077,648996cea4b4110ce0e8c6db,648996cea4b4110ce0e8c6db,27,square,filler,C,50,square40.jpg,square60.jpg,GoalA,NULL
1687287908,33781ab82933af0b819b39375b954d25,PennController,12,0,experiment,NULL,PennController,11,_Trial_,Start,1687287735078,648996cea4b4110ce0e8c6db,648996cea4b4110ce0e8c6db,9,cake,critical,C,50,cake42.jpg,cake60.jpg,low,NULL
1687287908,33781ab82933af0b819b39375b954d25,PennController,12,0,experiment,NULL,PennController,11,_Header_,Start,1687287735078,648996cea4b4110ce0e8c6db,648996cea4b4110ce0e8c6db,9,cake,critical,C,50,cake42.jpg,cake60.jpg,low,NULL
1687287908,33781ab82933af0b819b39375b954d25,PennController,12,0,experiment,NULL,PennController,11,_Header_,End,1687287735078,648996cea4b4110ce0e8c6db,648996cea4b4110ce0e8c6db,9,cake,critical,C,50,cake42.jpg,cake60.jpg,low,NULL
1687287908,33781ab82933af0b819b39375b954d25,PennController,12,0,experiment,NULL,Canvas,canvas6,Print,NA,1687287743165,648996cea4b4110ce0e8c6db,648996cea4b4110ce0e8c6db,9,cake,critical,C,50,cake42.jpg,cake60.jpg,low,NULL
1687287908,33781ab82933af0b819b39375b954d25,PennController,12,0,experiment,NULL,Video,progression,buffer,0.001567,1687287738591,648996cea4b4110ce0e8c6db,648996cea4b4110ce0e8c6db,9,cake,critical,C,50,cake42.jpg,cake60.jpg,low,NULL
1687287908,33781ab82933af0b819b39375b954d25,PennController,12,0,experiment,NULL,Selector,choice,Selection,option2,1687287763704,648996cea4b4110ce0e8c6db,648996cea4b4110ce0e8c6db,9,cake,critical,C,50,cake42.jpg,cake60.jpg,low,option1;option2
1687287908,33781ab82933af0b819b39375b954d25,PennController,12,0,experiment,NULL,PennController,11,_Trial_,End,1687287763705,648996cea4b4110ce0e8c6db,648996cea4b4110ce0e8c6db,9,cake,critical,C,50,cake42.jpg,cake60.jpg,low,NULL
1687287908,33781ab82933af0b819b39375b954d25,PennController,13,0,experiment,NULL,PennController,12,_Trial_,Start,1687287763706,648996cea4b4110ce0e8c6db,648996cea4b4110ce0e8c6db,10,train,critical,C,75,train65.jpg,train85.jpg,low,NULL
1687287908,33781ab82933af0b819b39375b954d25,PennController,13,0,experiment,NULL,PennController,12,_Header_,Start,1687287763706,648996cea4b4110ce0e8c6db,648996cea4b4110ce0e8c6db,10,train,critical,C,75,train65.jpg,train85.jpg,low,NULL
1687287908,33781ab82933af0b819b39375b954d25,PennController,13,0,experiment,NULL,PennController,12,_Header_,End,1687287763706,648996cea4b4110ce0e8c6db,648996cea4b4110ce0e8c6db,10,train,critical,C,75,train65.jpg,train85.jpg,low,NULL
1687287908,33781ab82933af0b819b39375b954d25,PennController,13,0,experiment,NULL,Canvas,canvas6,Print,NA,1687287771407,648996cea4b4110ce0e8c6db,648996cea4b4110ce0e8c6db,10,train,critical,C,75,train65.jpg,train85.jpg,low,NULL
1687287908,33781ab82933af0b819b39375b954d25,PennController,13,0,experiment,NULL,Video,progression,buffer,0.00133,1687287767221,648996cea4b4110ce0e8c6db,648996cea4b4110ce0e8c6db,10,train,critical,C,75,train65.jpg,train85.jpg,low,NULL
1687287908,33781ab82933af0b819b39375b954d25,PennController,13,0,experiment,NULL,Selector,choice,Selection,option2,1687287773099,648996cea4b4110ce0e8c6db,648996cea4b4110ce0e8c6db,10,train,critical,C,75,train65.jpg,train85.jpg,low,option1;option2
1687287908,33781ab82933af0b819b39375b954d25,PennController,13,0,experiment,NULL,PennController,12,_Trial_,End,1687287773100,648996cea4b4110ce0e8c6db,648996cea4b4110ce0e8c6db,10,train,critical,C,75,train65.jpg,train85.jpg,low,NULL
1687287908,33781ab82933af0b819b39375b954d25,PennController,27,0,experiment,NULL,PennController,26,_Trial_,Start,1687287773101,648996cea4b4110ce0e8c6db,648996cea4b4110ce0e8c6db,24,match,filler,C,50,match40.jpg,match60.jpg,GoalB,NULL
1687287908,33781ab82933af0b819b39375b954d25,PennController,27,0,experiment,NULL,PennController,26,_Header_,Start,1687287773101,648996cea4b4110ce0e8c6db,648996cea4b4110ce0e8c6db,24,match,filler,C,50,match40.jpg,match60.jpg,GoalB,NULL
1687287908,33781ab82933af0b819b39375b954d25,PennController,27,0,experiment,NULL,PennController,26,_Header_,End,1687287773101,648996cea4b4110ce0e8c6db,648996cea4b4110ce0e8c6db,24,match,filler,C,50,match40.jpg,match60.jpg,GoalB,NULL
1687287908,33781ab82933af0b819b39375b954d25,PennController,27,0,experiment,NULL,Canvas,canvas6,Print,NA,1687287779788,648996cea4b4110ce0e8c6db,648996cea4b4110ce0e8c6db,24,match,filler,C,50,match40.jpg,match60.jpg,GoalB,NULL
1687287908,33781ab82933af0b819b39375b954d25,PennController,27,0,experiment,NULL,Video,progression,buffer,0.003445,1687287776616,648996cea4b4110ce0e8c6db,648996cea4b4110ce0e8c6db,24,match,filler,C,50,match40.jpg,match60.jpg,GoalB,NULL
1687287908,33781ab82933af0b819b39375b954d25,PennController,27,0,experiment,NULL,Selector,choice,Selection,option1,1687287783639,648996cea4b4110ce0e8c6db,648996cea4b4110ce0e8c6db,24,match,filler,C,50,match40.jpg,match60.jpg,GoalB,option1;option2
1687287908,33781ab82933af0b819b39375b954d25,PennController,27,0,experiment,NULL,PennController,26,_Trial_,End,1687287783640,648996cea4b4110ce0e8c6db,648996cea4b4110ce0e8c6db,24,match,filler,C,50,match40.jpg,match60.jpg,GoalB,NULL
1687287908,33781ab82933af0b819b39375b954d25,PennController,20,0,experiment,NULL,PennController,19,_Trial_,Start,1687287783641,648996cea4b4110ce0e8c6db,648996cea4b4110ce0e8c6db,17,roll,critical,C,25,roll15.jpg,roll35.jpg,low,NULL
1687287908,33781ab82933af0b819b39375b954d25,PennController,20,0,experiment,NULL,PennController,19,_Header_,Start,1687287783641,648996cea4b4110ce0e8c6db,648996cea4b4110ce0e8c6db,17,roll,critical,C,25,roll15.jpg,roll35.jpg,low,NULL
1687287908,33781ab82933af0b819b39375b954d25,PennController,20,0,experiment,NULL,PennController,19,_Header_,End,1687287783641,648996cea4b4110ce0e8c6db,648996cea4b4110ce0e8c6db,17,roll,critical,C,25,roll15.jpg,roll35.jpg,low,NULL
1687287908,33781ab82933af0b819b39375b954d25,PennController,20,0,experiment,NULL,Canvas,canvas6,Print,NA,1687287789352,648996cea4b4110ce0e8c6db,648996cea4b4110ce0e8c6db,17,roll,critical,C,25,roll15.jpg,roll35.jpg,low,NULL
1687287908,33781ab82933af0b819b39375b954d25,PennController,20,0,experiment,NULL,Video,progression,buffer,0.002358,1687287787157,648996cea4b4110ce0e8c6db,648996cea4b4110ce0e8c6db,17,roll,critical,C,25,roll15.jpg,roll35.jpg,low,NULL
1687287908,33781ab82933af0b819b39375b954d25,PennController,20,0,experiment,NULL,Selector,choice,Selection,option1,1687287791585,648996cea4b4110ce0e8c6db,648996cea4b4110ce0e8c6db,17,roll,critical,C,25,roll15.jpg,roll35.jpg,low,option2;option1
1687287908,33781ab82933af0b819b39375b954d25,PennController,20,0,experiment,NULL,PennController,19,_Trial_,End,1687287791586,648996cea4b4110ce0e8c6db,648996cea4b4110ce0e8c6db,17,roll,critical,C,25,roll15.jpg,roll35.jpg,low,NULL
1687287908,33781ab82933af0b819b39375b954d25,PennController,15,0,experiment,NULL,PennController,14,_Trial_,Start,1687287791586,648996cea4b4110ce0e8c6db,648996cea4b4110ce0e8c6db,12,erase,critical,C,50,erase42.jpg,erase60.jpg,low,NULL
1687287908,33781ab82933af0b819b39375b954d25,PennController,15,0,experiment,NULL,PennController,14,_Header_,Start,1687287791586,648996cea4b4110ce0e8c6db,648996cea4b4110ce0e8c6db,12,erase,critical,C,50,erase42.jpg,erase60.jpg,low,NULL
1687287908,33781ab82933af0b819b39375b954d25,PennController,15,0,experiment,NULL,PennController,14,_Header_,End,1687287791586,648996cea4b4110ce0e8c6db,648996cea4b4110ce0e8c6db,12,erase,critical,C,50,erase42.jpg,erase60.jpg,low,NULL
1687287908,33781ab82933af0b819b39375b954d25,PennController,15,0,experiment,NULL,Canvas,canvas6,Print,NA,1687287799699,648996cea4b4110ce0e8c6db,648996cea4b4110ce0e8c6db,12,erase,critical,C,50,erase42.jpg,erase60.jpg,low,NULL
1687287908,33781ab82933af0b819b39375b954d25,PennController,15,0,experiment,NULL,Video,progression,buffer,0.00133,1687287795101,648996cea4b4110ce0e8c6db,648996cea4b4110ce0e8c6db,12,erase,critical,C,50,erase42.jpg,erase60.jpg,low,NULL
1687287908,33781ab82933af0b819b39375b954d25,PennController,15,0,experiment,NULL,Selector,choice,Selection,option2,1687287801447,648996cea4b4110ce0e8c6db,648996cea4b4110ce0e8c6db,12,erase,critical,C,50,erase42.jpg,erase60.jpg,low,option1;option2
1687287908,33781ab82933af0b819b39375b954d25,PennController,15,0,experiment,NULL,PennController,14,_Trial_,End,1687287801448,648996cea4b4110ce0e8c6db,648996cea4b4110ce0e8c6db,12,erase,critical,C,50,erase42.jpg,erase60.jpg,low,NULL
1687287908,33781ab82933af0b819b39375b954d25,PennController,32,0,experiment,NULL,PennController,31,_Trial_,Start,1687287801449,648996cea4b4110ce0e8c6db,648996cea4b4110ce0e8c6db,29,frog,filler,C,25,frog15.jpg,frog35.jpg,GoalA,NULL
1687287908,33781ab82933af0b819b39375b954d25,PennController,32,0,experiment,NULL,PennController,31,_Header_,Start,1687287801449,648996cea4b4110ce0e8c6db,648996cea4b4110ce0e8c6db,29,frog,filler,C,25,frog15.jpg,frog35.jpg,GoalA,NULL
1687287908,33781ab82933af0b819b39375b954d25,PennController,32,0,experiment,NULL,PennController,31,_Header_,End,1687287801449,648996cea4b4110ce0e8c6db,648996cea4b4110ce0e8c6db,29,frog,filler,C,25,frog15.jpg,frog35.jpg,GoalA,NULL
1687287908,33781ab82933af0b819b39375b954d25,PennController,32,0,experiment,NULL,Canvas,canvas6,Print,NA,1687287807150,648996cea4b4110ce0e8c6db,648996cea4b4110ce0e8c6db,29,frog,filler,C,25,frog15.jpg,frog35.jpg,GoalA,NULL
1687287908,33781ab82933af0b819b39375b954d25,PennController,32,0,experiment,NULL,Video,progression,buffer,0.00134,1687287804963,648996cea4b4110ce0e8c6db,648996cea4b4110ce0e8c6db,29,frog,filler,C,25,frog15.jpg,frog35.jpg,GoalA,NULL
1687287908,33781ab82933af0b819b39375b954d25,PennController,32,0,experiment,NULL,Selector,choice,Selection,option1,1687287812074,648996cea4b4110ce0e8c6db,648996cea4b4110ce0e8c6db,29,frog,filler,C,25,frog15.jpg,frog35.jpg,GoalA,option2;option1
1687287908,33781ab82933af0b819b39375b954d25,PennController,32,0,experiment,NULL,PennController,31,_Trial_,End,1687287812075,648996cea4b4110ce0e8c6db,648996cea4b4110ce0e8c6db,29,frog,filler,C,25,frog15.jpg,frog35.jpg,GoalA,NULL
1687287908,33781ab82933af0b819b39375b954d25,PennController,4,0,experiment,NULL,PennController,3,_Trial_,Start,1687287812075,648996cea4b4110ce0e8c6db,648996cea4b4110ce0e8c6db,1,vase,critical,C,75,vase65.jpg,vase85.jpg,low,NULL
1687287908,33781ab82933af0b819b39375b954d25,PennController,4,0,experiment,NULL,PennController,3,_Header_,Start,1687287812075,648996cea4b4110ce0e8c6db,648996cea4b4110ce0e8c6db,1,vase,critical,C,75,vase65.jpg,vase85.jpg,low,NULL
1687287908,33781ab82933af0b819b39375b954d25,PennController,4,0,experiment,NULL,PennController,3,_Header_,End,1687287812075,648996cea4b4110ce0e8c6db,648996cea4b4110ce0e8c6db,1,vase,critical,C,75,vase65.jpg,vase85.jpg,low,NULL
1687287908,33781ab82933af0b819b39375b954d25,PennController,4,0,experiment,NULL,Canvas,canvas6,Print,NA,1687287819775,648996cea4b4110ce0e8c6db,648996cea4b4110ce0e8c6db,1,vase,critical,C,75,vase65.jpg,vase85.jpg,low,NULL
1687287908,33781ab82933af0b819b39375b954d25,PennController,4,0,experiment,NULL,Video,progression,buffer,0.001647,1687287815588,648996cea4b4110ce0e8c6db,648996cea4b4110ce0e8c6db,1,vase,critical,C,75,vase65.jpg,vase85.jpg,low,NULL
1687287908,33781ab82933af0b819b39375b954d25,PennController,4,0,experiment,NULL,Selector,choice,Selection,option2,1687287821028,648996cea4b4110ce0e8c6db,648996cea4b4110ce0e8c6db,1,vase,critical,C,75,vase65.jpg,vase85.jpg,low,option1;option2
1687287908,33781ab82933af0b819b39375b954d25,PennController,4,0,experiment,NULL,PennController,3,_Trial_,End,1687287821029,648996cea4b4110ce0e8c6db,648996cea4b4110ce0e8c6db,1,vase,critical,C,75,vase65.jpg,vase85.jpg,low,NULL
1687287908,33781ab82933af0b819b39375b954d25,PennController,24,0,experiment,NULL,PennController,23,_Trial_,Start,1687287821030,648996cea4b4110ce0e8c6db,648996cea4b4110ce0e8c6db,21,visit,filler,C,50,visit40.jpg,visit60.jpg,GoalA,NULL
1687287908,33781ab82933af0b819b39375b954d25,PennController,24,0,experiment,NULL,PennController,23,_Header_,Start,1687287821030,648996cea4b4110ce0e8c6db,648996cea4b4110ce0e8c6db,21,visit,filler,C,50,visit40.jpg,visit60.jpg,GoalA,NULL
1687287908,33781ab82933af0b819b39375b954d25,PennController,24,0,experiment,NULL,PennController,23,_Header_,End,1687287821030,648996cea4b4110ce0e8c6db,648996cea4b4110ce0e8c6db,21,visit,filler,C,50,visit40.jpg,visit60.jpg,GoalA,NULL
1687287908,33781ab82933af0b819b39375b954d25,PennController,24,0,experiment,NULL,Canvas,canvas6,Print,NA,1687287827726,648996cea4b4110ce0e8c6db,648996cea4b4110ce0e8c6db,21,visit,filler,C,50,visit40.jpg,visit60.jpg,GoalA,NULL
1687287908,33781ab82933af0b819b39375b954d25,PennController,24,0,experiment,NULL,Video,progression,buffer,0.002519,1687287824546,648996cea4b4110ce0e8c6db,648996cea4b4110ce0e8c6db,21,visit,filler,C,50,visit40.jpg,visit60.jpg,GoalA,NULL
1687287908,33781ab82933af0b819b39375b954d25,PennController,24,0,experiment,NULL,Selector,choice,Selection,option1,1687287830788,648996cea4b4110ce0e8c6db,648996cea4b4110ce0e8c6db,21,visit,filler,C,50,visit40.jpg,visit60.jpg,GoalA,option1;option2
1687287908,33781ab82933af0b819b39375b954d25,PennController,24,0,experiment,NULL,PennController,23,_Trial_,End,1687287830789,648996cea4b4110ce0e8c6db,648996cea4b4110ce0e8c6db,21,visit,filler,C,50,visit40.jpg,visit60.jpg,GoalA,NULL
1687287908,33781ab82933af0b819b39375b954d25,PennController,29,0,experiment,NULL,PennController,28,_Trial_,Start,1687287830790,648996cea4b4110ce0e8c6db,648996cea4b4110ce0e8c6db,26,sandwich,filler,C,25,sandwich15.jpg,sandwich35.jpg,GoalB,NULL
1687287908,33781ab82933af0b819b39375b954d25,PennController,29,0,experiment,NULL,PennController,28,_Header_,Start,1687287830790,648996cea4b4110ce0e8c6db,648996cea4b4110ce0e8c6db,26,sandwich,filler,C,25,sandwich15.jpg,sandwich35.jpg,GoalB,NULL
1687287908,33781ab82933af0b819b39375b954d25,PennController,29,0,experiment,NULL,PennController,28,_Header_,End,1687287830790,648996cea4b4110ce0e8c6db,648996cea4b4110ce0e8c6db,26,sandwich,filler,C,25,sandwich15.jpg,sandwich35.jpg,GoalB,NULL
1687287908,33781ab82933af0b819b39375b954d25,PennController,29,0,experiment,NULL,Canvas,canvas6,Print,NA,1687287836497,648996cea4b4110ce0e8c6db,648996cea4b4110ce0e8c6db,26,sandwich,filler,C,25,sandwich15.jpg,sandwich35.jpg,GoalB,NULL
1687287908,33781ab82933af0b819b39375b954d25,PennController,29,0,experiment,NULL,Video,progression,buffer,0.001777,1687287834308,648996cea4b4110ce0e8c6db,648996cea4b4110ce0e8c6db,26,sandwich,filler,C,25,sandwich15.jpg,sandwich35.jpg,GoalB,NULL
1687287908,33781ab82933af0b819b39375b954d25,PennController,29,0,experiment,NULL,Selector,choice,Selection,option1,1687287839239,648996cea4b4110ce0e8c6db,648996cea4b4110ce0e8c6db,26,sandwich,filler,C,25,sandwich15.jpg,sandwich35.jpg,GoalB,option1;option2
1687287908,33781ab82933af0b819b39375b954d25,PennController,29,0,experiment,NULL,PennController,28,_Trial_,End,1687287839239,648996cea4b4110ce0e8c6db,648996cea4b4110ce0e8c6db,26,sandwich,filler,C,25,sandwich15.jpg,sandwich35.jpg,GoalB,NULL
1687287908,33781ab82933af0b819b39375b954d25,PennController,7,0,experiment,NULL,PennController,6,_Trial_,Start,1687287839240,648996cea4b4110ce0e8c6db,648996cea4b4110ce0e8c6db,4,candy,critical,C,75,candy65.jpg,candy85.jpg,low,NULL
1687287908,33781ab82933af0b819b39375b954d25,PennController,7,0,experiment,NULL,PennController,6,_Header_,Start,1687287839240,648996cea4b4110ce0e8c6db,648996cea4b4110ce0e8c6db,4,candy,critical,C,75,candy65.jpg,candy85.jpg,low,NULL
1687287908,33781ab82933af0b819b39375b954d25,PennController,7,0,experiment,NULL,PennController,6,_Header_,End,1687287839240,648996cea4b4110ce0e8c6db,648996cea4b4110ce0e8c6db,4,candy,critical,C,75,candy65.jpg,candy85.jpg,low,NULL
1687287908,33781ab82933af0b819b39375b954d25,PennController,7,0,experiment,NULL,Canvas,canvas6,Print,NA,1687287846951,648996cea4b4110ce0e8c6db,648996cea4b4110ce0e8c6db,4,candy,critical,C,75,candy65.jpg,candy85.jpg,low,NULL
1687287908,33781ab82933af0b819b39375b954d25,PennController,7,0,experiment,NULL,Video,progression,buffer,0.002328,1687287842758,648996cea4b4110ce0e8c6db,648996cea4b4110ce0e8c6db,4,candy,critical,C,75,candy65.jpg,candy85.jpg,low,NULL
1687287908,33781ab82933af0b819b39375b954d25,PennController,7,0,experiment,NULL,Selector,choice,Selection,option2,1687287851818,648996cea4b4110ce0e8c6db,648996cea4b4110ce0e8c6db,4,candy,critical,C,75,candy65.jpg,candy85.jpg,low,option1;option2
1687287908,33781ab82933af0b819b39375b954d25,PennController,7,0,experiment,NULL,PennController,6,_Trial_,End,1687287851819,648996cea4b4110ce0e8c6db,648996cea4b4110ce0e8c6db,4,candy,critical,C,75,candy65.jpg,candy85.jpg,low,NULL
1687287908,33781ab82933af0b819b39375b954d25,PennController,22,0,experiment,NULL,PennController,21,_Trial_,Start,1687287851819,648996cea4b4110ce0e8c6db,648996cea4b4110ce0e8c6db,19,cup,filler,C,75,cup65.jpg,cup85.jpg,GoalA,NULL
1687287908,33781ab82933af0b819b39375b954d25,PennController,22,0,experiment,NULL,PennController,21,_Header_,Start,1687287851819,648996cea4b4110ce0e8c6db,648996cea4b4110ce0e8c6db,19,cup,filler,C,75,cup65.jpg,cup85.jpg,GoalA,NULL
1687287908,33781ab82933af0b819b39375b954d25,PennController,22,0,experiment,NULL,PennController,21,_Header_,End,1687287851819,648996cea4b4110ce0e8c6db,648996cea4b4110ce0e8c6db,19,cup,filler,C,75,cup65.jpg,cup85.jpg,GoalA,NULL
1687287908,33781ab82933af0b819b39375b954d25,PennController,22,0,experiment,NULL,Canvas,canvas6,Print,NA,1687287859527,648996cea4b4110ce0e8c6db,648996cea4b4110ce0e8c6db,19,cup,filler,C,75,cup65.jpg,cup85.jpg,GoalA,NULL
1687287908,33781ab82933af0b819b39375b954d25,PennController,22,0,experiment,NULL,Video,progression,buffer,0.002367,1687287855335,648996cea4b4110ce0e8c6db,648996cea4b4110ce0e8c6db,19,cup,filler,C,75,cup65.jpg,cup85.jpg,GoalA,NULL
1687287908,33781ab82933af0b819b39375b954d25,PennController,22,0,experiment,NULL,Selector,choice,Selection,option2,1687287869891,648996cea4b4110ce0e8c6db,648996cea4b4110ce0e8c6db,19,cup,filler,C,75,cup65.jpg,cup85.jpg,GoalA,option2;option1
1687287908,33781ab82933af0b819b39375b954d25,PennController,22,0,experiment,NULL,PennController,21,_Trial_,End,1687287869891,648996cea4b4110ce0e8c6db,648996cea4b4110ce0e8c6db,19,cup,filler,C,75,cup65.jpg,cup85.jpg,GoalA,NULL
1687287908,33781ab82933af0b819b39375b954d25,PennController,8,0,experiment,NULL,PennController,7,_Trial_,Start,1687287869892,648996cea4b4110ce0e8c6db,648996cea4b4110ce0e8c6db,5,book,critical,C,25,book15.jpg,book35.jpg,low,NULL
1687287908,33781ab82933af0b819b39375b954d25,PennController,8,0,experiment,NULL,PennController,7,_Header_,Start,1687287869892,648996cea4b4110ce0e8c6db,648996cea4b4110ce0e8c6db,5,book,critical,C,25,book15.jpg,book35.jpg,low,NULL
1687287908,33781ab82933af0b819b39375b954d25,PennController,8,0,experiment,NULL,PennController,7,_Header_,End,1687287869892,648996cea4b4110ce0e8c6db,648996cea4b4110ce0e8c6db,5,book,critical,C,25,book15.jpg,book35.jpg,low,NULL
1687287908,33781ab82933af0b819b39375b954d25,PennController,8,0,experiment,NULL,Canvas,canvas6,Print,NA,1687287875603,648996cea4b4110ce0e8c6db,648996cea4b4110ce0e8c6db,5,book,critical,C,25,book15.jpg,book35.jpg,low,NULL
1687287908,33781ab82933af0b819b39375b954d25,PennController,8,0,experiment,NULL,Video,progression,buffer,0.001661,1687287873410,648996cea4b4110ce0e8c6db,648996cea4b4110ce0e8c6db,5,book,critical,C,25,book15.jpg,book35.jpg,low,NULL
1687287908,33781ab82933af0b819b39375b954d25,PennController,8,0,experiment,NULL,Selector,choice,Selection,option2,1687287878138,648996cea4b4110ce0e8c6db,648996cea4b4110ce0e8c6db,5,book,critical,C,25,book15.jpg,book35.jpg,low,option2;option1
1687287908,33781ab82933af0b819b39375b954d25,PennController,8,0,experiment,NULL,PennController,7,_Trial_,End,1687287878138,648996cea4b4110ce0e8c6db,648996cea4b4110ce0e8c6db,5,book,critical,C,25,book15.jpg,book35.jpg,low,NULL
1687287908,33781ab82933af0b819b39375b954d25,PennController,5,0,experiment,NULL,PennController,4,_Trial_,Start,1687287878139,648996cea4b4110ce0e8c6db,648996cea4b4110ce0e8c6db,2,door,critical,C,25,door15.jpg,door35.jpg,low,NULL
1687287908,33781ab82933af0b819b39375b954d25,PennController,5,0,experiment,NULL,PennController,4,_Header_,Start,1687287878139,648996cea4b4110ce0e8c6db,648996cea4b4110ce0e8c6db,2,door,critical,C,25,door15.jpg,door35.jpg,low,NULL
1687287908,33781ab82933af0b819b39375b954d25,PennController,5,0,experiment,NULL,PennController,4,_Header_,End,1687287878139,648996cea4b4110ce0e8c6db,648996cea4b4110ce0e8c6db,2,door,critical,C,25,door15.jpg,door35.jpg,low,NULL
1687287908,33781ab82933af0b819b39375b954d25,PennController,5,0,experiment,NULL,Canvas,canvas6,Print,NA,1687287883855,648996cea4b4110ce0e8c6db,648996cea4b4110ce0e8c6db,2,door,critical,C,25,door15.jpg,door35.jpg,low,NULL
1687287908,33781ab82933af0b819b39375b954d25,PennController,5,0,experiment,NULL,Video,progression,buffer,0.001807,1687287881654,648996cea4b4110ce0e8c6db,648996cea4b4110ce0e8c6db,2,door,critical,C,25,door15.jpg,door35.jpg,low,NULL
1687287908,33781ab82933af0b819b39375b954d25,PennController,5,0,experiment,NULL,Selector,choice,Selection,option2,1687287886711,648996cea4b4110ce0e8c6db,648996cea4b4110ce0e8c6db,2,door,critical,C,25,door15.jpg,door35.jpg,low,option1;option2
1687287908,33781ab82933af0b819b39375b954d25,PennController,5,0,experiment,NULL,PennController,4,_Trial_,End,1687287886712,648996cea4b4110ce0e8c6db,648996cea4b4110ce0e8c6db,2,door,critical,C,25,door15.jpg,door35.jpg,low,NULL
1687287908,33781ab82933af0b819b39375b954d25,PennController,26,0,experiment,NULL,PennController,25,_Trial_,Start,1687287886713,648996cea4b4110ce0e8c6db,648996cea4b4110ce0e8c6db,23,color,filler,C,25,color15.jpg,color35.jpg,GoalA,NULL
1687287908,33781ab82933af0b819b39375b954d25,PennController,26,0,experiment,NULL,PennController,25,_Header_,Start,1687287886713,648996cea4b4110ce0e8c6db,648996cea4b4110ce0e8c6db,23,color,filler,C,25,color15.jpg,color35.jpg,GoalA,NULL
1687287908,33781ab82933af0b819b39375b954d25,PennController,26,0,experiment,NULL,PennController,25,_Header_,End,1687287886713,648996cea4b4110ce0e8c6db,648996cea4b4110ce0e8c6db,23,color,filler,C,25,color15.jpg,color35.jpg,GoalA,NULL
1687287908,33781ab82933af0b819b39375b954d25,PennController,26,0,experiment,NULL,Canvas,canvas6,Print,NA,1687287892421,648996cea4b4110ce0e8c6db,648996cea4b4110ce0e8c6db,23,color,filler,C,25,color15.jpg,color35.jpg,GoalA,NULL
1687287908,33781ab82933af0b819b39375b954d25,PennController,26,0,experiment,NULL,Video,progression,buffer,0.00158,1687287890230,648996cea4b4110ce0e8c6db,648996cea4b4110ce0e8c6db,23,color,filler,C,25,color15.jpg,color35.jpg,GoalA,NULL
1687287908,33781ab82933af0b819b39375b954d25,PennController,26,0,experiment,NULL,Selector,choice,Selection,option2,1687287898664,648996cea4b4110ce0e8c6db,648996cea4b4110ce0e8c6db,23,color,filler,C,25,color15.jpg,color35.jpg,GoalA,option1;option2
1687287908,33781ab82933af0b819b39375b954d25,PennController,26,0,experiment,NULL,PennController,25,_Trial_,End,1687287898665,648996cea4b4110ce0e8c6db,648996cea4b4110ce0e8c6db,23,color,filler,C,25,color15.jpg,color35.jpg,GoalA,NULL
1687287908,33781ab82933af0b819b39375b954d25,PennController,28,0,experiment,NULL,PennController,27,_Trial_,Start,1687287898666,648996cea4b4110ce0e8c6db,648996cea4b4110ce0e8c6db,25,house,filler,C,75,house65.jpg,house85.jpg,GoalA,NULL
1687287908,33781ab82933af0b819b39375b954d25,PennController,28,0,experiment,NULL,PennController,27,_Header_,Start,1687287898666,648996cea4b4110ce0e8c6db,648996cea4b4110ce0e8c6db,25,house,filler,C,75,house65.jpg,house85.jpg,GoalA,NULL
1687287908,33781ab82933af0b819b39375b954d25,PennController,28,0,experiment,NULL,PennController,27,_Header_,End,1687287898666,648996cea4b4110ce0e8c6db,648996cea4b4110ce0e8c6db,25,house,filler,C,75,house65.jpg,house85.jpg,GoalA,NULL
1687287908,33781ab82933af0b819b39375b954d25,PennController,28,0,experiment,NULL,Canvas,canvas6,Print,NA,1687287906372,648996cea4b4110ce0e8c6db,648996cea4b4110ce0e8c6db,25,house,filler,C,75,house65.jpg,house85.jpg,GoalA,NULL
1687287908,33781ab82933af0b819b39375b954d25,PennController,28,0,experiment,NULL,Video,progression,buffer,0.002494,1687287902184,648996cea4b4110ce0e8c6db,648996cea4b4110ce0e8c6db,25,house,filler,C,75,house65.jpg,house85.jpg,GoalA,NULL
1687287908,33781ab82933af0b819b39375b954d25,PennController,28,0,experiment,NULL,Selector,choice,Selection,option2,1687287908633,648996cea4b4110ce0e8c6db,648996cea4b4110ce0e8c6db,25,house,filler,C,75,house65.jpg,house85.jpg,GoalA,option2;option1
1687287908,33781ab82933af0b819b39375b954d25,PennController,28,0,experiment,NULL,PennController,27,_Trial_,End,1687287908634,648996cea4b4110ce0e8c6db,648996cea4b4110ce0e8c6db,25,house,filler,C,75,house65.jpg,house85.jpg,GoalA,NULL
