#
# Results on Tuesday June 20 2023 18:54:08 UTC
# USER AGENT: Mozilla/5.0 (Windows NT 10.0; Win64; x64) AppleWebKit/537.36 (KHTML, like Gecko) Chrome/114.0.0.0 Safari/537.36
# Design number was non-random = 3
#
# Columns below this comment are as follows:
# 1. Results reception time.
# 2. MD5 hash of participant's IP address.
# 3. Controller name.
# 4. Order number of item.
# 5. Inner element number.
# 6. Label.
# 7. Latin Square Group.
# 8. PennElementType.
# 9. PennElementName.
# 10. Parameter.
# 11. Value.
# 12. EventTime.
# 13. PROLIFIC_ID.
# 14. Comments.
1687287248,f8cf39a7b0ae3f0abc1b7f3eb4309922,PennController,2,0,consent,NULL,PennController,0,_Trial_,Start,1687286937838,5ee24da71deb04305a3c19f2,NULL
1687287248,f8cf39a7b0ae3f0abc1b7f3eb4309922,PennController,2,0,consent,NULL,PennController,0,_Header_,Start,1687286937838,5ee24da71deb04305a3c19f2,NULL
1687287248,f8cf39a7b0ae3f0abc1b7f3eb4309922,PennController,2,0,consent,NULL,PennController,0,_Header_,End,1687286937838,5ee24da71deb04305a3c19f2,NULL
1687287248,f8cf39a7b0ae3f0abc1b7f3eb4309922,PennController,2,0,consent,NULL,PennController,0,_Trial_,End,1687286951105,5ee24da71deb04305a3c19f2,NULL
# Columns below this comment are as follows:
# 14. ID.
# 15. Comments.
1687287248,f8cf39a7b0ae3f0abc1b7f3eb4309922,PennController,3,0,intro,NULL,PennController,1,_Trial_,Start,1687286951106,5ee24da71deb04305a3c19f2,5ee24da71deb04305a3c19f2,NULL
1687287248,f8cf39a7b0ae3f0abc1b7f3eb4309922,PennController,3,0,intro,NULL,PennController,1,_Header_,Start,1687286951106,5ee24da71deb04305a3c19f2,5ee24da71deb04305a3c19f2,NULL
1687287248,f8cf39a7b0ae3f0abc1b7f3eb4309922,PennController,3,0,intro,NULL,PennController,1,_Header_,End,1687286951106,5ee24da71deb04305a3c19f2,5ee24da71deb04305a3c19f2,NULL
1687287248,f8cf39a7b0ae3f0abc1b7f3eb4309922,PennController,3,0,intro,NULL,PennController,1,_Trial_,End,1687286976948,5ee24da71deb04305a3c19f2,5ee24da71deb04305a3c19f2,NULL
# Columns below this comment are as follows:
# 15. item_number.
# 16. item.
# 17. type.
# 18. Group.
# 19. prog.
# 20. prev_image.
# 21. next_image.
# 22. height.
# 23. Comments.
1687287248,f8cf39a7b0ae3f0abc1b7f3eb4309922,PennController,26,0,experiment,NULL,PennController,25,_Trial_,Start,1687286976949,5ee24da71deb04305a3c19f2,5ee24da71deb04305a3c19f2,23,color,filler,D,50,color40.jpg,color60.jpg,GoalB,NULL
1687287248,f8cf39a7b0ae3f0abc1b7f3eb4309922,PennController,26,0,experiment,NULL,PennController,25,_Header_,Start,1687286976949,5ee24da71deb04305a3c19f2,5ee24da71deb04305a3c19f2,23,color,filler,D,50,color40.jpg,color60.jpg,GoalB,NULL
1687287248,f8cf39a7b0ae3f0abc1b7f3eb4309922,PennController,26,0,experiment,NULL,PennController,25,_Header_,End,1687286976949,5ee24da71deb04305a3c19f2,5ee24da71deb04305a3c19f2,23,color,filler,D,50,color40.jpg,color60.jpg,GoalB,NULL
1687287248,f8cf39a7b0ae3f0abc1b7f3eb4309922,PennController,26,0,experiment,NULL,Canvas,canvas6,Print,NA,1687286983634,5ee24da71deb04305a3c19f2,5ee24da71deb04305a3c19f2,23,color,filler,D,50,color40.jpg,color60.jpg,GoalB,NULL
1687287248,f8cf39a7b0ae3f0abc1b7f3eb4309922,PennController,26,0,experiment,NULL,Video,progression,buffer,0.001941,1687286980473,5ee24da71deb04305a3c19f2,5ee24da71deb04305a3c19f2,23,color,filler,D,50,color40.jpg,color60.jpg,GoalB,NULL
1687287248,f8cf39a7b0ae3f0abc1b7f3eb4309922,PennController,26,0,experiment,NULL,Selector,choice,Selection,option2,1687286991259,5ee24da71deb04305a3c19f2,5ee24da71deb04305a3c19f2,23,color,filler,D,50,color40.jpg,color60.jpg,GoalB,option2;option1
1687287248,f8cf39a7b0ae3f0abc1b7f3eb4309922,PennController,26,0,experiment,NULL,PennController,25,_Trial_,End,1687286991260,5ee24da71deb04305a3c19f2,5ee24da71deb04305a3c19f2,23,color,filler,D,50,color40.jpg,color60.jpg,GoalB,NULL
1687287248,f8cf39a7b0ae3f0abc1b7f3eb4309922,PennController,4,0,experiment,NULL,PennController,3,_Trial_,Start,1687286991261,5ee24da71deb04305a3c19f2,5ee24da71deb04305a3c19f2,1,vase,critical,D,25,vase15.jpg,vase35.jpg,high,NULL
1687287248,f8cf39a7b0ae3f0abc1b7f3eb4309922,PennController,4,0,experiment,NULL,PennController,3,_Header_,Start,1687286991261,5ee24da71deb04305a3c19f2,5ee24da71deb04305a3c19f2,1,vase,critical,D,25,vase15.jpg,vase35.jpg,high,NULL
1687287248,f8cf39a7b0ae3f0abc1b7f3eb4309922,PennController,4,0,experiment,NULL,PennController,3,_Header_,End,1687286991261,5ee24da71deb04305a3c19f2,5ee24da71deb04305a3c19f2,1,vase,critical,D,25,vase15.jpg,vase35.jpg,high,NULL
1687287248,f8cf39a7b0ae3f0abc1b7f3eb4309922,PennController,4,0,experiment,NULL,Canvas,canvas6,Print,NA,1687286996949,5ee24da71deb04305a3c19f2,5ee24da71deb04305a3c19f2,1,vase,critical,D,25,vase15.jpg,vase35.jpg,high,NULL
1687287248,f8cf39a7b0ae3f0abc1b7f3eb4309922,PennController,4,0,experiment,NULL,Video,progression,buffer,0.002133,1687286994781,5ee24da71deb04305a3c19f2,5ee24da71deb04305a3c19f2,1,vase,critical,D,25,vase15.jpg,vase35.jpg,high,NULL
1687287248,f8cf39a7b0ae3f0abc1b7f3eb4309922,PennController,4,0,experiment,NULL,Selector,choice,Selection,option1,1687286998889,5ee24da71deb04305a3c19f2,5ee24da71deb04305a3c19f2,1,vase,critical,D,25,vase15.jpg,vase35.jpg,high,option1;option2
1687287248,f8cf39a7b0ae3f0abc1b7f3eb4309922,PennController,4,0,experiment,NULL,PennController,3,_Trial_,End,1687286998890,5ee24da71deb04305a3c19f2,5ee24da71deb04305a3c19f2,1,vase,critical,D,25,vase15.jpg,vase35.jpg,high,NULL
1687287248,f8cf39a7b0ae3f0abc1b7f3eb4309922,PennController,25,0,experiment,NULL,PennController,24,_Trial_,Start,1687286998891,5ee24da71deb04305a3c19f2,5ee24da71deb04305a3c19f2,22,wall,filler,D,25,wall15.jpg,wall35.jpg,GoalA,NULL
1687287248,f8cf39a7b0ae3f0abc1b7f3eb4309922,PennController,25,0,experiment,NULL,PennController,24,_Header_,Start,1687286998891,5ee24da71deb04305a3c19f2,5ee24da71deb04305a3c19f2,22,wall,filler,D,25,wall15.jpg,wall35.jpg,GoalA,NULL
1687287248,f8cf39a7b0ae3f0abc1b7f3eb4309922,PennController,25,0,experiment,NULL,PennController,24,_Header_,End,1687286998891,5ee24da71deb04305a3c19f2,5ee24da71deb04305a3c19f2,22,wall,filler,D,25,wall15.jpg,wall35.jpg,GoalA,NULL
1687287248,f8cf39a7b0ae3f0abc1b7f3eb4309922,PennController,25,0,experiment,NULL,Canvas,canvas6,Print,NA,1687287004566,5ee24da71deb04305a3c19f2,5ee24da71deb04305a3c19f2,22,wall,filler,D,25,wall15.jpg,wall35.jpg,GoalA,NULL
1687287248,f8cf39a7b0ae3f0abc1b7f3eb4309922,PennController,25,0,experiment,NULL,Video,progression,buffer,0.00198,1687287002408,5ee24da71deb04305a3c19f2,5ee24da71deb04305a3c19f2,22,wall,filler,D,25,wall15.jpg,wall35.jpg,GoalA,NULL
1687287248,f8cf39a7b0ae3f0abc1b7f3eb4309922,PennController,25,0,experiment,NULL,Selector,choice,Selection,option1,1687287005790,5ee24da71deb04305a3c19f2,5ee24da71deb04305a3c19f2,22,wall,filler,D,25,wall15.jpg,wall35.jpg,GoalA,option1;option2
1687287248,f8cf39a7b0ae3f0abc1b7f3eb4309922,PennController,25,0,experiment,NULL,PennController,24,_Trial_,End,1687287005791,5ee24da71deb04305a3c19f2,5ee24da71deb04305a3c19f2,22,wall,filler,D,25,wall15.jpg,wall35.jpg,GoalA,NULL
1687287248,f8cf39a7b0ae3f0abc1b7f3eb4309922,PennController,23,0,experiment,NULL,PennController,22,_Trial_,Start,1687287005792,5ee24da71deb04305a3c19f2,5ee24da71deb04305a3c19f2,20,cat,filler,D,50,cat40.jpg,cat60.jpg,GoalA,NULL
1687287248,f8cf39a7b0ae3f0abc1b7f3eb4309922,PennController,23,0,experiment,NULL,PennController,22,_Header_,Start,1687287005792,5ee24da71deb04305a3c19f2,5ee24da71deb04305a3c19f2,20,cat,filler,D,50,cat40.jpg,cat60.jpg,GoalA,NULL
1687287248,f8cf39a7b0ae3f0abc1b7f3eb4309922,PennController,23,0,experiment,NULL,PennController,22,_Header_,End,1687287005792,5ee24da71deb04305a3c19f2,5ee24da71deb04305a3c19f2,20,cat,filler,D,50,cat40.jpg,cat60.jpg,GoalA,NULL
1687287248,f8cf39a7b0ae3f0abc1b7f3eb4309922,PennController,23,0,experiment,NULL,Canvas,canvas6,Print,NA,1687287012466,5ee24da71deb04305a3c19f2,5ee24da71deb04305a3c19f2,20,cat,filler,D,50,cat40.jpg,cat60.jpg,GoalA,NULL
1687287248,f8cf39a7b0ae3f0abc1b7f3eb4309922,PennController,23,0,experiment,NULL,Video,progression,buffer,0.001318,1687287009301,5ee24da71deb04305a3c19f2,5ee24da71deb04305a3c19f2,20,cat,filler,D,50,cat40.jpg,cat60.jpg,GoalA,NULL
1687287248,f8cf39a7b0ae3f0abc1b7f3eb4309922,PennController,23,0,experiment,NULL,Selector,choice,Selection,option2,1687287016337,5ee24da71deb04305a3c19f2,5ee24da71deb04305a3c19f2,20,cat,filler,D,50,cat40.jpg,cat60.jpg,GoalA,option2;option1
1687287248,f8cf39a7b0ae3f0abc1b7f3eb4309922,PennController,23,0,experiment,NULL,PennController,22,_Trial_,End,1687287016338,5ee24da71deb04305a3c19f2,5ee24da71deb04305a3c19f2,20,cat,filler,D,50,cat40.jpg,cat60.jpg,GoalA,NULL
1687287248,f8cf39a7b0ae3f0abc1b7f3eb4309922,PennController,30,0,experiment,NULL,PennController,29,_Trial_,Start,1687287016339,5ee24da71deb04305a3c19f2,5ee24da71deb04305a3c19f2,27,square,filler,D,75,square65.jpg,square85.jpg,GoalB,NULL
1687287248,f8cf39a7b0ae3f0abc1b7f3eb4309922,PennController,30,0,experiment,NULL,PennController,29,_Header_,Start,1687287016339,5ee24da71deb04305a3c19f2,5ee24da71deb04305a3c19f2,27,square,filler,D,75,square65.jpg,square85.jpg,GoalB,NULL
1687287248,f8cf39a7b0ae3f0abc1b7f3eb4309922,PennController,30,0,experiment,NULL,PennController,29,_Header_,End,1687287016339,5ee24da71deb04305a3c19f2,5ee24da71deb04305a3c19f2,27,square,filler,D,75,square65.jpg,square85.jpg,GoalB,NULL
1687287248,f8cf39a7b0ae3f0abc1b7f3eb4309922,PennController,30,0,experiment,NULL,Canvas,canvas6,Print,NA,1687287024016,5ee24da71deb04305a3c19f2,5ee24da71deb04305a3c19f2,27,square,filler,D,75,square65.jpg,square85.jpg,GoalB,NULL
1687287248,f8cf39a7b0ae3f0abc1b7f3eb4309922,PennController,30,0,experiment,NULL,Video,progression,buffer,0.001056,1687287019852,5ee24da71deb04305a3c19f2,5ee24da71deb04305a3c19f2,27,square,filler,D,75,square65.jpg,square85.jpg,GoalB,NULL
1687287248,f8cf39a7b0ae3f0abc1b7f3eb4309922,PennController,30,0,experiment,NULL,Selector,choice,Selection,option2,1687287026671,5ee24da71deb04305a3c19f2,5ee24da71deb04305a3c19f2,27,square,filler,D,75,square65.jpg,square85.jpg,GoalB,option2;option1
1687287248,f8cf39a7b0ae3f0abc1b7f3eb4309922,PennController,30,0,experiment,NULL,PennController,29,_Trial_,End,1687287026672,5ee24da71deb04305a3c19f2,5ee24da71deb04305a3c19f2,27,square,filler,D,75,square65.jpg,square85.jpg,GoalB,NULL
1687287248,f8cf39a7b0ae3f0abc1b7f3eb4309922,PennController,28,0,experiment,NULL,PennController,27,_Trial_,Start,1687287026672,5ee24da71deb04305a3c19f2,5ee24da71deb04305a3c19f2,25,house,filler,D,25,house15.jpg,house35.jpg,GoalB,NULL
1687287248,f8cf39a7b0ae3f0abc1b7f3eb4309922,PennController,28,0,experiment,NULL,PennController,27,_Header_,Start,1687287026672,5ee24da71deb04305a3c19f2,5ee24da71deb04305a3c19f2,25,house,filler,D,25,house15.jpg,house35.jpg,GoalB,NULL
1687287248,f8cf39a7b0ae3f0abc1b7f3eb4309922,PennController,28,0,experiment,NULL,PennController,27,_Header_,End,1687287026673,5ee24da71deb04305a3c19f2,5ee24da71deb04305a3c19f2,25,house,filler,D,25,house15.jpg,house35.jpg,GoalB,NULL
1687287248,f8cf39a7b0ae3f0abc1b7f3eb4309922,PennController,28,0,experiment,NULL,Canvas,canvas6,Print,NA,1687287032350,5ee24da71deb04305a3c19f2,5ee24da71deb04305a3c19f2,25,house,filler,D,25,house15.jpg,house35.jpg,GoalB,NULL
1687287248,f8cf39a7b0ae3f0abc1b7f3eb4309922,PennController,28,0,experiment,NULL,Video,progression,buffer,0.001079,1687287030189,5ee24da71deb04305a3c19f2,5ee24da71deb04305a3c19f2,25,house,filler,D,25,house15.jpg,house35.jpg,GoalB,NULL
1687287248,f8cf39a7b0ae3f0abc1b7f3eb4309922,PennController,28,0,experiment,NULL,Selector,choice,Selection,option2,1687287039779,5ee24da71deb04305a3c19f2,5ee24da71deb04305a3c19f2,25,house,filler,D,25,house15.jpg,house35.jpg,GoalB,option1;option2
1687287248,f8cf39a7b0ae3f0abc1b7f3eb4309922,PennController,28,0,experiment,NULL,PennController,27,_Trial_,End,1687287039780,5ee24da71deb04305a3c19f2,5ee24da71deb04305a3c19f2,25,house,filler,D,25,house15.jpg,house35.jpg,GoalB,NULL
1687287248,f8cf39a7b0ae3f0abc1b7f3eb4309922,PennController,13,0,experiment,NULL,PennController,12,_Trial_,Start,1687287039781,5ee24da71deb04305a3c19f2,5ee24da71deb04305a3c19f2,10,train,critical,D,25,train15.jpg,train35.jpg,high,NULL
1687287248,f8cf39a7b0ae3f0abc1b7f3eb4309922,PennController,13,0,experiment,NULL,PennController,12,_Header_,Start,1687287039781,5ee24da71deb04305a3c19f2,5ee24da71deb04305a3c19f2,10,train,critical,D,25,train15.jpg,train35.jpg,high,NULL
1687287248,f8cf39a7b0ae3f0abc1b7f3eb4309922,PennController,13,0,experiment,NULL,PennController,12,_Header_,End,1687287039781,5ee24da71deb04305a3c19f2,5ee24da71deb04305a3c19f2,10,train,critical,D,25,train15.jpg,train35.jpg,high,NULL
1687287248,f8cf39a7b0ae3f0abc1b7f3eb4309922,PennController,13,0,experiment,NULL,Canvas,canvas6,Print,NA,1687287045470,5ee24da71deb04305a3c19f2,5ee24da71deb04305a3c19f2,10,train,critical,D,25,train15.jpg,train35.jpg,high,NULL
1687287248,f8cf39a7b0ae3f0abc1b7f3eb4309922,PennController,13,0,experiment,NULL,Video,progression,buffer,0.001747,1687287043299,5ee24da71deb04305a3c19f2,5ee24da71deb04305a3c19f2,10,train,critical,D,25,train15.jpg,train35.jpg,high,NULL
1687287248,f8cf39a7b0ae3f0abc1b7f3eb4309922,PennController,13,0,experiment,NULL,Selector,choice,Selection,option1,1687287049369,5ee24da71deb04305a3c19f2,5ee24da71deb04305a3c19f2,10,train,critical,D,25,train15.jpg,train35.jpg,high,option1;option2
1687287248,f8cf39a7b0ae3f0abc1b7f3eb4309922,PennController,13,0,experiment,NULL,PennController,12,_Trial_,End,1687287049370,5ee24da71deb04305a3c19f2,5ee24da71deb04305a3c19f2,10,train,critical,D,25,train15.jpg,train35.jpg,high,NULL
1687287248,f8cf39a7b0ae3f0abc1b7f3eb4309922,PennController,32,0,experiment,NULL,PennController,31,_Trial_,Start,1687287049371,5ee24da71deb04305a3c19f2,5ee24da71deb04305a3c19f2,29,frog,filler,D,50,frog40.jpg,frog60.jpg,GoalB,NULL
1687287248,f8cf39a7b0ae3f0abc1b7f3eb4309922,PennController,32,0,experiment,NULL,PennController,31,_Header_,Start,1687287049371,5ee24da71deb04305a3c19f2,5ee24da71deb04305a3c19f2,29,frog,filler,D,50,frog40.jpg,frog60.jpg,GoalB,NULL
1687287248,f8cf39a7b0ae3f0abc1b7f3eb4309922,PennController,32,0,experiment,NULL,PennController,31,_Header_,End,1687287049371,5ee24da71deb04305a3c19f2,5ee24da71deb04305a3c19f2,29,frog,filler,D,50,frog40.jpg,frog60.jpg,GoalB,NULL
1687287248,f8cf39a7b0ae3f0abc1b7f3eb4309922,PennController,32,0,experiment,NULL,Canvas,canvas6,Print,NA,1687287056066,5ee24da71deb04305a3c19f2,5ee24da71deb04305a3c19f2,29,frog,filler,D,50,frog40.jpg,frog60.jpg,GoalB,NULL
1687287248,f8cf39a7b0ae3f0abc1b7f3eb4309922,PennController,32,0,experiment,NULL,Video,progression,buffer,0.001447,1687287052904,5ee24da71deb04305a3c19f2,5ee24da71deb04305a3c19f2,29,frog,filler,D,50,frog40.jpg,frog60.jpg,GoalB,NULL
1687287248,f8cf39a7b0ae3f0abc1b7f3eb4309922,PennController,32,0,experiment,NULL,Selector,choice,Selection,option1,1687287058557,5ee24da71deb04305a3c19f2,5ee24da71deb04305a3c19f2,29,frog,filler,D,50,frog40.jpg,frog60.jpg,GoalB,option2;option1
1687287248,f8cf39a7b0ae3f0abc1b7f3eb4309922,PennController,32,0,experiment,NULL,PennController,31,_Trial_,End,1687287058558,5ee24da71deb04305a3c19f2,5ee24da71deb04305a3c19f2,29,frog,filler,D,50,frog40.jpg,frog60.jpg,GoalB,NULL
1687287248,f8cf39a7b0ae3f0abc1b7f3eb4309922,PennController,12,0,experiment,NULL,PennController,11,_Trial_,Start,1687287058558,5ee24da71deb04305a3c19f2,5ee24da71deb04305a3c19f2,9,cake,critical,D,75,cake66.jpg,cake84.jpg,high,NULL
1687287248,f8cf39a7b0ae3f0abc1b7f3eb4309922,PennController,12,0,experiment,NULL,PennController,11,_Header_,Start,1687287058558,5ee24da71deb04305a3c19f2,5ee24da71deb04305a3c19f2,9,cake,critical,D,75,cake66.jpg,cake84.jpg,high,NULL
1687287248,f8cf39a7b0ae3f0abc1b7f3eb4309922,PennController,12,0,experiment,NULL,PennController,11,_Header_,End,1687287058558,5ee24da71deb04305a3c19f2,5ee24da71deb04305a3c19f2,9,cake,critical,D,75,cake66.jpg,cake84.jpg,high,NULL
1687287248,f8cf39a7b0ae3f0abc1b7f3eb4309922,PennController,12,0,experiment,NULL,Canvas,canvas6,Print,NA,1687287068230,5ee24da71deb04305a3c19f2,5ee24da71deb04305a3c19f2,9,cake,critical,D,75,cake66.jpg,cake84.jpg,high,NULL
1687287248,f8cf39a7b0ae3f0abc1b7f3eb4309922,PennController,12,0,experiment,NULL,Video,progression,buffer,0.00111,1687287062073,5ee24da71deb04305a3c19f2,5ee24da71deb04305a3c19f2,9,cake,critical,D,75,cake66.jpg,cake84.jpg,high,NULL
1687287248,f8cf39a7b0ae3f0abc1b7f3eb4309922,PennController,12,0,experiment,NULL,Selector,choice,Selection,option1,1687287069525,5ee24da71deb04305a3c19f2,5ee24da71deb04305a3c19f2,9,cake,critical,D,75,cake66.jpg,cake84.jpg,high,option1;option2
1687287248,f8cf39a7b0ae3f0abc1b7f3eb4309922,PennController,12,0,experiment,NULL,PennController,11,_Trial_,End,1687287069526,5ee24da71deb04305a3c19f2,5ee24da71deb04305a3c19f2,9,cake,critical,D,75,cake66.jpg,cake84.jpg,high,NULL
1687287248,f8cf39a7b0ae3f0abc1b7f3eb4309922,PennController,8,0,experiment,NULL,PennController,7,_Trial_,Start,1687287069527,5ee24da71deb04305a3c19f2,5ee24da71deb04305a3c19f2,5,book,critical,D,50,book40.jpg,book60.jpg,high,NULL
1687287248,f8cf39a7b0ae3f0abc1b7f3eb4309922,PennController,8,0,experiment,NULL,PennController,7,_Header_,Start,1687287069527,5ee24da71deb04305a3c19f2,5ee24da71deb04305a3c19f2,5,book,critical,D,50,book40.jpg,book60.jpg,high,NULL
1687287248,f8cf39a7b0ae3f0abc1b7f3eb4309922,PennController,8,0,experiment,NULL,PennController,7,_Header_,End,1687287069527,5ee24da71deb04305a3c19f2,5ee24da71deb04305a3c19f2,5,book,critical,D,50,book40.jpg,book60.jpg,high,NULL
1687287248,f8cf39a7b0ae3f0abc1b7f3eb4309922,PennController,8,0,experiment,NULL,Canvas,canvas6,Print,NA,1687287076200,5ee24da71deb04305a3c19f2,5ee24da71deb04305a3c19f2,5,book,critical,D,50,book40.jpg,book60.jpg,high,NULL
1687287248,f8cf39a7b0ae3f0abc1b7f3eb4309922,PennController,8,0,experiment,NULL,Video,progression,buffer,0.001284,1687287073041,5ee24da71deb04305a3c19f2,5ee24da71deb04305a3c19f2,5,book,critical,D,50,book40.jpg,book60.jpg,high,NULL
1687287248,f8cf39a7b0ae3f0abc1b7f3eb4309922,PennController,8,0,experiment,NULL,Selector,choice,Selection,option2,1687287078101,5ee24da71deb04305a3c19f2,5ee24da71deb04305a3c19f2,5,book,critical,D,50,book40.jpg,book60.jpg,high,option2;option1
1687287248,f8cf39a7b0ae3f0abc1b7f3eb4309922,PennController,8,0,experiment,NULL,PennController,7,_Trial_,End,1687287078102,5ee24da71deb04305a3c19f2,5ee24da71deb04305a3c19f2,5,book,critical,D,50,book40.jpg,book60.jpg,high,NULL
1687287248,f8cf39a7b0ae3f0abc1b7f3eb4309922,PennController,16,0,experiment,NULL,PennController,15,_Trial_,Start,1687287078102,5ee24da71deb04305a3c19f2,5ee24da71deb04305a3c19f2,13,mix,critical,D,25,mix15.jpg,mix35.jpg,high,NULL
1687287248,f8cf39a7b0ae3f0abc1b7f3eb4309922,PennController,16,0,experiment,NULL,PennController,15,_Header_,Start,1687287078102,5ee24da71deb04305a3c19f2,5ee24da71deb04305a3c19f2,13,mix,critical,D,25,mix15.jpg,mix35.jpg,high,NULL
1687287248,f8cf39a7b0ae3f0abc1b7f3eb4309922,PennController,16,0,experiment,NULL,PennController,15,_Header_,End,1687287078102,5ee24da71deb04305a3c19f2,5ee24da71deb04305a3c19f2,13,mix,critical,D,25,mix15.jpg,mix35.jpg,high,NULL
1687287248,f8cf39a7b0ae3f0abc1b7f3eb4309922,PennController,16,0,experiment,NULL,Canvas,canvas6,Print,NA,1687287083781,5ee24da71deb04305a3c19f2,5ee24da71deb04305a3c19f2,13,mix,critical,D,25,mix15.jpg,mix35.jpg,high,NULL
1687287248,f8cf39a7b0ae3f0abc1b7f3eb4309922,PennController,16,0,experiment,NULL,Video,progression,buffer,0.001277,1687287081615,5ee24da71deb04305a3c19f2,5ee24da71deb04305a3c19f2,13,mix,critical,D,25,mix15.jpg,mix35.jpg,high,NULL
1687287248,f8cf39a7b0ae3f0abc1b7f3eb4309922,PennController,16,0,experiment,NULL,Selector,choice,Selection,option2,1687287085672,5ee24da71deb04305a3c19f2,5ee24da71deb04305a3c19f2,13,mix,critical,D,25,mix15.jpg,mix35.jpg,high,option2;option1
1687287248,f8cf39a7b0ae3f0abc1b7f3eb4309922,PennController,16,0,experiment,NULL,PennController,15,_Trial_,End,1687287085673,5ee24da71deb04305a3c19f2,5ee24da71deb04305a3c19f2,13,mix,critical,D,25,mix15.jpg,mix35.jpg,high,NULL
1687287248,f8cf39a7b0ae3f0abc1b7f3eb4309922,PennController,20,0,experiment,NULL,PennController,19,_Trial_,Start,1687287085673,5ee24da71deb04305a3c19f2,5ee24da71deb04305a3c19f2,17,roll,critical,D,50,roll40.jpg,roll60.jpg,high,NULL
1687287248,f8cf39a7b0ae3f0abc1b7f3eb4309922,PennController,20,0,experiment,NULL,PennController,19,_Header_,Start,1687287085673,5ee24da71deb04305a3c19f2,5ee24da71deb04305a3c19f2,17,roll,critical,D,50,roll40.jpg,roll60.jpg,high,NULL
1687287248,f8cf39a7b0ae3f0abc1b7f3eb4309922,PennController,20,0,experiment,NULL,PennController,19,_Header_,End,1687287085673,5ee24da71deb04305a3c19f2,5ee24da71deb04305a3c19f2,17,roll,critical,D,50,roll40.jpg,roll60.jpg,high,NULL
1687287248,f8cf39a7b0ae3f0abc1b7f3eb4309922,PennController,20,0,experiment,NULL,Canvas,canvas6,Print,NA,1687287092381,5ee24da71deb04305a3c19f2,5ee24da71deb04305a3c19f2,17,roll,critical,D,50,roll40.jpg,roll60.jpg,high,NULL
1687287248,f8cf39a7b0ae3f0abc1b7f3eb4309922,PennController,20,0,experiment,NULL,Video,progression,buffer,0,1687287089187,5ee24da71deb04305a3c19f2,5ee24da71deb04305a3c19f2,17,roll,critical,D,50,roll40.jpg,roll60.jpg,high,NULL
1687287248,f8cf39a7b0ae3f0abc1b7f3eb4309922,PennController,20,0,experiment,NULL,Selector,choice,Selection,option2,1687287096515,5ee24da71deb04305a3c19f2,5ee24da71deb04305a3c19f2,17,roll,critical,D,50,roll40.jpg,roll60.jpg,high,option2;option1
1687287248,f8cf39a7b0ae3f0abc1b7f3eb4309922,PennController,20,0,experiment,NULL,PennController,19,_Trial_,End,1687287096516,5ee24da71deb04305a3c19f2,5ee24da71deb04305a3c19f2,17,roll,critical,D,50,roll40.jpg,roll60.jpg,high,NULL
1687287248,f8cf39a7b0ae3f0abc1b7f3eb4309922,PennController,6,0,experiment,NULL,PennController,5,_Trial_,Start,1687287096517,5ee24da71deb04305a3c19f2,5ee24da71deb04305a3c19f2,3,clean,critical,D,75,clean65.jpg,clean85.jpg,high,NULL
1687287248,f8cf39a7b0ae3f0abc1b7f3eb4309922,PennController,6,0,experiment,NULL,PennController,5,_Header_,Start,1687287096517,5ee24da71deb04305a3c19f2,5ee24da71deb04305a3c19f2,3,clean,critical,D,75,clean65.jpg,clean85.jpg,high,NULL
1687287248,f8cf39a7b0ae3f0abc1b7f3eb4309922,PennController,6,0,experiment,NULL,PennController,5,_Header_,End,1687287096517,5ee24da71deb04305a3c19f2,5ee24da71deb04305a3c19f2,3,clean,critical,D,75,clean65.jpg,clean85.jpg,high,NULL
1687287248,f8cf39a7b0ae3f0abc1b7f3eb4309922,PennController,6,0,experiment,NULL,Canvas,canvas6,Print,NA,1687287104199,5ee24da71deb04305a3c19f2,5ee24da71deb04305a3c19f2,3,clean,critical,D,75,clean65.jpg,clean85.jpg,high,NULL
1687287248,f8cf39a7b0ae3f0abc1b7f3eb4309922,PennController,6,0,experiment,NULL,Video,progression,buffer,0.001061,1687287100031,5ee24da71deb04305a3c19f2,5ee24da71deb04305a3c19f2,3,clean,critical,D,75,clean65.jpg,clean85.jpg,high,NULL
1687287248,f8cf39a7b0ae3f0abc1b7f3eb4309922,PennController,6,0,experiment,NULL,Selector,choice,Selection,option1,1687287105243,5ee24da71deb04305a3c19f2,5ee24da71deb04305a3c19f2,3,clean,critical,D,75,clean65.jpg,clean85.jpg,high,option1;option2
1687287248,f8cf39a7b0ae3f0abc1b7f3eb4309922,PennController,6,0,experiment,NULL,PennController,5,_Trial_,End,1687287105244,5ee24da71deb04305a3c19f2,5ee24da71deb04305a3c19f2,3,clean,critical,D,75,clean65.jpg,clean85.jpg,high,NULL
1687287248,f8cf39a7b0ae3f0abc1b7f3eb4309922,PennController,27,0,experiment,NULL,PennController,26,_Trial_,Start,1687287105244,5ee24da71deb04305a3c19f2,5ee24da71deb04305a3c19f2,24,match,filler,D,75,match65.jpg,match85.jpg,GoalA,NULL
1687287248,f8cf39a7b0ae3f0abc1b7f3eb4309922,PennController,27,0,experiment,NULL,PennController,26,_Header_,Start,1687287105244,5ee24da71deb04305a3c19f2,5ee24da71deb04305a3c19f2,24,match,filler,D,75,match65.jpg,match85.jpg,GoalA,NULL
1687287248,f8cf39a7b0ae3f0abc1b7f3eb4309922,PennController,27,0,experiment,NULL,PennController,26,_Header_,End,1687287105244,5ee24da71deb04305a3c19f2,5ee24da71deb04305a3c19f2,24,match,filler,D,75,match65.jpg,match85.jpg,GoalA,NULL
1687287248,f8cf39a7b0ae3f0abc1b7f3eb4309922,PennController,27,0,experiment,NULL,Canvas,canvas6,Print,NA,1687287112915,5ee24da71deb04305a3c19f2,5ee24da71deb04305a3c19f2,24,match,filler,D,75,match65.jpg,match85.jpg,GoalA,NULL
1687287248,f8cf39a7b0ae3f0abc1b7f3eb4309922,PennController,27,0,experiment,NULL,Video,progression,buffer,0.001091,1687287108755,5ee24da71deb04305a3c19f2,5ee24da71deb04305a3c19f2,24,match,filler,D,75,match65.jpg,match85.jpg,GoalA,NULL
1687287248,f8cf39a7b0ae3f0abc1b7f3eb4309922,PennController,27,0,experiment,NULL,Selector,choice,Selection,option2,1687287114169,5ee24da71deb04305a3c19f2,5ee24da71deb04305a3c19f2,24,match,filler,D,75,match65.jpg,match85.jpg,GoalA,option1;option2
1687287248,f8cf39a7b0ae3f0abc1b7f3eb4309922,PennController,27,0,experiment,NULL,PennController,26,_Trial_,End,1687287114170,5ee24da71deb04305a3c19f2,5ee24da71deb04305a3c19f2,24,match,filler,D,75,match65.jpg,match85.jpg,GoalA,NULL
1687287248,f8cf39a7b0ae3f0abc1b7f3eb4309922,PennController,21,0,experiment,NULL,PennController,20,_Trial_,Start,1687287114171,5ee24da71deb04305a3c19f2,5ee24da71deb04305a3c19f2,18,ball,critical,D,75,ball65.jpg,ball85.jpg,high,NULL
1687287248,f8cf39a7b0ae3f0abc1b7f3eb4309922,PennController,21,0,experiment,NULL,PennController,20,_Header_,Start,1687287114171,5ee24da71deb04305a3c19f2,5ee24da71deb04305a3c19f2,18,ball,critical,D,75,ball65.jpg,ball85.jpg,high,NULL
1687287248,f8cf39a7b0ae3f0abc1b7f3eb4309922,PennController,21,0,experiment,NULL,PennController,20,_Header_,End,1687287114171,5ee24da71deb04305a3c19f2,5ee24da71deb04305a3c19f2,18,ball,critical,D,75,ball65.jpg,ball85.jpg,high,NULL
1687287248,f8cf39a7b0ae3f0abc1b7f3eb4309922,PennController,21,0,experiment,NULL,Canvas,canvas6,Print,NA,1687287121847,5ee24da71deb04305a3c19f2,5ee24da71deb04305a3c19f2,18,ball,critical,D,75,ball65.jpg,ball85.jpg,high,NULL
1687287248,f8cf39a7b0ae3f0abc1b7f3eb4309922,PennController,21,0,experiment,NULL,Video,progression,buffer,0.001082,1687287117683,5ee24da71deb04305a3c19f2,5ee24da71deb04305a3c19f2,18,ball,critical,D,75,ball65.jpg,ball85.jpg,high,NULL
1687287248,f8cf39a7b0ae3f0abc1b7f3eb4309922,PennController,21,0,experiment,NULL,Selector,choice,Selection,option2,1687287124073,5ee24da71deb04305a3c19f2,5ee24da71deb04305a3c19f2,18,ball,critical,D,75,ball65.jpg,ball85.jpg,high,option1;option2
1687287248,f8cf39a7b0ae3f0abc1b7f3eb4309922,PennController,21,0,experiment,NULL,PennController,20,_Trial_,End,1687287124074,5ee24da71deb04305a3c19f2,5ee24da71deb04305a3c19f2,18,ball,critical,D,75,ball65.jpg,ball85.jpg,high,NULL
1687287248,f8cf39a7b0ae3f0abc1b7f3eb4309922,PennController,22,0,experiment,NULL,PennController,21,_Trial_,Start,1687287124075,5ee24da71deb04305a3c19f2,5ee24da71deb04305a3c19f2,19,cup,filler,D,25,cup15.jpg,cup35.jpg,GoalB,NULL
1687287248,f8cf39a7b0ae3f0abc1b7f3eb4309922,PennController,22,0,experiment,NULL,PennController,21,_Header_,Start,1687287124075,5ee24da71deb04305a3c19f2,5ee24da71deb04305a3c19f2,19,cup,filler,D,25,cup15.jpg,cup35.jpg,GoalB,NULL
1687287248,f8cf39a7b0ae3f0abc1b7f3eb4309922,PennController,22,0,experiment,NULL,PennController,21,_Header_,End,1687287124075,5ee24da71deb04305a3c19f2,5ee24da71deb04305a3c19f2,19,cup,filler,D,25,cup15.jpg,cup35.jpg,GoalB,NULL
1687287248,f8cf39a7b0ae3f0abc1b7f3eb4309922,PennController,22,0,experiment,NULL,Canvas,canvas6,Print,NA,1687287129747,5ee24da71deb04305a3c19f2,5ee24da71deb04305a3c19f2,19,cup,filler,D,25,cup15.jpg,cup35.jpg,GoalB,NULL
1687287248,f8cf39a7b0ae3f0abc1b7f3eb4309922,PennController,22,0,experiment,NULL,Video,progression,buffer,0.001086,1687287127583,5ee24da71deb04305a3c19f2,5ee24da71deb04305a3c19f2,19,cup,filler,D,25,cup15.jpg,cup35.jpg,GoalB,NULL
1687287248,f8cf39a7b0ae3f0abc1b7f3eb4309922,PennController,22,0,experiment,NULL,Selector,choice,Selection,option1,1687287131429,5ee24da71deb04305a3c19f2,5ee24da71deb04305a3c19f2,19,cup,filler,D,25,cup15.jpg,cup35.jpg,GoalB,option1;option2
1687287248,f8cf39a7b0ae3f0abc1b7f3eb4309922,PennController,22,0,experiment,NULL,PennController,21,_Trial_,End,1687287131430,5ee24da71deb04305a3c19f2,5ee24da71deb04305a3c19f2,19,cup,filler,D,25,cup15.jpg,cup35.jpg,GoalB,NULL
1687287248,f8cf39a7b0ae3f0abc1b7f3eb4309922,PennController,9,0,experiment,NULL,PennController,8,_Trial_,Start,1687287131431,5ee24da71deb04305a3c19f2,5ee24da71deb04305a3c19f2,6,flower,critical,D,75,flower65.jpg,flower85.jpg,high,NULL
1687287248,f8cf39a7b0ae3f0abc1b7f3eb4309922,PennController,9,0,experiment,NULL,PennController,8,_Header_,Start,1687287131431,5ee24da71deb04305a3c19f2,5ee24da71deb04305a3c19f2,6,flower,critical,D,75,flower65.jpg,flower85.jpg,high,NULL
1687287248,f8cf39a7b0ae3f0abc1b7f3eb4309922,PennController,9,0,experiment,NULL,PennController,8,_Header_,End,1687287131431,5ee24da71deb04305a3c19f2,5ee24da71deb04305a3c19f2,6,flower,critical,D,75,flower65.jpg,flower85.jpg,high,NULL
1687287248,f8cf39a7b0ae3f0abc1b7f3eb4309922,PennController,9,0,experiment,NULL,Canvas,canvas6,Print,NA,1687287139113,5ee24da71deb04305a3c19f2,5ee24da71deb04305a3c19f2,6,flower,critical,D,75,flower65.jpg,flower85.jpg,high,NULL
1687287248,f8cf39a7b0ae3f0abc1b7f3eb4309922,PennController,9,0,experiment,NULL,Video,progression,buffer,0.001228,1687287134948,5ee24da71deb04305a3c19f2,5ee24da71deb04305a3c19f2,6,flower,critical,D,75,flower65.jpg,flower85.jpg,high,NULL
1687287248,f8cf39a7b0ae3f0abc1b7f3eb4309922,PennController,9,0,experiment,NULL,Selector,choice,Selection,option1,1687287141228,5ee24da71deb04305a3c19f2,5ee24da71deb04305a3c19f2,6,flower,critical,D,75,flower65.jpg,flower85.jpg,high,option1;option2
1687287248,f8cf39a7b0ae3f0abc1b7f3eb4309922,PennController,9,0,experiment,NULL,PennController,8,_Trial_,End,1687287141229,5ee24da71deb04305a3c19f2,5ee24da71deb04305a3c19f2,6,flower,critical,D,75,flower65.jpg,flower85.jpg,high,NULL
1687287248,f8cf39a7b0ae3f0abc1b7f3eb4309922,PennController,19,0,experiment,NULL,PennController,18,_Trial_,Start,1687287141229,5ee24da71deb04305a3c19f2,5ee24da71deb04305a3c19f2,16,blinds,critical,D,25,blinds15.jpg,blinds33.jpg,high,NULL
1687287248,f8cf39a7b0ae3f0abc1b7f3eb4309922,PennController,19,0,experiment,NULL,PennController,18,_Header_,Start,1687287141229,5ee24da71deb04305a3c19f2,5ee24da71deb04305a3c19f2,16,blinds,critical,D,25,blinds15.jpg,blinds33.jpg,high,NULL
1687287248,f8cf39a7b0ae3f0abc1b7f3eb4309922,PennController,19,0,experiment,NULL,PennController,18,_Header_,End,1687287141230,5ee24da71deb04305a3c19f2,5ee24da71deb04305a3c19f2,16,blinds,critical,D,25,blinds15.jpg,blinds33.jpg,high,NULL
1687287248,f8cf39a7b0ae3f0abc1b7f3eb4309922,PennController,19,0,experiment,NULL,Canvas,canvas6,Print,NA,1687287147514,5ee24da71deb04305a3c19f2,5ee24da71deb04305a3c19f2,16,blinds,critical,D,25,blinds15.jpg,blinds33.jpg,high,NULL
1687287248,f8cf39a7b0ae3f0abc1b7f3eb4309922,PennController,19,0,experiment,NULL,Video,progression,buffer,0.001775,1687287144743,5ee24da71deb04305a3c19f2,5ee24da71deb04305a3c19f2,16,blinds,critical,D,25,blinds15.jpg,blinds33.jpg,high,NULL
1687287248,f8cf39a7b0ae3f0abc1b7f3eb4309922,PennController,19,0,experiment,NULL,Selector,choice,Selection,option2,1687287149387,5ee24da71deb04305a3c19f2,5ee24da71deb04305a3c19f2,16,blinds,critical,D,25,blinds15.jpg,blinds33.jpg,high,option2;option1
1687287248,f8cf39a7b0ae3f0abc1b7f3eb4309922,PennController,19,0,experiment,NULL,PennController,18,_Trial_,End,1687287149388,5ee24da71deb04305a3c19f2,5ee24da71deb04305a3c19f2,16,blinds,critical,D,25,blinds15.jpg,blinds33.jpg,high,NULL
1687287248,f8cf39a7b0ae3f0abc1b7f3eb4309922,PennController,15,0,experiment,NULL,PennController,14,_Trial_,Start,1687287149388,5ee24da71deb04305a3c19f2,5ee24da71deb04305a3c19f2,12,erase,critical,D,75,erase66.jpg,erase84.jpg,high,NULL
1687287248,f8cf39a7b0ae3f0abc1b7f3eb4309922,PennController,15,0,experiment,NULL,PennController,14,_Header_,Start,1687287149388,5ee24da71deb04305a3c19f2,5ee24da71deb04305a3c19f2,12,erase,critical,D,75,erase66.jpg,erase84.jpg,high,NULL
1687287248,f8cf39a7b0ae3f0abc1b7f3eb4309922,PennController,15,0,experiment,NULL,PennController,14,_Header_,End,1687287149388,5ee24da71deb04305a3c19f2,5ee24da71deb04305a3c19f2,12,erase,critical,D,75,erase66.jpg,erase84.jpg,high,NULL
1687287248,f8cf39a7b0ae3f0abc1b7f3eb4309922,PennController,15,0,experiment,NULL,Canvas,canvas6,Print,NA,1687287159063,5ee24da71deb04305a3c19f2,5ee24da71deb04305a3c19f2,12,erase,critical,D,75,erase66.jpg,erase84.jpg,high,NULL
1687287248,f8cf39a7b0ae3f0abc1b7f3eb4309922,PennController,15,0,experiment,NULL,Video,progression,buffer,0.001479,1687287152902,5ee24da71deb04305a3c19f2,5ee24da71deb04305a3c19f2,12,erase,critical,D,75,erase66.jpg,erase84.jpg,high,NULL
1687287248,f8cf39a7b0ae3f0abc1b7f3eb4309922,PennController,15,0,experiment,NULL,Selector,choice,Selection,option1,1687287161965,5ee24da71deb04305a3c19f2,5ee24da71deb04305a3c19f2,12,erase,critical,D,75,erase66.jpg,erase84.jpg,high,option1;option2
1687287248,f8cf39a7b0ae3f0abc1b7f3eb4309922,PennController,15,0,experiment,NULL,PennController,14,_Trial_,End,1687287161966,5ee24da71deb04305a3c19f2,5ee24da71deb04305a3c19f2,12,erase,critical,D,75,erase66.jpg,erase84.jpg,high,NULL
1687287248,f8cf39a7b0ae3f0abc1b7f3eb4309922,PennController,18,0,experiment,NULL,PennController,17,_Trial_,Start,1687287161967,5ee24da71deb04305a3c19f2,5ee24da71deb04305a3c19f2,15,zip,critical,D,75,zip65.jpg,zip85.jpg,high,NULL
1687287248,f8cf39a7b0ae3f0abc1b7f3eb4309922,PennController,18,0,experiment,NULL,PennController,17,_Header_,Start,1687287161967,5ee24da71deb04305a3c19f2,5ee24da71deb04305a3c19f2,15,zip,critical,D,75,zip65.jpg,zip85.jpg,high,NULL
1687287248,f8cf39a7b0ae3f0abc1b7f3eb4309922,PennController,18,0,experiment,NULL,PennController,17,_Header_,End,1687287161967,5ee24da71deb04305a3c19f2,5ee24da71deb04305a3c19f2,15,zip,critical,D,75,zip65.jpg,zip85.jpg,high,NULL
1687287248,f8cf39a7b0ae3f0abc1b7f3eb4309922,PennController,18,0,experiment,NULL,Canvas,canvas6,Print,NA,1687287168843,5ee24da71deb04305a3c19f2,5ee24da71deb04305a3c19f2,15,zip,critical,D,75,zip65.jpg,zip85.jpg,high,NULL
1687287248,f8cf39a7b0ae3f0abc1b7f3eb4309922,PennController,18,0,experiment,NULL,Video,progression,buffer,0.001228,1687287165485,5ee24da71deb04305a3c19f2,5ee24da71deb04305a3c19f2,15,zip,critical,D,75,zip65.jpg,zip85.jpg,high,NULL
1687287248,f8cf39a7b0ae3f0abc1b7f3eb4309922,PennController,18,0,experiment,NULL,Selector,choice,Selection,option1,1687287171405,5ee24da71deb04305a3c19f2,5ee24da71deb04305a3c19f2,15,zip,critical,D,75,zip65.jpg,zip85.jpg,high,option1;option2
1687287248,f8cf39a7b0ae3f0abc1b7f3eb4309922,PennController,18,0,experiment,NULL,PennController,17,_Trial_,End,1687287171405,5ee24da71deb04305a3c19f2,5ee24da71deb04305a3c19f2,15,zip,critical,D,75,zip65.jpg,zip85.jpg,high,NULL
1687287248,f8cf39a7b0ae3f0abc1b7f3eb4309922,PennController,17,0,experiment,NULL,PennController,16,_Trial_,Start,1687287171406,5ee24da71deb04305a3c19f2,5ee24da71deb04305a3c19f2,14,cover,critical,D,50,cover42.jpg,cover60.jpg,high,NULL
1687287248,f8cf39a7b0ae3f0abc1b7f3eb4309922,PennController,17,0,experiment,NULL,PennController,16,_Header_,Start,1687287171406,5ee24da71deb04305a3c19f2,5ee24da71deb04305a3c19f2,14,cover,critical,D,50,cover42.jpg,cover60.jpg,high,NULL
1687287248,f8cf39a7b0ae3f0abc1b7f3eb4309922,PennController,17,0,experiment,NULL,PennController,16,_Header_,End,1687287171406,5ee24da71deb04305a3c19f2,5ee24da71deb04305a3c19f2,14,cover,critical,D,50,cover42.jpg,cover60.jpg,high,NULL
1687287248,f8cf39a7b0ae3f0abc1b7f3eb4309922,PennController,17,0,experiment,NULL,Canvas,canvas6,Print,NA,1687287179495,5ee24da71deb04305a3c19f2,5ee24da71deb04305a3c19f2,14,cover,critical,D,50,cover42.jpg,cover60.jpg,high,NULL
1687287248,f8cf39a7b0ae3f0abc1b7f3eb4309922,PennController,17,0,experiment,NULL,Video,progression,buffer,0.001614,1687287174925,5ee24da71deb04305a3c19f2,5ee24da71deb04305a3c19f2,14,cover,critical,D,50,cover42.jpg,cover60.jpg,high,NULL
1687287248,f8cf39a7b0ae3f0abc1b7f3eb4309922,PennController,17,0,experiment,NULL,Selector,choice,Selection,option1,1687287181906,5ee24da71deb04305a3c19f2,5ee24da71deb04305a3c19f2,14,cover,critical,D,50,cover42.jpg,cover60.jpg,high,option1;option2
1687287248,f8cf39a7b0ae3f0abc1b7f3eb4309922,PennController,17,0,experiment,NULL,PennController,16,_Trial_,End,1687287181906,5ee24da71deb04305a3c19f2,5ee24da71deb04305a3c19f2,14,cover,critical,D,50,cover42.jpg,cover60.jpg,high,NULL
1687287248,f8cf39a7b0ae3f0abc1b7f3eb4309922,PennController,29,0,experiment,NULL,PennController,28,_Trial_,Start,1687287181907,5ee24da71deb04305a3c19f2,5ee24da71deb04305a3c19f2,26,sandwich,filler,D,50,sandwich40.jpg,sandwich60.jpg,GoalA,NULL
1687287248,f8cf39a7b0ae3f0abc1b7f3eb4309922,PennController,29,0,experiment,NULL,PennController,28,_Header_,Start,1687287181907,5ee24da71deb04305a3c19f2,5ee24da71deb04305a3c19f2,26,sandwich,filler,D,50,sandwich40.jpg,sandwich60.jpg,GoalA,NULL
1687287248,f8cf39a7b0ae3f0abc1b7f3eb4309922,PennController,29,0,experiment,NULL,PennController,28,_Header_,End,1687287181907,5ee24da71deb04305a3c19f2,5ee24da71deb04305a3c19f2,26,sandwich,filler,D,50,sandwich40.jpg,sandwich60.jpg,GoalA,NULL
1687287248,f8cf39a7b0ae3f0abc1b7f3eb4309922,PennController,29,0,experiment,NULL,Canvas,canvas6,Print,NA,1687287188595,5ee24da71deb04305a3c19f2,5ee24da71deb04305a3c19f2,26,sandwich,filler,D,50,sandwich40.jpg,sandwich60.jpg,GoalA,NULL
1687287248,f8cf39a7b0ae3f0abc1b7f3eb4309922,PennController,29,0,experiment,NULL,Video,progression,buffer,0.001694,1687287185425,5ee24da71deb04305a3c19f2,5ee24da71deb04305a3c19f2,26,sandwich,filler,D,50,sandwich40.jpg,sandwich60.jpg,GoalA,NULL
1687287248,f8cf39a7b0ae3f0abc1b7f3eb4309922,PennController,29,0,experiment,NULL,Selector,choice,Selection,option1,1687287190274,5ee24da71deb04305a3c19f2,5ee24da71deb04305a3c19f2,26,sandwich,filler,D,50,sandwich40.jpg,sandwich60.jpg,GoalA,option1;option2
1687287248,f8cf39a7b0ae3f0abc1b7f3eb4309922,PennController,29,0,experiment,NULL,PennController,28,_Trial_,End,1687287190275,5ee24da71deb04305a3c19f2,5ee24da71deb04305a3c19f2,26,sandwich,filler,D,50,sandwich40.jpg,sandwich60.jpg,GoalA,NULL
1687287248,f8cf39a7b0ae3f0abc1b7f3eb4309922,PennController,7,0,experiment,NULL,PennController,6,_Trial_,Start,1687287190275,5ee24da71deb04305a3c19f2,5ee24da71deb04305a3c19f2,4,candy,critical,D,25,candy15.jpg,candy35.jpg,high,NULL
1687287248,f8cf39a7b0ae3f0abc1b7f3eb4309922,PennController,7,0,experiment,NULL,PennController,6,_Header_,Start,1687287190275,5ee24da71deb04305a3c19f2,5ee24da71deb04305a3c19f2,4,candy,critical,D,25,candy15.jpg,candy35.jpg,high,NULL
1687287248,f8cf39a7b0ae3f0abc1b7f3eb4309922,PennController,7,0,experiment,NULL,PennController,6,_Header_,End,1687287190275,5ee24da71deb04305a3c19f2,5ee24da71deb04305a3c19f2,4,candy,critical,D,25,candy15.jpg,candy35.jpg,high,NULL
1687287248,f8cf39a7b0ae3f0abc1b7f3eb4309922,PennController,7,0,experiment,NULL,Canvas,canvas6,Print,NA,1687287195945,5ee24da71deb04305a3c19f2,5ee24da71deb04305a3c19f2,4,candy,critical,D,25,candy15.jpg,candy35.jpg,high,NULL
1687287248,f8cf39a7b0ae3f0abc1b7f3eb4309922,PennController,7,0,experiment,NULL,Video,progression,buffer,0.001273,1687287193789,5ee24da71deb04305a3c19f2,5ee24da71deb04305a3c19f2,4,candy,critical,D,25,candy15.jpg,candy35.jpg,high,NULL
1687287248,f8cf39a7b0ae3f0abc1b7f3eb4309922,PennController,7,0,experiment,NULL,Selector,choice,Selection,option1,1687287197171,5ee24da71deb04305a3c19f2,5ee24da71deb04305a3c19f2,4,candy,critical,D,25,candy15.jpg,candy35.jpg,high,option1;option2
1687287248,f8cf39a7b0ae3f0abc1b7f3eb4309922,PennController,7,0,experiment,NULL,PennController,6,_Trial_,End,1687287197171,5ee24da71deb04305a3c19f2,5ee24da71deb04305a3c19f2,4,candy,critical,D,25,candy15.jpg,candy35.jpg,high,NULL
1687287248,f8cf39a7b0ae3f0abc1b7f3eb4309922,PennController,14,0,experiment,NULL,PennController,13,_Trial_,Start,1687287197172,5ee24da71deb04305a3c19f2,5ee24da71deb04305a3c19f2,11,beads,critical,D,50,beads40.jpg,beads60.jpg,high,NULL
1687287248,f8cf39a7b0ae3f0abc1b7f3eb4309922,PennController,14,0,experiment,NULL,PennController,13,_Header_,Start,1687287197172,5ee24da71deb04305a3c19f2,5ee24da71deb04305a3c19f2,11,beads,critical,D,50,beads40.jpg,beads60.jpg,high,NULL
1687287248,f8cf39a7b0ae3f0abc1b7f3eb4309922,PennController,14,0,experiment,NULL,PennController,13,_Header_,End,1687287197172,5ee24da71deb04305a3c19f2,5ee24da71deb04305a3c19f2,11,beads,critical,D,50,beads40.jpg,beads60.jpg,high,NULL
1687287248,f8cf39a7b0ae3f0abc1b7f3eb4309922,PennController,14,0,experiment,NULL,Canvas,canvas6,Print,NA,1687287203845,5ee24da71deb04305a3c19f2,5ee24da71deb04305a3c19f2,11,beads,critical,D,50,beads40.jpg,beads60.jpg,high,NULL
1687287248,f8cf39a7b0ae3f0abc1b7f3eb4309922,PennController,14,0,experiment,NULL,Video,progression,buffer,0.001225,1687287200685,5ee24da71deb04305a3c19f2,5ee24da71deb04305a3c19f2,11,beads,critical,D,50,beads40.jpg,beads60.jpg,high,NULL
1687287248,f8cf39a7b0ae3f0abc1b7f3eb4309922,PennController,14,0,experiment,NULL,Selector,choice,Selection,option2,1687287204934,5ee24da71deb04305a3c19f2,5ee24da71deb04305a3c19f2,11,beads,critical,D,50,beads40.jpg,beads60.jpg,high,option2;option1
1687287248,f8cf39a7b0ae3f0abc1b7f3eb4309922,PennController,14,0,experiment,NULL,PennController,13,_Trial_,End,1687287204935,5ee24da71deb04305a3c19f2,5ee24da71deb04305a3c19f2,11,beads,critical,D,50,beads40.jpg,beads60.jpg,high,NULL
1687287248,f8cf39a7b0ae3f0abc1b7f3eb4309922,PennController,5,0,experiment,NULL,PennController,4,_Trial_,Start,1687287204935,5ee24da71deb04305a3c19f2,5ee24da71deb04305a3c19f2,2,door,critical,D,50,door40.jpg,door60.jpg,high,NULL
1687287248,f8cf39a7b0ae3f0abc1b7f3eb4309922,PennController,5,0,experiment,NULL,PennController,4,_Header_,Start,1687287204935,5ee24da71deb04305a3c19f2,5ee24da71deb04305a3c19f2,2,door,critical,D,50,door40.jpg,door60.jpg,high,NULL
1687287248,f8cf39a7b0ae3f0abc1b7f3eb4309922,PennController,5,0,experiment,NULL,PennController,4,_Header_,End,1687287204935,5ee24da71deb04305a3c19f2,5ee24da71deb04305a3c19f2,2,door,critical,D,50,door40.jpg,door60.jpg,high,NULL
1687287248,f8cf39a7b0ae3f0abc1b7f3eb4309922,PennController,5,0,experiment,NULL,Canvas,canvas6,Print,NA,1687287211629,5ee24da71deb04305a3c19f2,5ee24da71deb04305a3c19f2,2,door,critical,D,50,door40.jpg,door60.jpg,high,NULL
1687287248,f8cf39a7b0ae3f0abc1b7f3eb4309922,PennController,5,0,experiment,NULL,Video,progression,buffer,0,1687287208447,5ee24da71deb04305a3c19f2,5ee24da71deb04305a3c19f2,2,door,critical,D,50,door40.jpg,door60.jpg,high,NULL
1687287248,f8cf39a7b0ae3f0abc1b7f3eb4309922,PennController,5,0,experiment,NULL,Selector,choice,Selection,option1,1687287214069,5ee24da71deb04305a3c19f2,5ee24da71deb04305a3c19f2,2,door,critical,D,50,door40.jpg,door60.jpg,high,option2;option1
1687287248,f8cf39a7b0ae3f0abc1b7f3eb4309922,PennController,5,0,experiment,NULL,PennController,4,_Trial_,End,1687287214069,5ee24da71deb04305a3c19f2,5ee24da71deb04305a3c19f2,2,door,critical,D,50,door40.jpg,door60.jpg,high,NULL
1687287248,f8cf39a7b0ae3f0abc1b7f3eb4309922,PennController,24,0,experiment,NULL,PennController,23,_Trial_,Start,1687287214070,5ee24da71deb04305a3c19f2,5ee24da71deb04305a3c19f2,21,visit,filler,D,75,visit65.jpg,visit85.jpg,GoalB,NULL
1687287248,f8cf39a7b0ae3f0abc1b7f3eb4309922,PennController,24,0,experiment,NULL,PennController,23,_Header_,Start,1687287214070,5ee24da71deb04305a3c19f2,5ee24da71deb04305a3c19f2,21,visit,filler,D,75,visit65.jpg,visit85.jpg,GoalB,NULL
1687287248,f8cf39a7b0ae3f0abc1b7f3eb4309922,PennController,24,0,experiment,NULL,PennController,23,_Header_,End,1687287214070,5ee24da71deb04305a3c19f2,5ee24da71deb04305a3c19f2,21,visit,filler,D,75,visit65.jpg,visit85.jpg,GoalB,NULL
1687287248,f8cf39a7b0ae3f0abc1b7f3eb4309922,PennController,24,0,experiment,NULL,Canvas,canvas6,Print,NA,1687287221744,5ee24da71deb04305a3c19f2,5ee24da71deb04305a3c19f2,21,visit,filler,D,75,visit65.jpg,visit85.jpg,GoalB,NULL
1687287248,f8cf39a7b0ae3f0abc1b7f3eb4309922,PennController,24,0,experiment,NULL,Video,progression,buffer,0.001048,1687287217581,5ee24da71deb04305a3c19f2,5ee24da71deb04305a3c19f2,21,visit,filler,D,75,visit65.jpg,visit85.jpg,GoalB,NULL
1687287248,f8cf39a7b0ae3f0abc1b7f3eb4309922,PennController,24,0,experiment,NULL,Selector,choice,Selection,option2,1687287223063,5ee24da71deb04305a3c19f2,5ee24da71deb04305a3c19f2,21,visit,filler,D,75,visit65.jpg,visit85.jpg,GoalB,option2;option1
1687287248,f8cf39a7b0ae3f0abc1b7f3eb4309922,PennController,24,0,experiment,NULL,PennController,23,_Trial_,End,1687287223063,5ee24da71deb04305a3c19f2,5ee24da71deb04305a3c19f2,21,visit,filler,D,75,visit65.jpg,visit85.jpg,GoalB,NULL
1687287248,f8cf39a7b0ae3f0abc1b7f3eb4309922,PennController,10,0,experiment,NULL,PennController,9,_Trial_,Start,1687287223064,5ee24da71deb04305a3c19f2,5ee24da71deb04305a3c19f2,7,stack,critical,D,25,stack15.jpg,stack35.jpg,high,NULL
1687287248,f8cf39a7b0ae3f0abc1b7f3eb4309922,PennController,10,0,experiment,NULL,PennController,9,_Header_,Start,1687287223064,5ee24da71deb04305a3c19f2,5ee24da71deb04305a3c19f2,7,stack,critical,D,25,stack15.jpg,stack35.jpg,high,NULL
1687287248,f8cf39a7b0ae3f0abc1b7f3eb4309922,PennController,10,0,experiment,NULL,PennController,9,_Header_,End,1687287223064,5ee24da71deb04305a3c19f2,5ee24da71deb04305a3c19f2,7,stack,critical,D,25,stack15.jpg,stack35.jpg,high,NULL
1687287248,f8cf39a7b0ae3f0abc1b7f3eb4309922,PennController,10,0,experiment,NULL,Canvas,canvas6,Print,NA,1687287228741,5ee24da71deb04305a3c19f2,5ee24da71deb04305a3c19f2,7,stack,critical,D,25,stack15.jpg,stack35.jpg,high,NULL
1687287248,f8cf39a7b0ae3f0abc1b7f3eb4309922,PennController,10,0,experiment,NULL,Video,progression,buffer,0.001259,1687287226578,5ee24da71deb04305a3c19f2,5ee24da71deb04305a3c19f2,7,stack,critical,D,25,stack15.jpg,stack35.jpg,high,NULL
1687287248,f8cf39a7b0ae3f0abc1b7f3eb4309922,PennController,10,0,experiment,NULL,Selector,choice,Selection,option2,1687287230401,5ee24da71deb04305a3c19f2,5ee24da71deb04305a3c19f2,7,stack,critical,D,25,stack15.jpg,stack35.jpg,high,option2;option1
1687287248,f8cf39a7b0ae3f0abc1b7f3eb4309922,PennController,10,0,experiment,NULL,PennController,9,_Trial_,End,1687287230402,5ee24da71deb04305a3c19f2,5ee24da71deb04305a3c19f2,7,stack,critical,D,25,stack15.jpg,stack35.jpg,high,NULL
1687287248,f8cf39a7b0ae3f0abc1b7f3eb4309922,PennController,31,0,experiment,NULL,PennController,30,_Trial_,Start,1687287230403,5ee24da71deb04305a3c19f2,5ee24da71deb04305a3c19f2,28,sort,filler,D,25,sort15.jpg,sort35.jpg,GoalA,NULL
1687287248,f8cf39a7b0ae3f0abc1b7f3eb4309922,PennController,31,0,experiment,NULL,PennController,30,_Header_,Start,1687287230403,5ee24da71deb04305a3c19f2,5ee24da71deb04305a3c19f2,28,sort,filler,D,25,sort15.jpg,sort35.jpg,GoalA,NULL
1687287248,f8cf39a7b0ae3f0abc1b7f3eb4309922,PennController,31,0,experiment,NULL,PennController,30,_Header_,End,1687287230403,5ee24da71deb04305a3c19f2,5ee24da71deb04305a3c19f2,28,sort,filler,D,25,sort15.jpg,sort35.jpg,GoalA,NULL
1687287248,f8cf39a7b0ae3f0abc1b7f3eb4309922,PennController,31,0,experiment,NULL,Canvas,canvas6,Print,NA,1687287236096,5ee24da71deb04305a3c19f2,5ee24da71deb04305a3c19f2,28,sort,filler,D,25,sort15.jpg,sort35.jpg,GoalA,NULL
1687287248,f8cf39a7b0ae3f0abc1b7f3eb4309922,PennController,31,0,experiment,NULL,Video,progression,buffer,0.001778,1687287233925,5ee24da71deb04305a3c19f2,5ee24da71deb04305a3c19f2,28,sort,filler,D,25,sort15.jpg,sort35.jpg,GoalA,NULL
1687287248,f8cf39a7b0ae3f0abc1b7f3eb4309922,PennController,31,0,experiment,NULL,Selector,choice,Selection,option2,1687287238261,5ee24da71deb04305a3c19f2,5ee24da71deb04305a3c19f2,28,sort,filler,D,25,sort15.jpg,sort35.jpg,GoalA,option2;option1
1687287248,f8cf39a7b0ae3f0abc1b7f3eb4309922,PennController,31,0,experiment,NULL,PennController,30,_Trial_,End,1687287238262,5ee24da71deb04305a3c19f2,5ee24da71deb04305a3c19f2,28,sort,filler,D,25,sort15.jpg,sort35.jpg,GoalA,NULL
1687287248,f8cf39a7b0ae3f0abc1b7f3eb4309922,PennController,11,0,experiment,NULL,PennController,10,_Trial_,Start,1687287238263,5ee24da71deb04305a3c19f2,5ee24da71deb04305a3c19f2,8,cucumber,critical,D,50,cucumber42.jpg,cucumber60.jpg,high,NULL
1687287248,f8cf39a7b0ae3f0abc1b7f3eb4309922,PennController,11,0,experiment,NULL,PennController,10,_Header_,Start,1687287238263,5ee24da71deb04305a3c19f2,5ee24da71deb04305a3c19f2,8,cucumber,critical,D,50,cucumber42.jpg,cucumber60.jpg,high,NULL
1687287248,f8cf39a7b0ae3f0abc1b7f3eb4309922,PennController,11,0,experiment,NULL,PennController,10,_Header_,End,1687287238263,5ee24da71deb04305a3c19f2,5ee24da71deb04305a3c19f2,8,cucumber,critical,D,50,cucumber42.jpg,cucumber60.jpg,high,NULL
1687287248,f8cf39a7b0ae3f0abc1b7f3eb4309922,PennController,11,0,experiment,NULL,Canvas,canvas6,Print,NA,1687287246343,5ee24da71deb04305a3c19f2,5ee24da71deb04305a3c19f2,8,cucumber,critical,D,50,cucumber42.jpg,cucumber60.jpg,high,NULL
1687287248,f8cf39a7b0ae3f0abc1b7f3eb4309922,PennController,11,0,experiment,NULL,Video,progression,buffer,0.001247,1687287241778,5ee24da71deb04305a3c19f2,5ee24da71deb04305a3c19f2,8,cucumber,critical,D,50,cucumber42.jpg,cucumber60.jpg,high,NULL
1687287248,f8cf39a7b0ae3f0abc1b7f3eb4309922,PennController,11,0,experiment,NULL,Selector,choice,Selection,option1,1687287247933,5ee24da71deb04305a3c19f2,5ee24da71deb04305a3c19f2,8,cucumber,critical,D,50,cucumber42.jpg,cucumber60.jpg,high,option1;option2
1687287248,f8cf39a7b0ae3f0abc1b7f3eb4309922,PennController,11,0,experiment,NULL,PennController,10,_Trial_,End,1687287247933,5ee24da71deb04305a3c19f2,5ee24da71deb04305a3c19f2,8,cucumber,critical,D,50,cucumber42.jpg,cucumber60.jpg,high,NULL
