#
# Results on Tuesday June 20 2023 19:04:48 UTC
# USER AGENT: Mozilla/5.0 (Windows NT 10.0; Win64; x64) AppleWebKit/537.36 (KHTML, like Gecko) Chrome/114.0.0.0 Safari/537.36
# Design number was non-random = 48
#
# Columns below this comment are as follows:
# 1. Results reception time.
# 2. MD5 hash of participant's IP address.
# 3. Controller name.
# 4. Order number of item.
# 5. Inner element number.
# 6. Label.
# 7. Latin Square Group.
# 8. PennElementType.
# 9. PennElementName.
# 10. Parameter.
# 11. Value.
# 12. EventTime.
# 13. PROLIFIC_ID.
# 14. Comments.
1687287888,94dc484185c3c98d5942ac9733d384f3,PennController,2,0,consent,NULL,PennController,0,_Trial_,Start,1687287619800,6061019b5bba678f6acaea25,NULL
1687287888,94dc484185c3c98d5942ac9733d384f3,PennController,2,0,consent,NULL,PennController,0,_Header_,Start,1687287619800,6061019b5bba678f6acaea25,NULL
1687287888,94dc484185c3c98d5942ac9733d384f3,PennController,2,0,consent,NULL,PennController,0,_Header_,End,1687287619800,6061019b5bba678f6acaea25,NULL
1687287888,94dc484185c3c98d5942ac9733d384f3,PennController,2,0,consent,NULL,PennController,0,_Trial_,End,1687287626017,6061019b5bba678f6acaea25,NULL
# Columns below this comment are as follows:
# 14. ID.
# 15. Comments.
1687287888,94dc484185c3c98d5942ac9733d384f3,PennController,3,0,intro,NULL,PennController,1,_Trial_,Start,1687287626019,6061019b5bba678f6acaea25,6061019b5bba678f6acaea25,NULL
1687287888,94dc484185c3c98d5942ac9733d384f3,PennController,3,0,intro,NULL,PennController,1,_Header_,Start,1687287626019,6061019b5bba678f6acaea25,6061019b5bba678f6acaea25,NULL
1687287888,94dc484185c3c98d5942ac9733d384f3,PennController,3,0,intro,NULL,PennController,1,_Header_,End,1687287626019,6061019b5bba678f6acaea25,6061019b5bba678f6acaea25,NULL
1687287888,94dc484185c3c98d5942ac9733d384f3,PennController,3,0,intro,NULL,PennController,1,_Trial_,End,1687287630193,6061019b5bba678f6acaea25,6061019b5bba678f6acaea25,NULL
# Columns below this comment are as follows:
# 15. item_number.
# 16. item.
# 17. type.
# 18. Group.
# 19. prog.
# 20. prev_image.
# 21. next_image.
# 22. height.
# 23. Comments.
1687287888,94dc484185c3c98d5942ac9733d384f3,PennController,26,0,experiment,NULL,PennController,25,_Trial_,Start,1687287630195,6061019b5bba678f6acaea25,6061019b5bba678f6acaea25,23,color,filler,A,50,color40.jpg,color60.jpg,GoalA,NULL
1687287888,94dc484185c3c98d5942ac9733d384f3,PennController,26,0,experiment,NULL,PennController,25,_Header_,Start,1687287630195,6061019b5bba678f6acaea25,6061019b5bba678f6acaea25,23,color,filler,A,50,color40.jpg,color60.jpg,GoalA,NULL
1687287888,94dc484185c3c98d5942ac9733d384f3,PennController,26,0,experiment,NULL,PennController,25,_Header_,End,1687287630195,6061019b5bba678f6acaea25,6061019b5bba678f6acaea25,23,color,filler,A,50,color40.jpg,color60.jpg,GoalA,NULL
1687287888,94dc484185c3c98d5942ac9733d384f3,PennController,26,0,experiment,NULL,Canvas,canvas6,Print,NA,1687287636916,6061019b5bba678f6acaea25,6061019b5bba678f6acaea25,23,color,filler,A,50,color40.jpg,color60.jpg,GoalA,NULL
1687287888,94dc484185c3c98d5942ac9733d384f3,PennController,26,0,experiment,NULL,Video,progression,buffer,0.003232,1687287633716,6061019b5bba678f6acaea25,6061019b5bba678f6acaea25,23,color,filler,A,50,color40.jpg,color60.jpg,GoalA,NULL
1687287888,94dc484185c3c98d5942ac9733d384f3,PennController,26,0,experiment,NULL,Selector,choice,Selection,option2,1687287639057,6061019b5bba678f6acaea25,6061019b5bba678f6acaea25,23,color,filler,A,50,color40.jpg,color60.jpg,GoalA,option1;option2
1687287888,94dc484185c3c98d5942ac9733d384f3,PennController,26,0,experiment,NULL,PennController,25,_Trial_,End,1687287639059,6061019b5bba678f6acaea25,6061019b5bba678f6acaea25,23,color,filler,A,50,color40.jpg,color60.jpg,GoalA,NULL
1687287888,94dc484185c3c98d5942ac9733d384f3,PennController,32,0,experiment,NULL,PennController,31,_Trial_,Start,1687287639061,6061019b5bba678f6acaea25,6061019b5bba678f6acaea25,29,frog,filler,A,50,frog40.jpg,frog60.jpg,GoalA,NULL
1687287888,94dc484185c3c98d5942ac9733d384f3,PennController,32,0,experiment,NULL,PennController,31,_Header_,Start,1687287639061,6061019b5bba678f6acaea25,6061019b5bba678f6acaea25,29,frog,filler,A,50,frog40.jpg,frog60.jpg,GoalA,NULL
1687287888,94dc484185c3c98d5942ac9733d384f3,PennController,32,0,experiment,NULL,PennController,31,_Header_,End,1687287639061,6061019b5bba678f6acaea25,6061019b5bba678f6acaea25,29,frog,filler,A,50,frog40.jpg,frog60.jpg,GoalA,NULL
1687287888,94dc484185c3c98d5942ac9733d384f3,PennController,32,0,experiment,NULL,Canvas,canvas6,Print,NA,1687287645770,6061019b5bba678f6acaea25,6061019b5bba678f6acaea25,29,frog,filler,A,50,frog40.jpg,frog60.jpg,GoalA,NULL
1687287888,94dc484185c3c98d5942ac9733d384f3,PennController,32,0,experiment,NULL,Video,progression,buffer,0.00349,1687287642575,6061019b5bba678f6acaea25,6061019b5bba678f6acaea25,29,frog,filler,A,50,frog40.jpg,frog60.jpg,GoalA,NULL
1687287888,94dc484185c3c98d5942ac9733d384f3,PennController,32,0,experiment,NULL,Selector,choice,Selection,option2,1687287647297,6061019b5bba678f6acaea25,6061019b5bba678f6acaea25,29,frog,filler,A,50,frog40.jpg,frog60.jpg,GoalA,option2;option1
1687287888,94dc484185c3c98d5942ac9733d384f3,PennController,32,0,experiment,NULL,PennController,31,_Trial_,End,1687287647298,6061019b5bba678f6acaea25,6061019b5bba678f6acaea25,29,frog,filler,A,50,frog40.jpg,frog60.jpg,GoalA,NULL
1687287888,94dc484185c3c98d5942ac9733d384f3,PennController,20,0,experiment,NULL,PennController,19,_Trial_,Start,1687287647299,6061019b5bba678f6acaea25,6061019b5bba678f6acaea25,17,roll,critical,A,50,roll40.jpg,roll60.jpg,low,NULL
1687287888,94dc484185c3c98d5942ac9733d384f3,PennController,20,0,experiment,NULL,PennController,19,_Header_,Start,1687287647299,6061019b5bba678f6acaea25,6061019b5bba678f6acaea25,17,roll,critical,A,50,roll40.jpg,roll60.jpg,low,NULL
1687287888,94dc484185c3c98d5942ac9733d384f3,PennController,20,0,experiment,NULL,PennController,19,_Header_,End,1687287647299,6061019b5bba678f6acaea25,6061019b5bba678f6acaea25,17,roll,critical,A,50,roll40.jpg,roll60.jpg,low,NULL
1687287888,94dc484185c3c98d5942ac9733d384f3,PennController,20,0,experiment,NULL,Canvas,canvas6,Print,NA,1687287654004,6061019b5bba678f6acaea25,6061019b5bba678f6acaea25,17,roll,critical,A,50,roll40.jpg,roll60.jpg,low,NULL
1687287888,94dc484185c3c98d5942ac9733d384f3,PennController,20,0,experiment,NULL,Video,progression,buffer,0.002791,1687287650815,6061019b5bba678f6acaea25,6061019b5bba678f6acaea25,17,roll,critical,A,50,roll40.jpg,roll60.jpg,low,NULL
1687287888,94dc484185c3c98d5942ac9733d384f3,PennController,20,0,experiment,NULL,Selector,choice,Selection,option1,1687287655525,6061019b5bba678f6acaea25,6061019b5bba678f6acaea25,17,roll,critical,A,50,roll40.jpg,roll60.jpg,low,option1;option2
1687287888,94dc484185c3c98d5942ac9733d384f3,PennController,20,0,experiment,NULL,PennController,19,_Trial_,End,1687287655526,6061019b5bba678f6acaea25,6061019b5bba678f6acaea25,17,roll,critical,A,50,roll40.jpg,roll60.jpg,low,NULL
1687287888,94dc484185c3c98d5942ac9733d384f3,PennController,6,0,experiment,NULL,PennController,5,_Trial_,Start,1687287655527,6061019b5bba678f6acaea25,6061019b5bba678f6acaea25,3,clean,critical,A,75,clean65.jpg,clean85.jpg,low,NULL
1687287888,94dc484185c3c98d5942ac9733d384f3,PennController,6,0,experiment,NULL,PennController,5,_Header_,Start,1687287655527,6061019b5bba678f6acaea25,6061019b5bba678f6acaea25,3,clean,critical,A,75,clean65.jpg,clean85.jpg,low,NULL
1687287888,94dc484185c3c98d5942ac9733d384f3,PennController,6,0,experiment,NULL,PennController,5,_Header_,End,1687287655527,6061019b5bba678f6acaea25,6061019b5bba678f6acaea25,3,clean,critical,A,75,clean65.jpg,clean85.jpg,low,NULL
1687287888,94dc484185c3c98d5942ac9733d384f3,PennController,6,0,experiment,NULL,Canvas,canvas6,Print,NA,1687287663237,6061019b5bba678f6acaea25,6061019b5bba678f6acaea25,3,clean,critical,A,75,clean65.jpg,clean85.jpg,low,NULL
1687287888,94dc484185c3c98d5942ac9733d384f3,PennController,6,0,experiment,NULL,Video,progression,buffer,0.001778,1687287659043,6061019b5bba678f6acaea25,6061019b5bba678f6acaea25,3,clean,critical,A,75,clean65.jpg,clean85.jpg,low,NULL
1687287888,94dc484185c3c98d5942ac9733d384f3,PennController,6,0,experiment,NULL,Selector,choice,Selection,option1,1687287668453,6061019b5bba678f6acaea25,6061019b5bba678f6acaea25,3,clean,critical,A,75,clean65.jpg,clean85.jpg,low,option2;option1
1687287888,94dc484185c3c98d5942ac9733d384f3,PennController,6,0,experiment,NULL,PennController,5,_Trial_,End,1687287668454,6061019b5bba678f6acaea25,6061019b5bba678f6acaea25,3,clean,critical,A,75,clean65.jpg,clean85.jpg,low,NULL
1687287888,94dc484185c3c98d5942ac9733d384f3,PennController,8,0,experiment,NULL,PennController,7,_Trial_,Start,1687287668455,6061019b5bba678f6acaea25,6061019b5bba678f6acaea25,5,book,critical,A,50,book40.jpg,book60.jpg,low,NULL
1687287888,94dc484185c3c98d5942ac9733d384f3,PennController,8,0,experiment,NULL,PennController,7,_Header_,Start,1687287668455,6061019b5bba678f6acaea25,6061019b5bba678f6acaea25,5,book,critical,A,50,book40.jpg,book60.jpg,low,NULL
1687287888,94dc484185c3c98d5942ac9733d384f3,PennController,8,0,experiment,NULL,PennController,7,_Header_,End,1687287668455,6061019b5bba678f6acaea25,6061019b5bba678f6acaea25,5,book,critical,A,50,book40.jpg,book60.jpg,low,NULL
1687287888,94dc484185c3c98d5942ac9733d384f3,PennController,8,0,experiment,NULL,Canvas,canvas6,Print,NA,1687287675170,6061019b5bba678f6acaea25,6061019b5bba678f6acaea25,5,book,critical,A,50,book40.jpg,book60.jpg,low,NULL
1687287888,94dc484185c3c98d5942ac9733d384f3,PennController,8,0,experiment,NULL,Video,progression,buffer,0.001925,1687287671972,6061019b5bba678f6acaea25,6061019b5bba678f6acaea25,5,book,critical,A,50,book40.jpg,book60.jpg,low,NULL
1687287888,94dc484185c3c98d5942ac9733d384f3,PennController,8,0,experiment,NULL,Selector,choice,Selection,option2,1687287677278,6061019b5bba678f6acaea25,6061019b5bba678f6acaea25,5,book,critical,A,50,book40.jpg,book60.jpg,low,option1;option2
1687287888,94dc484185c3c98d5942ac9733d384f3,PennController,8,0,experiment,NULL,PennController,7,_Trial_,End,1687287677279,6061019b5bba678f6acaea25,6061019b5bba678f6acaea25,5,book,critical,A,50,book40.jpg,book60.jpg,low,NULL
1687287888,94dc484185c3c98d5942ac9733d384f3,PennController,18,0,experiment,NULL,PennController,17,_Trial_,Start,1687287677281,6061019b5bba678f6acaea25,6061019b5bba678f6acaea25,15,zip,critical,A,75,zip65.jpg,zip85.jpg,low,NULL
1687287888,94dc484185c3c98d5942ac9733d384f3,PennController,18,0,experiment,NULL,PennController,17,_Header_,Start,1687287677281,6061019b5bba678f6acaea25,6061019b5bba678f6acaea25,15,zip,critical,A,75,zip65.jpg,zip85.jpg,low,NULL
1687287888,94dc484185c3c98d5942ac9733d384f3,PennController,18,0,experiment,NULL,PennController,17,_Header_,End,1687287677281,6061019b5bba678f6acaea25,6061019b5bba678f6acaea25,15,zip,critical,A,75,zip65.jpg,zip85.jpg,low,NULL
1687287888,94dc484185c3c98d5942ac9733d384f3,PennController,18,0,experiment,NULL,Canvas,canvas6,Print,NA,1687287684191,6061019b5bba678f6acaea25,6061019b5bba678f6acaea25,15,zip,critical,A,75,zip65.jpg,zip85.jpg,low,NULL
1687287888,94dc484185c3c98d5942ac9733d384f3,PennController,18,0,experiment,NULL,Video,progression,buffer,0.001571,1687287680797,6061019b5bba678f6acaea25,6061019b5bba678f6acaea25,15,zip,critical,A,75,zip65.jpg,zip85.jpg,low,NULL
1687287888,94dc484185c3c98d5942ac9733d384f3,PennController,18,0,experiment,NULL,Selector,choice,Selection,option1,1687287685654,6061019b5bba678f6acaea25,6061019b5bba678f6acaea25,15,zip,critical,A,75,zip65.jpg,zip85.jpg,low,option1;option2
1687287888,94dc484185c3c98d5942ac9733d384f3,PennController,18,0,experiment,NULL,PennController,17,_Trial_,End,1687287685655,6061019b5bba678f6acaea25,6061019b5bba678f6acaea25,15,zip,critical,A,75,zip65.jpg,zip85.jpg,low,NULL
1687287888,94dc484185c3c98d5942ac9733d384f3,PennController,15,0,experiment,NULL,PennController,14,_Trial_,Start,1687287685656,6061019b5bba678f6acaea25,6061019b5bba678f6acaea25,12,erase,critical,A,75,erase66.jpg,erase84.jpg,low,NULL
1687287888,94dc484185c3c98d5942ac9733d384f3,PennController,15,0,experiment,NULL,PennController,14,_Header_,Start,1687287685656,6061019b5bba678f6acaea25,6061019b5bba678f6acaea25,12,erase,critical,A,75,erase66.jpg,erase84.jpg,low,NULL
1687287888,94dc484185c3c98d5942ac9733d384f3,PennController,15,0,experiment,NULL,PennController,14,_Header_,End,1687287685656,6061019b5bba678f6acaea25,6061019b5bba678f6acaea25,12,erase,critical,A,75,erase66.jpg,erase84.jpg,low,NULL
1687287888,94dc484185c3c98d5942ac9733d384f3,PennController,15,0,experiment,NULL,Canvas,canvas6,Print,NA,1687287695371,6061019b5bba678f6acaea25,6061019b5bba678f6acaea25,12,erase,critical,A,75,erase66.jpg,erase84.jpg,low,NULL
1687287888,94dc484185c3c98d5942ac9733d384f3,PennController,15,0,experiment,NULL,Video,progression,buffer,0.002191,1687287689178,6061019b5bba678f6acaea25,6061019b5bba678f6acaea25,12,erase,critical,A,75,erase66.jpg,erase84.jpg,low,NULL
1687287888,94dc484185c3c98d5942ac9733d384f3,PennController,15,0,experiment,NULL,Selector,choice,Selection,option1,1687287698496,6061019b5bba678f6acaea25,6061019b5bba678f6acaea25,12,erase,critical,A,75,erase66.jpg,erase84.jpg,low,option1;option2
1687287888,94dc484185c3c98d5942ac9733d384f3,PennController,15,0,experiment,NULL,PennController,14,_Trial_,End,1687287698497,6061019b5bba678f6acaea25,6061019b5bba678f6acaea25,12,erase,critical,A,75,erase66.jpg,erase84.jpg,low,NULL
1687287888,94dc484185c3c98d5942ac9733d384f3,PennController,25,0,experiment,NULL,PennController,24,_Trial_,Start,1687287698498,6061019b5bba678f6acaea25,6061019b5bba678f6acaea25,22,wall,filler,A,25,wall15.jpg,wall35.jpg,GoalB,NULL
1687287888,94dc484185c3c98d5942ac9733d384f3,PennController,25,0,experiment,NULL,PennController,24,_Header_,Start,1687287698498,6061019b5bba678f6acaea25,6061019b5bba678f6acaea25,22,wall,filler,A,25,wall15.jpg,wall35.jpg,GoalB,NULL
1687287888,94dc484185c3c98d5942ac9733d384f3,PennController,25,0,experiment,NULL,PennController,24,_Header_,End,1687287698498,6061019b5bba678f6acaea25,6061019b5bba678f6acaea25,22,wall,filler,A,25,wall15.jpg,wall35.jpg,GoalB,NULL
1687287888,94dc484185c3c98d5942ac9733d384f3,PennController,25,0,experiment,NULL,Canvas,canvas6,Print,NA,1687287704210,6061019b5bba678f6acaea25,6061019b5bba678f6acaea25,22,wall,filler,A,25,wall15.jpg,wall35.jpg,GoalB,NULL
1687287888,94dc484185c3c98d5942ac9733d384f3,PennController,25,0,experiment,NULL,Video,progression,buffer,0.00236,1687287702019,6061019b5bba678f6acaea25,6061019b5bba678f6acaea25,22,wall,filler,A,25,wall15.jpg,wall35.jpg,GoalB,NULL
1687287888,94dc484185c3c98d5942ac9733d384f3,PennController,25,0,experiment,NULL,Selector,choice,Selection,option1,1687287706722,6061019b5bba678f6acaea25,6061019b5bba678f6acaea25,22,wall,filler,A,25,wall15.jpg,wall35.jpg,GoalB,option2;option1
1687287888,94dc484185c3c98d5942ac9733d384f3,PennController,25,0,experiment,NULL,PennController,24,_Trial_,End,1687287706723,6061019b5bba678f6acaea25,6061019b5bba678f6acaea25,22,wall,filler,A,25,wall15.jpg,wall35.jpg,GoalB,NULL
1687287888,94dc484185c3c98d5942ac9733d384f3,PennController,4,0,experiment,NULL,PennController,3,_Trial_,Start,1687287706723,6061019b5bba678f6acaea25,6061019b5bba678f6acaea25,1,vase,critical,A,25,vase15.jpg,vase35.jpg,low,NULL
1687287888,94dc484185c3c98d5942ac9733d384f3,PennController,4,0,experiment,NULL,PennController,3,_Header_,Start,1687287706723,6061019b5bba678f6acaea25,6061019b5bba678f6acaea25,1,vase,critical,A,25,vase15.jpg,vase35.jpg,low,NULL
1687287888,94dc484185c3c98d5942ac9733d384f3,PennController,4,0,experiment,NULL,PennController,3,_Header_,End,1687287706723,6061019b5bba678f6acaea25,6061019b5bba678f6acaea25,1,vase,critical,A,25,vase15.jpg,vase35.jpg,low,NULL
1687287888,94dc484185c3c98d5942ac9733d384f3,PennController,4,0,experiment,NULL,Canvas,canvas6,Print,NA,1687287712431,6061019b5bba678f6acaea25,6061019b5bba678f6acaea25,1,vase,critical,A,25,vase15.jpg,vase35.jpg,low,NULL
1687287888,94dc484185c3c98d5942ac9733d384f3,PennController,4,0,experiment,NULL,Video,progression,buffer,0.002653,1687287710238,6061019b5bba678f6acaea25,6061019b5bba678f6acaea25,1,vase,critical,A,25,vase15.jpg,vase35.jpg,low,NULL
1687287888,94dc484185c3c98d5942ac9733d384f3,PennController,4,0,experiment,NULL,Selector,choice,Selection,option2,1687287713514,6061019b5bba678f6acaea25,6061019b5bba678f6acaea25,1,vase,critical,A,25,vase15.jpg,vase35.jpg,low,option1;option2
1687287888,94dc484185c3c98d5942ac9733d384f3,PennController,4,0,experiment,NULL,PennController,3,_Trial_,End,1687287713515,6061019b5bba678f6acaea25,6061019b5bba678f6acaea25,1,vase,critical,A,25,vase15.jpg,vase35.jpg,low,NULL
1687287888,94dc484185c3c98d5942ac9733d384f3,PennController,17,0,experiment,NULL,PennController,16,_Trial_,Start,1687287713515,6061019b5bba678f6acaea25,6061019b5bba678f6acaea25,14,cover,critical,A,50,cover42.jpg,cover60.jpg,low,NULL
1687287888,94dc484185c3c98d5942ac9733d384f3,PennController,17,0,experiment,NULL,PennController,16,_Header_,Start,1687287713515,6061019b5bba678f6acaea25,6061019b5bba678f6acaea25,14,cover,critical,A,50,cover42.jpg,cover60.jpg,low,NULL
1687287888,94dc484185c3c98d5942ac9733d384f3,PennController,17,0,experiment,NULL,PennController,16,_Header_,End,1687287713515,6061019b5bba678f6acaea25,6061019b5bba678f6acaea25,14,cover,critical,A,50,cover42.jpg,cover60.jpg,low,NULL
1687287888,94dc484185c3c98d5942ac9733d384f3,PennController,17,0,experiment,NULL,Canvas,canvas6,Print,NA,1687287721620,6061019b5bba678f6acaea25,6061019b5bba678f6acaea25,14,cover,critical,A,50,cover42.jpg,cover60.jpg,low,NULL
1687287888,94dc484185c3c98d5942ac9733d384f3,PennController,17,0,experiment,NULL,Video,progression,buffer,0.002896,1687287717033,6061019b5bba678f6acaea25,6061019b5bba678f6acaea25,14,cover,critical,A,50,cover42.jpg,cover60.jpg,low,NULL
1687287888,94dc484185c3c98d5942ac9733d384f3,PennController,17,0,experiment,NULL,Selector,choice,Selection,option1,1687287723060,6061019b5bba678f6acaea25,6061019b5bba678f6acaea25,14,cover,critical,A,50,cover42.jpg,cover60.jpg,low,option2;option1
1687287888,94dc484185c3c98d5942ac9733d384f3,PennController,17,0,experiment,NULL,PennController,16,_Trial_,End,1687287723061,6061019b5bba678f6acaea25,6061019b5bba678f6acaea25,14,cover,critical,A,50,cover42.jpg,cover60.jpg,low,NULL
1687287888,94dc484185c3c98d5942ac9733d384f3,PennController,12,0,experiment,NULL,PennController,11,_Trial_,Start,1687287723061,6061019b5bba678f6acaea25,6061019b5bba678f6acaea25,9,cake,critical,A,75,cake66.jpg,cake84.jpg,low,NULL
1687287888,94dc484185c3c98d5942ac9733d384f3,PennController,12,0,experiment,NULL,PennController,11,_Header_,Start,1687287723061,6061019b5bba678f6acaea25,6061019b5bba678f6acaea25,9,cake,critical,A,75,cake66.jpg,cake84.jpg,low,NULL
1687287888,94dc484185c3c98d5942ac9733d384f3,PennController,12,0,experiment,NULL,PennController,11,_Header_,End,1687287723061,6061019b5bba678f6acaea25,6061019b5bba678f6acaea25,9,cake,critical,A,75,cake66.jpg,cake84.jpg,low,NULL
1687287888,94dc484185c3c98d5942ac9733d384f3,PennController,12,0,experiment,NULL,Canvas,canvas6,Print,NA,1687287732768,6061019b5bba678f6acaea25,6061019b5bba678f6acaea25,9,cake,critical,A,75,cake66.jpg,cake84.jpg,low,NULL
1687287888,94dc484185c3c98d5942ac9733d384f3,PennController,12,0,experiment,NULL,Video,progression,buffer,0.00171,1687287726574,6061019b5bba678f6acaea25,6061019b5bba678f6acaea25,9,cake,critical,A,75,cake66.jpg,cake84.jpg,low,NULL
1687287888,94dc484185c3c98d5942ac9733d384f3,PennController,12,0,experiment,NULL,Selector,choice,Selection,option2,1687287734529,6061019b5bba678f6acaea25,6061019b5bba678f6acaea25,9,cake,critical,A,75,cake66.jpg,cake84.jpg,low,option1;option2
1687287888,94dc484185c3c98d5942ac9733d384f3,PennController,12,0,experiment,NULL,PennController,11,_Trial_,End,1687287734530,6061019b5bba678f6acaea25,6061019b5bba678f6acaea25,9,cake,critical,A,75,cake66.jpg,cake84.jpg,low,NULL
1687287888,94dc484185c3c98d5942ac9733d384f3,PennController,31,0,experiment,NULL,PennController,30,_Trial_,Start,1687287734530,6061019b5bba678f6acaea25,6061019b5bba678f6acaea25,28,sort,filler,A,25,sort15.jpg,sort35.jpg,GoalB,NULL
1687287888,94dc484185c3c98d5942ac9733d384f3,PennController,31,0,experiment,NULL,PennController,30,_Header_,Start,1687287734530,6061019b5bba678f6acaea25,6061019b5bba678f6acaea25,28,sort,filler,A,25,sort15.jpg,sort35.jpg,GoalB,NULL
1687287888,94dc484185c3c98d5942ac9733d384f3,PennController,31,0,experiment,NULL,PennController,30,_Header_,End,1687287734530,6061019b5bba678f6acaea25,6061019b5bba678f6acaea25,28,sort,filler,A,25,sort15.jpg,sort35.jpg,GoalB,NULL
1687287888,94dc484185c3c98d5942ac9733d384f3,PennController,31,0,experiment,NULL,Canvas,canvas6,Print,NA,1687287740240,6061019b5bba678f6acaea25,6061019b5bba678f6acaea25,28,sort,filler,A,25,sort15.jpg,sort35.jpg,GoalB,NULL
1687287888,94dc484185c3c98d5942ac9733d384f3,PennController,31,0,experiment,NULL,Video,progression,buffer,0.002253,1687287738047,6061019b5bba678f6acaea25,6061019b5bba678f6acaea25,28,sort,filler,A,25,sort15.jpg,sort35.jpg,GoalB,NULL
1687287888,94dc484185c3c98d5942ac9733d384f3,PennController,31,0,experiment,NULL,Selector,choice,Selection,option1,1687287745389,6061019b5bba678f6acaea25,6061019b5bba678f6acaea25,28,sort,filler,A,25,sort15.jpg,sort35.jpg,GoalB,option1;option2
1687287888,94dc484185c3c98d5942ac9733d384f3,PennController,31,0,experiment,NULL,PennController,30,_Trial_,End,1687287745389,6061019b5bba678f6acaea25,6061019b5bba678f6acaea25,28,sort,filler,A,25,sort15.jpg,sort35.jpg,GoalB,NULL
1687287888,94dc484185c3c98d5942ac9733d384f3,PennController,27,0,experiment,NULL,PennController,26,_Trial_,Start,1687287745390,6061019b5bba678f6acaea25,6061019b5bba678f6acaea25,24,match,filler,A,75,match65.jpg,match85.jpg,GoalB,NULL
1687287888,94dc484185c3c98d5942ac9733d384f3,PennController,27,0,experiment,NULL,PennController,26,_Header_,Start,1687287745390,6061019b5bba678f6acaea25,6061019b5bba678f6acaea25,24,match,filler,A,75,match65.jpg,match85.jpg,GoalB,NULL
1687287888,94dc484185c3c98d5942ac9733d384f3,PennController,27,0,experiment,NULL,PennController,26,_Header_,End,1687287745390,6061019b5bba678f6acaea25,6061019b5bba678f6acaea25,24,match,filler,A,75,match65.jpg,match85.jpg,GoalB,NULL
1687287888,94dc484185c3c98d5942ac9733d384f3,PennController,27,0,experiment,NULL,Canvas,canvas6,Print,NA,1687287753102,6061019b5bba678f6acaea25,6061019b5bba678f6acaea25,24,match,filler,A,75,match65.jpg,match85.jpg,GoalB,NULL
1687287888,94dc484185c3c98d5942ac9733d384f3,PennController,27,0,experiment,NULL,Video,progression,buffer,0.001493,1687287748906,6061019b5bba678f6acaea25,6061019b5bba678f6acaea25,24,match,filler,A,75,match65.jpg,match85.jpg,GoalB,NULL
1687287888,94dc484185c3c98d5942ac9733d384f3,PennController,27,0,experiment,NULL,Selector,choice,Selection,option2,1687287755041,6061019b5bba678f6acaea25,6061019b5bba678f6acaea25,24,match,filler,A,75,match65.jpg,match85.jpg,GoalB,option1;option2
1687287888,94dc484185c3c98d5942ac9733d384f3,PennController,27,0,experiment,NULL,PennController,26,_Trial_,End,1687287755041,6061019b5bba678f6acaea25,6061019b5bba678f6acaea25,24,match,filler,A,75,match65.jpg,match85.jpg,GoalB,NULL
1687287888,94dc484185c3c98d5942ac9733d384f3,PennController,23,0,experiment,NULL,PennController,22,_Trial_,Start,1687287755042,6061019b5bba678f6acaea25,6061019b5bba678f6acaea25,20,cat,filler,A,50,cat40.jpg,cat60.jpg,GoalB,NULL
1687287888,94dc484185c3c98d5942ac9733d384f3,PennController,23,0,experiment,NULL,PennController,22,_Header_,Start,1687287755042,6061019b5bba678f6acaea25,6061019b5bba678f6acaea25,20,cat,filler,A,50,cat40.jpg,cat60.jpg,GoalB,NULL
1687287888,94dc484185c3c98d5942ac9733d384f3,PennController,23,0,experiment,NULL,PennController,22,_Header_,End,1687287755042,6061019b5bba678f6acaea25,6061019b5bba678f6acaea25,20,cat,filler,A,50,cat40.jpg,cat60.jpg,GoalB,NULL
1687287888,94dc484185c3c98d5942ac9733d384f3,PennController,23,0,experiment,NULL,Canvas,canvas6,Print,NA,1687287761744,6061019b5bba678f6acaea25,6061019b5bba678f6acaea25,20,cat,filler,A,50,cat40.jpg,cat60.jpg,GoalB,NULL
1687287888,94dc484185c3c98d5942ac9733d384f3,PennController,23,0,experiment,NULL,Video,progression,buffer,0.002555,1687287758556,6061019b5bba678f6acaea25,6061019b5bba678f6acaea25,20,cat,filler,A,50,cat40.jpg,cat60.jpg,GoalB,NULL
1687287888,94dc484185c3c98d5942ac9733d384f3,PennController,23,0,experiment,NULL,Selector,choice,Selection,option2,1687287762815,6061019b5bba678f6acaea25,6061019b5bba678f6acaea25,20,cat,filler,A,50,cat40.jpg,cat60.jpg,GoalB,option1;option2
1687287888,94dc484185c3c98d5942ac9733d384f3,PennController,23,0,experiment,NULL,PennController,22,_Trial_,End,1687287762815,6061019b5bba678f6acaea25,6061019b5bba678f6acaea25,20,cat,filler,A,50,cat40.jpg,cat60.jpg,GoalB,NULL
1687287888,94dc484185c3c98d5942ac9733d384f3,PennController,5,0,experiment,NULL,PennController,4,_Trial_,Start,1687287762816,6061019b5bba678f6acaea25,6061019b5bba678f6acaea25,2,door,critical,A,50,door40.jpg,door60.jpg,low,NULL
1687287888,94dc484185c3c98d5942ac9733d384f3,PennController,5,0,experiment,NULL,PennController,4,_Header_,Start,1687287762816,6061019b5bba678f6acaea25,6061019b5bba678f6acaea25,2,door,critical,A,50,door40.jpg,door60.jpg,low,NULL
1687287888,94dc484185c3c98d5942ac9733d384f3,PennController,5,0,experiment,NULL,PennController,4,_Header_,End,1687287762816,6061019b5bba678f6acaea25,6061019b5bba678f6acaea25,2,door,critical,A,50,door40.jpg,door60.jpg,low,NULL
1687287888,94dc484185c3c98d5942ac9733d384f3,PennController,5,0,experiment,NULL,Canvas,canvas6,Print,NA,1687287769520,6061019b5bba678f6acaea25,6061019b5bba678f6acaea25,2,door,critical,A,50,door40.jpg,door60.jpg,low,NULL
1687287888,94dc484185c3c98d5942ac9733d384f3,PennController,5,0,experiment,NULL,Video,progression,buffer,0.002083,1687287766329,6061019b5bba678f6acaea25,6061019b5bba678f6acaea25,2,door,critical,A,50,door40.jpg,door60.jpg,low,NULL
1687287888,94dc484185c3c98d5942ac9733d384f3,PennController,5,0,experiment,NULL,Selector,choice,Selection,option1,1687287771187,6061019b5bba678f6acaea25,6061019b5bba678f6acaea25,2,door,critical,A,50,door40.jpg,door60.jpg,low,option1;option2
1687287888,94dc484185c3c98d5942ac9733d384f3,PennController,5,0,experiment,NULL,PennController,4,_Trial_,End,1687287771187,6061019b5bba678f6acaea25,6061019b5bba678f6acaea25,2,door,critical,A,50,door40.jpg,door60.jpg,low,NULL
1687287888,94dc484185c3c98d5942ac9733d384f3,PennController,24,0,experiment,NULL,PennController,23,_Trial_,Start,1687287771188,6061019b5bba678f6acaea25,6061019b5bba678f6acaea25,21,visit,filler,A,75,visit65.jpg,visit85.jpg,GoalA,NULL
1687287888,94dc484185c3c98d5942ac9733d384f3,PennController,24,0,experiment,NULL,PennController,23,_Header_,Start,1687287771188,6061019b5bba678f6acaea25,6061019b5bba678f6acaea25,21,visit,filler,A,75,visit65.jpg,visit85.jpg,GoalA,NULL
1687287888,94dc484185c3c98d5942ac9733d384f3,PennController,24,0,experiment,NULL,PennController,23,_Header_,End,1687287771188,6061019b5bba678f6acaea25,6061019b5bba678f6acaea25,21,visit,filler,A,75,visit65.jpg,visit85.jpg,GoalA,NULL
1687287888,94dc484185c3c98d5942ac9733d384f3,PennController,24,0,experiment,NULL,Canvas,canvas6,Print,NA,1687287778900,6061019b5bba678f6acaea25,6061019b5bba678f6acaea25,21,visit,filler,A,75,visit65.jpg,visit85.jpg,GoalA,NULL
1687287888,94dc484185c3c98d5942ac9733d384f3,PennController,24,0,experiment,NULL,Video,progression,buffer,0.002014,1687287774706,6061019b5bba678f6acaea25,6061019b5bba678f6acaea25,21,visit,filler,A,75,visit65.jpg,visit85.jpg,GoalA,NULL
1687287888,94dc484185c3c98d5942ac9733d384f3,PennController,24,0,experiment,NULL,Selector,choice,Selection,option2,1687287779647,6061019b5bba678f6acaea25,6061019b5bba678f6acaea25,21,visit,filler,A,75,visit65.jpg,visit85.jpg,GoalA,option2;option1
1687287888,94dc484185c3c98d5942ac9733d384f3,PennController,24,0,experiment,NULL,PennController,23,_Trial_,End,1687287779647,6061019b5bba678f6acaea25,6061019b5bba678f6acaea25,21,visit,filler,A,75,visit65.jpg,visit85.jpg,GoalA,NULL
1687287888,94dc484185c3c98d5942ac9733d384f3,PennController,7,0,experiment,NULL,PennController,6,_Trial_,Start,1687287779648,6061019b5bba678f6acaea25,6061019b5bba678f6acaea25,4,candy,critical,A,25,candy15.jpg,candy35.jpg,low,NULL
1687287888,94dc484185c3c98d5942ac9733d384f3,PennController,7,0,experiment,NULL,PennController,6,_Header_,Start,1687287779648,6061019b5bba678f6acaea25,6061019b5bba678f6acaea25,4,candy,critical,A,25,candy15.jpg,candy35.jpg,low,NULL
1687287888,94dc484185c3c98d5942ac9733d384f3,PennController,7,0,experiment,NULL,PennController,6,_Header_,End,1687287779648,6061019b5bba678f6acaea25,6061019b5bba678f6acaea25,4,candy,critical,A,25,candy15.jpg,candy35.jpg,low,NULL
1687287888,94dc484185c3c98d5942ac9733d384f3,PennController,7,0,experiment,NULL,Canvas,canvas6,Print,NA,1687287785353,6061019b5bba678f6acaea25,6061019b5bba678f6acaea25,4,candy,critical,A,25,candy15.jpg,candy35.jpg,low,NULL
1687287888,94dc484185c3c98d5942ac9733d384f3,PennController,7,0,experiment,NULL,Video,progression,buffer,0.002731,1687287783163,6061019b5bba678f6acaea25,6061019b5bba678f6acaea25,4,candy,critical,A,25,candy15.jpg,candy35.jpg,low,NULL
1687287888,94dc484185c3c98d5942ac9733d384f3,PennController,7,0,experiment,NULL,Selector,choice,Selection,option2,1687287786665,6061019b5bba678f6acaea25,6061019b5bba678f6acaea25,4,candy,critical,A,25,candy15.jpg,candy35.jpg,low,option1;option2
1687287888,94dc484185c3c98d5942ac9733d384f3,PennController,7,0,experiment,NULL,PennController,6,_Trial_,End,1687287786666,6061019b5bba678f6acaea25,6061019b5bba678f6acaea25,4,candy,critical,A,25,candy15.jpg,candy35.jpg,low,NULL
1687287888,94dc484185c3c98d5942ac9733d384f3,PennController,29,0,experiment,NULL,PennController,28,_Trial_,Start,1687287786667,6061019b5bba678f6acaea25,6061019b5bba678f6acaea25,26,sandwich,filler,A,50,sandwich40.jpg,sandwich60.jpg,GoalB,NULL
1687287888,94dc484185c3c98d5942ac9733d384f3,PennController,29,0,experiment,NULL,PennController,28,_Header_,Start,1687287786667,6061019b5bba678f6acaea25,6061019b5bba678f6acaea25,26,sandwich,filler,A,50,sandwich40.jpg,sandwich60.jpg,GoalB,NULL
1687287888,94dc484185c3c98d5942ac9733d384f3,PennController,29,0,experiment,NULL,PennController,28,_Header_,End,1687287786667,6061019b5bba678f6acaea25,6061019b5bba678f6acaea25,26,sandwich,filler,A,50,sandwich40.jpg,sandwich60.jpg,GoalB,NULL
1687287888,94dc484185c3c98d5942ac9733d384f3,PennController,29,0,experiment,NULL,Canvas,canvas6,Print,NA,1687287793372,6061019b5bba678f6acaea25,6061019b5bba678f6acaea25,26,sandwich,filler,A,50,sandwich40.jpg,sandwich60.jpg,GoalB,NULL
1687287888,94dc484185c3c98d5942ac9733d384f3,PennController,29,0,experiment,NULL,Video,progression,buffer,0.002522,1687287790180,6061019b5bba678f6acaea25,6061019b5bba678f6acaea25,26,sandwich,filler,A,50,sandwich40.jpg,sandwich60.jpg,GoalB,NULL
1687287888,94dc484185c3c98d5942ac9733d384f3,PennController,29,0,experiment,NULL,Selector,choice,Selection,option1,1687287794713,6061019b5bba678f6acaea25,6061019b5bba678f6acaea25,26,sandwich,filler,A,50,sandwich40.jpg,sandwich60.jpg,GoalB,option2;option1
1687287888,94dc484185c3c98d5942ac9733d384f3,PennController,29,0,experiment,NULL,PennController,28,_Trial_,End,1687287794714,6061019b5bba678f6acaea25,6061019b5bba678f6acaea25,26,sandwich,filler,A,50,sandwich40.jpg,sandwich60.jpg,GoalB,NULL
1687287888,94dc484185c3c98d5942ac9733d384f3,PennController,21,0,experiment,NULL,PennController,20,_Trial_,Start,1687287794715,6061019b5bba678f6acaea25,6061019b5bba678f6acaea25,18,ball,critical,A,75,ball65.jpg,ball85.jpg,low,NULL
1687287888,94dc484185c3c98d5942ac9733d384f3,PennController,21,0,experiment,NULL,PennController,20,_Header_,Start,1687287794715,6061019b5bba678f6acaea25,6061019b5bba678f6acaea25,18,ball,critical,A,75,ball65.jpg,ball85.jpg,low,NULL
1687287888,94dc484185c3c98d5942ac9733d384f3,PennController,21,0,experiment,NULL,PennController,20,_Header_,End,1687287794715,6061019b5bba678f6acaea25,6061019b5bba678f6acaea25,18,ball,critical,A,75,ball65.jpg,ball85.jpg,low,NULL
1687287888,94dc484185c3c98d5942ac9733d384f3,PennController,21,0,experiment,NULL,Canvas,canvas6,Print,NA,1687287802426,6061019b5bba678f6acaea25,6061019b5bba678f6acaea25,18,ball,critical,A,75,ball65.jpg,ball85.jpg,low,NULL
1687287888,94dc484185c3c98d5942ac9733d384f3,PennController,21,0,experiment,NULL,Video,progression,buffer,0.001527,1687287798231,6061019b5bba678f6acaea25,6061019b5bba678f6acaea25,18,ball,critical,A,75,ball65.jpg,ball85.jpg,low,NULL
1687287888,94dc484185c3c98d5942ac9733d384f3,PennController,21,0,experiment,NULL,Selector,choice,Selection,option2,1687287804333,6061019b5bba678f6acaea25,6061019b5bba678f6acaea25,18,ball,critical,A,75,ball65.jpg,ball85.jpg,low,option2;option1
1687287888,94dc484185c3c98d5942ac9733d384f3,PennController,21,0,experiment,NULL,PennController,20,_Trial_,End,1687287804334,6061019b5bba678f6acaea25,6061019b5bba678f6acaea25,18,ball,critical,A,75,ball65.jpg,ball85.jpg,low,NULL
1687287888,94dc484185c3c98d5942ac9733d384f3,PennController,14,0,experiment,NULL,PennController,13,_Trial_,Start,1687287804335,6061019b5bba678f6acaea25,6061019b5bba678f6acaea25,11,beads,critical,A,50,beads40.jpg,beads60.jpg,low,NULL
1687287888,94dc484185c3c98d5942ac9733d384f3,PennController,14,0,experiment,NULL,PennController,13,_Header_,Start,1687287804335,6061019b5bba678f6acaea25,6061019b5bba678f6acaea25,11,beads,critical,A,50,beads40.jpg,beads60.jpg,low,NULL
1687287888,94dc484185c3c98d5942ac9733d384f3,PennController,14,0,experiment,NULL,PennController,13,_Header_,End,1687287804335,6061019b5bba678f6acaea25,6061019b5bba678f6acaea25,11,beads,critical,A,50,beads40.jpg,beads60.jpg,low,NULL
1687287888,94dc484185c3c98d5942ac9733d384f3,PennController,14,0,experiment,NULL,Canvas,canvas6,Print,NA,1687287811039,6061019b5bba678f6acaea25,6061019b5bba678f6acaea25,11,beads,critical,A,50,beads40.jpg,beads60.jpg,low,NULL
1687287888,94dc484185c3c98d5942ac9733d384f3,PennController,14,0,experiment,NULL,Video,progression,buffer,0.002598,1687287807850,6061019b5bba678f6acaea25,6061019b5bba678f6acaea25,11,beads,critical,A,50,beads40.jpg,beads60.jpg,low,NULL
1687287888,94dc484185c3c98d5942ac9733d384f3,PennController,14,0,experiment,NULL,Selector,choice,Selection,option2,1687287813557,6061019b5bba678f6acaea25,6061019b5bba678f6acaea25,11,beads,critical,A,50,beads40.jpg,beads60.jpg,low,option2;option1
1687287888,94dc484185c3c98d5942ac9733d384f3,PennController,14,0,experiment,NULL,PennController,13,_Trial_,End,1687287813558,6061019b5bba678f6acaea25,6061019b5bba678f6acaea25,11,beads,critical,A,50,beads40.jpg,beads60.jpg,low,NULL
1687287888,94dc484185c3c98d5942ac9733d384f3,PennController,30,0,experiment,NULL,PennController,29,_Trial_,Start,1687287813559,6061019b5bba678f6acaea25,6061019b5bba678f6acaea25,27,square,filler,A,75,square65.jpg,square85.jpg,GoalA,NULL
1687287888,94dc484185c3c98d5942ac9733d384f3,PennController,30,0,experiment,NULL,PennController,29,_Header_,Start,1687287813559,6061019b5bba678f6acaea25,6061019b5bba678f6acaea25,27,square,filler,A,75,square65.jpg,square85.jpg,GoalA,NULL
1687287888,94dc484185c3c98d5942ac9733d384f3,PennController,30,0,experiment,NULL,PennController,29,_Header_,End,1687287813559,6061019b5bba678f6acaea25,6061019b5bba678f6acaea25,27,square,filler,A,75,square65.jpg,square85.jpg,GoalA,NULL
1687287888,94dc484185c3c98d5942ac9733d384f3,PennController,30,0,experiment,NULL,Canvas,canvas6,Print,NA,1687287821272,6061019b5bba678f6acaea25,6061019b5bba678f6acaea25,27,square,filler,A,75,square65.jpg,square85.jpg,GoalA,NULL
1687287888,94dc484185c3c98d5942ac9733d384f3,PennController,30,0,experiment,NULL,Video,progression,buffer,0.00204,1687287817077,6061019b5bba678f6acaea25,6061019b5bba678f6acaea25,27,square,filler,A,75,square65.jpg,square85.jpg,GoalA,NULL
1687287888,94dc484185c3c98d5942ac9733d384f3,PennController,30,0,experiment,NULL,Selector,choice,Selection,option1,1687287823549,6061019b5bba678f6acaea25,6061019b5bba678f6acaea25,27,square,filler,A,75,square65.jpg,square85.jpg,GoalA,option2;option1
1687287888,94dc484185c3c98d5942ac9733d384f3,PennController,30,0,experiment,NULL,PennController,29,_Trial_,End,1687287823550,6061019b5bba678f6acaea25,6061019b5bba678f6acaea25,27,square,filler,A,75,square65.jpg,square85.jpg,GoalA,NULL
1687287888,94dc484185c3c98d5942ac9733d384f3,PennController,11,0,experiment,NULL,PennController,10,_Trial_,Start,1687287823551,6061019b5bba678f6acaea25,6061019b5bba678f6acaea25,8,cucumber,critical,A,50,cucumber42.jpg,cucumber60.jpg,low,NULL
1687287888,94dc484185c3c98d5942ac9733d384f3,PennController,11,0,experiment,NULL,PennController,10,_Header_,Start,1687287823551,6061019b5bba678f6acaea25,6061019b5bba678f6acaea25,8,cucumber,critical,A,50,cucumber42.jpg,cucumber60.jpg,low,NULL
1687287888,94dc484185c3c98d5942ac9733d384f3,PennController,11,0,experiment,NULL,PennController,10,_Header_,End,1687287823551,6061019b5bba678f6acaea25,6061019b5bba678f6acaea25,8,cucumber,critical,A,50,cucumber42.jpg,cucumber60.jpg,low,NULL
1687287888,94dc484185c3c98d5942ac9733d384f3,PennController,11,0,experiment,NULL,Canvas,canvas6,Print,NA,1687287831660,6061019b5bba678f6acaea25,6061019b5bba678f6acaea25,8,cucumber,critical,A,50,cucumber42.jpg,cucumber60.jpg,low,NULL
1687287888,94dc484185c3c98d5942ac9733d384f3,PennController,11,0,experiment,NULL,Video,progression,buffer,0.001853,1687287827067,6061019b5bba678f6acaea25,6061019b5bba678f6acaea25,8,cucumber,critical,A,50,cucumber42.jpg,cucumber60.jpg,low,NULL
1687287888,94dc484185c3c98d5942ac9733d384f3,PennController,11,0,experiment,NULL,Selector,choice,Selection,option1,1687287833027,6061019b5bba678f6acaea25,6061019b5bba678f6acaea25,8,cucumber,critical,A,50,cucumber42.jpg,cucumber60.jpg,low,option2;option1
1687287888,94dc484185c3c98d5942ac9733d384f3,PennController,11,0,experiment,NULL,PennController,10,_Trial_,End,1687287833028,6061019b5bba678f6acaea25,6061019b5bba678f6acaea25,8,cucumber,critical,A,50,cucumber42.jpg,cucumber60.jpg,low,NULL
1687287888,94dc484185c3c98d5942ac9733d384f3,PennController,10,0,experiment,NULL,PennController,9,_Trial_,Start,1687287833030,6061019b5bba678f6acaea25,6061019b5bba678f6acaea25,7,stack,critical,A,25,stack15.jpg,stack35.jpg,low,NULL
1687287888,94dc484185c3c98d5942ac9733d384f3,PennController,10,0,experiment,NULL,PennController,9,_Header_,Start,1687287833030,6061019b5bba678f6acaea25,6061019b5bba678f6acaea25,7,stack,critical,A,25,stack15.jpg,stack35.jpg,low,NULL
1687287888,94dc484185c3c98d5942ac9733d384f3,PennController,10,0,experiment,NULL,PennController,9,_Header_,End,1687287833030,6061019b5bba678f6acaea25,6061019b5bba678f6acaea25,7,stack,critical,A,25,stack15.jpg,stack35.jpg,low,NULL
1687287888,94dc484185c3c98d5942ac9733d384f3,PennController,10,0,experiment,NULL,Canvas,canvas6,Print,NA,1687287838737,6061019b5bba678f6acaea25,6061019b5bba678f6acaea25,7,stack,critical,A,25,stack15.jpg,stack35.jpg,low,NULL
1687287888,94dc484185c3c98d5942ac9733d384f3,PennController,10,0,experiment,NULL,Video,progression,buffer,0.002122,1687287836546,6061019b5bba678f6acaea25,6061019b5bba678f6acaea25,7,stack,critical,A,25,stack15.jpg,stack35.jpg,low,NULL
1687287888,94dc484185c3c98d5942ac9733d384f3,PennController,10,0,experiment,NULL,Selector,choice,Selection,option2,1687287840061,6061019b5bba678f6acaea25,6061019b5bba678f6acaea25,7,stack,critical,A,25,stack15.jpg,stack35.jpg,low,option1;option2
1687287888,94dc484185c3c98d5942ac9733d384f3,PennController,10,0,experiment,NULL,PennController,9,_Trial_,End,1687287840062,6061019b5bba678f6acaea25,6061019b5bba678f6acaea25,7,stack,critical,A,25,stack15.jpg,stack35.jpg,low,NULL
1687287888,94dc484185c3c98d5942ac9733d384f3,PennController,28,0,experiment,NULL,PennController,27,_Trial_,Start,1687287840063,6061019b5bba678f6acaea25,6061019b5bba678f6acaea25,25,house,filler,A,25,house15.jpg,house35.jpg,GoalA,NULL
1687287888,94dc484185c3c98d5942ac9733d384f3,PennController,28,0,experiment,NULL,PennController,27,_Header_,Start,1687287840063,6061019b5bba678f6acaea25,6061019b5bba678f6acaea25,25,house,filler,A,25,house15.jpg,house35.jpg,GoalA,NULL
1687287888,94dc484185c3c98d5942ac9733d384f3,PennController,28,0,experiment,NULL,PennController,27,_Header_,End,1687287840063,6061019b5bba678f6acaea25,6061019b5bba678f6acaea25,25,house,filler,A,25,house15.jpg,house35.jpg,GoalA,NULL
1687287888,94dc484185c3c98d5942ac9733d384f3,PennController,28,0,experiment,NULL,Canvas,canvas6,Print,NA,1687287845777,6061019b5bba678f6acaea25,6061019b5bba678f6acaea25,25,house,filler,A,25,house15.jpg,house35.jpg,GoalA,NULL
1687287888,94dc484185c3c98d5942ac9733d384f3,PennController,28,0,experiment,NULL,Video,progression,buffer,0.001937,1687287843581,6061019b5bba678f6acaea25,6061019b5bba678f6acaea25,25,house,filler,A,25,house15.jpg,house35.jpg,GoalA,NULL
1687287888,94dc484185c3c98d5942ac9733d384f3,PennController,28,0,experiment,NULL,Selector,choice,Selection,option2,1687287847239,6061019b5bba678f6acaea25,6061019b5bba678f6acaea25,25,house,filler,A,25,house15.jpg,house35.jpg,GoalA,option1;option2
1687287888,94dc484185c3c98d5942ac9733d384f3,PennController,28,0,experiment,NULL,PennController,27,_Trial_,End,1687287847240,6061019b5bba678f6acaea25,6061019b5bba678f6acaea25,25,house,filler,A,25,house15.jpg,house35.jpg,GoalA,NULL
1687287888,94dc484185c3c98d5942ac9733d384f3,PennController,22,0,experiment,NULL,PennController,21,_Trial_,Start,1687287847241,6061019b5bba678f6acaea25,6061019b5bba678f6acaea25,19,cup,filler,A,25,cup15.jpg,cup35.jpg,GoalA,NULL
1687287888,94dc484185c3c98d5942ac9733d384f3,PennController,22,0,experiment,NULL,PennController,21,_Header_,Start,1687287847241,6061019b5bba678f6acaea25,6061019b5bba678f6acaea25,19,cup,filler,A,25,cup15.jpg,cup35.jpg,GoalA,NULL
1687287888,94dc484185c3c98d5942ac9733d384f3,PennController,22,0,experiment,NULL,PennController,21,_Header_,End,1687287847241,6061019b5bba678f6acaea25,6061019b5bba678f6acaea25,19,cup,filler,A,25,cup15.jpg,cup35.jpg,GoalA,NULL
1687287888,94dc484185c3c98d5942ac9733d384f3,PennController,22,0,experiment,NULL,Canvas,canvas6,Print,NA,1687287852939,6061019b5bba678f6acaea25,6061019b5bba678f6acaea25,19,cup,filler,A,25,cup15.jpg,cup35.jpg,GoalA,NULL
1687287888,94dc484185c3c98d5942ac9733d384f3,PennController,22,0,experiment,NULL,Video,progression,buffer,0.002705,1687287850749,6061019b5bba678f6acaea25,6061019b5bba678f6acaea25,19,cup,filler,A,25,cup15.jpg,cup35.jpg,GoalA,NULL
1687287888,94dc484185c3c98d5942ac9733d384f3,PennController,22,0,experiment,NULL,Selector,choice,Selection,option2,1687287854242,6061019b5bba678f6acaea25,6061019b5bba678f6acaea25,19,cup,filler,A,25,cup15.jpg,cup35.jpg,GoalA,option1;option2
1687287888,94dc484185c3c98d5942ac9733d384f3,PennController,22,0,experiment,NULL,PennController,21,_Trial_,End,1687287854242,6061019b5bba678f6acaea25,6061019b5bba678f6acaea25,19,cup,filler,A,25,cup15.jpg,cup35.jpg,GoalA,NULL
1687287888,94dc484185c3c98d5942ac9733d384f3,PennController,9,0,experiment,NULL,PennController,8,_Trial_,Start,1687287854244,6061019b5bba678f6acaea25,6061019b5bba678f6acaea25,6,flower,critical,A,75,flower65.jpg,flower85.jpg,low,NULL
1687287888,94dc484185c3c98d5942ac9733d384f3,PennController,9,0,experiment,NULL,PennController,8,_Header_,Start,1687287854244,6061019b5bba678f6acaea25,6061019b5bba678f6acaea25,6,flower,critical,A,75,flower65.jpg,flower85.jpg,low,NULL
1687287888,94dc484185c3c98d5942ac9733d384f3,PennController,9,0,experiment,NULL,PennController,8,_Header_,End,1687287854244,6061019b5bba678f6acaea25,6061019b5bba678f6acaea25,6,flower,critical,A,75,flower65.jpg,flower85.jpg,low,NULL
1687287888,94dc484185c3c98d5942ac9733d384f3,PennController,9,0,experiment,NULL,Canvas,canvas6,Print,NA,1687287861954,6061019b5bba678f6acaea25,6061019b5bba678f6acaea25,6,flower,critical,A,75,flower65.jpg,flower85.jpg,low,NULL
1687287888,94dc484185c3c98d5942ac9733d384f3,PennController,9,0,experiment,NULL,Video,progression,buffer,0.003079,1687287857762,6061019b5bba678f6acaea25,6061019b5bba678f6acaea25,6,flower,critical,A,75,flower65.jpg,flower85.jpg,low,NULL
1687287888,94dc484185c3c98d5942ac9733d384f3,PennController,9,0,experiment,NULL,Selector,choice,Selection,option1,1687287864394,6061019b5bba678f6acaea25,6061019b5bba678f6acaea25,6,flower,critical,A,75,flower65.jpg,flower85.jpg,low,option2;option1
1687287888,94dc484185c3c98d5942ac9733d384f3,PennController,9,0,experiment,NULL,PennController,8,_Trial_,End,1687287864394,6061019b5bba678f6acaea25,6061019b5bba678f6acaea25,6,flower,critical,A,75,flower65.jpg,flower85.jpg,low,NULL
1687287888,94dc484185c3c98d5942ac9733d384f3,PennController,16,0,experiment,NULL,PennController,15,_Trial_,Start,1687287864395,6061019b5bba678f6acaea25,6061019b5bba678f6acaea25,13,mix,critical,A,25,mix15.jpg,mix35.jpg,low,NULL
1687287888,94dc484185c3c98d5942ac9733d384f3,PennController,16,0,experiment,NULL,PennController,15,_Header_,Start,1687287864395,6061019b5bba678f6acaea25,6061019b5bba678f6acaea25,13,mix,critical,A,25,mix15.jpg,mix35.jpg,low,NULL
1687287888,94dc484185c3c98d5942ac9733d384f3,PennController,16,0,experiment,NULL,PennController,15,_Header_,End,1687287864395,6061019b5bba678f6acaea25,6061019b5bba678f6acaea25,13,mix,critical,A,25,mix15.jpg,mix35.jpg,low,NULL
1687287888,94dc484185c3c98d5942ac9733d384f3,PennController,16,0,experiment,NULL,Canvas,canvas6,Print,NA,1687287870096,6061019b5bba678f6acaea25,6061019b5bba678f6acaea25,13,mix,critical,A,25,mix15.jpg,mix35.jpg,low,NULL
1687287888,94dc484185c3c98d5942ac9733d384f3,PennController,16,0,experiment,NULL,Video,progression,buffer,0.002594,1687287867908,6061019b5bba678f6acaea25,6061019b5bba678f6acaea25,13,mix,critical,A,25,mix15.jpg,mix35.jpg,low,NULL
1687287888,94dc484185c3c98d5942ac9733d384f3,PennController,16,0,experiment,NULL,Selector,choice,Selection,option1,1687287871346,6061019b5bba678f6acaea25,6061019b5bba678f6acaea25,13,mix,critical,A,25,mix15.jpg,mix35.jpg,low,option2;option1
1687287888,94dc484185c3c98d5942ac9733d384f3,PennController,16,0,experiment,NULL,PennController,15,_Trial_,End,1687287871346,6061019b5bba678f6acaea25,6061019b5bba678f6acaea25,13,mix,critical,A,25,mix15.jpg,mix35.jpg,low,NULL
1687287888,94dc484185c3c98d5942ac9733d384f3,PennController,19,0,experiment,NULL,PennController,18,_Trial_,Start,1687287871347,6061019b5bba678f6acaea25,6061019b5bba678f6acaea25,16,blinds,critical,A,25,blinds15.jpg,blinds33.jpg,low,NULL
1687287888,94dc484185c3c98d5942ac9733d384f3,PennController,19,0,experiment,NULL,PennController,18,_Header_,Start,1687287871347,6061019b5bba678f6acaea25,6061019b5bba678f6acaea25,16,blinds,critical,A,25,blinds15.jpg,blinds33.jpg,low,NULL
1687287888,94dc484185c3c98d5942ac9733d384f3,PennController,19,0,experiment,NULL,PennController,18,_Header_,End,1687287871347,6061019b5bba678f6acaea25,6061019b5bba678f6acaea25,16,blinds,critical,A,25,blinds15.jpg,blinds33.jpg,low,NULL
1687287888,94dc484185c3c98d5942ac9733d384f3,PennController,19,0,experiment,NULL,Canvas,canvas6,Print,NA,1687287877656,6061019b5bba678f6acaea25,6061019b5bba678f6acaea25,16,blinds,critical,A,25,blinds15.jpg,blinds33.jpg,low,NULL
1687287888,94dc484185c3c98d5942ac9733d384f3,PennController,19,0,experiment,NULL,Video,progression,buffer,0.001827,1687287874862,6061019b5bba678f6acaea25,6061019b5bba678f6acaea25,16,blinds,critical,A,25,blinds15.jpg,blinds33.jpg,low,NULL
1687287888,94dc484185c3c98d5942ac9733d384f3,PennController,19,0,experiment,NULL,Selector,choice,Selection,option1,1687287881014,6061019b5bba678f6acaea25,6061019b5bba678f6acaea25,16,blinds,critical,A,25,blinds15.jpg,blinds33.jpg,low,option1;option2
1687287888,94dc484185c3c98d5942ac9733d384f3,PennController,19,0,experiment,NULL,PennController,18,_Trial_,End,1687287881014,6061019b5bba678f6acaea25,6061019b5bba678f6acaea25,16,blinds,critical,A,25,blinds15.jpg,blinds33.jpg,low,NULL
1687287888,94dc484185c3c98d5942ac9733d384f3,PennController,13,0,experiment,NULL,PennController,12,_Trial_,Start,1687287881015,6061019b5bba678f6acaea25,6061019b5bba678f6acaea25,10,train,critical,A,25,train15.jpg,train35.jpg,low,NULL
1687287888,94dc484185c3c98d5942ac9733d384f3,PennController,13,0,experiment,NULL,PennController,12,_Header_,Start,1687287881015,6061019b5bba678f6acaea25,6061019b5bba678f6acaea25,10,train,critical,A,25,train15.jpg,train35.jpg,low,NULL
1687287888,94dc484185c3c98d5942ac9733d384f3,PennController,13,0,experiment,NULL,PennController,12,_Header_,End,1687287881015,6061019b5bba678f6acaea25,6061019b5bba678f6acaea25,10,train,critical,A,25,train15.jpg,train35.jpg,low,NULL
1687287888,94dc484185c3c98d5942ac9733d384f3,PennController,13,0,experiment,NULL,Canvas,canvas6,Print,NA,1687287886723,6061019b5bba678f6acaea25,6061019b5bba678f6acaea25,10,train,critical,A,25,train15.jpg,train35.jpg,low,NULL
1687287888,94dc484185c3c98d5942ac9733d384f3,PennController,13,0,experiment,NULL,Video,progression,buffer,0.00172,1687287884531,6061019b5bba678f6acaea25,6061019b5bba678f6acaea25,10,train,critical,A,25,train15.jpg,train35.jpg,low,NULL
1687287888,94dc484185c3c98d5942ac9733d384f3,PennController,13,0,experiment,NULL,Selector,choice,Selection,option1,1687287888620,6061019b5bba678f6acaea25,6061019b5bba678f6acaea25,10,train,critical,A,25,train15.jpg,train35.jpg,low,option1;option2
1687287888,94dc484185c3c98d5942ac9733d384f3,PennController,13,0,experiment,NULL,PennController,12,_Trial_,End,1687287888620,6061019b5bba678f6acaea25,6061019b5bba678f6acaea25,10,train,critical,A,25,train15.jpg,train35.jpg,low,NULL
