#
# Results on Tuesday June 20 2023 19:01:29 UTC
# USER AGENT: Mozilla/5.0 (Windows NT 10.0; Win64; x64) AppleWebKit/537.36 (KHTML, like Gecko) Chrome/114.0.0.0 Safari/537.36
# Design number was non-random = 18
#
# Columns below this comment are as follows:
# 1. Results reception time.
# 2. MD5 hash of participant's IP address.
# 3. Controller name.
# 4. Order number of item.
# 5. Inner element number.
# 6. Label.
# 7. Latin Square Group.
# 8. PennElementType.
# 9. PennElementName.
# 10. Parameter.
# 11. Value.
# 12. EventTime.
# 13. PROLIFIC_ID.
# 14. Comments.
1687287689,2a0079aa2a4d582680f2eafd6fb7fe5b,PennController,2,0,consent,NULL,PennController,0,_Trial_,Start,1687287356163,6152ff64699e5c20fe481e6b,NULL
1687287689,2a0079aa2a4d582680f2eafd6fb7fe5b,PennController,2,0,consent,NULL,PennController,0,_Header_,Start,1687287356163,6152ff64699e5c20fe481e6b,NULL
1687287689,2a0079aa2a4d582680f2eafd6fb7fe5b,PennController,2,0,consent,NULL,PennController,0,_Header_,End,1687287356163,6152ff64699e5c20fe481e6b,NULL
1687287689,2a0079aa2a4d582680f2eafd6fb7fe5b,PennController,2,0,consent,NULL,PennController,0,_Trial_,End,1687287364317,6152ff64699e5c20fe481e6b,NULL
# Columns below this comment are as follows:
# 14. ID.
# 15. Comments.
1687287689,2a0079aa2a4d582680f2eafd6fb7fe5b,PennController,3,0,intro,NULL,PennController,1,_Trial_,Start,1687287364320,6152ff64699e5c20fe481e6b,6152ff64699e5c20fe481e6b,NULL
1687287689,2a0079aa2a4d582680f2eafd6fb7fe5b,PennController,3,0,intro,NULL,PennController,1,_Header_,Start,1687287364320,6152ff64699e5c20fe481e6b,6152ff64699e5c20fe481e6b,NULL
1687287689,2a0079aa2a4d582680f2eafd6fb7fe5b,PennController,3,0,intro,NULL,PennController,1,_Header_,End,1687287364320,6152ff64699e5c20fe481e6b,6152ff64699e5c20fe481e6b,NULL
1687287689,2a0079aa2a4d582680f2eafd6fb7fe5b,PennController,3,0,intro,NULL,PennController,1,_Trial_,End,1687287378753,6152ff64699e5c20fe481e6b,6152ff64699e5c20fe481e6b,NULL
# Columns below this comment are as follows:
# 15. item_number.
# 16. item.
# 17. type.
# 18. Group.
# 19. prog.
# 20. prev_image.
# 21. next_image.
# 22. height.
# 23. Comments.
1687287689,2a0079aa2a4d582680f2eafd6fb7fe5b,PennController,7,0,experiment,NULL,PennController,6,_Trial_,Start,1687287378757,6152ff64699e5c20fe481e6b,6152ff64699e5c20fe481e6b,4,candy,critical,A,25,candy15.jpg,candy35.jpg,low,NULL
1687287689,2a0079aa2a4d582680f2eafd6fb7fe5b,PennController,7,0,experiment,NULL,PennController,6,_Header_,Start,1687287378757,6152ff64699e5c20fe481e6b,6152ff64699e5c20fe481e6b,4,candy,critical,A,25,candy15.jpg,candy35.jpg,low,NULL
1687287689,2a0079aa2a4d582680f2eafd6fb7fe5b,PennController,7,0,experiment,NULL,PennController,6,_Header_,End,1687287378757,6152ff64699e5c20fe481e6b,6152ff64699e5c20fe481e6b,4,candy,critical,A,25,candy15.jpg,candy35.jpg,low,NULL
1687287689,2a0079aa2a4d582680f2eafd6fb7fe5b,PennController,7,0,experiment,NULL,Canvas,canvas6,Print,NA,1687287384453,6152ff64699e5c20fe481e6b,6152ff64699e5c20fe481e6b,4,candy,critical,A,25,candy15.jpg,candy35.jpg,low,NULL
1687287689,2a0079aa2a4d582680f2eafd6fb7fe5b,PennController,7,0,experiment,NULL,Video,progression,buffer,0.004196,1687287382289,6152ff64699e5c20fe481e6b,6152ff64699e5c20fe481e6b,4,candy,critical,A,25,candy15.jpg,candy35.jpg,low,NULL
1687287689,2a0079aa2a4d582680f2eafd6fb7fe5b,PennController,7,0,experiment,NULL,Selector,choice,Selection,option1,1687287391278,6152ff64699e5c20fe481e6b,6152ff64699e5c20fe481e6b,4,candy,critical,A,25,candy15.jpg,candy35.jpg,low,option1;option2
1687287689,2a0079aa2a4d582680f2eafd6fb7fe5b,PennController,7,0,experiment,NULL,PennController,6,_Trial_,End,1687287391281,6152ff64699e5c20fe481e6b,6152ff64699e5c20fe481e6b,4,candy,critical,A,25,candy15.jpg,candy35.jpg,low,NULL
1687287689,2a0079aa2a4d582680f2eafd6fb7fe5b,PennController,22,0,experiment,NULL,PennController,21,_Trial_,Start,1687287391283,6152ff64699e5c20fe481e6b,6152ff64699e5c20fe481e6b,19,cup,filler,A,25,cup15.jpg,cup35.jpg,GoalA,NULL
1687287689,2a0079aa2a4d582680f2eafd6fb7fe5b,PennController,22,0,experiment,NULL,PennController,21,_Header_,Start,1687287391283,6152ff64699e5c20fe481e6b,6152ff64699e5c20fe481e6b,19,cup,filler,A,25,cup15.jpg,cup35.jpg,GoalA,NULL
1687287689,2a0079aa2a4d582680f2eafd6fb7fe5b,PennController,22,0,experiment,NULL,PennController,21,_Header_,End,1687287391283,6152ff64699e5c20fe481e6b,6152ff64699e5c20fe481e6b,19,cup,filler,A,25,cup15.jpg,cup35.jpg,GoalA,NULL
1687287689,2a0079aa2a4d582680f2eafd6fb7fe5b,PennController,22,0,experiment,NULL,Canvas,canvas6,Print,NA,1687287396949,6152ff64699e5c20fe481e6b,6152ff64699e5c20fe481e6b,19,cup,filler,A,25,cup15.jpg,cup35.jpg,GoalA,NULL
1687287689,2a0079aa2a4d582680f2eafd6fb7fe5b,PennController,22,0,experiment,NULL,Video,progression,buffer,0.002375,1687287394802,6152ff64699e5c20fe481e6b,6152ff64699e5c20fe481e6b,19,cup,filler,A,25,cup15.jpg,cup35.jpg,GoalA,NULL
1687287689,2a0079aa2a4d582680f2eafd6fb7fe5b,PennController,22,0,experiment,NULL,Selector,choice,Selection,option2,1687287399597,6152ff64699e5c20fe481e6b,6152ff64699e5c20fe481e6b,19,cup,filler,A,25,cup15.jpg,cup35.jpg,GoalA,option1;option2
1687287689,2a0079aa2a4d582680f2eafd6fb7fe5b,PennController,22,0,experiment,NULL,PennController,21,_Trial_,End,1687287399599,6152ff64699e5c20fe481e6b,6152ff64699e5c20fe481e6b,19,cup,filler,A,25,cup15.jpg,cup35.jpg,GoalA,NULL
1687287689,2a0079aa2a4d582680f2eafd6fb7fe5b,PennController,21,0,experiment,NULL,PennController,20,_Trial_,Start,1687287399600,6152ff64699e5c20fe481e6b,6152ff64699e5c20fe481e6b,18,ball,critical,A,75,ball65.jpg,ball85.jpg,low,NULL
1687287689,2a0079aa2a4d582680f2eafd6fb7fe5b,PennController,21,0,experiment,NULL,PennController,20,_Header_,Start,1687287399600,6152ff64699e5c20fe481e6b,6152ff64699e5c20fe481e6b,18,ball,critical,A,75,ball65.jpg,ball85.jpg,low,NULL
1687287689,2a0079aa2a4d582680f2eafd6fb7fe5b,PennController,21,0,experiment,NULL,PennController,20,_Header_,End,1687287399600,6152ff64699e5c20fe481e6b,6152ff64699e5c20fe481e6b,18,ball,critical,A,75,ball65.jpg,ball85.jpg,low,NULL
1687287689,2a0079aa2a4d582680f2eafd6fb7fe5b,PennController,21,0,experiment,NULL,Canvas,canvas6,Print,NA,1687287407286,6152ff64699e5c20fe481e6b,6152ff64699e5c20fe481e6b,18,ball,critical,A,75,ball65.jpg,ball85.jpg,low,NULL
1687287689,2a0079aa2a4d582680f2eafd6fb7fe5b,PennController,21,0,experiment,NULL,Video,progression,buffer,0.00233,1687287403124,6152ff64699e5c20fe481e6b,6152ff64699e5c20fe481e6b,18,ball,critical,A,75,ball65.jpg,ball85.jpg,low,NULL
1687287689,2a0079aa2a4d582680f2eafd6fb7fe5b,PennController,21,0,experiment,NULL,Selector,choice,Selection,option2,1687287415293,6152ff64699e5c20fe481e6b,6152ff64699e5c20fe481e6b,18,ball,critical,A,75,ball65.jpg,ball85.jpg,low,option1;option2
1687287689,2a0079aa2a4d582680f2eafd6fb7fe5b,PennController,21,0,experiment,NULL,PennController,20,_Trial_,End,1687287415294,6152ff64699e5c20fe481e6b,6152ff64699e5c20fe481e6b,18,ball,critical,A,75,ball65.jpg,ball85.jpg,low,NULL
1687287689,2a0079aa2a4d582680f2eafd6fb7fe5b,PennController,5,0,experiment,NULL,PennController,4,_Trial_,Start,1687287415296,6152ff64699e5c20fe481e6b,6152ff64699e5c20fe481e6b,2,door,critical,A,50,door40.jpg,door60.jpg,low,NULL
1687287689,2a0079aa2a4d582680f2eafd6fb7fe5b,PennController,5,0,experiment,NULL,PennController,4,_Header_,Start,1687287415296,6152ff64699e5c20fe481e6b,6152ff64699e5c20fe481e6b,2,door,critical,A,50,door40.jpg,door60.jpg,low,NULL
1687287689,2a0079aa2a4d582680f2eafd6fb7fe5b,PennController,5,0,experiment,NULL,PennController,4,_Header_,End,1687287415296,6152ff64699e5c20fe481e6b,6152ff64699e5c20fe481e6b,2,door,critical,A,50,door40.jpg,door60.jpg,low,NULL
1687287689,2a0079aa2a4d582680f2eafd6fb7fe5b,PennController,5,0,experiment,NULL,Canvas,canvas6,Print,NA,1687287421964,6152ff64699e5c20fe481e6b,6152ff64699e5c20fe481e6b,2,door,critical,A,50,door40.jpg,door60.jpg,low,NULL
1687287689,2a0079aa2a4d582680f2eafd6fb7fe5b,PennController,5,0,experiment,NULL,Video,progression,buffer,0.00239,1687287418816,6152ff64699e5c20fe481e6b,6152ff64699e5c20fe481e6b,2,door,critical,A,50,door40.jpg,door60.jpg,low,NULL
1687287689,2a0079aa2a4d582680f2eafd6fb7fe5b,PennController,5,0,experiment,NULL,Selector,choice,Selection,option2,1687287424276,6152ff64699e5c20fe481e6b,6152ff64699e5c20fe481e6b,2,door,critical,A,50,door40.jpg,door60.jpg,low,option1;option2
1687287689,2a0079aa2a4d582680f2eafd6fb7fe5b,PennController,5,0,experiment,NULL,PennController,4,_Trial_,End,1687287424278,6152ff64699e5c20fe481e6b,6152ff64699e5c20fe481e6b,2,door,critical,A,50,door40.jpg,door60.jpg,low,NULL
1687287689,2a0079aa2a4d582680f2eafd6fb7fe5b,PennController,6,0,experiment,NULL,PennController,5,_Trial_,Start,1687287424279,6152ff64699e5c20fe481e6b,6152ff64699e5c20fe481e6b,3,clean,critical,A,75,clean65.jpg,clean85.jpg,low,NULL
1687287689,2a0079aa2a4d582680f2eafd6fb7fe5b,PennController,6,0,experiment,NULL,PennController,5,_Header_,Start,1687287424279,6152ff64699e5c20fe481e6b,6152ff64699e5c20fe481e6b,3,clean,critical,A,75,clean65.jpg,clean85.jpg,low,NULL
1687287689,2a0079aa2a4d582680f2eafd6fb7fe5b,PennController,6,0,experiment,NULL,PennController,5,_Header_,End,1687287424279,6152ff64699e5c20fe481e6b,6152ff64699e5c20fe481e6b,3,clean,critical,A,75,clean65.jpg,clean85.jpg,low,NULL
1687287689,2a0079aa2a4d582680f2eafd6fb7fe5b,PennController,6,0,experiment,NULL,Canvas,canvas6,Print,NA,1687287431950,6152ff64699e5c20fe481e6b,6152ff64699e5c20fe481e6b,3,clean,critical,A,75,clean65.jpg,clean85.jpg,low,NULL
1687287689,2a0079aa2a4d582680f2eafd6fb7fe5b,PennController,6,0,experiment,NULL,Video,progression,buffer,0.002678,1687287427799,6152ff64699e5c20fe481e6b,6152ff64699e5c20fe481e6b,3,clean,critical,A,75,clean65.jpg,clean85.jpg,low,NULL
1687287689,2a0079aa2a4d582680f2eafd6fb7fe5b,PennController,6,0,experiment,NULL,Selector,choice,Selection,option1,1687287437653,6152ff64699e5c20fe481e6b,6152ff64699e5c20fe481e6b,3,clean,critical,A,75,clean65.jpg,clean85.jpg,low,option1;option2
1687287689,2a0079aa2a4d582680f2eafd6fb7fe5b,PennController,6,0,experiment,NULL,PennController,5,_Trial_,End,1687287437654,6152ff64699e5c20fe481e6b,6152ff64699e5c20fe481e6b,3,clean,critical,A,75,clean65.jpg,clean85.jpg,low,NULL
1687287689,2a0079aa2a4d582680f2eafd6fb7fe5b,PennController,12,0,experiment,NULL,PennController,11,_Trial_,Start,1687287437656,6152ff64699e5c20fe481e6b,6152ff64699e5c20fe481e6b,9,cake,critical,A,75,cake66.jpg,cake84.jpg,low,NULL
1687287689,2a0079aa2a4d582680f2eafd6fb7fe5b,PennController,12,0,experiment,NULL,PennController,11,_Header_,Start,1687287437656,6152ff64699e5c20fe481e6b,6152ff64699e5c20fe481e6b,9,cake,critical,A,75,cake66.jpg,cake84.jpg,low,NULL
1687287689,2a0079aa2a4d582680f2eafd6fb7fe5b,PennController,12,0,experiment,NULL,PennController,11,_Header_,End,1687287437656,6152ff64699e5c20fe481e6b,6152ff64699e5c20fe481e6b,9,cake,critical,A,75,cake66.jpg,cake84.jpg,low,NULL
1687287689,2a0079aa2a4d582680f2eafd6fb7fe5b,PennController,12,0,experiment,NULL,Canvas,canvas6,Print,NA,1687287447334,6152ff64699e5c20fe481e6b,6152ff64699e5c20fe481e6b,9,cake,critical,A,75,cake66.jpg,cake84.jpg,low,NULL
1687287689,2a0079aa2a4d582680f2eafd6fb7fe5b,PennController,12,0,experiment,NULL,Video,progression,buffer,0.002256,1687287441171,6152ff64699e5c20fe481e6b,6152ff64699e5c20fe481e6b,9,cake,critical,A,75,cake66.jpg,cake84.jpg,low,NULL
1687287689,2a0079aa2a4d582680f2eafd6fb7fe5b,PennController,12,0,experiment,NULL,Selector,choice,Selection,option2,1687287454300,6152ff64699e5c20fe481e6b,6152ff64699e5c20fe481e6b,9,cake,critical,A,75,cake66.jpg,cake84.jpg,low,option2;option1
1687287689,2a0079aa2a4d582680f2eafd6fb7fe5b,PennController,12,0,experiment,NULL,PennController,11,_Trial_,End,1687287454302,6152ff64699e5c20fe481e6b,6152ff64699e5c20fe481e6b,9,cake,critical,A,75,cake66.jpg,cake84.jpg,low,NULL
1687287689,2a0079aa2a4d582680f2eafd6fb7fe5b,PennController,25,0,experiment,NULL,PennController,24,_Trial_,Start,1687287454303,6152ff64699e5c20fe481e6b,6152ff64699e5c20fe481e6b,22,wall,filler,A,25,wall15.jpg,wall35.jpg,GoalB,NULL
1687287689,2a0079aa2a4d582680f2eafd6fb7fe5b,PennController,25,0,experiment,NULL,PennController,24,_Header_,Start,1687287454303,6152ff64699e5c20fe481e6b,6152ff64699e5c20fe481e6b,22,wall,filler,A,25,wall15.jpg,wall35.jpg,GoalB,NULL
1687287689,2a0079aa2a4d582680f2eafd6fb7fe5b,PennController,25,0,experiment,NULL,PennController,24,_Header_,End,1687287454303,6152ff64699e5c20fe481e6b,6152ff64699e5c20fe481e6b,22,wall,filler,A,25,wall15.jpg,wall35.jpg,GoalB,NULL
1687287689,2a0079aa2a4d582680f2eafd6fb7fe5b,PennController,25,0,experiment,NULL,Canvas,canvas6,Print,NA,1687287459956,6152ff64699e5c20fe481e6b,6152ff64699e5c20fe481e6b,22,wall,filler,A,25,wall15.jpg,wall35.jpg,GoalB,NULL
1687287689,2a0079aa2a4d582680f2eafd6fb7fe5b,PennController,25,0,experiment,NULL,Video,progression,buffer,0.002189,1687287457821,6152ff64699e5c20fe481e6b,6152ff64699e5c20fe481e6b,22,wall,filler,A,25,wall15.jpg,wall35.jpg,GoalB,NULL
1687287689,2a0079aa2a4d582680f2eafd6fb7fe5b,PennController,25,0,experiment,NULL,Selector,choice,Selection,option2,1687287462748,6152ff64699e5c20fe481e6b,6152ff64699e5c20fe481e6b,22,wall,filler,A,25,wall15.jpg,wall35.jpg,GoalB,option2;option1
1687287689,2a0079aa2a4d582680f2eafd6fb7fe5b,PennController,25,0,experiment,NULL,PennController,24,_Trial_,End,1687287462749,6152ff64699e5c20fe481e6b,6152ff64699e5c20fe481e6b,22,wall,filler,A,25,wall15.jpg,wall35.jpg,GoalB,NULL
1687287689,2a0079aa2a4d582680f2eafd6fb7fe5b,PennController,14,0,experiment,NULL,PennController,13,_Trial_,Start,1687287462751,6152ff64699e5c20fe481e6b,6152ff64699e5c20fe481e6b,11,beads,critical,A,50,beads40.jpg,beads60.jpg,low,NULL
1687287689,2a0079aa2a4d582680f2eafd6fb7fe5b,PennController,14,0,experiment,NULL,PennController,13,_Header_,Start,1687287462751,6152ff64699e5c20fe481e6b,6152ff64699e5c20fe481e6b,11,beads,critical,A,50,beads40.jpg,beads60.jpg,low,NULL
1687287689,2a0079aa2a4d582680f2eafd6fb7fe5b,PennController,14,0,experiment,NULL,PennController,13,_Header_,End,1687287462751,6152ff64699e5c20fe481e6b,6152ff64699e5c20fe481e6b,11,beads,critical,A,50,beads40.jpg,beads60.jpg,low,NULL
1687287689,2a0079aa2a4d582680f2eafd6fb7fe5b,PennController,14,0,experiment,NULL,Canvas,canvas6,Print,NA,1687287469415,6152ff64699e5c20fe481e6b,6152ff64699e5c20fe481e6b,11,beads,critical,A,50,beads40.jpg,beads60.jpg,low,NULL
1687287689,2a0079aa2a4d582680f2eafd6fb7fe5b,PennController,14,0,experiment,NULL,Video,progression,buffer,0.002239,1687287466270,6152ff64699e5c20fe481e6b,6152ff64699e5c20fe481e6b,11,beads,critical,A,50,beads40.jpg,beads60.jpg,low,NULL
1687287689,2a0079aa2a4d582680f2eafd6fb7fe5b,PennController,14,0,experiment,NULL,Selector,choice,Selection,option1,1687287471588,6152ff64699e5c20fe481e6b,6152ff64699e5c20fe481e6b,11,beads,critical,A,50,beads40.jpg,beads60.jpg,low,option1;option2
1687287689,2a0079aa2a4d582680f2eafd6fb7fe5b,PennController,14,0,experiment,NULL,PennController,13,_Trial_,End,1687287471590,6152ff64699e5c20fe481e6b,6152ff64699e5c20fe481e6b,11,beads,critical,A,50,beads40.jpg,beads60.jpg,low,NULL
1687287689,2a0079aa2a4d582680f2eafd6fb7fe5b,PennController,31,0,experiment,NULL,PennController,30,_Trial_,Start,1687287471591,6152ff64699e5c20fe481e6b,6152ff64699e5c20fe481e6b,28,sort,filler,A,25,sort15.jpg,sort35.jpg,GoalB,NULL
1687287689,2a0079aa2a4d582680f2eafd6fb7fe5b,PennController,31,0,experiment,NULL,PennController,30,_Header_,Start,1687287471591,6152ff64699e5c20fe481e6b,6152ff64699e5c20fe481e6b,28,sort,filler,A,25,sort15.jpg,sort35.jpg,GoalB,NULL
1687287689,2a0079aa2a4d582680f2eafd6fb7fe5b,PennController,31,0,experiment,NULL,PennController,30,_Header_,End,1687287471591,6152ff64699e5c20fe481e6b,6152ff64699e5c20fe481e6b,28,sort,filler,A,25,sort15.jpg,sort35.jpg,GoalB,NULL
1687287689,2a0079aa2a4d582680f2eafd6fb7fe5b,PennController,31,0,experiment,NULL,Canvas,canvas6,Print,NA,1687287477245,6152ff64699e5c20fe481e6b,6152ff64699e5c20fe481e6b,28,sort,filler,A,25,sort15.jpg,sort35.jpg,GoalB,NULL
1687287689,2a0079aa2a4d582680f2eafd6fb7fe5b,PennController,31,0,experiment,NULL,Video,progression,buffer,0.003402,1687287475108,6152ff64699e5c20fe481e6b,6152ff64699e5c20fe481e6b,28,sort,filler,A,25,sort15.jpg,sort35.jpg,GoalB,NULL
1687287689,2a0079aa2a4d582680f2eafd6fb7fe5b,PennController,31,0,experiment,NULL,Selector,choice,Selection,option2,1687287480876,6152ff64699e5c20fe481e6b,6152ff64699e5c20fe481e6b,28,sort,filler,A,25,sort15.jpg,sort35.jpg,GoalB,option1;option2
1687287689,2a0079aa2a4d582680f2eafd6fb7fe5b,PennController,31,0,experiment,NULL,PennController,30,_Trial_,End,1687287480877,6152ff64699e5c20fe481e6b,6152ff64699e5c20fe481e6b,28,sort,filler,A,25,sort15.jpg,sort35.jpg,GoalB,NULL
1687287689,2a0079aa2a4d582680f2eafd6fb7fe5b,PennController,19,0,experiment,NULL,PennController,18,_Trial_,Start,1687287480879,6152ff64699e5c20fe481e6b,6152ff64699e5c20fe481e6b,16,blinds,critical,A,25,blinds15.jpg,blinds33.jpg,low,NULL
1687287689,2a0079aa2a4d582680f2eafd6fb7fe5b,PennController,19,0,experiment,NULL,PennController,18,_Header_,Start,1687287480879,6152ff64699e5c20fe481e6b,6152ff64699e5c20fe481e6b,16,blinds,critical,A,25,blinds15.jpg,blinds33.jpg,low,NULL
1687287689,2a0079aa2a4d582680f2eafd6fb7fe5b,PennController,19,0,experiment,NULL,PennController,18,_Header_,End,1687287480879,6152ff64699e5c20fe481e6b,6152ff64699e5c20fe481e6b,16,blinds,critical,A,25,blinds15.jpg,blinds33.jpg,low,NULL
1687287689,2a0079aa2a4d582680f2eafd6fb7fe5b,PennController,19,0,experiment,NULL,Canvas,canvas6,Print,NA,1687287487156,6152ff64699e5c20fe481e6b,6152ff64699e5c20fe481e6b,16,blinds,critical,A,25,blinds15.jpg,blinds33.jpg,low,NULL
1687287689,2a0079aa2a4d582680f2eafd6fb7fe5b,PennController,19,0,experiment,NULL,Video,progression,buffer,0.002587,1687287484399,6152ff64699e5c20fe481e6b,6152ff64699e5c20fe481e6b,16,blinds,critical,A,25,blinds15.jpg,blinds33.jpg,low,NULL
1687287689,2a0079aa2a4d582680f2eafd6fb7fe5b,PennController,19,0,experiment,NULL,Selector,choice,Selection,option1,1687287492844,6152ff64699e5c20fe481e6b,6152ff64699e5c20fe481e6b,16,blinds,critical,A,25,blinds15.jpg,blinds33.jpg,low,option1;option2
1687287689,2a0079aa2a4d582680f2eafd6fb7fe5b,PennController,19,0,experiment,NULL,PennController,18,_Trial_,End,1687287492845,6152ff64699e5c20fe481e6b,6152ff64699e5c20fe481e6b,16,blinds,critical,A,25,blinds15.jpg,blinds33.jpg,low,NULL
1687287689,2a0079aa2a4d582680f2eafd6fb7fe5b,PennController,18,0,experiment,NULL,PennController,17,_Trial_,Start,1687287492847,6152ff64699e5c20fe481e6b,6152ff64699e5c20fe481e6b,15,zip,critical,A,75,zip65.jpg,zip85.jpg,low,NULL
1687287689,2a0079aa2a4d582680f2eafd6fb7fe5b,PennController,18,0,experiment,NULL,PennController,17,_Header_,Start,1687287492847,6152ff64699e5c20fe481e6b,6152ff64699e5c20fe481e6b,15,zip,critical,A,75,zip65.jpg,zip85.jpg,low,NULL
1687287689,2a0079aa2a4d582680f2eafd6fb7fe5b,PennController,18,0,experiment,NULL,PennController,17,_Header_,End,1687287492847,6152ff64699e5c20fe481e6b,6152ff64699e5c20fe481e6b,15,zip,critical,A,75,zip65.jpg,zip85.jpg,low,NULL
1687287689,2a0079aa2a4d582680f2eafd6fb7fe5b,PennController,18,0,experiment,NULL,Canvas,canvas6,Print,NA,1687287499755,6152ff64699e5c20fe481e6b,6152ff64699e5c20fe481e6b,15,zip,critical,A,75,zip65.jpg,zip85.jpg,low,NULL
1687287689,2a0079aa2a4d582680f2eafd6fb7fe5b,PennController,18,0,experiment,NULL,Video,progression,buffer,0.002505,1687287496371,6152ff64699e5c20fe481e6b,6152ff64699e5c20fe481e6b,15,zip,critical,A,75,zip65.jpg,zip85.jpg,low,NULL
1687287689,2a0079aa2a4d582680f2eafd6fb7fe5b,PennController,18,0,experiment,NULL,Selector,choice,Selection,option2,1687287507028,6152ff64699e5c20fe481e6b,6152ff64699e5c20fe481e6b,15,zip,critical,A,75,zip65.jpg,zip85.jpg,low,option2;option1
1687287689,2a0079aa2a4d582680f2eafd6fb7fe5b,PennController,18,0,experiment,NULL,PennController,17,_Trial_,End,1687287507029,6152ff64699e5c20fe481e6b,6152ff64699e5c20fe481e6b,15,zip,critical,A,75,zip65.jpg,zip85.jpg,low,NULL
1687287689,2a0079aa2a4d582680f2eafd6fb7fe5b,PennController,30,0,experiment,NULL,PennController,29,_Trial_,Start,1687287507030,6152ff64699e5c20fe481e6b,6152ff64699e5c20fe481e6b,27,square,filler,A,75,square65.jpg,square85.jpg,GoalA,NULL
1687287689,2a0079aa2a4d582680f2eafd6fb7fe5b,PennController,30,0,experiment,NULL,PennController,29,_Header_,Start,1687287507030,6152ff64699e5c20fe481e6b,6152ff64699e5c20fe481e6b,27,square,filler,A,75,square65.jpg,square85.jpg,GoalA,NULL
1687287689,2a0079aa2a4d582680f2eafd6fb7fe5b,PennController,30,0,experiment,NULL,PennController,29,_Header_,End,1687287507030,6152ff64699e5c20fe481e6b,6152ff64699e5c20fe481e6b,27,square,filler,A,75,square65.jpg,square85.jpg,GoalA,NULL
1687287689,2a0079aa2a4d582680f2eafd6fb7fe5b,PennController,30,0,experiment,NULL,Canvas,canvas6,Print,NA,1687287514706,6152ff64699e5c20fe481e6b,6152ff64699e5c20fe481e6b,27,square,filler,A,75,square65.jpg,square85.jpg,GoalA,NULL
1687287689,2a0079aa2a4d582680f2eafd6fb7fe5b,PennController,30,0,experiment,NULL,Video,progression,buffer,0.002215,1687287510548,6152ff64699e5c20fe481e6b,6152ff64699e5c20fe481e6b,27,square,filler,A,75,square65.jpg,square85.jpg,GoalA,NULL
1687287689,2a0079aa2a4d582680f2eafd6fb7fe5b,PennController,30,0,experiment,NULL,Selector,choice,Selection,option1,1687287518428,6152ff64699e5c20fe481e6b,6152ff64699e5c20fe481e6b,27,square,filler,A,75,square65.jpg,square85.jpg,GoalA,option2;option1
1687287689,2a0079aa2a4d582680f2eafd6fb7fe5b,PennController,30,0,experiment,NULL,PennController,29,_Trial_,End,1687287518429,6152ff64699e5c20fe481e6b,6152ff64699e5c20fe481e6b,27,square,filler,A,75,square65.jpg,square85.jpg,GoalA,NULL
1687287689,2a0079aa2a4d582680f2eafd6fb7fe5b,PennController,15,0,experiment,NULL,PennController,14,_Trial_,Start,1687287518430,6152ff64699e5c20fe481e6b,6152ff64699e5c20fe481e6b,12,erase,critical,A,75,erase66.jpg,erase84.jpg,low,NULL
1687287689,2a0079aa2a4d582680f2eafd6fb7fe5b,PennController,15,0,experiment,NULL,PennController,14,_Header_,Start,1687287518430,6152ff64699e5c20fe481e6b,6152ff64699e5c20fe481e6b,12,erase,critical,A,75,erase66.jpg,erase84.jpg,low,NULL
1687287689,2a0079aa2a4d582680f2eafd6fb7fe5b,PennController,15,0,experiment,NULL,PennController,14,_Header_,End,1687287518430,6152ff64699e5c20fe481e6b,6152ff64699e5c20fe481e6b,12,erase,critical,A,75,erase66.jpg,erase84.jpg,low,NULL
1687287689,2a0079aa2a4d582680f2eafd6fb7fe5b,PennController,15,0,experiment,NULL,Canvas,canvas6,Print,NA,1687287528107,6152ff64699e5c20fe481e6b,6152ff64699e5c20fe481e6b,12,erase,critical,A,75,erase66.jpg,erase84.jpg,low,NULL
1687287689,2a0079aa2a4d582680f2eafd6fb7fe5b,PennController,15,0,experiment,NULL,Video,progression,buffer,0.002185,1687287521947,6152ff64699e5c20fe481e6b,6152ff64699e5c20fe481e6b,12,erase,critical,A,75,erase66.jpg,erase84.jpg,low,NULL
1687287689,2a0079aa2a4d582680f2eafd6fb7fe5b,PennController,15,0,experiment,NULL,Selector,choice,Selection,option1,1687287530332,6152ff64699e5c20fe481e6b,6152ff64699e5c20fe481e6b,12,erase,critical,A,75,erase66.jpg,erase84.jpg,low,option1;option2
1687287689,2a0079aa2a4d582680f2eafd6fb7fe5b,PennController,15,0,experiment,NULL,PennController,14,_Trial_,End,1687287530333,6152ff64699e5c20fe481e6b,6152ff64699e5c20fe481e6b,12,erase,critical,A,75,erase66.jpg,erase84.jpg,low,NULL
1687287689,2a0079aa2a4d582680f2eafd6fb7fe5b,PennController,27,0,experiment,NULL,PennController,26,_Trial_,Start,1687287530334,6152ff64699e5c20fe481e6b,6152ff64699e5c20fe481e6b,24,match,filler,A,75,match65.jpg,match85.jpg,GoalB,NULL
1687287689,2a0079aa2a4d582680f2eafd6fb7fe5b,PennController,27,0,experiment,NULL,PennController,26,_Header_,Start,1687287530334,6152ff64699e5c20fe481e6b,6152ff64699e5c20fe481e6b,24,match,filler,A,75,match65.jpg,match85.jpg,GoalB,NULL
1687287689,2a0079aa2a4d582680f2eafd6fb7fe5b,PennController,27,0,experiment,NULL,PennController,26,_Header_,End,1687287530334,6152ff64699e5c20fe481e6b,6152ff64699e5c20fe481e6b,24,match,filler,A,75,match65.jpg,match85.jpg,GoalB,NULL
1687287689,2a0079aa2a4d582680f2eafd6fb7fe5b,PennController,27,0,experiment,NULL,Canvas,canvas6,Print,NA,1687287537993,6152ff64699e5c20fe481e6b,6152ff64699e5c20fe481e6b,24,match,filler,A,75,match65.jpg,match85.jpg,GoalB,NULL
1687287689,2a0079aa2a4d582680f2eafd6fb7fe5b,PennController,27,0,experiment,NULL,Video,progression,buffer,0.003586,1687287533852,6152ff64699e5c20fe481e6b,6152ff64699e5c20fe481e6b,24,match,filler,A,75,match65.jpg,match85.jpg,GoalB,NULL
1687287689,2a0079aa2a4d582680f2eafd6fb7fe5b,PennController,27,0,experiment,NULL,Selector,choice,Selection,option1,1687287540940,6152ff64699e5c20fe481e6b,6152ff64699e5c20fe481e6b,24,match,filler,A,75,match65.jpg,match85.jpg,GoalB,option2;option1
1687287689,2a0079aa2a4d582680f2eafd6fb7fe5b,PennController,27,0,experiment,NULL,PennController,26,_Trial_,End,1687287540941,6152ff64699e5c20fe481e6b,6152ff64699e5c20fe481e6b,24,match,filler,A,75,match65.jpg,match85.jpg,GoalB,NULL
1687287689,2a0079aa2a4d582680f2eafd6fb7fe5b,PennController,20,0,experiment,NULL,PennController,19,_Trial_,Start,1687287540942,6152ff64699e5c20fe481e6b,6152ff64699e5c20fe481e6b,17,roll,critical,A,50,roll40.jpg,roll60.jpg,low,NULL
1687287689,2a0079aa2a4d582680f2eafd6fb7fe5b,PennController,20,0,experiment,NULL,PennController,19,_Header_,Start,1687287540942,6152ff64699e5c20fe481e6b,6152ff64699e5c20fe481e6b,17,roll,critical,A,50,roll40.jpg,roll60.jpg,low,NULL
1687287689,2a0079aa2a4d582680f2eafd6fb7fe5b,PennController,20,0,experiment,NULL,PennController,19,_Header_,End,1687287540942,6152ff64699e5c20fe481e6b,6152ff64699e5c20fe481e6b,17,roll,critical,A,50,roll40.jpg,roll60.jpg,low,NULL
1687287689,2a0079aa2a4d582680f2eafd6fb7fe5b,PennController,20,0,experiment,NULL,Canvas,canvas6,Print,NA,1687287547606,6152ff64699e5c20fe481e6b,6152ff64699e5c20fe481e6b,17,roll,critical,A,50,roll40.jpg,roll60.jpg,low,NULL
1687287689,2a0079aa2a4d582680f2eafd6fb7fe5b,PennController,20,0,experiment,NULL,Video,progression,buffer,0.002161,1687287544457,6152ff64699e5c20fe481e6b,6152ff64699e5c20fe481e6b,17,roll,critical,A,50,roll40.jpg,roll60.jpg,low,NULL
1687287689,2a0079aa2a4d582680f2eafd6fb7fe5b,PennController,20,0,experiment,NULL,Selector,choice,Selection,option2,1687287549196,6152ff64699e5c20fe481e6b,6152ff64699e5c20fe481e6b,17,roll,critical,A,50,roll40.jpg,roll60.jpg,low,option1;option2
1687287689,2a0079aa2a4d582680f2eafd6fb7fe5b,PennController,20,0,experiment,NULL,PennController,19,_Trial_,End,1687287549197,6152ff64699e5c20fe481e6b,6152ff64699e5c20fe481e6b,17,roll,critical,A,50,roll40.jpg,roll60.jpg,low,NULL
1687287689,2a0079aa2a4d582680f2eafd6fb7fe5b,PennController,32,0,experiment,NULL,PennController,31,_Trial_,Start,1687287549198,6152ff64699e5c20fe481e6b,6152ff64699e5c20fe481e6b,29,frog,filler,A,50,frog40.jpg,frog60.jpg,GoalA,NULL
1687287689,2a0079aa2a4d582680f2eafd6fb7fe5b,PennController,32,0,experiment,NULL,PennController,31,_Header_,Start,1687287549198,6152ff64699e5c20fe481e6b,6152ff64699e5c20fe481e6b,29,frog,filler,A,50,frog40.jpg,frog60.jpg,GoalA,NULL
1687287689,2a0079aa2a4d582680f2eafd6fb7fe5b,PennController,32,0,experiment,NULL,PennController,31,_Header_,End,1687287549198,6152ff64699e5c20fe481e6b,6152ff64699e5c20fe481e6b,29,frog,filler,A,50,frog40.jpg,frog60.jpg,GoalA,NULL
1687287689,2a0079aa2a4d582680f2eafd6fb7fe5b,PennController,32,0,experiment,NULL,Canvas,canvas6,Print,NA,1687287555861,6152ff64699e5c20fe481e6b,6152ff64699e5c20fe481e6b,29,frog,filler,A,50,frog40.jpg,frog60.jpg,GoalA,NULL
1687287689,2a0079aa2a4d582680f2eafd6fb7fe5b,PennController,32,0,experiment,NULL,Video,progression,buffer,0.003267,1687287552718,6152ff64699e5c20fe481e6b,6152ff64699e5c20fe481e6b,29,frog,filler,A,50,frog40.jpg,frog60.jpg,GoalA,NULL
1687287689,2a0079aa2a4d582680f2eafd6fb7fe5b,PennController,32,0,experiment,NULL,Selector,choice,Selection,option2,1687287557500,6152ff64699e5c20fe481e6b,6152ff64699e5c20fe481e6b,29,frog,filler,A,50,frog40.jpg,frog60.jpg,GoalA,option2;option1
1687287689,2a0079aa2a4d582680f2eafd6fb7fe5b,PennController,32,0,experiment,NULL,PennController,31,_Trial_,End,1687287557501,6152ff64699e5c20fe481e6b,6152ff64699e5c20fe481e6b,29,frog,filler,A,50,frog40.jpg,frog60.jpg,GoalA,NULL
1687287689,2a0079aa2a4d582680f2eafd6fb7fe5b,PennController,28,0,experiment,NULL,PennController,27,_Trial_,Start,1687287557502,6152ff64699e5c20fe481e6b,6152ff64699e5c20fe481e6b,25,house,filler,A,25,house15.jpg,house35.jpg,GoalA,NULL
1687287689,2a0079aa2a4d582680f2eafd6fb7fe5b,PennController,28,0,experiment,NULL,PennController,27,_Header_,Start,1687287557502,6152ff64699e5c20fe481e6b,6152ff64699e5c20fe481e6b,25,house,filler,A,25,house15.jpg,house35.jpg,GoalA,NULL
1687287689,2a0079aa2a4d582680f2eafd6fb7fe5b,PennController,28,0,experiment,NULL,PennController,27,_Header_,End,1687287557502,6152ff64699e5c20fe481e6b,6152ff64699e5c20fe481e6b,25,house,filler,A,25,house15.jpg,house35.jpg,GoalA,NULL
1687287689,2a0079aa2a4d582680f2eafd6fb7fe5b,PennController,28,0,experiment,NULL,Canvas,canvas6,Print,NA,1687287563163,6152ff64699e5c20fe481e6b,6152ff64699e5c20fe481e6b,25,house,filler,A,25,house15.jpg,house35.jpg,GoalA,NULL
1687287689,2a0079aa2a4d582680f2eafd6fb7fe5b,PennController,28,0,experiment,NULL,Video,progression,buffer,0.003483,1687287561023,6152ff64699e5c20fe481e6b,6152ff64699e5c20fe481e6b,25,house,filler,A,25,house15.jpg,house35.jpg,GoalA,NULL
1687287689,2a0079aa2a4d582680f2eafd6fb7fe5b,PennController,28,0,experiment,NULL,Selector,choice,Selection,option2,1687287564932,6152ff64699e5c20fe481e6b,6152ff64699e5c20fe481e6b,25,house,filler,A,25,house15.jpg,house35.jpg,GoalA,option2;option1
1687287689,2a0079aa2a4d582680f2eafd6fb7fe5b,PennController,28,0,experiment,NULL,PennController,27,_Trial_,End,1687287564933,6152ff64699e5c20fe481e6b,6152ff64699e5c20fe481e6b,25,house,filler,A,25,house15.jpg,house35.jpg,GoalA,NULL
1687287689,2a0079aa2a4d582680f2eafd6fb7fe5b,PennController,4,0,experiment,NULL,PennController,3,_Trial_,Start,1687287564934,6152ff64699e5c20fe481e6b,6152ff64699e5c20fe481e6b,1,vase,critical,A,25,vase15.jpg,vase35.jpg,low,NULL
1687287689,2a0079aa2a4d582680f2eafd6fb7fe5b,PennController,4,0,experiment,NULL,PennController,3,_Header_,Start,1687287564934,6152ff64699e5c20fe481e6b,6152ff64699e5c20fe481e6b,1,vase,critical,A,25,vase15.jpg,vase35.jpg,low,NULL
1687287689,2a0079aa2a4d582680f2eafd6fb7fe5b,PennController,4,0,experiment,NULL,PennController,3,_Header_,End,1687287564934,6152ff64699e5c20fe481e6b,6152ff64699e5c20fe481e6b,1,vase,critical,A,25,vase15.jpg,vase35.jpg,low,NULL
1687287689,2a0079aa2a4d582680f2eafd6fb7fe5b,PennController,4,0,experiment,NULL,Canvas,canvas6,Print,NA,1687287570592,6152ff64699e5c20fe481e6b,6152ff64699e5c20fe481e6b,1,vase,critical,A,25,vase15.jpg,vase35.jpg,low,NULL
1687287689,2a0079aa2a4d582680f2eafd6fb7fe5b,PennController,4,0,experiment,NULL,Video,progression,buffer,0.003372,1687287568455,6152ff64699e5c20fe481e6b,6152ff64699e5c20fe481e6b,1,vase,critical,A,25,vase15.jpg,vase35.jpg,low,NULL
1687287689,2a0079aa2a4d582680f2eafd6fb7fe5b,PennController,4,0,experiment,NULL,Selector,choice,Selection,option2,1687287573116,6152ff64699e5c20fe481e6b,6152ff64699e5c20fe481e6b,1,vase,critical,A,25,vase15.jpg,vase35.jpg,low,option2;option1
1687287689,2a0079aa2a4d582680f2eafd6fb7fe5b,PennController,4,0,experiment,NULL,PennController,3,_Trial_,End,1687287573117,6152ff64699e5c20fe481e6b,6152ff64699e5c20fe481e6b,1,vase,critical,A,25,vase15.jpg,vase35.jpg,low,NULL
1687287689,2a0079aa2a4d582680f2eafd6fb7fe5b,PennController,29,0,experiment,NULL,PennController,28,_Trial_,Start,1687287573118,6152ff64699e5c20fe481e6b,6152ff64699e5c20fe481e6b,26,sandwich,filler,A,50,sandwich40.jpg,sandwich60.jpg,GoalB,NULL
1687287689,2a0079aa2a4d582680f2eafd6fb7fe5b,PennController,29,0,experiment,NULL,PennController,28,_Header_,Start,1687287573118,6152ff64699e5c20fe481e6b,6152ff64699e5c20fe481e6b,26,sandwich,filler,A,50,sandwich40.jpg,sandwich60.jpg,GoalB,NULL
1687287689,2a0079aa2a4d582680f2eafd6fb7fe5b,PennController,29,0,experiment,NULL,PennController,28,_Header_,End,1687287573118,6152ff64699e5c20fe481e6b,6152ff64699e5c20fe481e6b,26,sandwich,filler,A,50,sandwich40.jpg,sandwich60.jpg,GoalB,NULL
1687287689,2a0079aa2a4d582680f2eafd6fb7fe5b,PennController,29,0,experiment,NULL,Canvas,canvas6,Print,NA,1687287579772,6152ff64699e5c20fe481e6b,6152ff64699e5c20fe481e6b,26,sandwich,filler,A,50,sandwich40.jpg,sandwich60.jpg,GoalB,NULL
1687287689,2a0079aa2a4d582680f2eafd6fb7fe5b,PennController,29,0,experiment,NULL,Video,progression,buffer,0.002443,1687287576636,6152ff64699e5c20fe481e6b,6152ff64699e5c20fe481e6b,26,sandwich,filler,A,50,sandwich40.jpg,sandwich60.jpg,GoalB,NULL
1687287689,2a0079aa2a4d582680f2eafd6fb7fe5b,PennController,29,0,experiment,NULL,Selector,choice,Selection,option1,1687287584787,6152ff64699e5c20fe481e6b,6152ff64699e5c20fe481e6b,26,sandwich,filler,A,50,sandwich40.jpg,sandwich60.jpg,GoalB,option2;option1
1687287689,2a0079aa2a4d582680f2eafd6fb7fe5b,PennController,29,0,experiment,NULL,PennController,28,_Trial_,End,1687287584789,6152ff64699e5c20fe481e6b,6152ff64699e5c20fe481e6b,26,sandwich,filler,A,50,sandwich40.jpg,sandwich60.jpg,GoalB,NULL
1687287689,2a0079aa2a4d582680f2eafd6fb7fe5b,PennController,26,0,experiment,NULL,PennController,25,_Trial_,Start,1687287584790,6152ff64699e5c20fe481e6b,6152ff64699e5c20fe481e6b,23,color,filler,A,50,color40.jpg,color60.jpg,GoalA,NULL
1687287689,2a0079aa2a4d582680f2eafd6fb7fe5b,PennController,26,0,experiment,NULL,PennController,25,_Header_,Start,1687287584790,6152ff64699e5c20fe481e6b,6152ff64699e5c20fe481e6b,23,color,filler,A,50,color40.jpg,color60.jpg,GoalA,NULL
1687287689,2a0079aa2a4d582680f2eafd6fb7fe5b,PennController,26,0,experiment,NULL,PennController,25,_Header_,End,1687287584790,6152ff64699e5c20fe481e6b,6152ff64699e5c20fe481e6b,23,color,filler,A,50,color40.jpg,color60.jpg,GoalA,NULL
1687287689,2a0079aa2a4d582680f2eafd6fb7fe5b,PennController,26,0,experiment,NULL,Canvas,canvas6,Print,NA,1687287591466,6152ff64699e5c20fe481e6b,6152ff64699e5c20fe481e6b,23,color,filler,A,50,color40.jpg,color60.jpg,GoalA,NULL
1687287689,2a0079aa2a4d582680f2eafd6fb7fe5b,PennController,26,0,experiment,NULL,Video,progression,buffer,0.003285,1687287588310,6152ff64699e5c20fe481e6b,6152ff64699e5c20fe481e6b,23,color,filler,A,50,color40.jpg,color60.jpg,GoalA,NULL
1687287689,2a0079aa2a4d582680f2eafd6fb7fe5b,PennController,26,0,experiment,NULL,Selector,choice,Selection,option2,1687287595076,6152ff64699e5c20fe481e6b,6152ff64699e5c20fe481e6b,23,color,filler,A,50,color40.jpg,color60.jpg,GoalA,option2;option1
1687287689,2a0079aa2a4d582680f2eafd6fb7fe5b,PennController,26,0,experiment,NULL,PennController,25,_Trial_,End,1687287595077,6152ff64699e5c20fe481e6b,6152ff64699e5c20fe481e6b,23,color,filler,A,50,color40.jpg,color60.jpg,GoalA,NULL
1687287689,2a0079aa2a4d582680f2eafd6fb7fe5b,PennController,11,0,experiment,NULL,PennController,10,_Trial_,Start,1687287595078,6152ff64699e5c20fe481e6b,6152ff64699e5c20fe481e6b,8,cucumber,critical,A,50,cucumber42.jpg,cucumber60.jpg,low,NULL
1687287689,2a0079aa2a4d582680f2eafd6fb7fe5b,PennController,11,0,experiment,NULL,PennController,10,_Header_,Start,1687287595078,6152ff64699e5c20fe481e6b,6152ff64699e5c20fe481e6b,8,cucumber,critical,A,50,cucumber42.jpg,cucumber60.jpg,low,NULL
1687287689,2a0079aa2a4d582680f2eafd6fb7fe5b,PennController,11,0,experiment,NULL,PennController,10,_Header_,End,1687287595078,6152ff64699e5c20fe481e6b,6152ff64699e5c20fe481e6b,8,cucumber,critical,A,50,cucumber42.jpg,cucumber60.jpg,low,NULL
1687287689,2a0079aa2a4d582680f2eafd6fb7fe5b,PennController,11,0,experiment,NULL,Canvas,canvas6,Print,NA,1687287603161,6152ff64699e5c20fe481e6b,6152ff64699e5c20fe481e6b,8,cucumber,critical,A,50,cucumber42.jpg,cucumber60.jpg,low,NULL
1687287689,2a0079aa2a4d582680f2eafd6fb7fe5b,PennController,11,0,experiment,NULL,Video,progression,buffer,0.002457,1687287598596,6152ff64699e5c20fe481e6b,6152ff64699e5c20fe481e6b,8,cucumber,critical,A,50,cucumber42.jpg,cucumber60.jpg,low,NULL
1687287689,2a0079aa2a4d582680f2eafd6fb7fe5b,PennController,11,0,experiment,NULL,Selector,choice,Selection,option2,1687287606515,6152ff64699e5c20fe481e6b,6152ff64699e5c20fe481e6b,8,cucumber,critical,A,50,cucumber42.jpg,cucumber60.jpg,low,option2;option1
1687287689,2a0079aa2a4d582680f2eafd6fb7fe5b,PennController,11,0,experiment,NULL,PennController,10,_Trial_,End,1687287606517,6152ff64699e5c20fe481e6b,6152ff64699e5c20fe481e6b,8,cucumber,critical,A,50,cucumber42.jpg,cucumber60.jpg,low,NULL
1687287689,2a0079aa2a4d582680f2eafd6fb7fe5b,PennController,8,0,experiment,NULL,PennController,7,_Trial_,Start,1687287606518,6152ff64699e5c20fe481e6b,6152ff64699e5c20fe481e6b,5,book,critical,A,50,book40.jpg,book60.jpg,low,NULL
1687287689,2a0079aa2a4d582680f2eafd6fb7fe5b,PennController,8,0,experiment,NULL,PennController,7,_Header_,Start,1687287606518,6152ff64699e5c20fe481e6b,6152ff64699e5c20fe481e6b,5,book,critical,A,50,book40.jpg,book60.jpg,low,NULL
1687287689,2a0079aa2a4d582680f2eafd6fb7fe5b,PennController,8,0,experiment,NULL,PennController,7,_Header_,End,1687287606518,6152ff64699e5c20fe481e6b,6152ff64699e5c20fe481e6b,5,book,critical,A,50,book40.jpg,book60.jpg,low,NULL
1687287689,2a0079aa2a4d582680f2eafd6fb7fe5b,PennController,8,0,experiment,NULL,Canvas,canvas6,Print,NA,1687287613195,6152ff64699e5c20fe481e6b,6152ff64699e5c20fe481e6b,5,book,critical,A,50,book40.jpg,book60.jpg,low,NULL
1687287689,2a0079aa2a4d582680f2eafd6fb7fe5b,PennController,8,0,experiment,NULL,Video,progression,buffer,0.003565,1687287610039,6152ff64699e5c20fe481e6b,6152ff64699e5c20fe481e6b,5,book,critical,A,50,book40.jpg,book60.jpg,low,NULL
1687287689,2a0079aa2a4d582680f2eafd6fb7fe5b,PennController,8,0,experiment,NULL,Selector,choice,Selection,option1,1687287618788,6152ff64699e5c20fe481e6b,6152ff64699e5c20fe481e6b,5,book,critical,A,50,book40.jpg,book60.jpg,low,option1;option2
1687287689,2a0079aa2a4d582680f2eafd6fb7fe5b,PennController,8,0,experiment,NULL,PennController,7,_Trial_,End,1687287618789,6152ff64699e5c20fe481e6b,6152ff64699e5c20fe481e6b,5,book,critical,A,50,book40.jpg,book60.jpg,low,NULL
1687287689,2a0079aa2a4d582680f2eafd6fb7fe5b,PennController,13,0,experiment,NULL,PennController,12,_Trial_,Start,1687287618790,6152ff64699e5c20fe481e6b,6152ff64699e5c20fe481e6b,10,train,critical,A,25,train15.jpg,train35.jpg,low,NULL
1687287689,2a0079aa2a4d582680f2eafd6fb7fe5b,PennController,13,0,experiment,NULL,PennController,12,_Header_,Start,1687287618790,6152ff64699e5c20fe481e6b,6152ff64699e5c20fe481e6b,10,train,critical,A,25,train15.jpg,train35.jpg,low,NULL
1687287689,2a0079aa2a4d582680f2eafd6fb7fe5b,PennController,13,0,experiment,NULL,PennController,12,_Header_,End,1687287618790,6152ff64699e5c20fe481e6b,6152ff64699e5c20fe481e6b,10,train,critical,A,25,train15.jpg,train35.jpg,low,NULL
1687287689,2a0079aa2a4d582680f2eafd6fb7fe5b,PennController,13,0,experiment,NULL,Canvas,canvas6,Print,NA,1687287624461,6152ff64699e5c20fe481e6b,6152ff64699e5c20fe481e6b,10,train,critical,A,25,train15.jpg,train35.jpg,low,NULL
1687287689,2a0079aa2a4d582680f2eafd6fb7fe5b,PennController,13,0,experiment,NULL,Video,progression,buffer,0.003488,1687287622310,6152ff64699e5c20fe481e6b,6152ff64699e5c20fe481e6b,10,train,critical,A,25,train15.jpg,train35.jpg,low,NULL
1687287689,2a0079aa2a4d582680f2eafd6fb7fe5b,PennController,13,0,experiment,NULL,Selector,choice,Selection,option1,1687287627027,6152ff64699e5c20fe481e6b,6152ff64699e5c20fe481e6b,10,train,critical,A,25,train15.jpg,train35.jpg,low,option2;option1
1687287689,2a0079aa2a4d582680f2eafd6fb7fe5b,PennController,13,0,experiment,NULL,PennController,12,_Trial_,End,1687287627028,6152ff64699e5c20fe481e6b,6152ff64699e5c20fe481e6b,10,train,critical,A,25,train15.jpg,train35.jpg,low,NULL
1687287689,2a0079aa2a4d582680f2eafd6fb7fe5b,PennController,23,0,experiment,NULL,PennController,22,_Trial_,Start,1687287627030,6152ff64699e5c20fe481e6b,6152ff64699e5c20fe481e6b,20,cat,filler,A,50,cat40.jpg,cat60.jpg,GoalB,NULL
1687287689,2a0079aa2a4d582680f2eafd6fb7fe5b,PennController,23,0,experiment,NULL,PennController,22,_Header_,Start,1687287627030,6152ff64699e5c20fe481e6b,6152ff64699e5c20fe481e6b,20,cat,filler,A,50,cat40.jpg,cat60.jpg,GoalB,NULL
1687287689,2a0079aa2a4d582680f2eafd6fb7fe5b,PennController,23,0,experiment,NULL,PennController,22,_Header_,End,1687287627030,6152ff64699e5c20fe481e6b,6152ff64699e5c20fe481e6b,20,cat,filler,A,50,cat40.jpg,cat60.jpg,GoalB,NULL
1687287689,2a0079aa2a4d582680f2eafd6fb7fe5b,PennController,23,0,experiment,NULL,Canvas,canvas6,Print,NA,1687287633696,6152ff64699e5c20fe481e6b,6152ff64699e5c20fe481e6b,20,cat,filler,A,50,cat40.jpg,cat60.jpg,GoalB,NULL
1687287689,2a0079aa2a4d582680f2eafd6fb7fe5b,PennController,23,0,experiment,NULL,Video,progression,buffer,0.002758,1687287630552,6152ff64699e5c20fe481e6b,6152ff64699e5c20fe481e6b,20,cat,filler,A,50,cat40.jpg,cat60.jpg,GoalB,NULL
1687287689,2a0079aa2a4d582680f2eafd6fb7fe5b,PennController,23,0,experiment,NULL,Selector,choice,Selection,option2,1687287636371,6152ff64699e5c20fe481e6b,6152ff64699e5c20fe481e6b,20,cat,filler,A,50,cat40.jpg,cat60.jpg,GoalB,option2;option1
1687287689,2a0079aa2a4d582680f2eafd6fb7fe5b,PennController,23,0,experiment,NULL,PennController,22,_Trial_,End,1687287636372,6152ff64699e5c20fe481e6b,6152ff64699e5c20fe481e6b,20,cat,filler,A,50,cat40.jpg,cat60.jpg,GoalB,NULL
1687287689,2a0079aa2a4d582680f2eafd6fb7fe5b,PennController,10,0,experiment,NULL,PennController,9,_Trial_,Start,1687287636373,6152ff64699e5c20fe481e6b,6152ff64699e5c20fe481e6b,7,stack,critical,A,25,stack15.jpg,stack35.jpg,low,NULL
1687287689,2a0079aa2a4d582680f2eafd6fb7fe5b,PennController,10,0,experiment,NULL,PennController,9,_Header_,Start,1687287636373,6152ff64699e5c20fe481e6b,6152ff64699e5c20fe481e6b,7,stack,critical,A,25,stack15.jpg,stack35.jpg,low,NULL
1687287689,2a0079aa2a4d582680f2eafd6fb7fe5b,PennController,10,0,experiment,NULL,PennController,9,_Header_,End,1687287636373,6152ff64699e5c20fe481e6b,6152ff64699e5c20fe481e6b,7,stack,critical,A,25,stack15.jpg,stack35.jpg,low,NULL
1687287689,2a0079aa2a4d582680f2eafd6fb7fe5b,PennController,10,0,experiment,NULL,Canvas,canvas6,Print,NA,1687287642029,6152ff64699e5c20fe481e6b,6152ff64699e5c20fe481e6b,7,stack,critical,A,25,stack15.jpg,stack35.jpg,low,NULL
1687287689,2a0079aa2a4d582680f2eafd6fb7fe5b,PennController,10,0,experiment,NULL,Video,progression,buffer,0.004313,1687287639894,6152ff64699e5c20fe481e6b,6152ff64699e5c20fe481e6b,7,stack,critical,A,25,stack15.jpg,stack35.jpg,low,NULL
1687287689,2a0079aa2a4d582680f2eafd6fb7fe5b,PennController,10,0,experiment,NULL,Selector,choice,Selection,option2,1687287645275,6152ff64699e5c20fe481e6b,6152ff64699e5c20fe481e6b,7,stack,critical,A,25,stack15.jpg,stack35.jpg,low,option1;option2
1687287689,2a0079aa2a4d582680f2eafd6fb7fe5b,PennController,10,0,experiment,NULL,PennController,9,_Trial_,End,1687287645277,6152ff64699e5c20fe481e6b,6152ff64699e5c20fe481e6b,7,stack,critical,A,25,stack15.jpg,stack35.jpg,low,NULL
1687287689,2a0079aa2a4d582680f2eafd6fb7fe5b,PennController,17,0,experiment,NULL,PennController,16,_Trial_,Start,1687287645277,6152ff64699e5c20fe481e6b,6152ff64699e5c20fe481e6b,14,cover,critical,A,50,cover42.jpg,cover60.jpg,low,NULL
1687287689,2a0079aa2a4d582680f2eafd6fb7fe5b,PennController,17,0,experiment,NULL,PennController,16,_Header_,Start,1687287645277,6152ff64699e5c20fe481e6b,6152ff64699e5c20fe481e6b,14,cover,critical,A,50,cover42.jpg,cover60.jpg,low,NULL
1687287689,2a0079aa2a4d582680f2eafd6fb7fe5b,PennController,17,0,experiment,NULL,PennController,16,_Header_,End,1687287645277,6152ff64699e5c20fe481e6b,6152ff64699e5c20fe481e6b,14,cover,critical,A,50,cover42.jpg,cover60.jpg,low,NULL
1687287689,2a0079aa2a4d582680f2eafd6fb7fe5b,PennController,17,0,experiment,NULL,Canvas,canvas6,Print,NA,1687287653342,6152ff64699e5c20fe481e6b,6152ff64699e5c20fe481e6b,14,cover,critical,A,50,cover42.jpg,cover60.jpg,low,NULL
1687287689,2a0079aa2a4d582680f2eafd6fb7fe5b,PennController,17,0,experiment,NULL,Video,progression,buffer,0.002167,1687287648795,6152ff64699e5c20fe481e6b,6152ff64699e5c20fe481e6b,14,cover,critical,A,50,cover42.jpg,cover60.jpg,low,NULL
1687287689,2a0079aa2a4d582680f2eafd6fb7fe5b,PennController,17,0,experiment,NULL,Selector,choice,Selection,option2,1687287657426,6152ff64699e5c20fe481e6b,6152ff64699e5c20fe481e6b,14,cover,critical,A,50,cover42.jpg,cover60.jpg,low,option2;option1
1687287689,2a0079aa2a4d582680f2eafd6fb7fe5b,PennController,17,0,experiment,NULL,PennController,16,_Trial_,End,1687287657428,6152ff64699e5c20fe481e6b,6152ff64699e5c20fe481e6b,14,cover,critical,A,50,cover42.jpg,cover60.jpg,low,NULL
1687287689,2a0079aa2a4d582680f2eafd6fb7fe5b,PennController,9,0,experiment,NULL,PennController,8,_Trial_,Start,1687287657429,6152ff64699e5c20fe481e6b,6152ff64699e5c20fe481e6b,6,flower,critical,A,75,flower65.jpg,flower85.jpg,low,NULL
1687287689,2a0079aa2a4d582680f2eafd6fb7fe5b,PennController,9,0,experiment,NULL,PennController,8,_Header_,Start,1687287657429,6152ff64699e5c20fe481e6b,6152ff64699e5c20fe481e6b,6,flower,critical,A,75,flower65.jpg,flower85.jpg,low,NULL
1687287689,2a0079aa2a4d582680f2eafd6fb7fe5b,PennController,9,0,experiment,NULL,PennController,8,_Header_,End,1687287657429,6152ff64699e5c20fe481e6b,6152ff64699e5c20fe481e6b,6,flower,critical,A,75,flower65.jpg,flower85.jpg,low,NULL
1687287689,2a0079aa2a4d582680f2eafd6fb7fe5b,PennController,9,0,experiment,NULL,Canvas,canvas6,Print,NA,1687287665087,6152ff64699e5c20fe481e6b,6152ff64699e5c20fe481e6b,6,flower,critical,A,75,flower65.jpg,flower85.jpg,low,NULL
1687287689,2a0079aa2a4d582680f2eafd6fb7fe5b,PennController,9,0,experiment,NULL,Video,progression,buffer,0.003211,1687287660946,6152ff64699e5c20fe481e6b,6152ff64699e5c20fe481e6b,6,flower,critical,A,75,flower65.jpg,flower85.jpg,low,NULL
1687287689,2a0079aa2a4d582680f2eafd6fb7fe5b,PennController,9,0,experiment,NULL,Selector,choice,Selection,option2,1687287666538,6152ff64699e5c20fe481e6b,6152ff64699e5c20fe481e6b,6,flower,critical,A,75,flower65.jpg,flower85.jpg,low,option2;option1
1687287689,2a0079aa2a4d582680f2eafd6fb7fe5b,PennController,9,0,experiment,NULL,PennController,8,_Trial_,End,1687287666539,6152ff64699e5c20fe481e6b,6152ff64699e5c20fe481e6b,6,flower,critical,A,75,flower65.jpg,flower85.jpg,low,NULL
1687287689,2a0079aa2a4d582680f2eafd6fb7fe5b,PennController,16,0,experiment,NULL,PennController,15,_Trial_,Start,1687287666540,6152ff64699e5c20fe481e6b,6152ff64699e5c20fe481e6b,13,mix,critical,A,25,mix15.jpg,mix35.jpg,low,NULL
1687287689,2a0079aa2a4d582680f2eafd6fb7fe5b,PennController,16,0,experiment,NULL,PennController,15,_Header_,Start,1687287666540,6152ff64699e5c20fe481e6b,6152ff64699e5c20fe481e6b,13,mix,critical,A,25,mix15.jpg,mix35.jpg,low,NULL
1687287689,2a0079aa2a4d582680f2eafd6fb7fe5b,PennController,16,0,experiment,NULL,PennController,15,_Header_,End,1687287666540,6152ff64699e5c20fe481e6b,6152ff64699e5c20fe481e6b,13,mix,critical,A,25,mix15.jpg,mix35.jpg,low,NULL
1687287689,2a0079aa2a4d582680f2eafd6fb7fe5b,PennController,16,0,experiment,NULL,Canvas,canvas6,Print,NA,1687287672214,6152ff64699e5c20fe481e6b,6152ff64699e5c20fe481e6b,13,mix,critical,A,25,mix15.jpg,mix35.jpg,low,NULL
1687287689,2a0079aa2a4d582680f2eafd6fb7fe5b,PennController,16,0,experiment,NULL,Video,progression,buffer,0.003136,1687287670059,6152ff64699e5c20fe481e6b,6152ff64699e5c20fe481e6b,13,mix,critical,A,25,mix15.jpg,mix35.jpg,low,NULL
1687287689,2a0079aa2a4d582680f2eafd6fb7fe5b,PennController,16,0,experiment,NULL,Selector,choice,Selection,option1,1687287673634,6152ff64699e5c20fe481e6b,6152ff64699e5c20fe481e6b,13,mix,critical,A,25,mix15.jpg,mix35.jpg,low,option1;option2
1687287689,2a0079aa2a4d582680f2eafd6fb7fe5b,PennController,16,0,experiment,NULL,PennController,15,_Trial_,End,1687287673636,6152ff64699e5c20fe481e6b,6152ff64699e5c20fe481e6b,13,mix,critical,A,25,mix15.jpg,mix35.jpg,low,NULL
1687287689,2a0079aa2a4d582680f2eafd6fb7fe5b,PennController,24,0,experiment,NULL,PennController,23,_Trial_,Start,1687287673636,6152ff64699e5c20fe481e6b,6152ff64699e5c20fe481e6b,21,visit,filler,A,75,visit65.jpg,visit85.jpg,GoalA,NULL
1687287689,2a0079aa2a4d582680f2eafd6fb7fe5b,PennController,24,0,experiment,NULL,PennController,23,_Header_,Start,1687287673636,6152ff64699e5c20fe481e6b,6152ff64699e5c20fe481e6b,21,visit,filler,A,75,visit65.jpg,visit85.jpg,GoalA,NULL
1687287689,2a0079aa2a4d582680f2eafd6fb7fe5b,PennController,24,0,experiment,NULL,PennController,23,_Header_,End,1687287673636,6152ff64699e5c20fe481e6b,6152ff64699e5c20fe481e6b,21,visit,filler,A,75,visit65.jpg,visit85.jpg,GoalA,NULL
1687287689,2a0079aa2a4d582680f2eafd6fb7fe5b,PennController,24,0,experiment,NULL,Canvas,canvas6,Print,NA,1687287681299,6152ff64699e5c20fe481e6b,6152ff64699e5c20fe481e6b,21,visit,filler,A,75,visit65.jpg,visit85.jpg,GoalA,NULL
1687287689,2a0079aa2a4d582680f2eafd6fb7fe5b,PennController,24,0,experiment,NULL,Video,progression,buffer,0.00323,1687287677155,6152ff64699e5c20fe481e6b,6152ff64699e5c20fe481e6b,21,visit,filler,A,75,visit65.jpg,visit85.jpg,GoalA,NULL
1687287689,2a0079aa2a4d582680f2eafd6fb7fe5b,PennController,24,0,experiment,NULL,Selector,choice,Selection,option2,1687287684962,6152ff64699e5c20fe481e6b,6152ff64699e5c20fe481e6b,21,visit,filler,A,75,visit65.jpg,visit85.jpg,GoalA,option1;option2
1687287689,2a0079aa2a4d582680f2eafd6fb7fe5b,PennController,24,0,experiment,NULL,PennController,23,_Trial_,End,1687287684963,6152ff64699e5c20fe481e6b,6152ff64699e5c20fe481e6b,21,visit,filler,A,75,visit65.jpg,visit85.jpg,GoalA,NULL
