#
# Results on Tuesday June 20 2023 19:21:16 UTC
# USER AGENT: Mozilla/5.0 (Windows NT 10.0; Win64; x64) AppleWebKit/537.36 (KHTML, like Gecko) Chrome/114.0.0.0 Safari/537.36 Edg/114.0.1823.51
# Design number was non-random = 3
#
# Columns below this comment are as follows:
# 1. Results reception time.
# 2. MD5 hash of participant's IP address.
# 3. Controller name.
# 4. Order number of item.
# 5. Inner element number.
# 6. Label.
# 7. Latin Square Group.
# 8. PennElementType.
# 9. PennElementName.
# 10. Parameter.
# 11. Value.
# 12. EventTime.
# 13. PROLIFIC_ID.
# 14. Comments.
1687288876,06fcfe0034345d6ac9d7e401873e1af5,PennController,2,0,consent,NULL,PennController,0,_Trial_,Start,1687287103105,608de2ac094f2c018955a569,NULL
1687288876,06fcfe0034345d6ac9d7e401873e1af5,PennController,2,0,consent,NULL,PennController,0,_Header_,Start,1687287103105,608de2ac094f2c018955a569,NULL
1687288876,06fcfe0034345d6ac9d7e401873e1af5,PennController,2,0,consent,NULL,PennController,0,_Header_,End,1687287103106,608de2ac094f2c018955a569,NULL
1687288876,06fcfe0034345d6ac9d7e401873e1af5,PennController,2,0,consent,NULL,PennController,0,_Trial_,End,1687288610239,608de2ac094f2c018955a569,NULL
# Columns below this comment are as follows:
# 14. ID.
# 15. Comments.
1687288876,06fcfe0034345d6ac9d7e401873e1af5,PennController,3,0,intro,NULL,PennController,1,_Trial_,Start,1687288610244,608de2ac094f2c018955a569,608de2ac094f2c018955a569,NULL
1687288876,06fcfe0034345d6ac9d7e401873e1af5,PennController,3,0,intro,NULL,PennController,1,_Header_,Start,1687288610244,608de2ac094f2c018955a569,608de2ac094f2c018955a569,NULL
1687288876,06fcfe0034345d6ac9d7e401873e1af5,PennController,3,0,intro,NULL,PennController,1,_Header_,End,1687288610245,608de2ac094f2c018955a569,608de2ac094f2c018955a569,NULL
1687288876,06fcfe0034345d6ac9d7e401873e1af5,PennController,3,0,intro,NULL,PennController,1,_Trial_,End,1687288618691,608de2ac094f2c018955a569,608de2ac094f2c018955a569,NULL
# Columns below this comment are as follows:
# 15. item_number.
# 16. item.
# 17. type.
# 18. Group.
# 19. prog.
# 20. prev_image.
# 21. next_image.
# 22. height.
# 23. Comments.
1687288876,06fcfe0034345d6ac9d7e401873e1af5,PennController,17,0,experiment,NULL,PennController,16,_Trial_,Start,1687288618692,608de2ac094f2c018955a569,608de2ac094f2c018955a569,14,cover,critical,D,50,cover42.jpg,cover60.jpg,high,NULL
1687288876,06fcfe0034345d6ac9d7e401873e1af5,PennController,17,0,experiment,NULL,PennController,16,_Header_,Start,1687288618693,608de2ac094f2c018955a569,608de2ac094f2c018955a569,14,cover,critical,D,50,cover42.jpg,cover60.jpg,high,NULL
1687288876,06fcfe0034345d6ac9d7e401873e1af5,PennController,17,0,experiment,NULL,PennController,16,_Header_,End,1687288618693,608de2ac094f2c018955a569,608de2ac094f2c018955a569,14,cover,critical,D,50,cover42.jpg,cover60.jpg,high,NULL
1687288876,06fcfe0034345d6ac9d7e401873e1af5,PennController,17,0,experiment,NULL,Canvas,canvas6,Print,NA,1687288626812,608de2ac094f2c018955a569,608de2ac094f2c018955a569,14,cover,critical,D,50,cover42.jpg,cover60.jpg,high,NULL
1687288876,06fcfe0034345d6ac9d7e401873e1af5,PennController,17,0,experiment,NULL,Video,progression,buffer,0.006353,1687288622255,608de2ac094f2c018955a569,608de2ac094f2c018955a569,14,cover,critical,D,50,cover42.jpg,cover60.jpg,high,NULL
1687288876,06fcfe0034345d6ac9d7e401873e1af5,PennController,17,0,experiment,NULL,Selector,choice,Selection,option1,1687288631841,608de2ac094f2c018955a569,608de2ac094f2c018955a569,14,cover,critical,D,50,cover42.jpg,cover60.jpg,high,option1;option2
1687288876,06fcfe0034345d6ac9d7e401873e1af5,PennController,17,0,experiment,NULL,PennController,16,_Trial_,End,1687288631845,608de2ac094f2c018955a569,608de2ac094f2c018955a569,14,cover,critical,D,50,cover42.jpg,cover60.jpg,high,NULL
1687288876,06fcfe0034345d6ac9d7e401873e1af5,PennController,6,0,experiment,NULL,PennController,5,_Trial_,Start,1687288631848,608de2ac094f2c018955a569,608de2ac094f2c018955a569,3,clean,critical,D,75,clean65.jpg,clean85.jpg,high,NULL
1687288876,06fcfe0034345d6ac9d7e401873e1af5,PennController,6,0,experiment,NULL,PennController,5,_Header_,Start,1687288631848,608de2ac094f2c018955a569,608de2ac094f2c018955a569,3,clean,critical,D,75,clean65.jpg,clean85.jpg,high,NULL
1687288876,06fcfe0034345d6ac9d7e401873e1af5,PennController,6,0,experiment,NULL,PennController,5,_Header_,End,1687288631848,608de2ac094f2c018955a569,608de2ac094f2c018955a569,3,clean,critical,D,75,clean65.jpg,clean85.jpg,high,NULL
1687288876,06fcfe0034345d6ac9d7e401873e1af5,PennController,6,0,experiment,NULL,Canvas,canvas6,Print,NA,1687288639563,608de2ac094f2c018955a569,608de2ac094f2c018955a569,3,clean,critical,D,75,clean65.jpg,clean85.jpg,high,NULL
1687288876,06fcfe0034345d6ac9d7e401873e1af5,PennController,6,0,experiment,NULL,Video,progression,buffer,0.009141,1687288635391,608de2ac094f2c018955a569,608de2ac094f2c018955a569,3,clean,critical,D,75,clean65.jpg,clean85.jpg,high,NULL
1687288876,06fcfe0034345d6ac9d7e401873e1af5,PennController,6,0,experiment,NULL,Selector,choice,Selection,option2,1687288641438,608de2ac094f2c018955a569,608de2ac094f2c018955a569,3,clean,critical,D,75,clean65.jpg,clean85.jpg,high,option1;option2
1687288876,06fcfe0034345d6ac9d7e401873e1af5,PennController,6,0,experiment,NULL,PennController,5,_Trial_,End,1687288641440,608de2ac094f2c018955a569,608de2ac094f2c018955a569,3,clean,critical,D,75,clean65.jpg,clean85.jpg,high,NULL
1687288876,06fcfe0034345d6ac9d7e401873e1af5,PennController,8,0,experiment,NULL,PennController,7,_Trial_,Start,1687288641442,608de2ac094f2c018955a569,608de2ac094f2c018955a569,5,book,critical,D,50,book40.jpg,book60.jpg,high,NULL
1687288876,06fcfe0034345d6ac9d7e401873e1af5,PennController,8,0,experiment,NULL,PennController,7,_Header_,Start,1687288641442,608de2ac094f2c018955a569,608de2ac094f2c018955a569,5,book,critical,D,50,book40.jpg,book60.jpg,high,NULL
1687288876,06fcfe0034345d6ac9d7e401873e1af5,PennController,8,0,experiment,NULL,PennController,7,_Header_,End,1687288641442,608de2ac094f2c018955a569,608de2ac094f2c018955a569,5,book,critical,D,50,book40.jpg,book60.jpg,high,NULL
1687288876,06fcfe0034345d6ac9d7e401873e1af5,PennController,8,0,experiment,NULL,Canvas,canvas6,Print,NA,1687288648156,608de2ac094f2c018955a569,608de2ac094f2c018955a569,5,book,critical,D,50,book40.jpg,book60.jpg,high,NULL
1687288876,06fcfe0034345d6ac9d7e401873e1af5,PennController,8,0,experiment,NULL,Video,progression,buffer,0.006032,1687288644982,608de2ac094f2c018955a569,608de2ac094f2c018955a569,5,book,critical,D,50,book40.jpg,book60.jpg,high,NULL
1687288876,06fcfe0034345d6ac9d7e401873e1af5,PennController,8,0,experiment,NULL,Selector,choice,Selection,option2,1687288649590,608de2ac094f2c018955a569,608de2ac094f2c018955a569,5,book,critical,D,50,book40.jpg,book60.jpg,high,option1;option2
1687288876,06fcfe0034345d6ac9d7e401873e1af5,PennController,8,0,experiment,NULL,PennController,7,_Trial_,End,1687288649593,608de2ac094f2c018955a569,608de2ac094f2c018955a569,5,book,critical,D,50,book40.jpg,book60.jpg,high,NULL
1687288876,06fcfe0034345d6ac9d7e401873e1af5,PennController,20,0,experiment,NULL,PennController,19,_Trial_,Start,1687288649595,608de2ac094f2c018955a569,608de2ac094f2c018955a569,17,roll,critical,D,50,roll40.jpg,roll60.jpg,high,NULL
1687288876,06fcfe0034345d6ac9d7e401873e1af5,PennController,20,0,experiment,NULL,PennController,19,_Header_,Start,1687288649595,608de2ac094f2c018955a569,608de2ac094f2c018955a569,17,roll,critical,D,50,roll40.jpg,roll60.jpg,high,NULL
1687288876,06fcfe0034345d6ac9d7e401873e1af5,PennController,20,0,experiment,NULL,PennController,19,_Header_,End,1687288649595,608de2ac094f2c018955a569,608de2ac094f2c018955a569,17,roll,critical,D,50,roll40.jpg,roll60.jpg,high,NULL
1687288876,06fcfe0034345d6ac9d7e401873e1af5,PennController,20,0,experiment,NULL,Canvas,canvas6,Print,NA,1687288656298,608de2ac094f2c018955a569,608de2ac094f2c018955a569,17,roll,critical,D,50,roll40.jpg,roll60.jpg,high,NULL
1687288876,06fcfe0034345d6ac9d7e401873e1af5,PennController,20,0,experiment,NULL,Video,progression,buffer,0.004815,1687288653138,608de2ac094f2c018955a569,608de2ac094f2c018955a569,17,roll,critical,D,50,roll40.jpg,roll60.jpg,high,NULL
1687288876,06fcfe0034345d6ac9d7e401873e1af5,PennController,20,0,experiment,NULL,Selector,choice,Selection,option2,1687288659742,608de2ac094f2c018955a569,608de2ac094f2c018955a569,17,roll,critical,D,50,roll40.jpg,roll60.jpg,high,option1;option2
1687288876,06fcfe0034345d6ac9d7e401873e1af5,PennController,20,0,experiment,NULL,PennController,19,_Trial_,End,1687288659745,608de2ac094f2c018955a569,608de2ac094f2c018955a569,17,roll,critical,D,50,roll40.jpg,roll60.jpg,high,NULL
1687288876,06fcfe0034345d6ac9d7e401873e1af5,PennController,15,0,experiment,NULL,PennController,14,_Trial_,Start,1687288659747,608de2ac094f2c018955a569,608de2ac094f2c018955a569,12,erase,critical,D,75,erase66.jpg,erase84.jpg,high,NULL
1687288876,06fcfe0034345d6ac9d7e401873e1af5,PennController,15,0,experiment,NULL,PennController,14,_Header_,Start,1687288659747,608de2ac094f2c018955a569,608de2ac094f2c018955a569,12,erase,critical,D,75,erase66.jpg,erase84.jpg,high,NULL
1687288876,06fcfe0034345d6ac9d7e401873e1af5,PennController,15,0,experiment,NULL,PennController,14,_Header_,End,1687288659747,608de2ac094f2c018955a569,608de2ac094f2c018955a569,12,erase,critical,D,75,erase66.jpg,erase84.jpg,high,NULL
1687288876,06fcfe0034345d6ac9d7e401873e1af5,PennController,15,0,experiment,NULL,Canvas,canvas6,Print,NA,1687288669457,608de2ac094f2c018955a569,608de2ac094f2c018955a569,12,erase,critical,D,75,erase66.jpg,erase84.jpg,high,NULL
1687288876,06fcfe0034345d6ac9d7e401873e1af5,PennController,15,0,experiment,NULL,Video,progression,buffer,0.003791,1687288663287,608de2ac094f2c018955a569,608de2ac094f2c018955a569,12,erase,critical,D,75,erase66.jpg,erase84.jpg,high,NULL
1687288876,06fcfe0034345d6ac9d7e401873e1af5,PennController,15,0,experiment,NULL,Selector,choice,Selection,option2,1687288671750,608de2ac094f2c018955a569,608de2ac094f2c018955a569,12,erase,critical,D,75,erase66.jpg,erase84.jpg,high,option2;option1
1687288876,06fcfe0034345d6ac9d7e401873e1af5,PennController,15,0,experiment,NULL,PennController,14,_Trial_,End,1687288671752,608de2ac094f2c018955a569,608de2ac094f2c018955a569,12,erase,critical,D,75,erase66.jpg,erase84.jpg,high,NULL
1687288876,06fcfe0034345d6ac9d7e401873e1af5,PennController,28,0,experiment,NULL,PennController,27,_Trial_,Start,1687288671754,608de2ac094f2c018955a569,608de2ac094f2c018955a569,25,house,filler,D,25,house15.jpg,house35.jpg,GoalB,NULL
1687288876,06fcfe0034345d6ac9d7e401873e1af5,PennController,28,0,experiment,NULL,PennController,27,_Header_,Start,1687288671754,608de2ac094f2c018955a569,608de2ac094f2c018955a569,25,house,filler,D,25,house15.jpg,house35.jpg,GoalB,NULL
1687288876,06fcfe0034345d6ac9d7e401873e1af5,PennController,28,0,experiment,NULL,PennController,27,_Header_,End,1687288671754,608de2ac094f2c018955a569,608de2ac094f2c018955a569,25,house,filler,D,25,house15.jpg,house35.jpg,GoalB,NULL
1687288876,06fcfe0034345d6ac9d7e401873e1af5,PennController,28,0,experiment,NULL,Canvas,canvas6,Print,NA,1687288677465,608de2ac094f2c018955a569,608de2ac094f2c018955a569,25,house,filler,D,25,house15.jpg,house35.jpg,GoalB,NULL
1687288876,06fcfe0034345d6ac9d7e401873e1af5,PennController,28,0,experiment,NULL,Video,progression,buffer,0.006277,1687288675290,608de2ac094f2c018955a569,608de2ac094f2c018955a569,25,house,filler,D,25,house15.jpg,house35.jpg,GoalB,NULL
1687288876,06fcfe0034345d6ac9d7e401873e1af5,PennController,28,0,experiment,NULL,Selector,choice,Selection,option2,1687288678602,608de2ac094f2c018955a569,608de2ac094f2c018955a569,25,house,filler,D,25,house15.jpg,house35.jpg,GoalB,option1;option2
1687288876,06fcfe0034345d6ac9d7e401873e1af5,PennController,28,0,experiment,NULL,PennController,27,_Trial_,End,1687288678604,608de2ac094f2c018955a569,608de2ac094f2c018955a569,25,house,filler,D,25,house15.jpg,house35.jpg,GoalB,NULL
1687288876,06fcfe0034345d6ac9d7e401873e1af5,PennController,23,0,experiment,NULL,PennController,22,_Trial_,Start,1687288678606,608de2ac094f2c018955a569,608de2ac094f2c018955a569,20,cat,filler,D,50,cat40.jpg,cat60.jpg,GoalA,NULL
1687288876,06fcfe0034345d6ac9d7e401873e1af5,PennController,23,0,experiment,NULL,PennController,22,_Header_,Start,1687288678606,608de2ac094f2c018955a569,608de2ac094f2c018955a569,20,cat,filler,D,50,cat40.jpg,cat60.jpg,GoalA,NULL
1687288876,06fcfe0034345d6ac9d7e401873e1af5,PennController,23,0,experiment,NULL,PennController,22,_Header_,End,1687288678607,608de2ac094f2c018955a569,608de2ac094f2c018955a569,20,cat,filler,D,50,cat40.jpg,cat60.jpg,GoalA,NULL
1687288876,06fcfe0034345d6ac9d7e401873e1af5,PennController,23,0,experiment,NULL,Canvas,canvas6,Print,NA,1687288685321,608de2ac094f2c018955a569,608de2ac094f2c018955a569,20,cat,filler,D,50,cat40.jpg,cat60.jpg,GoalA,NULL
1687288876,06fcfe0034345d6ac9d7e401873e1af5,PennController,23,0,experiment,NULL,Video,progression,buffer,0.006876,1687288682147,608de2ac094f2c018955a569,608de2ac094f2c018955a569,20,cat,filler,D,50,cat40.jpg,cat60.jpg,GoalA,NULL
1687288876,06fcfe0034345d6ac9d7e401873e1af5,PennController,23,0,experiment,NULL,Selector,choice,Selection,option2,1687288686667,608de2ac094f2c018955a569,608de2ac094f2c018955a569,20,cat,filler,D,50,cat40.jpg,cat60.jpg,GoalA,option2;option1
1687288876,06fcfe0034345d6ac9d7e401873e1af5,PennController,23,0,experiment,NULL,PennController,22,_Trial_,End,1687288686669,608de2ac094f2c018955a569,608de2ac094f2c018955a569,20,cat,filler,D,50,cat40.jpg,cat60.jpg,GoalA,NULL
1687288876,06fcfe0034345d6ac9d7e401873e1af5,PennController,18,0,experiment,NULL,PennController,17,_Trial_,Start,1687288686671,608de2ac094f2c018955a569,608de2ac094f2c018955a569,15,zip,critical,D,75,zip65.jpg,zip85.jpg,high,NULL
1687288876,06fcfe0034345d6ac9d7e401873e1af5,PennController,18,0,experiment,NULL,PennController,17,_Header_,Start,1687288686671,608de2ac094f2c018955a569,608de2ac094f2c018955a569,15,zip,critical,D,75,zip65.jpg,zip85.jpg,high,NULL
1687288876,06fcfe0034345d6ac9d7e401873e1af5,PennController,18,0,experiment,NULL,PennController,17,_Header_,End,1687288686671,608de2ac094f2c018955a569,608de2ac094f2c018955a569,15,zip,critical,D,75,zip65.jpg,zip85.jpg,high,NULL
1687288876,06fcfe0034345d6ac9d7e401873e1af5,PennController,18,0,experiment,NULL,Canvas,canvas6,Print,NA,1687288693579,608de2ac094f2c018955a569,608de2ac094f2c018955a569,15,zip,critical,D,75,zip65.jpg,zip85.jpg,high,NULL
1687288876,06fcfe0034345d6ac9d7e401873e1af5,PennController,18,0,experiment,NULL,Video,progression,buffer,0.008625,1687288690217,608de2ac094f2c018955a569,608de2ac094f2c018955a569,15,zip,critical,D,75,zip65.jpg,zip85.jpg,high,NULL
1687288876,06fcfe0034345d6ac9d7e401873e1af5,PennController,18,0,experiment,NULL,Selector,choice,Selection,option2,1687288695619,608de2ac094f2c018955a569,608de2ac094f2c018955a569,15,zip,critical,D,75,zip65.jpg,zip85.jpg,high,option2;option1
1687288876,06fcfe0034345d6ac9d7e401873e1af5,PennController,18,0,experiment,NULL,PennController,17,_Trial_,End,1687288695622,608de2ac094f2c018955a569,608de2ac094f2c018955a569,15,zip,critical,D,75,zip65.jpg,zip85.jpg,high,NULL
1687288876,06fcfe0034345d6ac9d7e401873e1af5,PennController,13,0,experiment,NULL,PennController,12,_Trial_,Start,1687288695625,608de2ac094f2c018955a569,608de2ac094f2c018955a569,10,train,critical,D,25,train15.jpg,train35.jpg,high,NULL
1687288876,06fcfe0034345d6ac9d7e401873e1af5,PennController,13,0,experiment,NULL,PennController,12,_Header_,Start,1687288695625,608de2ac094f2c018955a569,608de2ac094f2c018955a569,10,train,critical,D,25,train15.jpg,train35.jpg,high,NULL
1687288876,06fcfe0034345d6ac9d7e401873e1af5,PennController,13,0,experiment,NULL,PennController,12,_Header_,End,1687288695625,608de2ac094f2c018955a569,608de2ac094f2c018955a569,10,train,critical,D,25,train15.jpg,train35.jpg,high,NULL
1687288876,06fcfe0034345d6ac9d7e401873e1af5,PennController,13,0,experiment,NULL,Canvas,canvas6,Print,NA,1687288701331,608de2ac094f2c018955a569,608de2ac094f2c018955a569,10,train,critical,D,25,train15.jpg,train35.jpg,high,NULL
1687288876,06fcfe0034345d6ac9d7e401873e1af5,PennController,13,0,experiment,NULL,Video,progression,buffer,0.00484,1687288699156,608de2ac094f2c018955a569,608de2ac094f2c018955a569,10,train,critical,D,25,train15.jpg,train35.jpg,high,NULL
1687288876,06fcfe0034345d6ac9d7e401873e1af5,PennController,13,0,experiment,NULL,Selector,choice,Selection,option1,1687288702658,608de2ac094f2c018955a569,608de2ac094f2c018955a569,10,train,critical,D,25,train15.jpg,train35.jpg,high,option1;option2
1687288876,06fcfe0034345d6ac9d7e401873e1af5,PennController,13,0,experiment,NULL,PennController,12,_Trial_,End,1687288702660,608de2ac094f2c018955a569,608de2ac094f2c018955a569,10,train,critical,D,25,train15.jpg,train35.jpg,high,NULL
1687288876,06fcfe0034345d6ac9d7e401873e1af5,PennController,4,0,experiment,NULL,PennController,3,_Trial_,Start,1687288702662,608de2ac094f2c018955a569,608de2ac094f2c018955a569,1,vase,critical,D,25,vase15.jpg,vase35.jpg,high,NULL
1687288876,06fcfe0034345d6ac9d7e401873e1af5,PennController,4,0,experiment,NULL,PennController,3,_Header_,Start,1687288702662,608de2ac094f2c018955a569,608de2ac094f2c018955a569,1,vase,critical,D,25,vase15.jpg,vase35.jpg,high,NULL
1687288876,06fcfe0034345d6ac9d7e401873e1af5,PennController,4,0,experiment,NULL,PennController,3,_Header_,End,1687288702662,608de2ac094f2c018955a569,608de2ac094f2c018955a569,1,vase,critical,D,25,vase15.jpg,vase35.jpg,high,NULL
1687288876,06fcfe0034345d6ac9d7e401873e1af5,PennController,4,0,experiment,NULL,Canvas,canvas6,Print,NA,1687288708370,608de2ac094f2c018955a569,608de2ac094f2c018955a569,1,vase,critical,D,25,vase15.jpg,vase35.jpg,high,NULL
1687288876,06fcfe0034345d6ac9d7e401873e1af5,PennController,4,0,experiment,NULL,Video,progression,buffer,0.009195,1687288706205,608de2ac094f2c018955a569,608de2ac094f2c018955a569,1,vase,critical,D,25,vase15.jpg,vase35.jpg,high,NULL
1687288876,06fcfe0034345d6ac9d7e401873e1af5,PennController,4,0,experiment,NULL,Selector,choice,Selection,option1,1687288709706,608de2ac094f2c018955a569,608de2ac094f2c018955a569,1,vase,critical,D,25,vase15.jpg,vase35.jpg,high,option2;option1
1687288876,06fcfe0034345d6ac9d7e401873e1af5,PennController,4,0,experiment,NULL,PennController,3,_Trial_,End,1687288709708,608de2ac094f2c018955a569,608de2ac094f2c018955a569,1,vase,critical,D,25,vase15.jpg,vase35.jpg,high,NULL
1687288876,06fcfe0034345d6ac9d7e401873e1af5,PennController,7,0,experiment,NULL,PennController,6,_Trial_,Start,1687288709710,608de2ac094f2c018955a569,608de2ac094f2c018955a569,4,candy,critical,D,25,candy15.jpg,candy35.jpg,high,NULL
1687288876,06fcfe0034345d6ac9d7e401873e1af5,PennController,7,0,experiment,NULL,PennController,6,_Header_,Start,1687288709710,608de2ac094f2c018955a569,608de2ac094f2c018955a569,4,candy,critical,D,25,candy15.jpg,candy35.jpg,high,NULL
1687288876,06fcfe0034345d6ac9d7e401873e1af5,PennController,7,0,experiment,NULL,PennController,6,_Header_,End,1687288709711,608de2ac094f2c018955a569,608de2ac094f2c018955a569,4,candy,critical,D,25,candy15.jpg,candy35.jpg,high,NULL
1687288876,06fcfe0034345d6ac9d7e401873e1af5,PennController,7,0,experiment,NULL,Canvas,canvas6,Print,NA,1687288715424,608de2ac094f2c018955a569,608de2ac094f2c018955a569,4,candy,critical,D,25,candy15.jpg,candy35.jpg,high,NULL
1687288876,06fcfe0034345d6ac9d7e401873e1af5,PennController,7,0,experiment,NULL,Video,progression,buffer,0.003049,1687288713251,608de2ac094f2c018955a569,608de2ac094f2c018955a569,4,candy,critical,D,25,candy15.jpg,candy35.jpg,high,NULL
1687288876,06fcfe0034345d6ac9d7e401873e1af5,PennController,7,0,experiment,NULL,Selector,choice,Selection,option1,1687288717570,608de2ac094f2c018955a569,608de2ac094f2c018955a569,4,candy,critical,D,25,candy15.jpg,candy35.jpg,high,option2;option1
1687288876,06fcfe0034345d6ac9d7e401873e1af5,PennController,7,0,experiment,NULL,PennController,6,_Trial_,End,1687288717572,608de2ac094f2c018955a569,608de2ac094f2c018955a569,4,candy,critical,D,25,candy15.jpg,candy35.jpg,high,NULL
1687288876,06fcfe0034345d6ac9d7e401873e1af5,PennController,10,0,experiment,NULL,PennController,9,_Trial_,Start,1687288717574,608de2ac094f2c018955a569,608de2ac094f2c018955a569,7,stack,critical,D,25,stack15.jpg,stack35.jpg,high,NULL
1687288876,06fcfe0034345d6ac9d7e401873e1af5,PennController,10,0,experiment,NULL,PennController,9,_Header_,Start,1687288717574,608de2ac094f2c018955a569,608de2ac094f2c018955a569,7,stack,critical,D,25,stack15.jpg,stack35.jpg,high,NULL
1687288876,06fcfe0034345d6ac9d7e401873e1af5,PennController,10,0,experiment,NULL,PennController,9,_Header_,End,1687288717574,608de2ac094f2c018955a569,608de2ac094f2c018955a569,7,stack,critical,D,25,stack15.jpg,stack35.jpg,high,NULL
1687288876,06fcfe0034345d6ac9d7e401873e1af5,PennController,10,0,experiment,NULL,Canvas,canvas6,Print,NA,1687288723286,608de2ac094f2c018955a569,608de2ac094f2c018955a569,7,stack,critical,D,25,stack15.jpg,stack35.jpg,high,NULL
1687288876,06fcfe0034345d6ac9d7e401873e1af5,PennController,10,0,experiment,NULL,Video,progression,buffer,0.009908,1687288721120,608de2ac094f2c018955a569,608de2ac094f2c018955a569,7,stack,critical,D,25,stack15.jpg,stack35.jpg,high,NULL
1687288876,06fcfe0034345d6ac9d7e401873e1af5,PennController,10,0,experiment,NULL,Selector,choice,Selection,option2,1687288726730,608de2ac094f2c018955a569,608de2ac094f2c018955a569,7,stack,critical,D,25,stack15.jpg,stack35.jpg,high,option2;option1
1687288876,06fcfe0034345d6ac9d7e401873e1af5,PennController,10,0,experiment,NULL,PennController,9,_Trial_,End,1687288726731,608de2ac094f2c018955a569,608de2ac094f2c018955a569,7,stack,critical,D,25,stack15.jpg,stack35.jpg,high,NULL
1687288876,06fcfe0034345d6ac9d7e401873e1af5,PennController,30,0,experiment,NULL,PennController,29,_Trial_,Start,1687288726732,608de2ac094f2c018955a569,608de2ac094f2c018955a569,27,square,filler,D,75,square65.jpg,square85.jpg,GoalB,NULL
1687288876,06fcfe0034345d6ac9d7e401873e1af5,PennController,30,0,experiment,NULL,PennController,29,_Header_,Start,1687288726732,608de2ac094f2c018955a569,608de2ac094f2c018955a569,27,square,filler,D,75,square65.jpg,square85.jpg,GoalB,NULL
1687288876,06fcfe0034345d6ac9d7e401873e1af5,PennController,30,0,experiment,NULL,PennController,29,_Header_,End,1687288726732,608de2ac094f2c018955a569,608de2ac094f2c018955a569,27,square,filler,D,75,square65.jpg,square85.jpg,GoalB,NULL
1687288876,06fcfe0034345d6ac9d7e401873e1af5,PennController,30,0,experiment,NULL,Canvas,canvas6,Print,NA,1687288734455,608de2ac094f2c018955a569,608de2ac094f2c018955a569,27,square,filler,D,75,square65.jpg,square85.jpg,GoalB,NULL
1687288876,06fcfe0034345d6ac9d7e401873e1af5,PennController,30,0,experiment,NULL,Video,progression,buffer,0.007844,1687288730276,608de2ac094f2c018955a569,608de2ac094f2c018955a569,27,square,filler,D,75,square65.jpg,square85.jpg,GoalB,NULL
1687288876,06fcfe0034345d6ac9d7e401873e1af5,PennController,30,0,experiment,NULL,Selector,choice,Selection,option2,1687288736179,608de2ac094f2c018955a569,608de2ac094f2c018955a569,27,square,filler,D,75,square65.jpg,square85.jpg,GoalB,option2;option1
1687288876,06fcfe0034345d6ac9d7e401873e1af5,PennController,30,0,experiment,NULL,PennController,29,_Trial_,End,1687288736181,608de2ac094f2c018955a569,608de2ac094f2c018955a569,27,square,filler,D,75,square65.jpg,square85.jpg,GoalB,NULL
1687288876,06fcfe0034345d6ac9d7e401873e1af5,PennController,11,0,experiment,NULL,PennController,10,_Trial_,Start,1687288736182,608de2ac094f2c018955a569,608de2ac094f2c018955a569,8,cucumber,critical,D,50,cucumber42.jpg,cucumber60.jpg,high,NULL
1687288876,06fcfe0034345d6ac9d7e401873e1af5,PennController,11,0,experiment,NULL,PennController,10,_Header_,Start,1687288736182,608de2ac094f2c018955a569,608de2ac094f2c018955a569,8,cucumber,critical,D,50,cucumber42.jpg,cucumber60.jpg,high,NULL
1687288876,06fcfe0034345d6ac9d7e401873e1af5,PennController,11,0,experiment,NULL,PennController,10,_Header_,End,1687288736182,608de2ac094f2c018955a569,608de2ac094f2c018955a569,8,cucumber,critical,D,50,cucumber42.jpg,cucumber60.jpg,high,NULL
1687288876,06fcfe0034345d6ac9d7e401873e1af5,PennController,11,0,experiment,NULL,Canvas,canvas6,Print,NA,1687288744296,608de2ac094f2c018955a569,608de2ac094f2c018955a569,8,cucumber,critical,D,50,cucumber42.jpg,cucumber60.jpg,high,NULL
1687288876,06fcfe0034345d6ac9d7e401873e1af5,PennController,11,0,experiment,NULL,Video,progression,buffer,0.006655,1687288739718,608de2ac094f2c018955a569,608de2ac094f2c018955a569,8,cucumber,critical,D,50,cucumber42.jpg,cucumber60.jpg,high,NULL
1687288876,06fcfe0034345d6ac9d7e401873e1af5,PennController,11,0,experiment,NULL,Selector,choice,Selection,option2,1687288745794,608de2ac094f2c018955a569,608de2ac094f2c018955a569,8,cucumber,critical,D,50,cucumber42.jpg,cucumber60.jpg,high,option1;option2
1687288876,06fcfe0034345d6ac9d7e401873e1af5,PennController,11,0,experiment,NULL,PennController,10,_Trial_,End,1687288745796,608de2ac094f2c018955a569,608de2ac094f2c018955a569,8,cucumber,critical,D,50,cucumber42.jpg,cucumber60.jpg,high,NULL
1687288876,06fcfe0034345d6ac9d7e401873e1af5,PennController,31,0,experiment,NULL,PennController,30,_Trial_,Start,1687288745798,608de2ac094f2c018955a569,608de2ac094f2c018955a569,28,sort,filler,D,25,sort15.jpg,sort35.jpg,GoalA,NULL
1687288876,06fcfe0034345d6ac9d7e401873e1af5,PennController,31,0,experiment,NULL,PennController,30,_Header_,Start,1687288745798,608de2ac094f2c018955a569,608de2ac094f2c018955a569,28,sort,filler,D,25,sort15.jpg,sort35.jpg,GoalA,NULL
1687288876,06fcfe0034345d6ac9d7e401873e1af5,PennController,31,0,experiment,NULL,PennController,30,_Header_,End,1687288745798,608de2ac094f2c018955a569,608de2ac094f2c018955a569,28,sort,filler,D,25,sort15.jpg,sort35.jpg,GoalA,NULL
1687288876,06fcfe0034345d6ac9d7e401873e1af5,PennController,31,0,experiment,NULL,Canvas,canvas6,Print,NA,1687288751504,608de2ac094f2c018955a569,608de2ac094f2c018955a569,28,sort,filler,D,25,sort15.jpg,sort35.jpg,GoalA,NULL
1687288876,06fcfe0034345d6ac9d7e401873e1af5,PennController,31,0,experiment,NULL,Video,progression,buffer,0.007306,1687288749342,608de2ac094f2c018955a569,608de2ac094f2c018955a569,28,sort,filler,D,25,sort15.jpg,sort35.jpg,GoalA,NULL
1687288876,06fcfe0034345d6ac9d7e401873e1af5,PennController,31,0,experiment,NULL,Selector,choice,Selection,option1,1687288752586,608de2ac094f2c018955a569,608de2ac094f2c018955a569,28,sort,filler,D,25,sort15.jpg,sort35.jpg,GoalA,option2;option1
1687288876,06fcfe0034345d6ac9d7e401873e1af5,PennController,31,0,experiment,NULL,PennController,30,_Trial_,End,1687288752589,608de2ac094f2c018955a569,608de2ac094f2c018955a569,28,sort,filler,D,25,sort15.jpg,sort35.jpg,GoalA,NULL
1687288876,06fcfe0034345d6ac9d7e401873e1af5,PennController,22,0,experiment,NULL,PennController,21,_Trial_,Start,1687288752590,608de2ac094f2c018955a569,608de2ac094f2c018955a569,19,cup,filler,D,25,cup15.jpg,cup35.jpg,GoalB,NULL
1687288876,06fcfe0034345d6ac9d7e401873e1af5,PennController,22,0,experiment,NULL,PennController,21,_Header_,Start,1687288752590,608de2ac094f2c018955a569,608de2ac094f2c018955a569,19,cup,filler,D,25,cup15.jpg,cup35.jpg,GoalB,NULL
1687288876,06fcfe0034345d6ac9d7e401873e1af5,PennController,22,0,experiment,NULL,PennController,21,_Header_,End,1687288752590,608de2ac094f2c018955a569,608de2ac094f2c018955a569,19,cup,filler,D,25,cup15.jpg,cup35.jpg,GoalB,NULL
1687288876,06fcfe0034345d6ac9d7e401873e1af5,PennController,22,0,experiment,NULL,Canvas,canvas6,Print,NA,1687288758305,608de2ac094f2c018955a569,608de2ac094f2c018955a569,19,cup,filler,D,25,cup15.jpg,cup35.jpg,GoalB,NULL
1687288876,06fcfe0034345d6ac9d7e401873e1af5,PennController,22,0,experiment,NULL,Video,progression,buffer,0.003064,1687288756125,608de2ac094f2c018955a569,608de2ac094f2c018955a569,19,cup,filler,D,25,cup15.jpg,cup35.jpg,GoalB,NULL
1687288876,06fcfe0034345d6ac9d7e401873e1af5,PennController,22,0,experiment,NULL,Selector,choice,Selection,option2,1687288760266,608de2ac094f2c018955a569,608de2ac094f2c018955a569,19,cup,filler,D,25,cup15.jpg,cup35.jpg,GoalB,option1;option2
1687288876,06fcfe0034345d6ac9d7e401873e1af5,PennController,22,0,experiment,NULL,PennController,21,_Trial_,End,1687288760268,608de2ac094f2c018955a569,608de2ac094f2c018955a569,19,cup,filler,D,25,cup15.jpg,cup35.jpg,GoalB,NULL
1687288876,06fcfe0034345d6ac9d7e401873e1af5,PennController,21,0,experiment,NULL,PennController,20,_Trial_,Start,1687288760270,608de2ac094f2c018955a569,608de2ac094f2c018955a569,18,ball,critical,D,75,ball65.jpg,ball85.jpg,high,NULL
1687288876,06fcfe0034345d6ac9d7e401873e1af5,PennController,21,0,experiment,NULL,PennController,20,_Header_,Start,1687288760270,608de2ac094f2c018955a569,608de2ac094f2c018955a569,18,ball,critical,D,75,ball65.jpg,ball85.jpg,high,NULL
1687288876,06fcfe0034345d6ac9d7e401873e1af5,PennController,21,0,experiment,NULL,PennController,20,_Header_,End,1687288760270,608de2ac094f2c018955a569,608de2ac094f2c018955a569,18,ball,critical,D,75,ball65.jpg,ball85.jpg,high,NULL
1687288876,06fcfe0034345d6ac9d7e401873e1af5,PennController,21,0,experiment,NULL,Canvas,canvas6,Print,NA,1687288767988,608de2ac094f2c018955a569,608de2ac094f2c018955a569,18,ball,critical,D,75,ball65.jpg,ball85.jpg,high,NULL
1687288876,06fcfe0034345d6ac9d7e401873e1af5,PennController,21,0,experiment,NULL,Video,progression,buffer,0.006706,1687288763805,608de2ac094f2c018955a569,608de2ac094f2c018955a569,18,ball,critical,D,75,ball65.jpg,ball85.jpg,high,NULL
1687288876,06fcfe0034345d6ac9d7e401873e1af5,PennController,21,0,experiment,NULL,Selector,choice,Selection,option1,1687288769098,608de2ac094f2c018955a569,608de2ac094f2c018955a569,18,ball,critical,D,75,ball65.jpg,ball85.jpg,high,option1;option2
1687288876,06fcfe0034345d6ac9d7e401873e1af5,PennController,21,0,experiment,NULL,PennController,20,_Trial_,End,1687288769100,608de2ac094f2c018955a569,608de2ac094f2c018955a569,18,ball,critical,D,75,ball65.jpg,ball85.jpg,high,NULL
1687288876,06fcfe0034345d6ac9d7e401873e1af5,PennController,5,0,experiment,NULL,PennController,4,_Trial_,Start,1687288769101,608de2ac094f2c018955a569,608de2ac094f2c018955a569,2,door,critical,D,50,door40.jpg,door60.jpg,high,NULL
1687288876,06fcfe0034345d6ac9d7e401873e1af5,PennController,5,0,experiment,NULL,PennController,4,_Header_,Start,1687288769101,608de2ac094f2c018955a569,608de2ac094f2c018955a569,2,door,critical,D,50,door40.jpg,door60.jpg,high,NULL
1687288876,06fcfe0034345d6ac9d7e401873e1af5,PennController,5,0,experiment,NULL,PennController,4,_Header_,End,1687288769101,608de2ac094f2c018955a569,608de2ac094f2c018955a569,2,door,critical,D,50,door40.jpg,door60.jpg,high,NULL
1687288876,06fcfe0034345d6ac9d7e401873e1af5,PennController,5,0,experiment,NULL,Canvas,canvas6,Print,NA,1687288775878,608de2ac094f2c018955a569,608de2ac094f2c018955a569,2,door,critical,D,50,door40.jpg,door60.jpg,high,NULL
1687288876,06fcfe0034345d6ac9d7e401873e1af5,PennController,5,0,experiment,NULL,Video,progression,buffer,0,1687288772637,608de2ac094f2c018955a569,608de2ac094f2c018955a569,2,door,critical,D,50,door40.jpg,door60.jpg,high,NULL
1687288876,06fcfe0034345d6ac9d7e401873e1af5,PennController,5,0,experiment,NULL,Selector,choice,Selection,option2,1687288777634,608de2ac094f2c018955a569,608de2ac094f2c018955a569,2,door,critical,D,50,door40.jpg,door60.jpg,high,option2;option1
1687288876,06fcfe0034345d6ac9d7e401873e1af5,PennController,5,0,experiment,NULL,PennController,4,_Trial_,End,1687288777636,608de2ac094f2c018955a569,608de2ac094f2c018955a569,2,door,critical,D,50,door40.jpg,door60.jpg,high,NULL
1687288876,06fcfe0034345d6ac9d7e401873e1af5,PennController,12,0,experiment,NULL,PennController,11,_Trial_,Start,1687288777638,608de2ac094f2c018955a569,608de2ac094f2c018955a569,9,cake,critical,D,75,cake66.jpg,cake84.jpg,high,NULL
1687288876,06fcfe0034345d6ac9d7e401873e1af5,PennController,12,0,experiment,NULL,PennController,11,_Header_,Start,1687288777638,608de2ac094f2c018955a569,608de2ac094f2c018955a569,9,cake,critical,D,75,cake66.jpg,cake84.jpg,high,NULL
1687288876,06fcfe0034345d6ac9d7e401873e1af5,PennController,12,0,experiment,NULL,PennController,11,_Header_,End,1687288777638,608de2ac094f2c018955a569,608de2ac094f2c018955a569,9,cake,critical,D,75,cake66.jpg,cake84.jpg,high,NULL
1687288876,06fcfe0034345d6ac9d7e401873e1af5,PennController,12,0,experiment,NULL,Canvas,canvas6,Print,NA,1687288787333,608de2ac094f2c018955a569,608de2ac094f2c018955a569,9,cake,critical,D,75,cake66.jpg,cake84.jpg,high,NULL
1687288876,06fcfe0034345d6ac9d7e401873e1af5,PennController,12,0,experiment,NULL,Video,progression,buffer,0.008063,1687288781176,608de2ac094f2c018955a569,608de2ac094f2c018955a569,9,cake,critical,D,75,cake66.jpg,cake84.jpg,high,NULL
1687288876,06fcfe0034345d6ac9d7e401873e1af5,PennController,12,0,experiment,NULL,Selector,choice,Selection,option2,1687288788526,608de2ac094f2c018955a569,608de2ac094f2c018955a569,9,cake,critical,D,75,cake66.jpg,cake84.jpg,high,option2;option1
1687288876,06fcfe0034345d6ac9d7e401873e1af5,PennController,12,0,experiment,NULL,PennController,11,_Trial_,End,1687288788528,608de2ac094f2c018955a569,608de2ac094f2c018955a569,9,cake,critical,D,75,cake66.jpg,cake84.jpg,high,NULL
1687288876,06fcfe0034345d6ac9d7e401873e1af5,PennController,9,0,experiment,NULL,PennController,8,_Trial_,Start,1687288788529,608de2ac094f2c018955a569,608de2ac094f2c018955a569,6,flower,critical,D,75,flower65.jpg,flower85.jpg,high,NULL
1687288876,06fcfe0034345d6ac9d7e401873e1af5,PennController,9,0,experiment,NULL,PennController,8,_Header_,Start,1687288788529,608de2ac094f2c018955a569,608de2ac094f2c018955a569,6,flower,critical,D,75,flower65.jpg,flower85.jpg,high,NULL
1687288876,06fcfe0034345d6ac9d7e401873e1af5,PennController,9,0,experiment,NULL,PennController,8,_Header_,End,1687288788529,608de2ac094f2c018955a569,608de2ac094f2c018955a569,6,flower,critical,D,75,flower65.jpg,flower85.jpg,high,NULL
1687288876,06fcfe0034345d6ac9d7e401873e1af5,PennController,9,0,experiment,NULL,Canvas,canvas6,Print,NA,1687288796230,608de2ac094f2c018955a569,608de2ac094f2c018955a569,6,flower,critical,D,75,flower65.jpg,flower85.jpg,high,NULL
1687288876,06fcfe0034345d6ac9d7e401873e1af5,PennController,9,0,experiment,NULL,Video,progression,buffer,0.00287,1687288792067,608de2ac094f2c018955a569,608de2ac094f2c018955a569,6,flower,critical,D,75,flower65.jpg,flower85.jpg,high,NULL
1687288876,06fcfe0034345d6ac9d7e401873e1af5,PennController,9,0,experiment,NULL,Selector,choice,Selection,option2,1687288797799,608de2ac094f2c018955a569,608de2ac094f2c018955a569,6,flower,critical,D,75,flower65.jpg,flower85.jpg,high,option2;option1
1687288876,06fcfe0034345d6ac9d7e401873e1af5,PennController,9,0,experiment,NULL,PennController,8,_Trial_,End,1687288797801,608de2ac094f2c018955a569,608de2ac094f2c018955a569,6,flower,critical,D,75,flower65.jpg,flower85.jpg,high,NULL
1687288876,06fcfe0034345d6ac9d7e401873e1af5,PennController,16,0,experiment,NULL,PennController,15,_Trial_,Start,1687288797803,608de2ac094f2c018955a569,608de2ac094f2c018955a569,13,mix,critical,D,25,mix15.jpg,mix35.jpg,high,NULL
1687288876,06fcfe0034345d6ac9d7e401873e1af5,PennController,16,0,experiment,NULL,PennController,15,_Header_,Start,1687288797803,608de2ac094f2c018955a569,608de2ac094f2c018955a569,13,mix,critical,D,25,mix15.jpg,mix35.jpg,high,NULL
1687288876,06fcfe0034345d6ac9d7e401873e1af5,PennController,16,0,experiment,NULL,PennController,15,_Header_,End,1687288797803,608de2ac094f2c018955a569,608de2ac094f2c018955a569,13,mix,critical,D,25,mix15.jpg,mix35.jpg,high,NULL
1687288876,06fcfe0034345d6ac9d7e401873e1af5,PennController,16,0,experiment,NULL,Canvas,canvas6,Print,NA,1687288803519,608de2ac094f2c018955a569,608de2ac094f2c018955a569,13,mix,critical,D,25,mix15.jpg,mix35.jpg,high,NULL
1687288876,06fcfe0034345d6ac9d7e401873e1af5,PennController,16,0,experiment,NULL,Video,progression,buffer,0.005187,1687288801349,608de2ac094f2c018955a569,608de2ac094f2c018955a569,13,mix,critical,D,25,mix15.jpg,mix35.jpg,high,NULL
1687288876,06fcfe0034345d6ac9d7e401873e1af5,PennController,16,0,experiment,NULL,Selector,choice,Selection,option1,1687288804781,608de2ac094f2c018955a569,608de2ac094f2c018955a569,13,mix,critical,D,25,mix15.jpg,mix35.jpg,high,option2;option1
1687288876,06fcfe0034345d6ac9d7e401873e1af5,PennController,16,0,experiment,NULL,PennController,15,_Trial_,End,1687288804782,608de2ac094f2c018955a569,608de2ac094f2c018955a569,13,mix,critical,D,25,mix15.jpg,mix35.jpg,high,NULL
1687288876,06fcfe0034345d6ac9d7e401873e1af5,PennController,27,0,experiment,NULL,PennController,26,_Trial_,Start,1687288804783,608de2ac094f2c018955a569,608de2ac094f2c018955a569,24,match,filler,D,75,match65.jpg,match85.jpg,GoalA,NULL
1687288876,06fcfe0034345d6ac9d7e401873e1af5,PennController,27,0,experiment,NULL,PennController,26,_Header_,Start,1687288804783,608de2ac094f2c018955a569,608de2ac094f2c018955a569,24,match,filler,D,75,match65.jpg,match85.jpg,GoalA,NULL
1687288876,06fcfe0034345d6ac9d7e401873e1af5,PennController,27,0,experiment,NULL,PennController,26,_Header_,End,1687288804783,608de2ac094f2c018955a569,608de2ac094f2c018955a569,24,match,filler,D,75,match65.jpg,match85.jpg,GoalA,NULL
1687288876,06fcfe0034345d6ac9d7e401873e1af5,PennController,27,0,experiment,NULL,Canvas,canvas6,Print,NA,1687288812493,608de2ac094f2c018955a569,608de2ac094f2c018955a569,24,match,filler,D,75,match65.jpg,match85.jpg,GoalA,NULL
1687288876,06fcfe0034345d6ac9d7e401873e1af5,PennController,27,0,experiment,NULL,Video,progression,buffer,0.006809,1687288808331,608de2ac094f2c018955a569,608de2ac094f2c018955a569,24,match,filler,D,75,match65.jpg,match85.jpg,GoalA,NULL
1687288876,06fcfe0034345d6ac9d7e401873e1af5,PennController,27,0,experiment,NULL,Selector,choice,Selection,option1,1687288814198,608de2ac094f2c018955a569,608de2ac094f2c018955a569,24,match,filler,D,75,match65.jpg,match85.jpg,GoalA,option2;option1
1687288876,06fcfe0034345d6ac9d7e401873e1af5,PennController,27,0,experiment,NULL,PennController,26,_Trial_,End,1687288814200,608de2ac094f2c018955a569,608de2ac094f2c018955a569,24,match,filler,D,75,match65.jpg,match85.jpg,GoalA,NULL
1687288876,06fcfe0034345d6ac9d7e401873e1af5,PennController,19,0,experiment,NULL,PennController,18,_Trial_,Start,1687288814202,608de2ac094f2c018955a569,608de2ac094f2c018955a569,16,blinds,critical,D,25,blinds15.jpg,blinds33.jpg,high,NULL
1687288876,06fcfe0034345d6ac9d7e401873e1af5,PennController,19,0,experiment,NULL,PennController,18,_Header_,Start,1687288814202,608de2ac094f2c018955a569,608de2ac094f2c018955a569,16,blinds,critical,D,25,blinds15.jpg,blinds33.jpg,high,NULL
1687288876,06fcfe0034345d6ac9d7e401873e1af5,PennController,19,0,experiment,NULL,PennController,18,_Header_,End,1687288814202,608de2ac094f2c018955a569,608de2ac094f2c018955a569,16,blinds,critical,D,25,blinds15.jpg,blinds33.jpg,high,NULL
1687288876,06fcfe0034345d6ac9d7e401873e1af5,PennController,19,0,experiment,NULL,Canvas,canvas6,Print,NA,1687288820518,608de2ac094f2c018955a569,608de2ac094f2c018955a569,16,blinds,critical,D,25,blinds15.jpg,blinds33.jpg,high,NULL
1687288876,06fcfe0034345d6ac9d7e401873e1af5,PennController,19,0,experiment,NULL,Video,progression,buffer,0.010483,1687288817751,608de2ac094f2c018955a569,608de2ac094f2c018955a569,16,blinds,critical,D,25,blinds15.jpg,blinds33.jpg,high,NULL
1687288876,06fcfe0034345d6ac9d7e401873e1af5,PennController,19,0,experiment,NULL,Selector,choice,Selection,option2,1687288822678,608de2ac094f2c018955a569,608de2ac094f2c018955a569,16,blinds,critical,D,25,blinds15.jpg,blinds33.jpg,high,option2;option1
1687288876,06fcfe0034345d6ac9d7e401873e1af5,PennController,19,0,experiment,NULL,PennController,18,_Trial_,End,1687288822680,608de2ac094f2c018955a569,608de2ac094f2c018955a569,16,blinds,critical,D,25,blinds15.jpg,blinds33.jpg,high,NULL
1687288876,06fcfe0034345d6ac9d7e401873e1af5,PennController,14,0,experiment,NULL,PennController,13,_Trial_,Start,1687288822681,608de2ac094f2c018955a569,608de2ac094f2c018955a569,11,beads,critical,D,50,beads40.jpg,beads60.jpg,high,NULL
1687288876,06fcfe0034345d6ac9d7e401873e1af5,PennController,14,0,experiment,NULL,PennController,13,_Header_,Start,1687288822681,608de2ac094f2c018955a569,608de2ac094f2c018955a569,11,beads,critical,D,50,beads40.jpg,beads60.jpg,high,NULL
1687288876,06fcfe0034345d6ac9d7e401873e1af5,PennController,14,0,experiment,NULL,PennController,13,_Header_,End,1687288822681,608de2ac094f2c018955a569,608de2ac094f2c018955a569,11,beads,critical,D,50,beads40.jpg,beads60.jpg,high,NULL
1687288876,06fcfe0034345d6ac9d7e401873e1af5,PennController,14,0,experiment,NULL,Canvas,canvas6,Print,NA,1687288829388,608de2ac094f2c018955a569,608de2ac094f2c018955a569,11,beads,critical,D,50,beads40.jpg,beads60.jpg,high,NULL
1687288876,06fcfe0034345d6ac9d7e401873e1af5,PennController,14,0,experiment,NULL,Video,progression,buffer,0.002413,1687288826214,608de2ac094f2c018955a569,608de2ac094f2c018955a569,11,beads,critical,D,50,beads40.jpg,beads60.jpg,high,NULL
1687288876,06fcfe0034345d6ac9d7e401873e1af5,PennController,14,0,experiment,NULL,Selector,choice,Selection,option2,1687288830806,608de2ac094f2c018955a569,608de2ac094f2c018955a569,11,beads,critical,D,50,beads40.jpg,beads60.jpg,high,option1;option2
1687288876,06fcfe0034345d6ac9d7e401873e1af5,PennController,14,0,experiment,NULL,PennController,13,_Trial_,End,1687288830808,608de2ac094f2c018955a569,608de2ac094f2c018955a569,11,beads,critical,D,50,beads40.jpg,beads60.jpg,high,NULL
1687288876,06fcfe0034345d6ac9d7e401873e1af5,PennController,25,0,experiment,NULL,PennController,24,_Trial_,Start,1687288830810,608de2ac094f2c018955a569,608de2ac094f2c018955a569,22,wall,filler,D,25,wall15.jpg,wall35.jpg,GoalA,NULL
1687288876,06fcfe0034345d6ac9d7e401873e1af5,PennController,25,0,experiment,NULL,PennController,24,_Header_,Start,1687288830810,608de2ac094f2c018955a569,608de2ac094f2c018955a569,22,wall,filler,D,25,wall15.jpg,wall35.jpg,GoalA,NULL
1687288876,06fcfe0034345d6ac9d7e401873e1af5,PennController,25,0,experiment,NULL,PennController,24,_Header_,End,1687288830810,608de2ac094f2c018955a569,608de2ac094f2c018955a569,22,wall,filler,D,25,wall15.jpg,wall35.jpg,GoalA,NULL
1687288876,06fcfe0034345d6ac9d7e401873e1af5,PennController,25,0,experiment,NULL,Canvas,canvas6,Print,NA,1687288836513,608de2ac094f2c018955a569,608de2ac094f2c018955a569,22,wall,filler,D,25,wall15.jpg,wall35.jpg,GoalA,NULL
1687288876,06fcfe0034345d6ac9d7e401873e1af5,PennController,25,0,experiment,NULL,Video,progression,buffer,0.006719,1687288834341,608de2ac094f2c018955a569,608de2ac094f2c018955a569,22,wall,filler,D,25,wall15.jpg,wall35.jpg,GoalA,NULL
1687288876,06fcfe0034345d6ac9d7e401873e1af5,PennController,25,0,experiment,NULL,Selector,choice,Selection,option1,1687288838119,608de2ac094f2c018955a569,608de2ac094f2c018955a569,22,wall,filler,D,25,wall15.jpg,wall35.jpg,GoalA,option1;option2
1687288876,06fcfe0034345d6ac9d7e401873e1af5,PennController,25,0,experiment,NULL,PennController,24,_Trial_,End,1687288838120,608de2ac094f2c018955a569,608de2ac094f2c018955a569,22,wall,filler,D,25,wall15.jpg,wall35.jpg,GoalA,NULL
1687288876,06fcfe0034345d6ac9d7e401873e1af5,PennController,26,0,experiment,NULL,PennController,25,_Trial_,Start,1687288838122,608de2ac094f2c018955a569,608de2ac094f2c018955a569,23,color,filler,D,50,color40.jpg,color60.jpg,GoalB,NULL
1687288876,06fcfe0034345d6ac9d7e401873e1af5,PennController,26,0,experiment,NULL,PennController,25,_Header_,Start,1687288838122,608de2ac094f2c018955a569,608de2ac094f2c018955a569,23,color,filler,D,50,color40.jpg,color60.jpg,GoalB,NULL
1687288876,06fcfe0034345d6ac9d7e401873e1af5,PennController,26,0,experiment,NULL,PennController,25,_Header_,End,1687288838122,608de2ac094f2c018955a569,608de2ac094f2c018955a569,23,color,filler,D,50,color40.jpg,color60.jpg,GoalB,NULL
1687288876,06fcfe0034345d6ac9d7e401873e1af5,PennController,26,0,experiment,NULL,Canvas,canvas6,Print,NA,1687288844823,608de2ac094f2c018955a569,608de2ac094f2c018955a569,23,color,filler,D,50,color40.jpg,color60.jpg,GoalB,NULL
1687288876,06fcfe0034345d6ac9d7e401873e1af5,PennController,26,0,experiment,NULL,Video,progression,buffer,0.00793,1687288841663,608de2ac094f2c018955a569,608de2ac094f2c018955a569,23,color,filler,D,50,color40.jpg,color60.jpg,GoalB,NULL
1687288876,06fcfe0034345d6ac9d7e401873e1af5,PennController,26,0,experiment,NULL,Selector,choice,Selection,option2,1687288846591,608de2ac094f2c018955a569,608de2ac094f2c018955a569,23,color,filler,D,50,color40.jpg,color60.jpg,GoalB,option1;option2
1687288876,06fcfe0034345d6ac9d7e401873e1af5,PennController,26,0,experiment,NULL,PennController,25,_Trial_,End,1687288846593,608de2ac094f2c018955a569,608de2ac094f2c018955a569,23,color,filler,D,50,color40.jpg,color60.jpg,GoalB,NULL
1687288876,06fcfe0034345d6ac9d7e401873e1af5,PennController,29,0,experiment,NULL,PennController,28,_Trial_,Start,1687288846595,608de2ac094f2c018955a569,608de2ac094f2c018955a569,26,sandwich,filler,D,50,sandwich40.jpg,sandwich60.jpg,GoalA,NULL
1687288876,06fcfe0034345d6ac9d7e401873e1af5,PennController,29,0,experiment,NULL,PennController,28,_Header_,Start,1687288846595,608de2ac094f2c018955a569,608de2ac094f2c018955a569,26,sandwich,filler,D,50,sandwich40.jpg,sandwich60.jpg,GoalA,NULL
1687288876,06fcfe0034345d6ac9d7e401873e1af5,PennController,29,0,experiment,NULL,PennController,28,_Header_,End,1687288846595,608de2ac094f2c018955a569,608de2ac094f2c018955a569,26,sandwich,filler,D,50,sandwich40.jpg,sandwich60.jpg,GoalA,NULL
1687288876,06fcfe0034345d6ac9d7e401873e1af5,PennController,29,0,experiment,NULL,Canvas,canvas6,Print,NA,1687288853301,608de2ac094f2c018955a569,608de2ac094f2c018955a569,26,sandwich,filler,D,50,sandwich40.jpg,sandwich60.jpg,GoalA,NULL
1687288876,06fcfe0034345d6ac9d7e401873e1af5,PennController,29,0,experiment,NULL,Video,progression,buffer,0.002888,1687288850124,608de2ac094f2c018955a569,608de2ac094f2c018955a569,26,sandwich,filler,D,50,sandwich40.jpg,sandwich60.jpg,GoalA,NULL
1687288876,06fcfe0034345d6ac9d7e401873e1af5,PennController,29,0,experiment,NULL,Selector,choice,Selection,option1,1687288855654,608de2ac094f2c018955a569,608de2ac094f2c018955a569,26,sandwich,filler,D,50,sandwich40.jpg,sandwich60.jpg,GoalA,option2;option1
1687288876,06fcfe0034345d6ac9d7e401873e1af5,PennController,29,0,experiment,NULL,PennController,28,_Trial_,End,1687288855656,608de2ac094f2c018955a569,608de2ac094f2c018955a569,26,sandwich,filler,D,50,sandwich40.jpg,sandwich60.jpg,GoalA,NULL
1687288876,06fcfe0034345d6ac9d7e401873e1af5,PennController,32,0,experiment,NULL,PennController,31,_Trial_,Start,1687288855657,608de2ac094f2c018955a569,608de2ac094f2c018955a569,29,frog,filler,D,50,frog40.jpg,frog60.jpg,GoalB,NULL
1687288876,06fcfe0034345d6ac9d7e401873e1af5,PennController,32,0,experiment,NULL,PennController,31,_Header_,Start,1687288855657,608de2ac094f2c018955a569,608de2ac094f2c018955a569,29,frog,filler,D,50,frog40.jpg,frog60.jpg,GoalB,NULL
1687288876,06fcfe0034345d6ac9d7e401873e1af5,PennController,32,0,experiment,NULL,PennController,31,_Header_,End,1687288855657,608de2ac094f2c018955a569,608de2ac094f2c018955a569,29,frog,filler,D,50,frog40.jpg,frog60.jpg,GoalB,NULL
1687288876,06fcfe0034345d6ac9d7e401873e1af5,PennController,32,0,experiment,NULL,Canvas,canvas6,Print,NA,1687288862370,608de2ac094f2c018955a569,608de2ac094f2c018955a569,29,frog,filler,D,50,frog40.jpg,frog60.jpg,GoalB,NULL
1687288876,06fcfe0034345d6ac9d7e401873e1af5,PennController,32,0,experiment,NULL,Video,progression,buffer,0.008516,1687288859200,608de2ac094f2c018955a569,608de2ac094f2c018955a569,29,frog,filler,D,50,frog40.jpg,frog60.jpg,GoalB,NULL
1687288876,06fcfe0034345d6ac9d7e401873e1af5,PennController,32,0,experiment,NULL,Selector,choice,Selection,option2,1687288864286,608de2ac094f2c018955a569,608de2ac094f2c018955a569,29,frog,filler,D,50,frog40.jpg,frog60.jpg,GoalB,option2;option1
1687288876,06fcfe0034345d6ac9d7e401873e1af5,PennController,32,0,experiment,NULL,PennController,31,_Trial_,End,1687288864288,608de2ac094f2c018955a569,608de2ac094f2c018955a569,29,frog,filler,D,50,frog40.jpg,frog60.jpg,GoalB,NULL
1687288876,06fcfe0034345d6ac9d7e401873e1af5,PennController,24,0,experiment,NULL,PennController,23,_Trial_,Start,1687288864290,608de2ac094f2c018955a569,608de2ac094f2c018955a569,21,visit,filler,D,75,visit65.jpg,visit85.jpg,GoalB,NULL
1687288876,06fcfe0034345d6ac9d7e401873e1af5,PennController,24,0,experiment,NULL,PennController,23,_Header_,Start,1687288864290,608de2ac094f2c018955a569,608de2ac094f2c018955a569,21,visit,filler,D,75,visit65.jpg,visit85.jpg,GoalB,NULL
1687288876,06fcfe0034345d6ac9d7e401873e1af5,PennController,24,0,experiment,NULL,PennController,23,_Header_,End,1687288864290,608de2ac094f2c018955a569,608de2ac094f2c018955a569,21,visit,filler,D,75,visit65.jpg,visit85.jpg,GoalB,NULL
1687288876,06fcfe0034345d6ac9d7e401873e1af5,PennController,24,0,experiment,NULL,Canvas,canvas6,Print,NA,1687288872007,608de2ac094f2c018955a569,608de2ac094f2c018955a569,21,visit,filler,D,75,visit65.jpg,visit85.jpg,GoalB,NULL
1687288876,06fcfe0034345d6ac9d7e401873e1af5,PennController,24,0,experiment,NULL,Video,progression,buffer,0.005869,1687288867837,608de2ac094f2c018955a569,608de2ac094f2c018955a569,21,visit,filler,D,75,visit65.jpg,visit85.jpg,GoalB,NULL
1687288876,06fcfe0034345d6ac9d7e401873e1af5,PennController,24,0,experiment,NULL,Selector,choice,Selection,option2,1687288873582,608de2ac094f2c018955a569,608de2ac094f2c018955a569,21,visit,filler,D,75,visit65.jpg,visit85.jpg,GoalB,option1;option2
1687288876,06fcfe0034345d6ac9d7e401873e1af5,PennController,24,0,experiment,NULL,PennController,23,_Trial_,End,1687288873584,608de2ac094f2c018955a569,608de2ac094f2c018955a569,21,visit,filler,D,75,visit65.jpg,visit85.jpg,GoalB,NULL
