#
# Results on Thursday June 22 2023 05:35:15 UTC
# USER AGENT: Mozilla/5.0 (Windows NT 10.0; Win64; x64) AppleWebKit/537.36 (KHTML, like Gecko) Chrome/114.0.0.0 Safari/537.36
# Design number was non-random = 83
#
# Columns below this comment are as follows:
# 1. Results reception time.
# 2. MD5 hash of participant's IP address.
# 3. Controller name.
# 4. Order number of item.
# 5. Inner element number.
# 6. Label.
# 7. Latin Square Group.
# 8. PennElementType.
# 9. PennElementName.
# 10. Parameter.
# 11. Value.
# 12. EventTime.
# 13. PROLIFIC_ID.
# 14. Comments.
1687412115,ea718067054797df029df95f422e0522,PennController,3,0,consent,NULL,PennController,0,_Trial_,Start,1687411814843,5ffd3f5a81fc4f21eaa9ba9f,NULL
1687412115,ea718067054797df029df95f422e0522,PennController,3,0,consent,NULL,PennController,0,_Header_,Start,1687411814843,5ffd3f5a81fc4f21eaa9ba9f,NULL
1687412115,ea718067054797df029df95f422e0522,PennController,3,0,consent,NULL,PennController,0,_Header_,End,1687411814843,5ffd3f5a81fc4f21eaa9ba9f,NULL
1687412115,ea718067054797df029df95f422e0522,PennController,3,0,consent,NULL,PennController,0,_Trial_,End,1687411831345,5ffd3f5a81fc4f21eaa9ba9f,NULL
# Columns below this comment are as follows:
# 14. ID.
# 15. Comments.
1687412115,ea718067054797df029df95f422e0522,PennController,4,0,intro,NULL,PennController,1,_Trial_,Start,1687411831346,5ffd3f5a81fc4f21eaa9ba9f,5ffd3f5a81fc4f21eaa9ba9f,NULL
1687412115,ea718067054797df029df95f422e0522,PennController,4,0,intro,NULL,PennController,1,_Header_,Start,1687411831346,5ffd3f5a81fc4f21eaa9ba9f,5ffd3f5a81fc4f21eaa9ba9f,NULL
1687412115,ea718067054797df029df95f422e0522,PennController,4,0,intro,NULL,PennController,1,_Header_,End,1687411831346,5ffd3f5a81fc4f21eaa9ba9f,5ffd3f5a81fc4f21eaa9ba9f,NULL
1687412115,ea718067054797df029df95f422e0522,PennController,4,0,intro,NULL,PennController,1,_Trial_,End,1687411846192,5ffd3f5a81fc4f21eaa9ba9f,5ffd3f5a81fc4f21eaa9ba9f,NULL
# Columns below this comment are as follows:
# 15. item_number.
# 16. item.
# 17. type.
# 18. Group.
# 19. prog.
# 20. prev_image.
# 21. next_image.
# 22. height.
# 23. Comments.
1687412115,ea718067054797df029df95f422e0522,PennController,13,0,experiment,NULL,PennController,11,_Trial_,Start,1687411846193,5ffd3f5a81fc4f21eaa9ba9f,5ffd3f5a81fc4f21eaa9ba9f,9,cake,critical,A,75,cake66.jpg,cake84.jpg,low,NULL
1687412115,ea718067054797df029df95f422e0522,PennController,13,0,experiment,NULL,PennController,11,_Header_,Start,1687411846193,5ffd3f5a81fc4f21eaa9ba9f,5ffd3f5a81fc4f21eaa9ba9f,9,cake,critical,A,75,cake66.jpg,cake84.jpg,low,NULL
1687412115,ea718067054797df029df95f422e0522,PennController,13,0,experiment,NULL,PennController,11,_Header_,End,1687411846193,5ffd3f5a81fc4f21eaa9ba9f,5ffd3f5a81fc4f21eaa9ba9f,9,cake,critical,A,75,cake66.jpg,cake84.jpg,low,NULL
1687412115,ea718067054797df029df95f422e0522,PennController,13,0,experiment,NULL,Canvas,canvas6,Print,NA,1687411855911,5ffd3f5a81fc4f21eaa9ba9f,5ffd3f5a81fc4f21eaa9ba9f,9,cake,critical,A,75,cake66.jpg,cake84.jpg,low,NULL
1687412115,ea718067054797df029df95f422e0522,PennController,13,0,experiment,NULL,Video,progression,buffer,0.002154,1687411849714,5ffd3f5a81fc4f21eaa9ba9f,5ffd3f5a81fc4f21eaa9ba9f,9,cake,critical,A,75,cake66.jpg,cake84.jpg,low,NULL
1687412115,ea718067054797df029df95f422e0522,PennController,13,0,experiment,NULL,Selector,choice,Selection,option1,1687411859628,5ffd3f5a81fc4f21eaa9ba9f,5ffd3f5a81fc4f21eaa9ba9f,9,cake,critical,A,75,cake66.jpg,cake84.jpg,low,option1;option2
1687412115,ea718067054797df029df95f422e0522,PennController,13,0,experiment,NULL,PennController,11,_Trial_,End,1687411859629,5ffd3f5a81fc4f21eaa9ba9f,5ffd3f5a81fc4f21eaa9ba9f,9,cake,critical,A,75,cake66.jpg,cake84.jpg,low,NULL
1687412115,ea718067054797df029df95f422e0522,PennController,9,0,experiment,NULL,PennController,7,_Trial_,Start,1687411859630,5ffd3f5a81fc4f21eaa9ba9f,5ffd3f5a81fc4f21eaa9ba9f,5,book,critical,A,50,book40.jpg,book60.jpg,low,NULL
1687412115,ea718067054797df029df95f422e0522,PennController,9,0,experiment,NULL,PennController,7,_Header_,Start,1687411859630,5ffd3f5a81fc4f21eaa9ba9f,5ffd3f5a81fc4f21eaa9ba9f,5,book,critical,A,50,book40.jpg,book60.jpg,low,NULL
1687412115,ea718067054797df029df95f422e0522,PennController,9,0,experiment,NULL,PennController,7,_Header_,End,1687411859630,5ffd3f5a81fc4f21eaa9ba9f,5ffd3f5a81fc4f21eaa9ba9f,5,book,critical,A,50,book40.jpg,book60.jpg,low,NULL
1687412115,ea718067054797df029df95f422e0522,PennController,9,0,experiment,NULL,Canvas,canvas6,Print,NA,1687411866335,5ffd3f5a81fc4f21eaa9ba9f,5ffd3f5a81fc4f21eaa9ba9f,5,book,critical,A,50,book40.jpg,book60.jpg,low,NULL
1687412115,ea718067054797df029df95f422e0522,PennController,9,0,experiment,NULL,Video,progression,buffer,0.001938,1687411863145,5ffd3f5a81fc4f21eaa9ba9f,5ffd3f5a81fc4f21eaa9ba9f,5,book,critical,A,50,book40.jpg,book60.jpg,low,NULL
1687412115,ea718067054797df029df95f422e0522,PennController,9,0,experiment,NULL,Selector,choice,Selection,option1,1687411868933,5ffd3f5a81fc4f21eaa9ba9f,5ffd3f5a81fc4f21eaa9ba9f,5,book,critical,A,50,book40.jpg,book60.jpg,low,option2;option1
1687412115,ea718067054797df029df95f422e0522,PennController,9,0,experiment,NULL,PennController,7,_Trial_,End,1687411868934,5ffd3f5a81fc4f21eaa9ba9f,5ffd3f5a81fc4f21eaa9ba9f,5,book,critical,A,50,book40.jpg,book60.jpg,low,NULL
1687412115,ea718067054797df029df95f422e0522,PennController,6,0,experiment,NULL,PennController,4,_Trial_,Start,1687411868935,5ffd3f5a81fc4f21eaa9ba9f,5ffd3f5a81fc4f21eaa9ba9f,2,door,critical,A,50,door40.jpg,door60.jpg,low,NULL
1687412115,ea718067054797df029df95f422e0522,PennController,6,0,experiment,NULL,PennController,4,_Header_,Start,1687411868935,5ffd3f5a81fc4f21eaa9ba9f,5ffd3f5a81fc4f21eaa9ba9f,2,door,critical,A,50,door40.jpg,door60.jpg,low,NULL
1687412115,ea718067054797df029df95f422e0522,PennController,6,0,experiment,NULL,PennController,4,_Header_,End,1687411868935,5ffd3f5a81fc4f21eaa9ba9f,5ffd3f5a81fc4f21eaa9ba9f,2,door,critical,A,50,door40.jpg,door60.jpg,low,NULL
1687412115,ea718067054797df029df95f422e0522,PennController,6,0,experiment,NULL,Canvas,canvas6,Print,NA,1687411875640,5ffd3f5a81fc4f21eaa9ba9f,5ffd3f5a81fc4f21eaa9ba9f,2,door,critical,A,50,door40.jpg,door60.jpg,low,NULL
1687412115,ea718067054797df029df95f422e0522,PennController,6,0,experiment,NULL,Video,progression,buffer,0.001152,1687411872447,5ffd3f5a81fc4f21eaa9ba9f,5ffd3f5a81fc4f21eaa9ba9f,2,door,critical,A,50,door40.jpg,door60.jpg,low,NULL
1687412115,ea718067054797df029df95f422e0522,PennController,6,0,experiment,NULL,Selector,choice,Selection,option1,1687411882461,5ffd3f5a81fc4f21eaa9ba9f,5ffd3f5a81fc4f21eaa9ba9f,2,door,critical,A,50,door40.jpg,door60.jpg,low,option1;option2
1687412115,ea718067054797df029df95f422e0522,PennController,6,0,experiment,NULL,PennController,4,_Trial_,End,1687411882462,5ffd3f5a81fc4f21eaa9ba9f,5ffd3f5a81fc4f21eaa9ba9f,2,door,critical,A,50,door40.jpg,door60.jpg,low,NULL
1687412115,ea718067054797df029df95f422e0522,PennController,16,0,experiment,NULL,PennController,14,_Trial_,Start,1687411882463,5ffd3f5a81fc4f21eaa9ba9f,5ffd3f5a81fc4f21eaa9ba9f,12,erase,critical,A,75,erase66.jpg,erase84.jpg,low,NULL
1687412115,ea718067054797df029df95f422e0522,PennController,16,0,experiment,NULL,PennController,14,_Header_,Start,1687411882463,5ffd3f5a81fc4f21eaa9ba9f,5ffd3f5a81fc4f21eaa9ba9f,12,erase,critical,A,75,erase66.jpg,erase84.jpg,low,NULL
1687412115,ea718067054797df029df95f422e0522,PennController,16,0,experiment,NULL,PennController,14,_Header_,End,1687411882463,5ffd3f5a81fc4f21eaa9ba9f,5ffd3f5a81fc4f21eaa9ba9f,12,erase,critical,A,75,erase66.jpg,erase84.jpg,low,NULL
1687412115,ea718067054797df029df95f422e0522,PennController,16,0,experiment,NULL,Canvas,canvas6,Print,NA,1687411892172,5ffd3f5a81fc4f21eaa9ba9f,5ffd3f5a81fc4f21eaa9ba9f,12,erase,critical,A,75,erase66.jpg,erase84.jpg,low,NULL
1687412115,ea718067054797df029df95f422e0522,PennController,16,0,experiment,NULL,Video,progression,buffer,0.001382,1687411885975,5ffd3f5a81fc4f21eaa9ba9f,5ffd3f5a81fc4f21eaa9ba9f,12,erase,critical,A,75,erase66.jpg,erase84.jpg,low,NULL
1687412115,ea718067054797df029df95f422e0522,PennController,16,0,experiment,NULL,Selector,choice,Selection,option1,1687411894781,5ffd3f5a81fc4f21eaa9ba9f,5ffd3f5a81fc4f21eaa9ba9f,12,erase,critical,A,75,erase66.jpg,erase84.jpg,low,option1;option2
1687412115,ea718067054797df029df95f422e0522,PennController,16,0,experiment,NULL,PennController,14,_Trial_,End,1687411894782,5ffd3f5a81fc4f21eaa9ba9f,5ffd3f5a81fc4f21eaa9ba9f,12,erase,critical,A,75,erase66.jpg,erase84.jpg,low,NULL
1687412115,ea718067054797df029df95f422e0522,PennController,5,0,experiment,NULL,PennController,3,_Trial_,Start,1687411894783,5ffd3f5a81fc4f21eaa9ba9f,5ffd3f5a81fc4f21eaa9ba9f,1,vase,critical,A,25,vase15.jpg,vase35.jpg,low,NULL
1687412115,ea718067054797df029df95f422e0522,PennController,5,0,experiment,NULL,PennController,3,_Header_,Start,1687411894783,5ffd3f5a81fc4f21eaa9ba9f,5ffd3f5a81fc4f21eaa9ba9f,1,vase,critical,A,25,vase15.jpg,vase35.jpg,low,NULL
1687412115,ea718067054797df029df95f422e0522,PennController,5,0,experiment,NULL,PennController,3,_Header_,End,1687411894783,5ffd3f5a81fc4f21eaa9ba9f,5ffd3f5a81fc4f21eaa9ba9f,1,vase,critical,A,25,vase15.jpg,vase35.jpg,low,NULL
1687412115,ea718067054797df029df95f422e0522,PennController,5,0,experiment,NULL,Canvas,canvas6,Print,NA,1687411900493,5ffd3f5a81fc4f21eaa9ba9f,5ffd3f5a81fc4f21eaa9ba9f,1,vase,critical,A,25,vase15.jpg,vase35.jpg,low,NULL
1687412115,ea718067054797df029df95f422e0522,PennController,5,0,experiment,NULL,Video,progression,buffer,0.001848,1687411898301,5ffd3f5a81fc4f21eaa9ba9f,5ffd3f5a81fc4f21eaa9ba9f,1,vase,critical,A,25,vase15.jpg,vase35.jpg,low,NULL
1687412115,ea718067054797df029df95f422e0522,PennController,5,0,experiment,NULL,Selector,choice,Selection,option2,1687411902614,5ffd3f5a81fc4f21eaa9ba9f,5ffd3f5a81fc4f21eaa9ba9f,1,vase,critical,A,25,vase15.jpg,vase35.jpg,low,option2;option1
1687412115,ea718067054797df029df95f422e0522,PennController,5,0,experiment,NULL,PennController,3,_Trial_,End,1687411902615,5ffd3f5a81fc4f21eaa9ba9f,5ffd3f5a81fc4f21eaa9ba9f,1,vase,critical,A,25,vase15.jpg,vase35.jpg,low,NULL
1687412115,ea718067054797df029df95f422e0522,PennController,17,0,experiment,NULL,PennController,15,_Trial_,Start,1687411902616,5ffd3f5a81fc4f21eaa9ba9f,5ffd3f5a81fc4f21eaa9ba9f,13,mix,critical,A,25,mix15.jpg,mix35.jpg,low,NULL
1687412115,ea718067054797df029df95f422e0522,PennController,17,0,experiment,NULL,PennController,15,_Header_,Start,1687411902616,5ffd3f5a81fc4f21eaa9ba9f,5ffd3f5a81fc4f21eaa9ba9f,13,mix,critical,A,25,mix15.jpg,mix35.jpg,low,NULL
1687412115,ea718067054797df029df95f422e0522,PennController,17,0,experiment,NULL,PennController,15,_Header_,End,1687411902616,5ffd3f5a81fc4f21eaa9ba9f,5ffd3f5a81fc4f21eaa9ba9f,13,mix,critical,A,25,mix15.jpg,mix35.jpg,low,NULL
1687412115,ea718067054797df029df95f422e0522,PennController,17,0,experiment,NULL,Canvas,canvas6,Print,NA,1687411908326,5ffd3f5a81fc4f21eaa9ba9f,5ffd3f5a81fc4f21eaa9ba9f,13,mix,critical,A,25,mix15.jpg,mix35.jpg,low,NULL
1687412115,ea718067054797df029df95f422e0522,PennController,17,0,experiment,NULL,Video,progression,buffer,0.00175,1687411906129,5ffd3f5a81fc4f21eaa9ba9f,5ffd3f5a81fc4f21eaa9ba9f,13,mix,critical,A,25,mix15.jpg,mix35.jpg,low,NULL
1687412115,ea718067054797df029df95f422e0522,PennController,17,0,experiment,NULL,Selector,choice,Selection,option2,1687411910136,5ffd3f5a81fc4f21eaa9ba9f,5ffd3f5a81fc4f21eaa9ba9f,13,mix,critical,A,25,mix15.jpg,mix35.jpg,low,option2;option1
1687412115,ea718067054797df029df95f422e0522,PennController,17,0,experiment,NULL,PennController,15,_Trial_,End,1687411910137,5ffd3f5a81fc4f21eaa9ba9f,5ffd3f5a81fc4f21eaa9ba9f,13,mix,critical,A,25,mix15.jpg,mix35.jpg,low,NULL
1687412115,ea718067054797df029df95f422e0522,PennController,24,0,experiment,NULL,PennController,22,_Trial_,Start,1687411910138,5ffd3f5a81fc4f21eaa9ba9f,5ffd3f5a81fc4f21eaa9ba9f,20,cat,filler,A,50,cat40.jpg,cat60.jpg,GoalB,NULL
1687412115,ea718067054797df029df95f422e0522,PennController,24,0,experiment,NULL,PennController,22,_Header_,Start,1687411910138,5ffd3f5a81fc4f21eaa9ba9f,5ffd3f5a81fc4f21eaa9ba9f,20,cat,filler,A,50,cat40.jpg,cat60.jpg,GoalB,NULL
1687412115,ea718067054797df029df95f422e0522,PennController,24,0,experiment,NULL,PennController,22,_Header_,End,1687411910138,5ffd3f5a81fc4f21eaa9ba9f,5ffd3f5a81fc4f21eaa9ba9f,20,cat,filler,A,50,cat40.jpg,cat60.jpg,GoalB,NULL
1687412115,ea718067054797df029df95f422e0522,PennController,24,0,experiment,NULL,Canvas,canvas6,Print,NA,1687411916846,5ffd3f5a81fc4f21eaa9ba9f,5ffd3f5a81fc4f21eaa9ba9f,20,cat,filler,A,50,cat40.jpg,cat60.jpg,GoalB,NULL
1687412115,ea718067054797df029df95f422e0522,PennController,24,0,experiment,NULL,Video,progression,buffer,0.001144,1687411913650,5ffd3f5a81fc4f21eaa9ba9f,5ffd3f5a81fc4f21eaa9ba9f,20,cat,filler,A,50,cat40.jpg,cat60.jpg,GoalB,NULL
1687412115,ea718067054797df029df95f422e0522,PennController,24,0,experiment,NULL,Selector,choice,Selection,option2,1687411918432,5ffd3f5a81fc4f21eaa9ba9f,5ffd3f5a81fc4f21eaa9ba9f,20,cat,filler,A,50,cat40.jpg,cat60.jpg,GoalB,option2;option1
1687412115,ea718067054797df029df95f422e0522,PennController,24,0,experiment,NULL,PennController,22,_Trial_,End,1687411918433,5ffd3f5a81fc4f21eaa9ba9f,5ffd3f5a81fc4f21eaa9ba9f,20,cat,filler,A,50,cat40.jpg,cat60.jpg,GoalB,NULL
1687412115,ea718067054797df029df95f422e0522,PennController,19,0,experiment,NULL,PennController,17,_Trial_,Start,1687411918433,5ffd3f5a81fc4f21eaa9ba9f,5ffd3f5a81fc4f21eaa9ba9f,15,zip,critical,A,75,zip65.jpg,zip85.jpg,low,NULL
1687412115,ea718067054797df029df95f422e0522,PennController,19,0,experiment,NULL,PennController,17,_Header_,Start,1687411918433,5ffd3f5a81fc4f21eaa9ba9f,5ffd3f5a81fc4f21eaa9ba9f,15,zip,critical,A,75,zip65.jpg,zip85.jpg,low,NULL
1687412115,ea718067054797df029df95f422e0522,PennController,19,0,experiment,NULL,PennController,17,_Header_,End,1687411918433,5ffd3f5a81fc4f21eaa9ba9f,5ffd3f5a81fc4f21eaa9ba9f,15,zip,critical,A,75,zip65.jpg,zip85.jpg,low,NULL
1687412115,ea718067054797df029df95f422e0522,PennController,19,0,experiment,NULL,Canvas,canvas6,Print,NA,1687411925342,5ffd3f5a81fc4f21eaa9ba9f,5ffd3f5a81fc4f21eaa9ba9f,15,zip,critical,A,75,zip65.jpg,zip85.jpg,low,NULL
1687412115,ea718067054797df029df95f422e0522,PennController,19,0,experiment,NULL,Video,progression,buffer,0.001261,1687411921943,5ffd3f5a81fc4f21eaa9ba9f,5ffd3f5a81fc4f21eaa9ba9f,15,zip,critical,A,75,zip65.jpg,zip85.jpg,low,NULL
1687412115,ea718067054797df029df95f422e0522,PennController,19,0,experiment,NULL,Selector,choice,Selection,option2,1687411927893,5ffd3f5a81fc4f21eaa9ba9f,5ffd3f5a81fc4f21eaa9ba9f,15,zip,critical,A,75,zip65.jpg,zip85.jpg,low,option2;option1
1687412115,ea718067054797df029df95f422e0522,PennController,19,0,experiment,NULL,PennController,17,_Trial_,End,1687411927894,5ffd3f5a81fc4f21eaa9ba9f,5ffd3f5a81fc4f21eaa9ba9f,15,zip,critical,A,75,zip65.jpg,zip85.jpg,low,NULL
1687412115,ea718067054797df029df95f422e0522,PennController,11,0,experiment,NULL,PennController,9,_Trial_,Start,1687411927894,5ffd3f5a81fc4f21eaa9ba9f,5ffd3f5a81fc4f21eaa9ba9f,7,stack,critical,A,25,stack15.jpg,stack35.jpg,low,NULL
1687412115,ea718067054797df029df95f422e0522,PennController,11,0,experiment,NULL,PennController,9,_Header_,Start,1687411927894,5ffd3f5a81fc4f21eaa9ba9f,5ffd3f5a81fc4f21eaa9ba9f,7,stack,critical,A,25,stack15.jpg,stack35.jpg,low,NULL
1687412115,ea718067054797df029df95f422e0522,PennController,11,0,experiment,NULL,PennController,9,_Header_,End,1687411927895,5ffd3f5a81fc4f21eaa9ba9f,5ffd3f5a81fc4f21eaa9ba9f,7,stack,critical,A,25,stack15.jpg,stack35.jpg,low,NULL
1687412115,ea718067054797df029df95f422e0522,PennController,11,0,experiment,NULL,Canvas,canvas6,Print,NA,1687411933600,5ffd3f5a81fc4f21eaa9ba9f,5ffd3f5a81fc4f21eaa9ba9f,7,stack,critical,A,25,stack15.jpg,stack35.jpg,low,NULL
1687412115,ea718067054797df029df95f422e0522,PennController,11,0,experiment,NULL,Video,progression,buffer,0.001206,1687411931407,5ffd3f5a81fc4f21eaa9ba9f,5ffd3f5a81fc4f21eaa9ba9f,7,stack,critical,A,25,stack15.jpg,stack35.jpg,low,NULL
1687412115,ea718067054797df029df95f422e0522,PennController,11,0,experiment,NULL,Selector,choice,Selection,option2,1687411935280,5ffd3f5a81fc4f21eaa9ba9f,5ffd3f5a81fc4f21eaa9ba9f,7,stack,critical,A,25,stack15.jpg,stack35.jpg,low,option2;option1
1687412115,ea718067054797df029df95f422e0522,PennController,11,0,experiment,NULL,PennController,9,_Trial_,End,1687411935281,5ffd3f5a81fc4f21eaa9ba9f,5ffd3f5a81fc4f21eaa9ba9f,7,stack,critical,A,25,stack15.jpg,stack35.jpg,low,NULL
1687412115,ea718067054797df029df95f422e0522,PennController,28,0,experiment,NULL,PennController,26,_Trial_,Start,1687411935282,5ffd3f5a81fc4f21eaa9ba9f,5ffd3f5a81fc4f21eaa9ba9f,24,match,filler,A,75,match65.jpg,match85.jpg,GoalB,NULL
1687412115,ea718067054797df029df95f422e0522,PennController,28,0,experiment,NULL,PennController,26,_Header_,Start,1687411935282,5ffd3f5a81fc4f21eaa9ba9f,5ffd3f5a81fc4f21eaa9ba9f,24,match,filler,A,75,match65.jpg,match85.jpg,GoalB,NULL
1687412115,ea718067054797df029df95f422e0522,PennController,28,0,experiment,NULL,PennController,26,_Header_,End,1687411935282,5ffd3f5a81fc4f21eaa9ba9f,5ffd3f5a81fc4f21eaa9ba9f,24,match,filler,A,75,match65.jpg,match85.jpg,GoalB,NULL
1687412115,ea718067054797df029df95f422e0522,PennController,28,0,experiment,NULL,Canvas,canvas6,Print,NA,1687411942988,5ffd3f5a81fc4f21eaa9ba9f,5ffd3f5a81fc4f21eaa9ba9f,24,match,filler,A,75,match65.jpg,match85.jpg,GoalB,NULL
1687412115,ea718067054797df029df95f422e0522,PennController,28,0,experiment,NULL,Video,progression,buffer,0.001671,1687411938793,5ffd3f5a81fc4f21eaa9ba9f,5ffd3f5a81fc4f21eaa9ba9f,24,match,filler,A,75,match65.jpg,match85.jpg,GoalB,NULL
1687412115,ea718067054797df029df95f422e0522,PennController,28,0,experiment,NULL,Selector,choice,Selection,option1,1687411947787,5ffd3f5a81fc4f21eaa9ba9f,5ffd3f5a81fc4f21eaa9ba9f,24,match,filler,A,75,match65.jpg,match85.jpg,GoalB,option1;option2
1687412115,ea718067054797df029df95f422e0522,PennController,28,0,experiment,NULL,PennController,26,_Trial_,End,1687411947788,5ffd3f5a81fc4f21eaa9ba9f,5ffd3f5a81fc4f21eaa9ba9f,24,match,filler,A,75,match65.jpg,match85.jpg,GoalB,NULL
1687412115,ea718067054797df029df95f422e0522,PennController,31,0,experiment,NULL,PennController,29,_Trial_,Start,1687411947789,5ffd3f5a81fc4f21eaa9ba9f,5ffd3f5a81fc4f21eaa9ba9f,27,square,filler,A,75,square65.jpg,square85.jpg,GoalA,NULL
1687412115,ea718067054797df029df95f422e0522,PennController,31,0,experiment,NULL,PennController,29,_Header_,Start,1687411947789,5ffd3f5a81fc4f21eaa9ba9f,5ffd3f5a81fc4f21eaa9ba9f,27,square,filler,A,75,square65.jpg,square85.jpg,GoalA,NULL
1687412115,ea718067054797df029df95f422e0522,PennController,31,0,experiment,NULL,PennController,29,_Header_,End,1687411947789,5ffd3f5a81fc4f21eaa9ba9f,5ffd3f5a81fc4f21eaa9ba9f,27,square,filler,A,75,square65.jpg,square85.jpg,GoalA,NULL
1687412115,ea718067054797df029df95f422e0522,PennController,31,0,experiment,NULL,Canvas,canvas6,Print,NA,1687411955496,5ffd3f5a81fc4f21eaa9ba9f,5ffd3f5a81fc4f21eaa9ba9f,27,square,filler,A,75,square65.jpg,square85.jpg,GoalA,NULL
1687412115,ea718067054797df029df95f422e0522,PennController,31,0,experiment,NULL,Video,progression,buffer,0.001957,1687411951305,5ffd3f5a81fc4f21eaa9ba9f,5ffd3f5a81fc4f21eaa9ba9f,27,square,filler,A,75,square65.jpg,square85.jpg,GoalA,NULL
1687412115,ea718067054797df029df95f422e0522,PennController,31,0,experiment,NULL,Selector,choice,Selection,option1,1687411957457,5ffd3f5a81fc4f21eaa9ba9f,5ffd3f5a81fc4f21eaa9ba9f,27,square,filler,A,75,square65.jpg,square85.jpg,GoalA,option1;option2
1687412115,ea718067054797df029df95f422e0522,PennController,31,0,experiment,NULL,PennController,29,_Trial_,End,1687411957458,5ffd3f5a81fc4f21eaa9ba9f,5ffd3f5a81fc4f21eaa9ba9f,27,square,filler,A,75,square65.jpg,square85.jpg,GoalA,NULL
1687412115,ea718067054797df029df95f422e0522,PennController,33,0,experiment,NULL,PennController,31,_Trial_,Start,1687411957459,5ffd3f5a81fc4f21eaa9ba9f,5ffd3f5a81fc4f21eaa9ba9f,29,frog,filler,A,50,frog40.jpg,frog60.jpg,GoalA,NULL
1687412115,ea718067054797df029df95f422e0522,PennController,33,0,experiment,NULL,PennController,31,_Header_,Start,1687411957459,5ffd3f5a81fc4f21eaa9ba9f,5ffd3f5a81fc4f21eaa9ba9f,29,frog,filler,A,50,frog40.jpg,frog60.jpg,GoalA,NULL
1687412115,ea718067054797df029df95f422e0522,PennController,33,0,experiment,NULL,PennController,31,_Header_,End,1687411957459,5ffd3f5a81fc4f21eaa9ba9f,5ffd3f5a81fc4f21eaa9ba9f,29,frog,filler,A,50,frog40.jpg,frog60.jpg,GoalA,NULL
1687412115,ea718067054797df029df95f422e0522,PennController,33,0,experiment,NULL,Canvas,canvas6,Print,NA,1687411964166,5ffd3f5a81fc4f21eaa9ba9f,5ffd3f5a81fc4f21eaa9ba9f,29,frog,filler,A,50,frog40.jpg,frog60.jpg,GoalA,NULL
1687412115,ea718067054797df029df95f422e0522,PennController,33,0,experiment,NULL,Video,progression,buffer,0.001929,1687411960974,5ffd3f5a81fc4f21eaa9ba9f,5ffd3f5a81fc4f21eaa9ba9f,29,frog,filler,A,50,frog40.jpg,frog60.jpg,GoalA,NULL
1687412115,ea718067054797df029df95f422e0522,PennController,33,0,experiment,NULL,Selector,choice,Selection,option1,1687411967520,5ffd3f5a81fc4f21eaa9ba9f,5ffd3f5a81fc4f21eaa9ba9f,29,frog,filler,A,50,frog40.jpg,frog60.jpg,GoalA,option2;option1
1687412115,ea718067054797df029df95f422e0522,PennController,33,0,experiment,NULL,PennController,31,_Trial_,End,1687411967521,5ffd3f5a81fc4f21eaa9ba9f,5ffd3f5a81fc4f21eaa9ba9f,29,frog,filler,A,50,frog40.jpg,frog60.jpg,GoalA,NULL
1687412115,ea718067054797df029df95f422e0522,PennController,10,0,experiment,NULL,PennController,8,_Trial_,Start,1687411967522,5ffd3f5a81fc4f21eaa9ba9f,5ffd3f5a81fc4f21eaa9ba9f,6,flower,critical,A,75,flower65.jpg,flower85.jpg,low,NULL
1687412115,ea718067054797df029df95f422e0522,PennController,10,0,experiment,NULL,PennController,8,_Header_,Start,1687411967522,5ffd3f5a81fc4f21eaa9ba9f,5ffd3f5a81fc4f21eaa9ba9f,6,flower,critical,A,75,flower65.jpg,flower85.jpg,low,NULL
1687412115,ea718067054797df029df95f422e0522,PennController,10,0,experiment,NULL,PennController,8,_Header_,End,1687411967522,5ffd3f5a81fc4f21eaa9ba9f,5ffd3f5a81fc4f21eaa9ba9f,6,flower,critical,A,75,flower65.jpg,flower85.jpg,low,NULL
1687412115,ea718067054797df029df95f422e0522,PennController,10,0,experiment,NULL,Canvas,canvas6,Print,NA,1687411975232,5ffd3f5a81fc4f21eaa9ba9f,5ffd3f5a81fc4f21eaa9ba9f,6,flower,critical,A,75,flower65.jpg,flower85.jpg,low,NULL
1687412115,ea718067054797df029df95f422e0522,PennController,10,0,experiment,NULL,Video,progression,buffer,0.001179,1687411971034,5ffd3f5a81fc4f21eaa9ba9f,5ffd3f5a81fc4f21eaa9ba9f,6,flower,critical,A,75,flower65.jpg,flower85.jpg,low,NULL
1687412115,ea718067054797df029df95f422e0522,PennController,10,0,experiment,NULL,Selector,choice,Selection,option2,1687411976877,5ffd3f5a81fc4f21eaa9ba9f,5ffd3f5a81fc4f21eaa9ba9f,6,flower,critical,A,75,flower65.jpg,flower85.jpg,low,option2;option1
1687412115,ea718067054797df029df95f422e0522,PennController,10,0,experiment,NULL,PennController,8,_Trial_,End,1687411976878,5ffd3f5a81fc4f21eaa9ba9f,5ffd3f5a81fc4f21eaa9ba9f,6,flower,critical,A,75,flower65.jpg,flower85.jpg,low,NULL
1687412115,ea718067054797df029df95f422e0522,PennController,26,0,experiment,NULL,PennController,24,_Trial_,Start,1687411976879,5ffd3f5a81fc4f21eaa9ba9f,5ffd3f5a81fc4f21eaa9ba9f,22,wall,filler,A,25,wall15.jpg,wall35.jpg,GoalB,NULL
1687412115,ea718067054797df029df95f422e0522,PennController,26,0,experiment,NULL,PennController,24,_Header_,Start,1687411976879,5ffd3f5a81fc4f21eaa9ba9f,5ffd3f5a81fc4f21eaa9ba9f,22,wall,filler,A,25,wall15.jpg,wall35.jpg,GoalB,NULL
1687412115,ea718067054797df029df95f422e0522,PennController,26,0,experiment,NULL,PennController,24,_Header_,End,1687411976879,5ffd3f5a81fc4f21eaa9ba9f,5ffd3f5a81fc4f21eaa9ba9f,22,wall,filler,A,25,wall15.jpg,wall35.jpg,GoalB,NULL
1687412115,ea718067054797df029df95f422e0522,PennController,26,0,experiment,NULL,Canvas,canvas6,Print,NA,1687411982583,5ffd3f5a81fc4f21eaa9ba9f,5ffd3f5a81fc4f21eaa9ba9f,22,wall,filler,A,25,wall15.jpg,wall35.jpg,GoalB,NULL
1687412115,ea718067054797df029df95f422e0522,PennController,26,0,experiment,NULL,Video,progression,buffer,0.002038,1687411980393,5ffd3f5a81fc4f21eaa9ba9f,5ffd3f5a81fc4f21eaa9ba9f,22,wall,filler,A,25,wall15.jpg,wall35.jpg,GoalB,NULL
1687412115,ea718067054797df029df95f422e0522,PennController,26,0,experiment,NULL,Selector,choice,Selection,option2,1687411984192,5ffd3f5a81fc4f21eaa9ba9f,5ffd3f5a81fc4f21eaa9ba9f,22,wall,filler,A,25,wall15.jpg,wall35.jpg,GoalB,option2;option1
1687412115,ea718067054797df029df95f422e0522,PennController,26,0,experiment,NULL,PennController,24,_Trial_,End,1687411984193,5ffd3f5a81fc4f21eaa9ba9f,5ffd3f5a81fc4f21eaa9ba9f,22,wall,filler,A,25,wall15.jpg,wall35.jpg,GoalB,NULL
1687412115,ea718067054797df029df95f422e0522,PennController,23,0,experiment,NULL,PennController,21,_Trial_,Start,1687411984193,5ffd3f5a81fc4f21eaa9ba9f,5ffd3f5a81fc4f21eaa9ba9f,19,cup,filler,A,25,cup15.jpg,cup35.jpg,GoalA,NULL
1687412115,ea718067054797df029df95f422e0522,PennController,23,0,experiment,NULL,PennController,21,_Header_,Start,1687411984193,5ffd3f5a81fc4f21eaa9ba9f,5ffd3f5a81fc4f21eaa9ba9f,19,cup,filler,A,25,cup15.jpg,cup35.jpg,GoalA,NULL
1687412115,ea718067054797df029df95f422e0522,PennController,23,0,experiment,NULL,PennController,21,_Header_,End,1687411984194,5ffd3f5a81fc4f21eaa9ba9f,5ffd3f5a81fc4f21eaa9ba9f,19,cup,filler,A,25,cup15.jpg,cup35.jpg,GoalA,NULL
1687412115,ea718067054797df029df95f422e0522,PennController,23,0,experiment,NULL,Canvas,canvas6,Print,NA,1687411989898,5ffd3f5a81fc4f21eaa9ba9f,5ffd3f5a81fc4f21eaa9ba9f,19,cup,filler,A,25,cup15.jpg,cup35.jpg,GoalA,NULL
1687412115,ea718067054797df029df95f422e0522,PennController,23,0,experiment,NULL,Video,progression,buffer,0.001776,1687411987708,5ffd3f5a81fc4f21eaa9ba9f,5ffd3f5a81fc4f21eaa9ba9f,19,cup,filler,A,25,cup15.jpg,cup35.jpg,GoalA,NULL
1687412115,ea718067054797df029df95f422e0522,PennController,23,0,experiment,NULL,Selector,choice,Selection,option2,1687411990834,5ffd3f5a81fc4f21eaa9ba9f,5ffd3f5a81fc4f21eaa9ba9f,19,cup,filler,A,25,cup15.jpg,cup35.jpg,GoalA,option2;option1
1687412115,ea718067054797df029df95f422e0522,PennController,23,0,experiment,NULL,PennController,21,_Trial_,End,1687411990835,5ffd3f5a81fc4f21eaa9ba9f,5ffd3f5a81fc4f21eaa9ba9f,19,cup,filler,A,25,cup15.jpg,cup35.jpg,GoalA,NULL
1687412115,ea718067054797df029df95f422e0522,PennController,12,0,experiment,NULL,PennController,10,_Trial_,Start,1687411990835,5ffd3f5a81fc4f21eaa9ba9f,5ffd3f5a81fc4f21eaa9ba9f,8,cucumber,critical,A,50,cucumber42.jpg,cucumber60.jpg,low,NULL
1687412115,ea718067054797df029df95f422e0522,PennController,12,0,experiment,NULL,PennController,10,_Header_,Start,1687411990835,5ffd3f5a81fc4f21eaa9ba9f,5ffd3f5a81fc4f21eaa9ba9f,8,cucumber,critical,A,50,cucumber42.jpg,cucumber60.jpg,low,NULL
1687412115,ea718067054797df029df95f422e0522,PennController,12,0,experiment,NULL,PennController,10,_Header_,End,1687411990835,5ffd3f5a81fc4f21eaa9ba9f,5ffd3f5a81fc4f21eaa9ba9f,8,cucumber,critical,A,50,cucumber42.jpg,cucumber60.jpg,low,NULL
1687412115,ea718067054797df029df95f422e0522,PennController,12,0,experiment,NULL,Canvas,canvas6,Print,NA,1687411998941,5ffd3f5a81fc4f21eaa9ba9f,5ffd3f5a81fc4f21eaa9ba9f,8,cucumber,critical,A,50,cucumber42.jpg,cucumber60.jpg,low,NULL
1687412115,ea718067054797df029df95f422e0522,PennController,12,0,experiment,NULL,Video,progression,buffer,0.001336,1687411994347,5ffd3f5a81fc4f21eaa9ba9f,5ffd3f5a81fc4f21eaa9ba9f,8,cucumber,critical,A,50,cucumber42.jpg,cucumber60.jpg,low,NULL
1687412115,ea718067054797df029df95f422e0522,PennController,12,0,experiment,NULL,Selector,choice,Selection,option1,1687412003678,5ffd3f5a81fc4f21eaa9ba9f,5ffd3f5a81fc4f21eaa9ba9f,8,cucumber,critical,A,50,cucumber42.jpg,cucumber60.jpg,low,option1;option2
1687412115,ea718067054797df029df95f422e0522,PennController,12,0,experiment,NULL,PennController,10,_Trial_,End,1687412003679,5ffd3f5a81fc4f21eaa9ba9f,5ffd3f5a81fc4f21eaa9ba9f,8,cucumber,critical,A,50,cucumber42.jpg,cucumber60.jpg,low,NULL
1687412115,ea718067054797df029df95f422e0522,PennController,32,0,experiment,NULL,PennController,30,_Trial_,Start,1687412003680,5ffd3f5a81fc4f21eaa9ba9f,5ffd3f5a81fc4f21eaa9ba9f,28,sort,filler,A,25,sort15.jpg,sort35.jpg,GoalB,NULL
1687412115,ea718067054797df029df95f422e0522,PennController,32,0,experiment,NULL,PennController,30,_Header_,Start,1687412003680,5ffd3f5a81fc4f21eaa9ba9f,5ffd3f5a81fc4f21eaa9ba9f,28,sort,filler,A,25,sort15.jpg,sort35.jpg,GoalB,NULL
1687412115,ea718067054797df029df95f422e0522,PennController,32,0,experiment,NULL,PennController,30,_Header_,End,1687412003680,5ffd3f5a81fc4f21eaa9ba9f,5ffd3f5a81fc4f21eaa9ba9f,28,sort,filler,A,25,sort15.jpg,sort35.jpg,GoalB,NULL
1687412115,ea718067054797df029df95f422e0522,PennController,32,0,experiment,NULL,Canvas,canvas6,Print,NA,1687412009384,5ffd3f5a81fc4f21eaa9ba9f,5ffd3f5a81fc4f21eaa9ba9f,28,sort,filler,A,25,sort15.jpg,sort35.jpg,GoalB,NULL
1687412115,ea718067054797df029df95f422e0522,PennController,32,0,experiment,NULL,Video,progression,buffer,0.001959,1687412007196,5ffd3f5a81fc4f21eaa9ba9f,5ffd3f5a81fc4f21eaa9ba9f,28,sort,filler,A,25,sort15.jpg,sort35.jpg,GoalB,NULL
1687412115,ea718067054797df029df95f422e0522,PennController,32,0,experiment,NULL,Selector,choice,Selection,option2,1687412014710,5ffd3f5a81fc4f21eaa9ba9f,5ffd3f5a81fc4f21eaa9ba9f,28,sort,filler,A,25,sort15.jpg,sort35.jpg,GoalB,option2;option1
1687412115,ea718067054797df029df95f422e0522,PennController,32,0,experiment,NULL,PennController,30,_Trial_,End,1687412014711,5ffd3f5a81fc4f21eaa9ba9f,5ffd3f5a81fc4f21eaa9ba9f,28,sort,filler,A,25,sort15.jpg,sort35.jpg,GoalB,NULL
1687412115,ea718067054797df029df95f422e0522,PennController,20,0,experiment,NULL,PennController,18,_Trial_,Start,1687412014712,5ffd3f5a81fc4f21eaa9ba9f,5ffd3f5a81fc4f21eaa9ba9f,16,blinds,critical,A,25,blinds15.jpg,blinds33.jpg,low,NULL
1687412115,ea718067054797df029df95f422e0522,PennController,20,0,experiment,NULL,PennController,18,_Header_,Start,1687412014712,5ffd3f5a81fc4f21eaa9ba9f,5ffd3f5a81fc4f21eaa9ba9f,16,blinds,critical,A,25,blinds15.jpg,blinds33.jpg,low,NULL
1687412115,ea718067054797df029df95f422e0522,PennController,20,0,experiment,NULL,PennController,18,_Header_,End,1687412014712,5ffd3f5a81fc4f21eaa9ba9f,5ffd3f5a81fc4f21eaa9ba9f,16,blinds,critical,A,25,blinds15.jpg,blinds33.jpg,low,NULL
1687412115,ea718067054797df029df95f422e0522,PennController,20,0,experiment,NULL,Canvas,canvas6,Print,NA,1687412021018,5ffd3f5a81fc4f21eaa9ba9f,5ffd3f5a81fc4f21eaa9ba9f,16,blinds,critical,A,25,blinds15.jpg,blinds33.jpg,low,NULL
1687412115,ea718067054797df029df95f422e0522,PennController,20,0,experiment,NULL,Video,progression,buffer,0.001152,1687412018229,5ffd3f5a81fc4f21eaa9ba9f,5ffd3f5a81fc4f21eaa9ba9f,16,blinds,critical,A,25,blinds15.jpg,blinds33.jpg,low,NULL
1687412115,ea718067054797df029df95f422e0522,PennController,20,0,experiment,NULL,Selector,choice,Selection,option2,1687412022018,5ffd3f5a81fc4f21eaa9ba9f,5ffd3f5a81fc4f21eaa9ba9f,16,blinds,critical,A,25,blinds15.jpg,blinds33.jpg,low,option1;option2
1687412115,ea718067054797df029df95f422e0522,PennController,20,0,experiment,NULL,PennController,18,_Trial_,End,1687412022019,5ffd3f5a81fc4f21eaa9ba9f,5ffd3f5a81fc4f21eaa9ba9f,16,blinds,critical,A,25,blinds15.jpg,blinds33.jpg,low,NULL
1687412115,ea718067054797df029df95f422e0522,PennController,21,0,experiment,NULL,PennController,19,_Trial_,Start,1687412022020,5ffd3f5a81fc4f21eaa9ba9f,5ffd3f5a81fc4f21eaa9ba9f,17,roll,critical,A,50,roll40.jpg,roll60.jpg,low,NULL
1687412115,ea718067054797df029df95f422e0522,PennController,21,0,experiment,NULL,PennController,19,_Header_,Start,1687412022020,5ffd3f5a81fc4f21eaa9ba9f,5ffd3f5a81fc4f21eaa9ba9f,17,roll,critical,A,50,roll40.jpg,roll60.jpg,low,NULL
1687412115,ea718067054797df029df95f422e0522,PennController,21,0,experiment,NULL,PennController,19,_Header_,End,1687412022020,5ffd3f5a81fc4f21eaa9ba9f,5ffd3f5a81fc4f21eaa9ba9f,17,roll,critical,A,50,roll40.jpg,roll60.jpg,low,NULL
1687412115,ea718067054797df029df95f422e0522,PennController,21,0,experiment,NULL,Canvas,canvas6,Print,NA,1687412028732,5ffd3f5a81fc4f21eaa9ba9f,5ffd3f5a81fc4f21eaa9ba9f,17,roll,critical,A,50,roll40.jpg,roll60.jpg,low,NULL
1687412115,ea718067054797df029df95f422e0522,PennController,21,0,experiment,NULL,Video,progression,buffer,0.001139,1687412025534,5ffd3f5a81fc4f21eaa9ba9f,5ffd3f5a81fc4f21eaa9ba9f,17,roll,critical,A,50,roll40.jpg,roll60.jpg,low,NULL
1687412115,ea718067054797df029df95f422e0522,PennController,21,0,experiment,NULL,Selector,choice,Selection,option2,1687412030264,5ffd3f5a81fc4f21eaa9ba9f,5ffd3f5a81fc4f21eaa9ba9f,17,roll,critical,A,50,roll40.jpg,roll60.jpg,low,option2;option1
1687412115,ea718067054797df029df95f422e0522,PennController,21,0,experiment,NULL,PennController,19,_Trial_,End,1687412030265,5ffd3f5a81fc4f21eaa9ba9f,5ffd3f5a81fc4f21eaa9ba9f,17,roll,critical,A,50,roll40.jpg,roll60.jpg,low,NULL
1687412115,ea718067054797df029df95f422e0522,PennController,27,0,experiment,NULL,PennController,25,_Trial_,Start,1687412030265,5ffd3f5a81fc4f21eaa9ba9f,5ffd3f5a81fc4f21eaa9ba9f,23,color,filler,A,50,color40.jpg,color60.jpg,GoalA,NULL
1687412115,ea718067054797df029df95f422e0522,PennController,27,0,experiment,NULL,PennController,25,_Header_,Start,1687412030265,5ffd3f5a81fc4f21eaa9ba9f,5ffd3f5a81fc4f21eaa9ba9f,23,color,filler,A,50,color40.jpg,color60.jpg,GoalA,NULL
1687412115,ea718067054797df029df95f422e0522,PennController,27,0,experiment,NULL,PennController,25,_Header_,End,1687412030265,5ffd3f5a81fc4f21eaa9ba9f,5ffd3f5a81fc4f21eaa9ba9f,23,color,filler,A,50,color40.jpg,color60.jpg,GoalA,NULL
1687412115,ea718067054797df029df95f422e0522,PennController,27,0,experiment,NULL,Canvas,canvas6,Print,NA,1687412036983,5ffd3f5a81fc4f21eaa9ba9f,5ffd3f5a81fc4f21eaa9ba9f,23,color,filler,A,50,color40.jpg,color60.jpg,GoalA,NULL
1687412115,ea718067054797df029df95f422e0522,PennController,27,0,experiment,NULL,Video,progression,buffer,0.001654,1687412033784,5ffd3f5a81fc4f21eaa9ba9f,5ffd3f5a81fc4f21eaa9ba9f,23,color,filler,A,50,color40.jpg,color60.jpg,GoalA,NULL
1687412115,ea718067054797df029df95f422e0522,PennController,27,0,experiment,NULL,Selector,choice,Selection,option1,1687412039414,5ffd3f5a81fc4f21eaa9ba9f,5ffd3f5a81fc4f21eaa9ba9f,23,color,filler,A,50,color40.jpg,color60.jpg,GoalA,option1;option2
1687412115,ea718067054797df029df95f422e0522,PennController,27,0,experiment,NULL,PennController,25,_Trial_,End,1687412039415,5ffd3f5a81fc4f21eaa9ba9f,5ffd3f5a81fc4f21eaa9ba9f,23,color,filler,A,50,color40.jpg,color60.jpg,GoalA,NULL
1687412115,ea718067054797df029df95f422e0522,PennController,30,0,experiment,NULL,PennController,28,_Trial_,Start,1687412039416,5ffd3f5a81fc4f21eaa9ba9f,5ffd3f5a81fc4f21eaa9ba9f,26,sandwich,filler,A,50,sandwich40.jpg,sandwich60.jpg,GoalB,NULL
1687412115,ea718067054797df029df95f422e0522,PennController,30,0,experiment,NULL,PennController,28,_Header_,Start,1687412039416,5ffd3f5a81fc4f21eaa9ba9f,5ffd3f5a81fc4f21eaa9ba9f,26,sandwich,filler,A,50,sandwich40.jpg,sandwich60.jpg,GoalB,NULL
1687412115,ea718067054797df029df95f422e0522,PennController,30,0,experiment,NULL,PennController,28,_Header_,End,1687412039416,5ffd3f5a81fc4f21eaa9ba9f,5ffd3f5a81fc4f21eaa9ba9f,26,sandwich,filler,A,50,sandwich40.jpg,sandwich60.jpg,GoalB,NULL
1687412115,ea718067054797df029df95f422e0522,PennController,30,0,experiment,NULL,Canvas,canvas6,Print,NA,1687412046118,5ffd3f5a81fc4f21eaa9ba9f,5ffd3f5a81fc4f21eaa9ba9f,26,sandwich,filler,A,50,sandwich40.jpg,sandwich60.jpg,GoalB,NULL
1687412115,ea718067054797df029df95f422e0522,PennController,30,0,experiment,NULL,Video,progression,buffer,0.001932,1687412042929,5ffd3f5a81fc4f21eaa9ba9f,5ffd3f5a81fc4f21eaa9ba9f,26,sandwich,filler,A,50,sandwich40.jpg,sandwich60.jpg,GoalB,NULL
1687412115,ea718067054797df029df95f422e0522,PennController,30,0,experiment,NULL,Selector,choice,Selection,option1,1687412047037,5ffd3f5a81fc4f21eaa9ba9f,5ffd3f5a81fc4f21eaa9ba9f,26,sandwich,filler,A,50,sandwich40.jpg,sandwich60.jpg,GoalB,option2;option1
1687412115,ea718067054797df029df95f422e0522,PennController,30,0,experiment,NULL,PennController,28,_Trial_,End,1687412047038,5ffd3f5a81fc4f21eaa9ba9f,5ffd3f5a81fc4f21eaa9ba9f,26,sandwich,filler,A,50,sandwich40.jpg,sandwich60.jpg,GoalB,NULL
1687412115,ea718067054797df029df95f422e0522,PennController,22,0,experiment,NULL,PennController,20,_Trial_,Start,1687412047038,5ffd3f5a81fc4f21eaa9ba9f,5ffd3f5a81fc4f21eaa9ba9f,18,ball,critical,A,75,ball65.jpg,ball85.jpg,low,NULL
1687412115,ea718067054797df029df95f422e0522,PennController,22,0,experiment,NULL,PennController,20,_Header_,Start,1687412047038,5ffd3f5a81fc4f21eaa9ba9f,5ffd3f5a81fc4f21eaa9ba9f,18,ball,critical,A,75,ball65.jpg,ball85.jpg,low,NULL
1687412115,ea718067054797df029df95f422e0522,PennController,22,0,experiment,NULL,PennController,20,_Header_,End,1687412047038,5ffd3f5a81fc4f21eaa9ba9f,5ffd3f5a81fc4f21eaa9ba9f,18,ball,critical,A,75,ball65.jpg,ball85.jpg,low,NULL
1687412115,ea718067054797df029df95f422e0522,PennController,22,0,experiment,NULL,Canvas,canvas6,Print,NA,1687412054743,5ffd3f5a81fc4f21eaa9ba9f,5ffd3f5a81fc4f21eaa9ba9f,18,ball,critical,A,75,ball65.jpg,ball85.jpg,low,NULL
1687412115,ea718067054797df029df95f422e0522,PennController,22,0,experiment,NULL,Video,progression,buffer,0.001081,1687412050553,5ffd3f5a81fc4f21eaa9ba9f,5ffd3f5a81fc4f21eaa9ba9f,18,ball,critical,A,75,ball65.jpg,ball85.jpg,low,NULL
1687412115,ea718067054797df029df95f422e0522,PennController,22,0,experiment,NULL,Selector,choice,Selection,option2,1687412055691,5ffd3f5a81fc4f21eaa9ba9f,5ffd3f5a81fc4f21eaa9ba9f,18,ball,critical,A,75,ball65.jpg,ball85.jpg,low,option1;option2
1687412115,ea718067054797df029df95f422e0522,PennController,22,0,experiment,NULL,PennController,20,_Trial_,End,1687412055692,5ffd3f5a81fc4f21eaa9ba9f,5ffd3f5a81fc4f21eaa9ba9f,18,ball,critical,A,75,ball65.jpg,ball85.jpg,low,NULL
1687412115,ea718067054797df029df95f422e0522,PennController,8,0,experiment,NULL,PennController,6,_Trial_,Start,1687412055692,5ffd3f5a81fc4f21eaa9ba9f,5ffd3f5a81fc4f21eaa9ba9f,4,candy,critical,A,25,candy15.jpg,candy35.jpg,low,NULL
1687412115,ea718067054797df029df95f422e0522,PennController,8,0,experiment,NULL,PennController,6,_Header_,Start,1687412055692,5ffd3f5a81fc4f21eaa9ba9f,5ffd3f5a81fc4f21eaa9ba9f,4,candy,critical,A,25,candy15.jpg,candy35.jpg,low,NULL
1687412115,ea718067054797df029df95f422e0522,PennController,8,0,experiment,NULL,PennController,6,_Header_,End,1687412055692,5ffd3f5a81fc4f21eaa9ba9f,5ffd3f5a81fc4f21eaa9ba9f,4,candy,critical,A,25,candy15.jpg,candy35.jpg,low,NULL
1687412115,ea718067054797df029df95f422e0522,PennController,8,0,experiment,NULL,Canvas,canvas6,Print,NA,1687412061397,5ffd3f5a81fc4f21eaa9ba9f,5ffd3f5a81fc4f21eaa9ba9f,4,candy,critical,A,25,candy15.jpg,candy35.jpg,low,NULL
1687412115,ea718067054797df029df95f422e0522,PennController,8,0,experiment,NULL,Video,progression,buffer,0.001872,1687412059205,5ffd3f5a81fc4f21eaa9ba9f,5ffd3f5a81fc4f21eaa9ba9f,4,candy,critical,A,25,candy15.jpg,candy35.jpg,low,NULL
1687412115,ea718067054797df029df95f422e0522,PennController,8,0,experiment,NULL,Selector,choice,Selection,option2,1687412064043,5ffd3f5a81fc4f21eaa9ba9f,5ffd3f5a81fc4f21eaa9ba9f,4,candy,critical,A,25,candy15.jpg,candy35.jpg,low,option1;option2
1687412115,ea718067054797df029df95f422e0522,PennController,8,0,experiment,NULL,PennController,6,_Trial_,End,1687412064044,5ffd3f5a81fc4f21eaa9ba9f,5ffd3f5a81fc4f21eaa9ba9f,4,candy,critical,A,25,candy15.jpg,candy35.jpg,low,NULL
1687412115,ea718067054797df029df95f422e0522,PennController,29,0,experiment,NULL,PennController,27,_Trial_,Start,1687412064044,5ffd3f5a81fc4f21eaa9ba9f,5ffd3f5a81fc4f21eaa9ba9f,25,house,filler,A,25,house15.jpg,house35.jpg,GoalA,NULL
1687412115,ea718067054797df029df95f422e0522,PennController,29,0,experiment,NULL,PennController,27,_Header_,Start,1687412064044,5ffd3f5a81fc4f21eaa9ba9f,5ffd3f5a81fc4f21eaa9ba9f,25,house,filler,A,25,house15.jpg,house35.jpg,GoalA,NULL
1687412115,ea718067054797df029df95f422e0522,PennController,29,0,experiment,NULL,PennController,27,_Header_,End,1687412064044,5ffd3f5a81fc4f21eaa9ba9f,5ffd3f5a81fc4f21eaa9ba9f,25,house,filler,A,25,house15.jpg,house35.jpg,GoalA,NULL
1687412115,ea718067054797df029df95f422e0522,PennController,29,0,experiment,NULL,Canvas,canvas6,Print,NA,1687412069753,5ffd3f5a81fc4f21eaa9ba9f,5ffd3f5a81fc4f21eaa9ba9f,25,house,filler,A,25,house15.jpg,house35.jpg,GoalA,NULL
1687412115,ea718067054797df029df95f422e0522,PennController,29,0,experiment,NULL,Video,progression,buffer,0.001183,1687412067557,5ffd3f5a81fc4f21eaa9ba9f,5ffd3f5a81fc4f21eaa9ba9f,25,house,filler,A,25,house15.jpg,house35.jpg,GoalA,NULL
1687412115,ea718067054797df029df95f422e0522,PennController,29,0,experiment,NULL,Selector,choice,Selection,option2,1687412070621,5ffd3f5a81fc4f21eaa9ba9f,5ffd3f5a81fc4f21eaa9ba9f,25,house,filler,A,25,house15.jpg,house35.jpg,GoalA,option1;option2
1687412115,ea718067054797df029df95f422e0522,PennController,29,0,experiment,NULL,PennController,27,_Trial_,End,1687412070622,5ffd3f5a81fc4f21eaa9ba9f,5ffd3f5a81fc4f21eaa9ba9f,25,house,filler,A,25,house15.jpg,house35.jpg,GoalA,NULL
1687412115,ea718067054797df029df95f422e0522,PennController,14,0,experiment,NULL,PennController,12,_Trial_,Start,1687412070622,5ffd3f5a81fc4f21eaa9ba9f,5ffd3f5a81fc4f21eaa9ba9f,10,train,critical,A,25,train15.jpg,train35.jpg,low,NULL
1687412115,ea718067054797df029df95f422e0522,PennController,14,0,experiment,NULL,PennController,12,_Header_,Start,1687412070622,5ffd3f5a81fc4f21eaa9ba9f,5ffd3f5a81fc4f21eaa9ba9f,10,train,critical,A,25,train15.jpg,train35.jpg,low,NULL
1687412115,ea718067054797df029df95f422e0522,PennController,14,0,experiment,NULL,PennController,12,_Header_,End,1687412070622,5ffd3f5a81fc4f21eaa9ba9f,5ffd3f5a81fc4f21eaa9ba9f,10,train,critical,A,25,train15.jpg,train35.jpg,low,NULL
1687412115,ea718067054797df029df95f422e0522,PennController,14,0,experiment,NULL,Canvas,canvas6,Print,NA,1687412076329,5ffd3f5a81fc4f21eaa9ba9f,5ffd3f5a81fc4f21eaa9ba9f,10,train,critical,A,25,train15.jpg,train35.jpg,low,NULL
1687412115,ea718067054797df029df95f422e0522,PennController,14,0,experiment,NULL,Video,progression,buffer,0.001182,1687412074139,5ffd3f5a81fc4f21eaa9ba9f,5ffd3f5a81fc4f21eaa9ba9f,10,train,critical,A,25,train15.jpg,train35.jpg,low,NULL
1687412115,ea718067054797df029df95f422e0522,PennController,14,0,experiment,NULL,Selector,choice,Selection,option1,1687412078844,5ffd3f5a81fc4f21eaa9ba9f,5ffd3f5a81fc4f21eaa9ba9f,10,train,critical,A,25,train15.jpg,train35.jpg,low,option2;option1
1687412115,ea718067054797df029df95f422e0522,PennController,14,0,experiment,NULL,PennController,12,_Trial_,End,1687412078845,5ffd3f5a81fc4f21eaa9ba9f,5ffd3f5a81fc4f21eaa9ba9f,10,train,critical,A,25,train15.jpg,train35.jpg,low,NULL
1687412115,ea718067054797df029df95f422e0522,PennController,18,0,experiment,NULL,PennController,16,_Trial_,Start,1687412078846,5ffd3f5a81fc4f21eaa9ba9f,5ffd3f5a81fc4f21eaa9ba9f,14,cover,critical,A,50,cover42.jpg,cover60.jpg,low,NULL
1687412115,ea718067054797df029df95f422e0522,PennController,18,0,experiment,NULL,PennController,16,_Header_,Start,1687412078846,5ffd3f5a81fc4f21eaa9ba9f,5ffd3f5a81fc4f21eaa9ba9f,14,cover,critical,A,50,cover42.jpg,cover60.jpg,low,NULL
1687412115,ea718067054797df029df95f422e0522,PennController,18,0,experiment,NULL,PennController,16,_Header_,End,1687412078846,5ffd3f5a81fc4f21eaa9ba9f,5ffd3f5a81fc4f21eaa9ba9f,14,cover,critical,A,50,cover42.jpg,cover60.jpg,low,NULL
1687412115,ea718067054797df029df95f422e0522,PennController,18,0,experiment,NULL,Canvas,canvas6,Print,NA,1687412086951,5ffd3f5a81fc4f21eaa9ba9f,5ffd3f5a81fc4f21eaa9ba9f,14,cover,critical,A,50,cover42.jpg,cover60.jpg,low,NULL
1687412115,ea718067054797df029df95f422e0522,PennController,18,0,experiment,NULL,Video,progression,buffer,0.001115,1687412082360,5ffd3f5a81fc4f21eaa9ba9f,5ffd3f5a81fc4f21eaa9ba9f,14,cover,critical,A,50,cover42.jpg,cover60.jpg,low,NULL
1687412115,ea718067054797df029df95f422e0522,PennController,18,0,experiment,NULL,Selector,choice,Selection,option1,1687412088490,5ffd3f5a81fc4f21eaa9ba9f,5ffd3f5a81fc4f21eaa9ba9f,14,cover,critical,A,50,cover42.jpg,cover60.jpg,low,option1;option2
1687412115,ea718067054797df029df95f422e0522,PennController,18,0,experiment,NULL,PennController,16,_Trial_,End,1687412088490,5ffd3f5a81fc4f21eaa9ba9f,5ffd3f5a81fc4f21eaa9ba9f,14,cover,critical,A,50,cover42.jpg,cover60.jpg,low,NULL
1687412115,ea718067054797df029df95f422e0522,PennController,15,0,experiment,NULL,PennController,13,_Trial_,Start,1687412088491,5ffd3f5a81fc4f21eaa9ba9f,5ffd3f5a81fc4f21eaa9ba9f,11,beads,critical,A,50,beads40.jpg,beads60.jpg,low,NULL
1687412115,ea718067054797df029df95f422e0522,PennController,15,0,experiment,NULL,PennController,13,_Header_,Start,1687412088491,5ffd3f5a81fc4f21eaa9ba9f,5ffd3f5a81fc4f21eaa9ba9f,11,beads,critical,A,50,beads40.jpg,beads60.jpg,low,NULL
1687412115,ea718067054797df029df95f422e0522,PennController,15,0,experiment,NULL,PennController,13,_Header_,End,1687412088491,5ffd3f5a81fc4f21eaa9ba9f,5ffd3f5a81fc4f21eaa9ba9f,11,beads,critical,A,50,beads40.jpg,beads60.jpg,low,NULL
1687412115,ea718067054797df029df95f422e0522,PennController,15,0,experiment,NULL,Canvas,canvas6,Print,NA,1687412095200,5ffd3f5a81fc4f21eaa9ba9f,5ffd3f5a81fc4f21eaa9ba9f,11,beads,critical,A,50,beads40.jpg,beads60.jpg,low,NULL
1687412115,ea718067054797df029df95f422e0522,PennController,15,0,experiment,NULL,Video,progression,buffer,0.001317,1687412092005,5ffd3f5a81fc4f21eaa9ba9f,5ffd3f5a81fc4f21eaa9ba9f,11,beads,critical,A,50,beads40.jpg,beads60.jpg,low,NULL
1687412115,ea718067054797df029df95f422e0522,PennController,15,0,experiment,NULL,Selector,choice,Selection,option2,1687412096530,5ffd3f5a81fc4f21eaa9ba9f,5ffd3f5a81fc4f21eaa9ba9f,11,beads,critical,A,50,beads40.jpg,beads60.jpg,low,option1;option2
1687412115,ea718067054797df029df95f422e0522,PennController,15,0,experiment,NULL,PennController,13,_Trial_,End,1687412096531,5ffd3f5a81fc4f21eaa9ba9f,5ffd3f5a81fc4f21eaa9ba9f,11,beads,critical,A,50,beads40.jpg,beads60.jpg,low,NULL
1687412115,ea718067054797df029df95f422e0522,PennController,25,0,experiment,NULL,PennController,23,_Trial_,Start,1687412096531,5ffd3f5a81fc4f21eaa9ba9f,5ffd3f5a81fc4f21eaa9ba9f,21,visit,filler,A,75,visit65.jpg,visit85.jpg,GoalA,NULL
1687412115,ea718067054797df029df95f422e0522,PennController,25,0,experiment,NULL,PennController,23,_Header_,Start,1687412096531,5ffd3f5a81fc4f21eaa9ba9f,5ffd3f5a81fc4f21eaa9ba9f,21,visit,filler,A,75,visit65.jpg,visit85.jpg,GoalA,NULL
1687412115,ea718067054797df029df95f422e0522,PennController,25,0,experiment,NULL,PennController,23,_Header_,End,1687412096531,5ffd3f5a81fc4f21eaa9ba9f,5ffd3f5a81fc4f21eaa9ba9f,21,visit,filler,A,75,visit65.jpg,visit85.jpg,GoalA,NULL
1687412115,ea718067054797df029df95f422e0522,PennController,25,0,experiment,NULL,Canvas,canvas6,Print,NA,1687412104236,5ffd3f5a81fc4f21eaa9ba9f,5ffd3f5a81fc4f21eaa9ba9f,21,visit,filler,A,75,visit65.jpg,visit85.jpg,GoalA,NULL
1687412115,ea718067054797df029df95f422e0522,PennController,25,0,experiment,NULL,Video,progression,buffer,0.001094,1687412100044,5ffd3f5a81fc4f21eaa9ba9f,5ffd3f5a81fc4f21eaa9ba9f,21,visit,filler,A,75,visit65.jpg,visit85.jpg,GoalA,NULL
1687412115,ea718067054797df029df95f422e0522,PennController,25,0,experiment,NULL,Selector,choice,Selection,option2,1687412105640,5ffd3f5a81fc4f21eaa9ba9f,5ffd3f5a81fc4f21eaa9ba9f,21,visit,filler,A,75,visit65.jpg,visit85.jpg,GoalA,option2;option1
1687412115,ea718067054797df029df95f422e0522,PennController,25,0,experiment,NULL,PennController,23,_Trial_,End,1687412105641,5ffd3f5a81fc4f21eaa9ba9f,5ffd3f5a81fc4f21eaa9ba9f,21,visit,filler,A,75,visit65.jpg,visit85.jpg,GoalA,NULL
1687412115,ea718067054797df029df95f422e0522,PennController,7,0,experiment,NULL,PennController,5,_Trial_,Start,1687412105641,5ffd3f5a81fc4f21eaa9ba9f,5ffd3f5a81fc4f21eaa9ba9f,3,clean,critical,A,75,clean65.jpg,clean85.jpg,low,NULL
1687412115,ea718067054797df029df95f422e0522,PennController,7,0,experiment,NULL,PennController,5,_Header_,Start,1687412105641,5ffd3f5a81fc4f21eaa9ba9f,5ffd3f5a81fc4f21eaa9ba9f,3,clean,critical,A,75,clean65.jpg,clean85.jpg,low,NULL
1687412115,ea718067054797df029df95f422e0522,PennController,7,0,experiment,NULL,PennController,5,_Header_,End,1687412105641,5ffd3f5a81fc4f21eaa9ba9f,5ffd3f5a81fc4f21eaa9ba9f,3,clean,critical,A,75,clean65.jpg,clean85.jpg,low,NULL
1687412115,ea718067054797df029df95f422e0522,PennController,7,0,experiment,NULL,Canvas,canvas6,Print,NA,1687412113342,5ffd3f5a81fc4f21eaa9ba9f,5ffd3f5a81fc4f21eaa9ba9f,3,clean,critical,A,75,clean65.jpg,clean85.jpg,low,NULL
1687412115,ea718067054797df029df95f422e0522,PennController,7,0,experiment,NULL,Video,progression,buffer,0.001912,1687412109152,5ffd3f5a81fc4f21eaa9ba9f,5ffd3f5a81fc4f21eaa9ba9f,3,clean,critical,A,75,clean65.jpg,clean85.jpg,low,NULL
1687412115,ea718067054797df029df95f422e0522,PennController,7,0,experiment,NULL,Selector,choice,Selection,option1,1687412115002,5ffd3f5a81fc4f21eaa9ba9f,5ffd3f5a81fc4f21eaa9ba9f,3,clean,critical,A,75,clean65.jpg,clean85.jpg,low,option1;option2
1687412115,ea718067054797df029df95f422e0522,PennController,7,0,experiment,NULL,PennController,5,_Trial_,End,1687412115002,5ffd3f5a81fc4f21eaa9ba9f,5ffd3f5a81fc4f21eaa9ba9f,3,clean,critical,A,75,clean65.jpg,clean85.jpg,low,NULL
