#
# Results on Tuesday June 20 2023 18:56:43 UTC
# USER AGENT: Mozilla/5.0 (Windows NT 10.0; Win64; x64) AppleWebKit/537.36 (KHTML, like Gecko) Chrome/114.0.0.0 Safari/537.36
# Design number was non-random = 3
#
# Columns below this comment are as follows:
# 1. Results reception time.
# 2. MD5 hash of participant's IP address.
# 3. Controller name.
# 4. Order number of item.
# 5. Inner element number.
# 6. Label.
# 7. Latin Square Group.
# 8. PennElementType.
# 9. PennElementName.
# 10. Parameter.
# 11. Value.
# 12. EventTime.
# 13. PROLIFIC_ID.
# 14. Comments.
1687287403,9d43c0a7849fa69f641a47702e371d96,PennController,2,0,consent,NULL,PennController,0,_Trial_,Start,1687287096051,5d3b0da8a884020001881773,NULL
1687287403,9d43c0a7849fa69f641a47702e371d96,PennController,2,0,consent,NULL,PennController,0,_Header_,Start,1687287096051,5d3b0da8a884020001881773,NULL
1687287403,9d43c0a7849fa69f641a47702e371d96,PennController,2,0,consent,NULL,PennController,0,_Header_,End,1687287096052,5d3b0da8a884020001881773,NULL
1687287403,9d43c0a7849fa69f641a47702e371d96,PennController,2,0,consent,NULL,PennController,0,_Trial_,End,1687287113600,5d3b0da8a884020001881773,NULL
# Columns below this comment are as follows:
# 14. ID.
# 15. Comments.
1687287403,9d43c0a7849fa69f641a47702e371d96,PennController,3,0,intro,NULL,PennController,1,_Trial_,Start,1687287113602,5d3b0da8a884020001881773,5d3b0da8a884020001881773,NULL
1687287403,9d43c0a7849fa69f641a47702e371d96,PennController,3,0,intro,NULL,PennController,1,_Header_,Start,1687287113602,5d3b0da8a884020001881773,5d3b0da8a884020001881773,NULL
1687287403,9d43c0a7849fa69f641a47702e371d96,PennController,3,0,intro,NULL,PennController,1,_Header_,End,1687287113603,5d3b0da8a884020001881773,5d3b0da8a884020001881773,NULL
1687287403,9d43c0a7849fa69f641a47702e371d96,PennController,3,0,intro,NULL,PennController,1,_Trial_,End,1687287141145,5d3b0da8a884020001881773,5d3b0da8a884020001881773,NULL
# Columns below this comment are as follows:
# 15. item_number.
# 16. item.
# 17. type.
# 18. Group.
# 19. prog.
# 20. prev_image.
# 21. next_image.
# 22. height.
# 23. Comments.
1687287403,9d43c0a7849fa69f641a47702e371d96,PennController,27,0,experiment,NULL,PennController,26,_Trial_,Start,1687287141149,5d3b0da8a884020001881773,5d3b0da8a884020001881773,24,match,filler,D,75,match65.jpg,match85.jpg,GoalA,NULL
1687287403,9d43c0a7849fa69f641a47702e371d96,PennController,27,0,experiment,NULL,PennController,26,_Header_,Start,1687287141149,5d3b0da8a884020001881773,5d3b0da8a884020001881773,24,match,filler,D,75,match65.jpg,match85.jpg,GoalA,NULL
1687287403,9d43c0a7849fa69f641a47702e371d96,PennController,27,0,experiment,NULL,PennController,26,_Header_,End,1687287141149,5d3b0da8a884020001881773,5d3b0da8a884020001881773,24,match,filler,D,75,match65.jpg,match85.jpg,GoalA,NULL
1687287403,9d43c0a7849fa69f641a47702e371d96,PennController,27,0,experiment,NULL,Canvas,canvas6,Print,NA,1687287148876,5d3b0da8a884020001881773,5d3b0da8a884020001881773,24,match,filler,D,75,match65.jpg,match85.jpg,GoalA,NULL
1687287403,9d43c0a7849fa69f641a47702e371d96,PennController,27,0,experiment,NULL,Video,progression,buffer,0.00405,1687287144696,5d3b0da8a884020001881773,5d3b0da8a884020001881773,24,match,filler,D,75,match65.jpg,match85.jpg,GoalA,NULL
1687287403,9d43c0a7849fa69f641a47702e371d96,PennController,27,0,experiment,NULL,Selector,choice,Selection,option1,1687287152715,5d3b0da8a884020001881773,5d3b0da8a884020001881773,24,match,filler,D,75,match65.jpg,match85.jpg,GoalA,option1;option2
1687287403,9d43c0a7849fa69f641a47702e371d96,PennController,27,0,experiment,NULL,PennController,26,_Trial_,End,1687287152717,5d3b0da8a884020001881773,5d3b0da8a884020001881773,24,match,filler,D,75,match65.jpg,match85.jpg,GoalA,NULL
1687287403,9d43c0a7849fa69f641a47702e371d96,PennController,24,0,experiment,NULL,PennController,23,_Trial_,Start,1687287152719,5d3b0da8a884020001881773,5d3b0da8a884020001881773,21,visit,filler,D,75,visit65.jpg,visit85.jpg,GoalB,NULL
1687287403,9d43c0a7849fa69f641a47702e371d96,PennController,24,0,experiment,NULL,PennController,23,_Header_,Start,1687287152719,5d3b0da8a884020001881773,5d3b0da8a884020001881773,21,visit,filler,D,75,visit65.jpg,visit85.jpg,GoalB,NULL
1687287403,9d43c0a7849fa69f641a47702e371d96,PennController,24,0,experiment,NULL,PennController,23,_Header_,End,1687287152719,5d3b0da8a884020001881773,5d3b0da8a884020001881773,21,visit,filler,D,75,visit65.jpg,visit85.jpg,GoalB,NULL
1687287403,9d43c0a7849fa69f641a47702e371d96,PennController,24,0,experiment,NULL,Canvas,canvas6,Print,NA,1687287160434,5d3b0da8a884020001881773,5d3b0da8a884020001881773,21,visit,filler,D,75,visit65.jpg,visit85.jpg,GoalB,NULL
1687287403,9d43c0a7849fa69f641a47702e371d96,PennController,24,0,experiment,NULL,Video,progression,buffer,0.0074,1687287156258,5d3b0da8a884020001881773,5d3b0da8a884020001881773,21,visit,filler,D,75,visit65.jpg,visit85.jpg,GoalB,NULL
1687287403,9d43c0a7849fa69f641a47702e371d96,PennController,24,0,experiment,NULL,Selector,choice,Selection,option2,1687287162347,5d3b0da8a884020001881773,5d3b0da8a884020001881773,21,visit,filler,D,75,visit65.jpg,visit85.jpg,GoalB,option1;option2
1687287403,9d43c0a7849fa69f641a47702e371d96,PennController,24,0,experiment,NULL,PennController,23,_Trial_,End,1687287162349,5d3b0da8a884020001881773,5d3b0da8a884020001881773,21,visit,filler,D,75,visit65.jpg,visit85.jpg,GoalB,NULL
1687287403,9d43c0a7849fa69f641a47702e371d96,PennController,23,0,experiment,NULL,PennController,22,_Trial_,Start,1687287162350,5d3b0da8a884020001881773,5d3b0da8a884020001881773,20,cat,filler,D,50,cat40.jpg,cat60.jpg,GoalA,NULL
1687287403,9d43c0a7849fa69f641a47702e371d96,PennController,23,0,experiment,NULL,PennController,22,_Header_,Start,1687287162350,5d3b0da8a884020001881773,5d3b0da8a884020001881773,20,cat,filler,D,50,cat40.jpg,cat60.jpg,GoalA,NULL
1687287403,9d43c0a7849fa69f641a47702e371d96,PennController,23,0,experiment,NULL,PennController,22,_Header_,End,1687287162351,5d3b0da8a884020001881773,5d3b0da8a884020001881773,20,cat,filler,D,50,cat40.jpg,cat60.jpg,GoalA,NULL
1687287403,9d43c0a7849fa69f641a47702e371d96,PennController,23,0,experiment,NULL,Canvas,canvas6,Print,NA,1687287169048,5d3b0da8a884020001881773,5d3b0da8a884020001881773,20,cat,filler,D,50,cat40.jpg,cat60.jpg,GoalA,NULL
1687287403,9d43c0a7849fa69f641a47702e371d96,PennController,23,0,experiment,NULL,Video,progression,buffer,0.003639,1687287165882,5d3b0da8a884020001881773,5d3b0da8a884020001881773,20,cat,filler,D,50,cat40.jpg,cat60.jpg,GoalA,NULL
1687287403,9d43c0a7849fa69f641a47702e371d96,PennController,23,0,experiment,NULL,Selector,choice,Selection,option2,1687287170339,5d3b0da8a884020001881773,5d3b0da8a884020001881773,20,cat,filler,D,50,cat40.jpg,cat60.jpg,GoalA,option1;option2
1687287403,9d43c0a7849fa69f641a47702e371d96,PennController,23,0,experiment,NULL,PennController,22,_Trial_,End,1687287170340,5d3b0da8a884020001881773,5d3b0da8a884020001881773,20,cat,filler,D,50,cat40.jpg,cat60.jpg,GoalA,NULL
1687287403,9d43c0a7849fa69f641a47702e371d96,PennController,14,0,experiment,NULL,PennController,13,_Trial_,Start,1687287170341,5d3b0da8a884020001881773,5d3b0da8a884020001881773,11,beads,critical,D,50,beads40.jpg,beads60.jpg,high,NULL
1687287403,9d43c0a7849fa69f641a47702e371d96,PennController,14,0,experiment,NULL,PennController,13,_Header_,Start,1687287170341,5d3b0da8a884020001881773,5d3b0da8a884020001881773,11,beads,critical,D,50,beads40.jpg,beads60.jpg,high,NULL
1687287403,9d43c0a7849fa69f641a47702e371d96,PennController,14,0,experiment,NULL,PennController,13,_Header_,End,1687287170342,5d3b0da8a884020001881773,5d3b0da8a884020001881773,11,beads,critical,D,50,beads40.jpg,beads60.jpg,high,NULL
1687287403,9d43c0a7849fa69f641a47702e371d96,PennController,14,0,experiment,NULL,Canvas,canvas6,Print,NA,1687287177063,5d3b0da8a884020001881773,5d3b0da8a884020001881773,11,beads,critical,D,50,beads40.jpg,beads60.jpg,high,NULL
1687287403,9d43c0a7849fa69f641a47702e371d96,PennController,14,0,experiment,NULL,Video,progression,buffer,0.009051,1687287173887,5d3b0da8a884020001881773,5d3b0da8a884020001881773,11,beads,critical,D,50,beads40.jpg,beads60.jpg,high,NULL
1687287403,9d43c0a7849fa69f641a47702e371d96,PennController,14,0,experiment,NULL,Selector,choice,Selection,option2,1687287182175,5d3b0da8a884020001881773,5d3b0da8a884020001881773,11,beads,critical,D,50,beads40.jpg,beads60.jpg,high,option1;option2
1687287403,9d43c0a7849fa69f641a47702e371d96,PennController,14,0,experiment,NULL,PennController,13,_Trial_,End,1687287182177,5d3b0da8a884020001881773,5d3b0da8a884020001881773,11,beads,critical,D,50,beads40.jpg,beads60.jpg,high,NULL
1687287403,9d43c0a7849fa69f641a47702e371d96,PennController,6,0,experiment,NULL,PennController,5,_Trial_,Start,1687287182178,5d3b0da8a884020001881773,5d3b0da8a884020001881773,3,clean,critical,D,75,clean65.jpg,clean85.jpg,high,NULL
1687287403,9d43c0a7849fa69f641a47702e371d96,PennController,6,0,experiment,NULL,PennController,5,_Header_,Start,1687287182178,5d3b0da8a884020001881773,5d3b0da8a884020001881773,3,clean,critical,D,75,clean65.jpg,clean85.jpg,high,NULL
1687287403,9d43c0a7849fa69f641a47702e371d96,PennController,6,0,experiment,NULL,PennController,5,_Header_,End,1687287182178,5d3b0da8a884020001881773,5d3b0da8a884020001881773,3,clean,critical,D,75,clean65.jpg,clean85.jpg,high,NULL
1687287403,9d43c0a7849fa69f641a47702e371d96,PennController,6,0,experiment,NULL,Canvas,canvas6,Print,NA,1687287189879,5d3b0da8a884020001881773,5d3b0da8a884020001881773,3,clean,critical,D,75,clean65.jpg,clean85.jpg,high,NULL
1687287403,9d43c0a7849fa69f641a47702e371d96,PennController,6,0,experiment,NULL,Video,progression,buffer,0.003319,1687287185710,5d3b0da8a884020001881773,5d3b0da8a884020001881773,3,clean,critical,D,75,clean65.jpg,clean85.jpg,high,NULL
1687287403,9d43c0a7849fa69f641a47702e371d96,PennController,6,0,experiment,NULL,Selector,choice,Selection,option1,1687287191204,5d3b0da8a884020001881773,5d3b0da8a884020001881773,3,clean,critical,D,75,clean65.jpg,clean85.jpg,high,option1;option2
1687287403,9d43c0a7849fa69f641a47702e371d96,PennController,6,0,experiment,NULL,PennController,5,_Trial_,End,1687287191205,5d3b0da8a884020001881773,5d3b0da8a884020001881773,3,clean,critical,D,75,clean65.jpg,clean85.jpg,high,NULL
1687287403,9d43c0a7849fa69f641a47702e371d96,PennController,10,0,experiment,NULL,PennController,9,_Trial_,Start,1687287191206,5d3b0da8a884020001881773,5d3b0da8a884020001881773,7,stack,critical,D,25,stack15.jpg,stack35.jpg,high,NULL
1687287403,9d43c0a7849fa69f641a47702e371d96,PennController,10,0,experiment,NULL,PennController,9,_Header_,Start,1687287191206,5d3b0da8a884020001881773,5d3b0da8a884020001881773,7,stack,critical,D,25,stack15.jpg,stack35.jpg,high,NULL
1687287403,9d43c0a7849fa69f641a47702e371d96,PennController,10,0,experiment,NULL,PennController,9,_Header_,End,1687287191206,5d3b0da8a884020001881773,5d3b0da8a884020001881773,7,stack,critical,D,25,stack15.jpg,stack35.jpg,high,NULL
1687287403,9d43c0a7849fa69f641a47702e371d96,PennController,10,0,experiment,NULL,Canvas,canvas6,Print,NA,1687287196912,5d3b0da8a884020001881773,5d3b0da8a884020001881773,7,stack,critical,D,25,stack15.jpg,stack35.jpg,high,NULL
1687287403,9d43c0a7849fa69f641a47702e371d96,PennController,10,0,experiment,NULL,Video,progression,buffer,0.003235,1687287194741,5d3b0da8a884020001881773,5d3b0da8a884020001881773,7,stack,critical,D,25,stack15.jpg,stack35.jpg,high,NULL
1687287403,9d43c0a7849fa69f641a47702e371d96,PennController,10,0,experiment,NULL,Selector,choice,Selection,option1,1687287199283,5d3b0da8a884020001881773,5d3b0da8a884020001881773,7,stack,critical,D,25,stack15.jpg,stack35.jpg,high,option2;option1
1687287403,9d43c0a7849fa69f641a47702e371d96,PennController,10,0,experiment,NULL,PennController,9,_Trial_,End,1687287199285,5d3b0da8a884020001881773,5d3b0da8a884020001881773,7,stack,critical,D,25,stack15.jpg,stack35.jpg,high,NULL
1687287403,9d43c0a7849fa69f641a47702e371d96,PennController,18,0,experiment,NULL,PennController,17,_Trial_,Start,1687287199287,5d3b0da8a884020001881773,5d3b0da8a884020001881773,15,zip,critical,D,75,zip65.jpg,zip85.jpg,high,NULL
1687287403,9d43c0a7849fa69f641a47702e371d96,PennController,18,0,experiment,NULL,PennController,17,_Header_,Start,1687287199287,5d3b0da8a884020001881773,5d3b0da8a884020001881773,15,zip,critical,D,75,zip65.jpg,zip85.jpg,high,NULL
1687287403,9d43c0a7849fa69f641a47702e371d96,PennController,18,0,experiment,NULL,PennController,17,_Header_,End,1687287199287,5d3b0da8a884020001881773,5d3b0da8a884020001881773,15,zip,critical,D,75,zip65.jpg,zip85.jpg,high,NULL
1687287403,9d43c0a7849fa69f641a47702e371d96,PennController,18,0,experiment,NULL,Canvas,canvas6,Print,NA,1687287206194,5d3b0da8a884020001881773,5d3b0da8a884020001881773,15,zip,critical,D,75,zip65.jpg,zip85.jpg,high,NULL
1687287403,9d43c0a7849fa69f641a47702e371d96,PennController,18,0,experiment,NULL,Video,progression,buffer,0.003403,1687287202815,5d3b0da8a884020001881773,5d3b0da8a884020001881773,15,zip,critical,D,75,zip65.jpg,zip85.jpg,high,NULL
1687287403,9d43c0a7849fa69f641a47702e371d96,PennController,18,0,experiment,NULL,Selector,choice,Selection,option2,1687287210259,5d3b0da8a884020001881773,5d3b0da8a884020001881773,15,zip,critical,D,75,zip65.jpg,zip85.jpg,high,option1;option2
1687287403,9d43c0a7849fa69f641a47702e371d96,PennController,18,0,experiment,NULL,PennController,17,_Trial_,End,1687287210261,5d3b0da8a884020001881773,5d3b0da8a884020001881773,15,zip,critical,D,75,zip65.jpg,zip85.jpg,high,NULL
1687287403,9d43c0a7849fa69f641a47702e371d96,PennController,29,0,experiment,NULL,PennController,28,_Trial_,Start,1687287210262,5d3b0da8a884020001881773,5d3b0da8a884020001881773,26,sandwich,filler,D,50,sandwich40.jpg,sandwich60.jpg,GoalA,NULL
1687287403,9d43c0a7849fa69f641a47702e371d96,PennController,29,0,experiment,NULL,PennController,28,_Header_,Start,1687287210262,5d3b0da8a884020001881773,5d3b0da8a884020001881773,26,sandwich,filler,D,50,sandwich40.jpg,sandwich60.jpg,GoalA,NULL
1687287403,9d43c0a7849fa69f641a47702e371d96,PennController,29,0,experiment,NULL,PennController,28,_Header_,End,1687287210262,5d3b0da8a884020001881773,5d3b0da8a884020001881773,26,sandwich,filler,D,50,sandwich40.jpg,sandwich60.jpg,GoalA,NULL
1687287403,9d43c0a7849fa69f641a47702e371d96,PennController,29,0,experiment,NULL,Canvas,canvas6,Print,NA,1687287216975,5d3b0da8a884020001881773,5d3b0da8a884020001881773,26,sandwich,filler,D,50,sandwich40.jpg,sandwich60.jpg,GoalA,NULL
1687287403,9d43c0a7849fa69f641a47702e371d96,PennController,29,0,experiment,NULL,Video,progression,buffer,0.003276,1687287213796,5d3b0da8a884020001881773,5d3b0da8a884020001881773,26,sandwich,filler,D,50,sandwich40.jpg,sandwich60.jpg,GoalA,NULL
1687287403,9d43c0a7849fa69f641a47702e371d96,PennController,29,0,experiment,NULL,Selector,choice,Selection,option1,1687287218047,5d3b0da8a884020001881773,5d3b0da8a884020001881773,26,sandwich,filler,D,50,sandwich40.jpg,sandwich60.jpg,GoalA,option2;option1
1687287403,9d43c0a7849fa69f641a47702e371d96,PennController,29,0,experiment,NULL,PennController,28,_Trial_,End,1687287218048,5d3b0da8a884020001881773,5d3b0da8a884020001881773,26,sandwich,filler,D,50,sandwich40.jpg,sandwich60.jpg,GoalA,NULL
1687287403,9d43c0a7849fa69f641a47702e371d96,PennController,31,0,experiment,NULL,PennController,30,_Trial_,Start,1687287218049,5d3b0da8a884020001881773,5d3b0da8a884020001881773,28,sort,filler,D,25,sort15.jpg,sort35.jpg,GoalA,NULL
1687287403,9d43c0a7849fa69f641a47702e371d96,PennController,31,0,experiment,NULL,PennController,30,_Header_,Start,1687287218049,5d3b0da8a884020001881773,5d3b0da8a884020001881773,28,sort,filler,D,25,sort15.jpg,sort35.jpg,GoalA,NULL
1687287403,9d43c0a7849fa69f641a47702e371d96,PennController,31,0,experiment,NULL,PennController,30,_Header_,End,1687287218050,5d3b0da8a884020001881773,5d3b0da8a884020001881773,28,sort,filler,D,25,sort15.jpg,sort35.jpg,GoalA,NULL
1687287403,9d43c0a7849fa69f641a47702e371d96,PennController,31,0,experiment,NULL,Canvas,canvas6,Print,NA,1687287223755,5d3b0da8a884020001881773,5d3b0da8a884020001881773,28,sort,filler,D,25,sort15.jpg,sort35.jpg,GoalA,NULL
1687287403,9d43c0a7849fa69f641a47702e371d96,PennController,31,0,experiment,NULL,Video,progression,buffer,0.006634,1687287221587,5d3b0da8a884020001881773,5d3b0da8a884020001881773,28,sort,filler,D,25,sort15.jpg,sort35.jpg,GoalA,NULL
1687287403,9d43c0a7849fa69f641a47702e371d96,PennController,31,0,experiment,NULL,Selector,choice,Selection,option2,1687287226163,5d3b0da8a884020001881773,5d3b0da8a884020001881773,28,sort,filler,D,25,sort15.jpg,sort35.jpg,GoalA,option2;option1
1687287403,9d43c0a7849fa69f641a47702e371d96,PennController,31,0,experiment,NULL,PennController,30,_Trial_,End,1687287226164,5d3b0da8a884020001881773,5d3b0da8a884020001881773,28,sort,filler,D,25,sort15.jpg,sort35.jpg,GoalA,NULL
1687287403,9d43c0a7849fa69f641a47702e371d96,PennController,17,0,experiment,NULL,PennController,16,_Trial_,Start,1687287226165,5d3b0da8a884020001881773,5d3b0da8a884020001881773,14,cover,critical,D,50,cover42.jpg,cover60.jpg,high,NULL
1687287403,9d43c0a7849fa69f641a47702e371d96,PennController,17,0,experiment,NULL,PennController,16,_Header_,Start,1687287226165,5d3b0da8a884020001881773,5d3b0da8a884020001881773,14,cover,critical,D,50,cover42.jpg,cover60.jpg,high,NULL
1687287403,9d43c0a7849fa69f641a47702e371d96,PennController,17,0,experiment,NULL,PennController,16,_Header_,End,1687287226166,5d3b0da8a884020001881773,5d3b0da8a884020001881773,14,cover,critical,D,50,cover42.jpg,cover60.jpg,high,NULL
1687287403,9d43c0a7849fa69f641a47702e371d96,PennController,17,0,experiment,NULL,Canvas,canvas6,Print,NA,1687287234264,5d3b0da8a884020001881773,5d3b0da8a884020001881773,14,cover,critical,D,50,cover42.jpg,cover60.jpg,high,NULL
1687287403,9d43c0a7849fa69f641a47702e371d96,PennController,17,0,experiment,NULL,Video,progression,buffer,0.003847,1687287229701,5d3b0da8a884020001881773,5d3b0da8a884020001881773,14,cover,critical,D,50,cover42.jpg,cover60.jpg,high,NULL
1687287403,9d43c0a7849fa69f641a47702e371d96,PennController,17,0,experiment,NULL,Selector,choice,Selection,option1,1687287236443,5d3b0da8a884020001881773,5d3b0da8a884020001881773,14,cover,critical,D,50,cover42.jpg,cover60.jpg,high,option1;option2
1687287403,9d43c0a7849fa69f641a47702e371d96,PennController,17,0,experiment,NULL,PennController,16,_Trial_,End,1687287236445,5d3b0da8a884020001881773,5d3b0da8a884020001881773,14,cover,critical,D,50,cover42.jpg,cover60.jpg,high,NULL
1687287403,9d43c0a7849fa69f641a47702e371d96,PennController,4,0,experiment,NULL,PennController,3,_Trial_,Start,1687287236445,5d3b0da8a884020001881773,5d3b0da8a884020001881773,1,vase,critical,D,25,vase15.jpg,vase35.jpg,high,NULL
1687287403,9d43c0a7849fa69f641a47702e371d96,PennController,4,0,experiment,NULL,PennController,3,_Header_,Start,1687287236445,5d3b0da8a884020001881773,5d3b0da8a884020001881773,1,vase,critical,D,25,vase15.jpg,vase35.jpg,high,NULL
1687287403,9d43c0a7849fa69f641a47702e371d96,PennController,4,0,experiment,NULL,PennController,3,_Header_,End,1687287236446,5d3b0da8a884020001881773,5d3b0da8a884020001881773,1,vase,critical,D,25,vase15.jpg,vase35.jpg,high,NULL
1687287403,9d43c0a7849fa69f641a47702e371d96,PennController,4,0,experiment,NULL,Canvas,canvas6,Print,NA,1687287242143,5d3b0da8a884020001881773,5d3b0da8a884020001881773,1,vase,critical,D,25,vase15.jpg,vase35.jpg,high,NULL
1687287403,9d43c0a7849fa69f641a47702e371d96,PennController,4,0,experiment,NULL,Video,progression,buffer,0.002616,1687287239980,5d3b0da8a884020001881773,5d3b0da8a884020001881773,1,vase,critical,D,25,vase15.jpg,vase35.jpg,high,NULL
1687287403,9d43c0a7849fa69f641a47702e371d96,PennController,4,0,experiment,NULL,Selector,choice,Selection,option2,1687287243311,5d3b0da8a884020001881773,5d3b0da8a884020001881773,1,vase,critical,D,25,vase15.jpg,vase35.jpg,high,option2;option1
1687287403,9d43c0a7849fa69f641a47702e371d96,PennController,4,0,experiment,NULL,PennController,3,_Trial_,End,1687287243313,5d3b0da8a884020001881773,5d3b0da8a884020001881773,1,vase,critical,D,25,vase15.jpg,vase35.jpg,high,NULL
1687287403,9d43c0a7849fa69f641a47702e371d96,PennController,20,0,experiment,NULL,PennController,19,_Trial_,Start,1687287243314,5d3b0da8a884020001881773,5d3b0da8a884020001881773,17,roll,critical,D,50,roll40.jpg,roll60.jpg,high,NULL
1687287403,9d43c0a7849fa69f641a47702e371d96,PennController,20,0,experiment,NULL,PennController,19,_Header_,Start,1687287243314,5d3b0da8a884020001881773,5d3b0da8a884020001881773,17,roll,critical,D,50,roll40.jpg,roll60.jpg,high,NULL
1687287403,9d43c0a7849fa69f641a47702e371d96,PennController,20,0,experiment,NULL,PennController,19,_Header_,End,1687287243314,5d3b0da8a884020001881773,5d3b0da8a884020001881773,17,roll,critical,D,50,roll40.jpg,roll60.jpg,high,NULL
1687287403,9d43c0a7849fa69f641a47702e371d96,PennController,20,0,experiment,NULL,Canvas,canvas6,Print,NA,1687287250015,5d3b0da8a884020001881773,5d3b0da8a884020001881773,17,roll,critical,D,50,roll40.jpg,roll60.jpg,high,NULL
1687287403,9d43c0a7849fa69f641a47702e371d96,PennController,20,0,experiment,NULL,Video,progression,buffer,0.006772,1687287246849,5d3b0da8a884020001881773,5d3b0da8a884020001881773,17,roll,critical,D,50,roll40.jpg,roll60.jpg,high,NULL
1687287403,9d43c0a7849fa69f641a47702e371d96,PennController,20,0,experiment,NULL,Selector,choice,Selection,option2,1687287251623,5d3b0da8a884020001881773,5d3b0da8a884020001881773,17,roll,critical,D,50,roll40.jpg,roll60.jpg,high,option2;option1
1687287403,9d43c0a7849fa69f641a47702e371d96,PennController,20,0,experiment,NULL,PennController,19,_Trial_,End,1687287251624,5d3b0da8a884020001881773,5d3b0da8a884020001881773,17,roll,critical,D,50,roll40.jpg,roll60.jpg,high,NULL
1687287403,9d43c0a7849fa69f641a47702e371d96,PennController,9,0,experiment,NULL,PennController,8,_Trial_,Start,1687287251625,5d3b0da8a884020001881773,5d3b0da8a884020001881773,6,flower,critical,D,75,flower65.jpg,flower85.jpg,high,NULL
1687287403,9d43c0a7849fa69f641a47702e371d96,PennController,9,0,experiment,NULL,PennController,8,_Header_,Start,1687287251625,5d3b0da8a884020001881773,5d3b0da8a884020001881773,6,flower,critical,D,75,flower65.jpg,flower85.jpg,high,NULL
1687287403,9d43c0a7849fa69f641a47702e371d96,PennController,9,0,experiment,NULL,PennController,8,_Header_,End,1687287251625,5d3b0da8a884020001881773,5d3b0da8a884020001881773,6,flower,critical,D,75,flower65.jpg,flower85.jpg,high,NULL
1687287403,9d43c0a7849fa69f641a47702e371d96,PennController,9,0,experiment,NULL,Canvas,canvas6,Print,NA,1687287259332,5d3b0da8a884020001881773,5d3b0da8a884020001881773,6,flower,critical,D,75,flower65.jpg,flower85.jpg,high,NULL
1687287403,9d43c0a7849fa69f641a47702e371d96,PennController,9,0,experiment,NULL,Video,progression,buffer,0.008479,1687287255161,5d3b0da8a884020001881773,5d3b0da8a884020001881773,6,flower,critical,D,75,flower65.jpg,flower85.jpg,high,NULL
1687287403,9d43c0a7849fa69f641a47702e371d96,PennController,9,0,experiment,NULL,Selector,choice,Selection,option1,1687287260867,5d3b0da8a884020001881773,5d3b0da8a884020001881773,6,flower,critical,D,75,flower65.jpg,flower85.jpg,high,option1;option2
1687287403,9d43c0a7849fa69f641a47702e371d96,PennController,9,0,experiment,NULL,PennController,8,_Trial_,End,1687287260869,5d3b0da8a884020001881773,5d3b0da8a884020001881773,6,flower,critical,D,75,flower65.jpg,flower85.jpg,high,NULL
1687287403,9d43c0a7849fa69f641a47702e371d96,PennController,8,0,experiment,NULL,PennController,7,_Trial_,Start,1687287260870,5d3b0da8a884020001881773,5d3b0da8a884020001881773,5,book,critical,D,50,book40.jpg,book60.jpg,high,NULL
1687287403,9d43c0a7849fa69f641a47702e371d96,PennController,8,0,experiment,NULL,PennController,7,_Header_,Start,1687287260870,5d3b0da8a884020001881773,5d3b0da8a884020001881773,5,book,critical,D,50,book40.jpg,book60.jpg,high,NULL
1687287403,9d43c0a7849fa69f641a47702e371d96,PennController,8,0,experiment,NULL,PennController,7,_Header_,End,1687287260870,5d3b0da8a884020001881773,5d3b0da8a884020001881773,5,book,critical,D,50,book40.jpg,book60.jpg,high,NULL
1687287403,9d43c0a7849fa69f641a47702e371d96,PennController,8,0,experiment,NULL,Canvas,canvas6,Print,NA,1687287267579,5d3b0da8a884020001881773,5d3b0da8a884020001881773,5,book,critical,D,50,book40.jpg,book60.jpg,high,NULL
1687287403,9d43c0a7849fa69f641a47702e371d96,PennController,8,0,experiment,NULL,Video,progression,buffer,0.004168,1687287264404,5d3b0da8a884020001881773,5d3b0da8a884020001881773,5,book,critical,D,50,book40.jpg,book60.jpg,high,NULL
1687287403,9d43c0a7849fa69f641a47702e371d96,PennController,8,0,experiment,NULL,Selector,choice,Selection,option2,1687287271623,5d3b0da8a884020001881773,5d3b0da8a884020001881773,5,book,critical,D,50,book40.jpg,book60.jpg,high,option1;option2
1687287403,9d43c0a7849fa69f641a47702e371d96,PennController,8,0,experiment,NULL,PennController,7,_Trial_,End,1687287271625,5d3b0da8a884020001881773,5d3b0da8a884020001881773,5,book,critical,D,50,book40.jpg,book60.jpg,high,NULL
1687287403,9d43c0a7849fa69f641a47702e371d96,PennController,30,0,experiment,NULL,PennController,29,_Trial_,Start,1687287271626,5d3b0da8a884020001881773,5d3b0da8a884020001881773,27,square,filler,D,75,square65.jpg,square85.jpg,GoalB,NULL
1687287403,9d43c0a7849fa69f641a47702e371d96,PennController,30,0,experiment,NULL,PennController,29,_Header_,Start,1687287271626,5d3b0da8a884020001881773,5d3b0da8a884020001881773,27,square,filler,D,75,square65.jpg,square85.jpg,GoalB,NULL
1687287403,9d43c0a7849fa69f641a47702e371d96,PennController,30,0,experiment,NULL,PennController,29,_Header_,End,1687287271627,5d3b0da8a884020001881773,5d3b0da8a884020001881773,27,square,filler,D,75,square65.jpg,square85.jpg,GoalB,NULL
1687287403,9d43c0a7849fa69f641a47702e371d96,PennController,30,0,experiment,NULL,Canvas,canvas6,Print,NA,1687287279330,5d3b0da8a884020001881773,5d3b0da8a884020001881773,27,square,filler,D,75,square65.jpg,square85.jpg,GoalB,NULL
1687287403,9d43c0a7849fa69f641a47702e371d96,PennController,30,0,experiment,NULL,Video,progression,buffer,0.003253,1687287275159,5d3b0da8a884020001881773,5d3b0da8a884020001881773,27,square,filler,D,75,square65.jpg,square85.jpg,GoalB,NULL
1687287403,9d43c0a7849fa69f641a47702e371d96,PennController,30,0,experiment,NULL,Selector,choice,Selection,option2,1687287282395,5d3b0da8a884020001881773,5d3b0da8a884020001881773,27,square,filler,D,75,square65.jpg,square85.jpg,GoalB,option1;option2
1687287403,9d43c0a7849fa69f641a47702e371d96,PennController,30,0,experiment,NULL,PennController,29,_Trial_,End,1687287282397,5d3b0da8a884020001881773,5d3b0da8a884020001881773,27,square,filler,D,75,square65.jpg,square85.jpg,GoalB,NULL
1687287403,9d43c0a7849fa69f641a47702e371d96,PennController,15,0,experiment,NULL,PennController,14,_Trial_,Start,1687287282398,5d3b0da8a884020001881773,5d3b0da8a884020001881773,12,erase,critical,D,75,erase66.jpg,erase84.jpg,high,NULL
1687287403,9d43c0a7849fa69f641a47702e371d96,PennController,15,0,experiment,NULL,PennController,14,_Header_,Start,1687287282398,5d3b0da8a884020001881773,5d3b0da8a884020001881773,12,erase,critical,D,75,erase66.jpg,erase84.jpg,high,NULL
1687287403,9d43c0a7849fa69f641a47702e371d96,PennController,15,0,experiment,NULL,PennController,14,_Header_,End,1687287282398,5d3b0da8a884020001881773,5d3b0da8a884020001881773,12,erase,critical,D,75,erase66.jpg,erase84.jpg,high,NULL
1687287403,9d43c0a7849fa69f641a47702e371d96,PennController,15,0,experiment,NULL,Canvas,canvas6,Print,NA,1687287292111,5d3b0da8a884020001881773,5d3b0da8a884020001881773,12,erase,critical,D,75,erase66.jpg,erase84.jpg,high,NULL
1687287403,9d43c0a7849fa69f641a47702e371d96,PennController,15,0,experiment,NULL,Video,progression,buffer,0.003137,1687287285934,5d3b0da8a884020001881773,5d3b0da8a884020001881773,12,erase,critical,D,75,erase66.jpg,erase84.jpg,high,NULL
1687287403,9d43c0a7849fa69f641a47702e371d96,PennController,15,0,experiment,NULL,Selector,choice,Selection,option2,1687287293531,5d3b0da8a884020001881773,5d3b0da8a884020001881773,12,erase,critical,D,75,erase66.jpg,erase84.jpg,high,option1;option2
1687287403,9d43c0a7849fa69f641a47702e371d96,PennController,15,0,experiment,NULL,PennController,14,_Trial_,End,1687287293532,5d3b0da8a884020001881773,5d3b0da8a884020001881773,12,erase,critical,D,75,erase66.jpg,erase84.jpg,high,NULL
1687287403,9d43c0a7849fa69f641a47702e371d96,PennController,32,0,experiment,NULL,PennController,31,_Trial_,Start,1687287293533,5d3b0da8a884020001881773,5d3b0da8a884020001881773,29,frog,filler,D,50,frog40.jpg,frog60.jpg,GoalB,NULL
1687287403,9d43c0a7849fa69f641a47702e371d96,PennController,32,0,experiment,NULL,PennController,31,_Header_,Start,1687287293533,5d3b0da8a884020001881773,5d3b0da8a884020001881773,29,frog,filler,D,50,frog40.jpg,frog60.jpg,GoalB,NULL
1687287403,9d43c0a7849fa69f641a47702e371d96,PennController,32,0,experiment,NULL,PennController,31,_Header_,End,1687287293533,5d3b0da8a884020001881773,5d3b0da8a884020001881773,29,frog,filler,D,50,frog40.jpg,frog60.jpg,GoalB,NULL
1687287403,9d43c0a7849fa69f641a47702e371d96,PennController,32,0,experiment,NULL,Canvas,canvas6,Print,NA,1687287300243,5d3b0da8a884020001881773,5d3b0da8a884020001881773,29,frog,filler,D,50,frog40.jpg,frog60.jpg,GoalB,NULL
1687287403,9d43c0a7849fa69f641a47702e371d96,PennController,32,0,experiment,NULL,Video,progression,buffer,0.005701,1687287297075,5d3b0da8a884020001881773,5d3b0da8a884020001881773,29,frog,filler,D,50,frog40.jpg,frog60.jpg,GoalB,NULL
1687287403,9d43c0a7849fa69f641a47702e371d96,PennController,32,0,experiment,NULL,Selector,choice,Selection,option2,1687287302667,5d3b0da8a884020001881773,5d3b0da8a884020001881773,29,frog,filler,D,50,frog40.jpg,frog60.jpg,GoalB,option2;option1
1687287403,9d43c0a7849fa69f641a47702e371d96,PennController,32,0,experiment,NULL,PennController,31,_Trial_,End,1687287302668,5d3b0da8a884020001881773,5d3b0da8a884020001881773,29,frog,filler,D,50,frog40.jpg,frog60.jpg,GoalB,NULL
1687287403,9d43c0a7849fa69f641a47702e371d96,PennController,5,0,experiment,NULL,PennController,4,_Trial_,Start,1687287302670,5d3b0da8a884020001881773,5d3b0da8a884020001881773,2,door,critical,D,50,door40.jpg,door60.jpg,high,NULL
1687287403,9d43c0a7849fa69f641a47702e371d96,PennController,5,0,experiment,NULL,PennController,4,_Header_,Start,1687287302670,5d3b0da8a884020001881773,5d3b0da8a884020001881773,2,door,critical,D,50,door40.jpg,door60.jpg,high,NULL
1687287403,9d43c0a7849fa69f641a47702e371d96,PennController,5,0,experiment,NULL,PennController,4,_Header_,End,1687287302670,5d3b0da8a884020001881773,5d3b0da8a884020001881773,2,door,critical,D,50,door40.jpg,door60.jpg,high,NULL
1687287403,9d43c0a7849fa69f641a47702e371d96,PennController,5,0,experiment,NULL,Canvas,canvas6,Print,NA,1687287309370,5d3b0da8a884020001881773,5d3b0da8a884020001881773,2,door,critical,D,50,door40.jpg,door60.jpg,high,NULL
1687287403,9d43c0a7849fa69f641a47702e371d96,PennController,5,0,experiment,NULL,Video,progression,buffer,0.003537,1687287306202,5d3b0da8a884020001881773,5d3b0da8a884020001881773,2,door,critical,D,50,door40.jpg,door60.jpg,high,NULL
1687287403,9d43c0a7849fa69f641a47702e371d96,PennController,5,0,experiment,NULL,Selector,choice,Selection,option1,1687287310699,5d3b0da8a884020001881773,5d3b0da8a884020001881773,2,door,critical,D,50,door40.jpg,door60.jpg,high,option1;option2
1687287403,9d43c0a7849fa69f641a47702e371d96,PennController,5,0,experiment,NULL,PennController,4,_Trial_,End,1687287310702,5d3b0da8a884020001881773,5d3b0da8a884020001881773,2,door,critical,D,50,door40.jpg,door60.jpg,high,NULL
1687287403,9d43c0a7849fa69f641a47702e371d96,PennController,13,0,experiment,NULL,PennController,12,_Trial_,Start,1687287310703,5d3b0da8a884020001881773,5d3b0da8a884020001881773,10,train,critical,D,25,train15.jpg,train35.jpg,high,NULL
1687287403,9d43c0a7849fa69f641a47702e371d96,PennController,13,0,experiment,NULL,PennController,12,_Header_,Start,1687287310703,5d3b0da8a884020001881773,5d3b0da8a884020001881773,10,train,critical,D,25,train15.jpg,train35.jpg,high,NULL
1687287403,9d43c0a7849fa69f641a47702e371d96,PennController,13,0,experiment,NULL,PennController,12,_Header_,End,1687287310703,5d3b0da8a884020001881773,5d3b0da8a884020001881773,10,train,critical,D,25,train15.jpg,train35.jpg,high,NULL
1687287403,9d43c0a7849fa69f641a47702e371d96,PennController,13,0,experiment,NULL,Canvas,canvas6,Print,NA,1687287316417,5d3b0da8a884020001881773,5d3b0da8a884020001881773,10,train,critical,D,25,train15.jpg,train35.jpg,high,NULL
1687287403,9d43c0a7849fa69f641a47702e371d96,PennController,13,0,experiment,NULL,Video,progression,buffer,0.005771,1687287314244,5d3b0da8a884020001881773,5d3b0da8a884020001881773,10,train,critical,D,25,train15.jpg,train35.jpg,high,NULL
1687287403,9d43c0a7849fa69f641a47702e371d96,PennController,13,0,experiment,NULL,Selector,choice,Selection,option2,1687287317371,5d3b0da8a884020001881773,5d3b0da8a884020001881773,10,train,critical,D,25,train15.jpg,train35.jpg,high,option2;option1
1687287403,9d43c0a7849fa69f641a47702e371d96,PennController,13,0,experiment,NULL,PennController,12,_Trial_,End,1687287317373,5d3b0da8a884020001881773,5d3b0da8a884020001881773,10,train,critical,D,25,train15.jpg,train35.jpg,high,NULL
1687287403,9d43c0a7849fa69f641a47702e371d96,PennController,26,0,experiment,NULL,PennController,25,_Trial_,Start,1687287317374,5d3b0da8a884020001881773,5d3b0da8a884020001881773,23,color,filler,D,50,color40.jpg,color60.jpg,GoalB,NULL
1687287403,9d43c0a7849fa69f641a47702e371d96,PennController,26,0,experiment,NULL,PennController,25,_Header_,Start,1687287317374,5d3b0da8a884020001881773,5d3b0da8a884020001881773,23,color,filler,D,50,color40.jpg,color60.jpg,GoalB,NULL
1687287403,9d43c0a7849fa69f641a47702e371d96,PennController,26,0,experiment,NULL,PennController,25,_Header_,End,1687287317374,5d3b0da8a884020001881773,5d3b0da8a884020001881773,23,color,filler,D,50,color40.jpg,color60.jpg,GoalB,NULL
1687287403,9d43c0a7849fa69f641a47702e371d96,PennController,26,0,experiment,NULL,Canvas,canvas6,Print,NA,1687287324081,5d3b0da8a884020001881773,5d3b0da8a884020001881773,23,color,filler,D,50,color40.jpg,color60.jpg,GoalB,NULL
1687287403,9d43c0a7849fa69f641a47702e371d96,PennController,26,0,experiment,NULL,Video,progression,buffer,0.008591,1687287320915,5d3b0da8a884020001881773,5d3b0da8a884020001881773,23,color,filler,D,50,color40.jpg,color60.jpg,GoalB,NULL
1687287403,9d43c0a7849fa69f641a47702e371d96,PennController,26,0,experiment,NULL,Selector,choice,Selection,option2,1687287326143,5d3b0da8a884020001881773,5d3b0da8a884020001881773,23,color,filler,D,50,color40.jpg,color60.jpg,GoalB,option2;option1
1687287403,9d43c0a7849fa69f641a47702e371d96,PennController,26,0,experiment,NULL,PennController,25,_Trial_,End,1687287326144,5d3b0da8a884020001881773,5d3b0da8a884020001881773,23,color,filler,D,50,color40.jpg,color60.jpg,GoalB,NULL
1687287403,9d43c0a7849fa69f641a47702e371d96,PennController,28,0,experiment,NULL,PennController,27,_Trial_,Start,1687287326145,5d3b0da8a884020001881773,5d3b0da8a884020001881773,25,house,filler,D,25,house15.jpg,house35.jpg,GoalB,NULL
1687287403,9d43c0a7849fa69f641a47702e371d96,PennController,28,0,experiment,NULL,PennController,27,_Header_,Start,1687287326145,5d3b0da8a884020001881773,5d3b0da8a884020001881773,25,house,filler,D,25,house15.jpg,house35.jpg,GoalB,NULL
1687287403,9d43c0a7849fa69f641a47702e371d96,PennController,28,0,experiment,NULL,PennController,27,_Header_,End,1687287326145,5d3b0da8a884020001881773,5d3b0da8a884020001881773,25,house,filler,D,25,house15.jpg,house35.jpg,GoalB,NULL
1687287403,9d43c0a7849fa69f641a47702e371d96,PennController,28,0,experiment,NULL,Canvas,canvas6,Print,NA,1687287331852,5d3b0da8a884020001881773,5d3b0da8a884020001881773,25,house,filler,D,25,house15.jpg,house35.jpg,GoalB,NULL
1687287403,9d43c0a7849fa69f641a47702e371d96,PennController,28,0,experiment,NULL,Video,progression,buffer,0.010025,1687287329684,5d3b0da8a884020001881773,5d3b0da8a884020001881773,25,house,filler,D,25,house15.jpg,house35.jpg,GoalB,NULL
1687287403,9d43c0a7849fa69f641a47702e371d96,PennController,28,0,experiment,NULL,Selector,choice,Selection,option2,1687287333927,5d3b0da8a884020001881773,5d3b0da8a884020001881773,25,house,filler,D,25,house15.jpg,house35.jpg,GoalB,option2;option1
1687287403,9d43c0a7849fa69f641a47702e371d96,PennController,28,0,experiment,NULL,PennController,27,_Trial_,End,1687287333930,5d3b0da8a884020001881773,5d3b0da8a884020001881773,25,house,filler,D,25,house15.jpg,house35.jpg,GoalB,NULL
1687287403,9d43c0a7849fa69f641a47702e371d96,PennController,22,0,experiment,NULL,PennController,21,_Trial_,Start,1687287333931,5d3b0da8a884020001881773,5d3b0da8a884020001881773,19,cup,filler,D,25,cup15.jpg,cup35.jpg,GoalB,NULL
1687287403,9d43c0a7849fa69f641a47702e371d96,PennController,22,0,experiment,NULL,PennController,21,_Header_,Start,1687287333931,5d3b0da8a884020001881773,5d3b0da8a884020001881773,19,cup,filler,D,25,cup15.jpg,cup35.jpg,GoalB,NULL
1687287403,9d43c0a7849fa69f641a47702e371d96,PennController,22,0,experiment,NULL,PennController,21,_Header_,End,1687287333931,5d3b0da8a884020001881773,5d3b0da8a884020001881773,19,cup,filler,D,25,cup15.jpg,cup35.jpg,GoalB,NULL
1687287403,9d43c0a7849fa69f641a47702e371d96,PennController,22,0,experiment,NULL,Canvas,canvas6,Print,NA,1687287339647,5d3b0da8a884020001881773,5d3b0da8a884020001881773,19,cup,filler,D,25,cup15.jpg,cup35.jpg,GoalB,NULL
1687287403,9d43c0a7849fa69f641a47702e371d96,PennController,22,0,experiment,NULL,Video,progression,buffer,0.008397,1687287337472,5d3b0da8a884020001881773,5d3b0da8a884020001881773,19,cup,filler,D,25,cup15.jpg,cup35.jpg,GoalB,NULL
1687287403,9d43c0a7849fa69f641a47702e371d96,PennController,22,0,experiment,NULL,Selector,choice,Selection,option2,1687287340847,5d3b0da8a884020001881773,5d3b0da8a884020001881773,19,cup,filler,D,25,cup15.jpg,cup35.jpg,GoalB,option1;option2
1687287403,9d43c0a7849fa69f641a47702e371d96,PennController,22,0,experiment,NULL,PennController,21,_Trial_,End,1687287340848,5d3b0da8a884020001881773,5d3b0da8a884020001881773,19,cup,filler,D,25,cup15.jpg,cup35.jpg,GoalB,NULL
1687287403,9d43c0a7849fa69f641a47702e371d96,PennController,25,0,experiment,NULL,PennController,24,_Trial_,Start,1687287340850,5d3b0da8a884020001881773,5d3b0da8a884020001881773,22,wall,filler,D,25,wall15.jpg,wall35.jpg,GoalA,NULL
1687287403,9d43c0a7849fa69f641a47702e371d96,PennController,25,0,experiment,NULL,PennController,24,_Header_,Start,1687287340850,5d3b0da8a884020001881773,5d3b0da8a884020001881773,22,wall,filler,D,25,wall15.jpg,wall35.jpg,GoalA,NULL
1687287403,9d43c0a7849fa69f641a47702e371d96,PennController,25,0,experiment,NULL,PennController,24,_Header_,End,1687287340850,5d3b0da8a884020001881773,5d3b0da8a884020001881773,22,wall,filler,D,25,wall15.jpg,wall35.jpg,GoalA,NULL
1687287403,9d43c0a7849fa69f641a47702e371d96,PennController,25,0,experiment,NULL,Canvas,canvas6,Print,NA,1687287346559,5d3b0da8a884020001881773,5d3b0da8a884020001881773,22,wall,filler,D,25,wall15.jpg,wall35.jpg,GoalA,NULL
1687287403,9d43c0a7849fa69f641a47702e371d96,PennController,25,0,experiment,NULL,Video,progression,buffer,0.00742,1687287344395,5d3b0da8a884020001881773,5d3b0da8a884020001881773,22,wall,filler,D,25,wall15.jpg,wall35.jpg,GoalA,NULL
1687287403,9d43c0a7849fa69f641a47702e371d96,PennController,25,0,experiment,NULL,Selector,choice,Selection,option1,1687287347563,5d3b0da8a884020001881773,5d3b0da8a884020001881773,22,wall,filler,D,25,wall15.jpg,wall35.jpg,GoalA,option1;option2
1687287403,9d43c0a7849fa69f641a47702e371d96,PennController,25,0,experiment,NULL,PennController,24,_Trial_,End,1687287347564,5d3b0da8a884020001881773,5d3b0da8a884020001881773,22,wall,filler,D,25,wall15.jpg,wall35.jpg,GoalA,NULL
1687287403,9d43c0a7849fa69f641a47702e371d96,PennController,21,0,experiment,NULL,PennController,20,_Trial_,Start,1687287347565,5d3b0da8a884020001881773,5d3b0da8a884020001881773,18,ball,critical,D,75,ball65.jpg,ball85.jpg,high,NULL
1687287403,9d43c0a7849fa69f641a47702e371d96,PennController,21,0,experiment,NULL,PennController,20,_Header_,Start,1687287347565,5d3b0da8a884020001881773,5d3b0da8a884020001881773,18,ball,critical,D,75,ball65.jpg,ball85.jpg,high,NULL
1687287403,9d43c0a7849fa69f641a47702e371d96,PennController,21,0,experiment,NULL,PennController,20,_Header_,End,1687287347565,5d3b0da8a884020001881773,5d3b0da8a884020001881773,18,ball,critical,D,75,ball65.jpg,ball85.jpg,high,NULL
1687287403,9d43c0a7849fa69f641a47702e371d96,PennController,21,0,experiment,NULL,Canvas,canvas6,Print,NA,1687287355277,5d3b0da8a884020001881773,5d3b0da8a884020001881773,18,ball,critical,D,75,ball65.jpg,ball85.jpg,high,NULL
1687287403,9d43c0a7849fa69f641a47702e371d96,PennController,21,0,experiment,NULL,Video,progression,buffer,0.008646,1687287351107,5d3b0da8a884020001881773,5d3b0da8a884020001881773,18,ball,critical,D,75,ball65.jpg,ball85.jpg,high,NULL
1687287403,9d43c0a7849fa69f641a47702e371d96,PennController,21,0,experiment,NULL,Selector,choice,Selection,option2,1687287356671,5d3b0da8a884020001881773,5d3b0da8a884020001881773,18,ball,critical,D,75,ball65.jpg,ball85.jpg,high,option1;option2
1687287403,9d43c0a7849fa69f641a47702e371d96,PennController,21,0,experiment,NULL,PennController,20,_Trial_,End,1687287356673,5d3b0da8a884020001881773,5d3b0da8a884020001881773,18,ball,critical,D,75,ball65.jpg,ball85.jpg,high,NULL
1687287403,9d43c0a7849fa69f641a47702e371d96,PennController,12,0,experiment,NULL,PennController,11,_Trial_,Start,1687287356674,5d3b0da8a884020001881773,5d3b0da8a884020001881773,9,cake,critical,D,75,cake66.jpg,cake84.jpg,high,NULL
1687287403,9d43c0a7849fa69f641a47702e371d96,PennController,12,0,experiment,NULL,PennController,11,_Header_,Start,1687287356674,5d3b0da8a884020001881773,5d3b0da8a884020001881773,9,cake,critical,D,75,cake66.jpg,cake84.jpg,high,NULL
1687287403,9d43c0a7849fa69f641a47702e371d96,PennController,12,0,experiment,NULL,PennController,11,_Header_,End,1687287356674,5d3b0da8a884020001881773,5d3b0da8a884020001881773,9,cake,critical,D,75,cake66.jpg,cake84.jpg,high,NULL
1687287403,9d43c0a7849fa69f641a47702e371d96,PennController,12,0,experiment,NULL,Canvas,canvas6,Print,NA,1687287366386,5d3b0da8a884020001881773,5d3b0da8a884020001881773,9,cake,critical,D,75,cake66.jpg,cake84.jpg,high,NULL
1687287403,9d43c0a7849fa69f641a47702e371d96,PennController,12,0,experiment,NULL,Video,progression,buffer,0.007947,1687287360216,5d3b0da8a884020001881773,5d3b0da8a884020001881773,9,cake,critical,D,75,cake66.jpg,cake84.jpg,high,NULL
1687287403,9d43c0a7849fa69f641a47702e371d96,PennController,12,0,experiment,NULL,Selector,choice,Selection,option1,1687287368779,5d3b0da8a884020001881773,5d3b0da8a884020001881773,9,cake,critical,D,75,cake66.jpg,cake84.jpg,high,option1;option2
1687287403,9d43c0a7849fa69f641a47702e371d96,PennController,12,0,experiment,NULL,PennController,11,_Trial_,End,1687287368780,5d3b0da8a884020001881773,5d3b0da8a884020001881773,9,cake,critical,D,75,cake66.jpg,cake84.jpg,high,NULL
1687287403,9d43c0a7849fa69f641a47702e371d96,PennController,11,0,experiment,NULL,PennController,10,_Trial_,Start,1687287368781,5d3b0da8a884020001881773,5d3b0da8a884020001881773,8,cucumber,critical,D,50,cucumber42.jpg,cucumber60.jpg,high,NULL
1687287403,9d43c0a7849fa69f641a47702e371d96,PennController,11,0,experiment,NULL,PennController,10,_Header_,Start,1687287368781,5d3b0da8a884020001881773,5d3b0da8a884020001881773,8,cucumber,critical,D,50,cucumber42.jpg,cucumber60.jpg,high,NULL
1687287403,9d43c0a7849fa69f641a47702e371d96,PennController,11,0,experiment,NULL,PennController,10,_Header_,End,1687287368781,5d3b0da8a884020001881773,5d3b0da8a884020001881773,8,cucumber,critical,D,50,cucumber42.jpg,cucumber60.jpg,high,NULL
1687287403,9d43c0a7849fa69f641a47702e371d96,PennController,11,0,experiment,NULL,Canvas,canvas6,Print,NA,1687287376890,5d3b0da8a884020001881773,5d3b0da8a884020001881773,8,cucumber,critical,D,50,cucumber42.jpg,cucumber60.jpg,high,NULL
1687287403,9d43c0a7849fa69f641a47702e371d96,PennController,11,0,experiment,NULL,Video,progression,buffer,0.010617,1687287372326,5d3b0da8a884020001881773,5d3b0da8a884020001881773,8,cucumber,critical,D,50,cucumber42.jpg,cucumber60.jpg,high,NULL
1687287403,9d43c0a7849fa69f641a47702e371d96,PennController,11,0,experiment,NULL,Selector,choice,Selection,option1,1687287378563,5d3b0da8a884020001881773,5d3b0da8a884020001881773,8,cucumber,critical,D,50,cucumber42.jpg,cucumber60.jpg,high,option1;option2
1687287403,9d43c0a7849fa69f641a47702e371d96,PennController,11,0,experiment,NULL,PennController,10,_Trial_,End,1687287378565,5d3b0da8a884020001881773,5d3b0da8a884020001881773,8,cucumber,critical,D,50,cucumber42.jpg,cucumber60.jpg,high,NULL
1687287403,9d43c0a7849fa69f641a47702e371d96,PennController,7,0,experiment,NULL,PennController,6,_Trial_,Start,1687287378566,5d3b0da8a884020001881773,5d3b0da8a884020001881773,4,candy,critical,D,25,candy15.jpg,candy35.jpg,high,NULL
1687287403,9d43c0a7849fa69f641a47702e371d96,PennController,7,0,experiment,NULL,PennController,6,_Header_,Start,1687287378566,5d3b0da8a884020001881773,5d3b0da8a884020001881773,4,candy,critical,D,25,candy15.jpg,candy35.jpg,high,NULL
1687287403,9d43c0a7849fa69f641a47702e371d96,PennController,7,0,experiment,NULL,PennController,6,_Header_,End,1687287378566,5d3b0da8a884020001881773,5d3b0da8a884020001881773,4,candy,critical,D,25,candy15.jpg,candy35.jpg,high,NULL
1687287403,9d43c0a7849fa69f641a47702e371d96,PennController,7,0,experiment,NULL,Canvas,canvas6,Print,NA,1687287384258,5d3b0da8a884020001881773,5d3b0da8a884020001881773,4,candy,critical,D,25,candy15.jpg,candy35.jpg,high,NULL
1687287403,9d43c0a7849fa69f641a47702e371d96,PennController,7,0,experiment,NULL,Video,progression,buffer,0.002642,1687287382086,5d3b0da8a884020001881773,5d3b0da8a884020001881773,4,candy,critical,D,25,candy15.jpg,candy35.jpg,high,NULL
1687287403,9d43c0a7849fa69f641a47702e371d96,PennController,7,0,experiment,NULL,Selector,choice,Selection,option1,1687287385299,5d3b0da8a884020001881773,5d3b0da8a884020001881773,4,candy,critical,D,25,candy15.jpg,candy35.jpg,high,option1;option2
1687287403,9d43c0a7849fa69f641a47702e371d96,PennController,7,0,experiment,NULL,PennController,6,_Trial_,End,1687287385300,5d3b0da8a884020001881773,5d3b0da8a884020001881773,4,candy,critical,D,25,candy15.jpg,candy35.jpg,high,NULL
1687287403,9d43c0a7849fa69f641a47702e371d96,PennController,19,0,experiment,NULL,PennController,18,_Trial_,Start,1687287385301,5d3b0da8a884020001881773,5d3b0da8a884020001881773,16,blinds,critical,D,25,blinds15.jpg,blinds33.jpg,high,NULL
1687287403,9d43c0a7849fa69f641a47702e371d96,PennController,19,0,experiment,NULL,PennController,18,_Header_,Start,1687287385301,5d3b0da8a884020001881773,5d3b0da8a884020001881773,16,blinds,critical,D,25,blinds15.jpg,blinds33.jpg,high,NULL
1687287403,9d43c0a7849fa69f641a47702e371d96,PennController,19,0,experiment,NULL,PennController,18,_Header_,End,1687287385301,5d3b0da8a884020001881773,5d3b0da8a884020001881773,16,blinds,critical,D,25,blinds15.jpg,blinds33.jpg,high,NULL
1687287403,9d43c0a7849fa69f641a47702e371d96,PennController,19,0,experiment,NULL,Canvas,canvas6,Print,NA,1687287391605,5d3b0da8a884020001881773,5d3b0da8a884020001881773,16,blinds,critical,D,25,blinds15.jpg,blinds33.jpg,high,NULL
1687287403,9d43c0a7849fa69f641a47702e371d96,PennController,19,0,experiment,NULL,Video,progression,buffer,0.006951,1687287388836,5d3b0da8a884020001881773,5d3b0da8a884020001881773,16,blinds,critical,D,25,blinds15.jpg,blinds33.jpg,high,NULL
1687287403,9d43c0a7849fa69f641a47702e371d96,PennController,19,0,experiment,NULL,Selector,choice,Selection,option1,1687287393787,5d3b0da8a884020001881773,5d3b0da8a884020001881773,16,blinds,critical,D,25,blinds15.jpg,blinds33.jpg,high,option2;option1
1687287403,9d43c0a7849fa69f641a47702e371d96,PennController,19,0,experiment,NULL,PennController,18,_Trial_,End,1687287393788,5d3b0da8a884020001881773,5d3b0da8a884020001881773,16,blinds,critical,D,25,blinds15.jpg,blinds33.jpg,high,NULL
1687287403,9d43c0a7849fa69f641a47702e371d96,PennController,16,0,experiment,NULL,PennController,15,_Trial_,Start,1687287393789,5d3b0da8a884020001881773,5d3b0da8a884020001881773,13,mix,critical,D,25,mix15.jpg,mix35.jpg,high,NULL
1687287403,9d43c0a7849fa69f641a47702e371d96,PennController,16,0,experiment,NULL,PennController,15,_Header_,Start,1687287393789,5d3b0da8a884020001881773,5d3b0da8a884020001881773,13,mix,critical,D,25,mix15.jpg,mix35.jpg,high,NULL
1687287403,9d43c0a7849fa69f641a47702e371d96,PennController,16,0,experiment,NULL,PennController,15,_Header_,End,1687287393789,5d3b0da8a884020001881773,5d3b0da8a884020001881773,13,mix,critical,D,25,mix15.jpg,mix35.jpg,high,NULL
1687287403,9d43c0a7849fa69f641a47702e371d96,PennController,16,0,experiment,NULL,Canvas,canvas6,Print,NA,1687287399499,5d3b0da8a884020001881773,5d3b0da8a884020001881773,13,mix,critical,D,25,mix15.jpg,mix35.jpg,high,NULL
1687287403,9d43c0a7849fa69f641a47702e371d96,PennController,16,0,experiment,NULL,Video,progression,buffer,0.00772,1687287397329,5d3b0da8a884020001881773,5d3b0da8a884020001881773,13,mix,critical,D,25,mix15.jpg,mix35.jpg,high,NULL
1687287403,9d43c0a7849fa69f641a47702e371d96,PennController,16,0,experiment,NULL,Selector,choice,Selection,option1,1687287401303,5d3b0da8a884020001881773,5d3b0da8a884020001881773,13,mix,critical,D,25,mix15.jpg,mix35.jpg,high,option1;option2
1687287403,9d43c0a7849fa69f641a47702e371d96,PennController,16,0,experiment,NULL,PennController,15,_Trial_,End,1687287401304,5d3b0da8a884020001881773,5d3b0da8a884020001881773,13,mix,critical,D,25,mix15.jpg,mix35.jpg,high,NULL
