#
# Results on Tuesday June 20 2023 18:56:34 UTC
# USER AGENT: Mozilla/5.0 (Windows NT 10.0; Win64; x64) AppleWebKit/537.36 (KHTML, like Gecko) Chrome/114.0.0.0 Safari/537.36
# Design number was non-random = 3
#
# Columns below this comment are as follows:
# 1. Results reception time.
# 2. MD5 hash of participant's IP address.
# 3. Controller name.
# 4. Order number of item.
# 5. Inner element number.
# 6. Label.
# 7. Latin Square Group.
# 8. PennElementType.
# 9. PennElementName.
# 10. Parameter.
# 11. Value.
# 12. EventTime.
# 13. PROLIFIC_ID.
# 14. Comments.
1687287394,c34d04394019f9b4ee6cf15b8ec437d6,PennController,2,0,consent,NULL,PennController,0,_Trial_,Start,1687287044472,61013dd3b0497e2ee44e23f8,NULL
1687287394,c34d04394019f9b4ee6cf15b8ec437d6,PennController,2,0,consent,NULL,PennController,0,_Header_,Start,1687287044472,61013dd3b0497e2ee44e23f8,NULL
1687287394,c34d04394019f9b4ee6cf15b8ec437d6,PennController,2,0,consent,NULL,PennController,0,_Header_,End,1687287044473,61013dd3b0497e2ee44e23f8,NULL
1687287394,c34d04394019f9b4ee6cf15b8ec437d6,PennController,2,0,consent,NULL,PennController,0,_Trial_,End,1687287053905,61013dd3b0497e2ee44e23f8,NULL
# Columns below this comment are as follows:
# 14. ID.
# 15. Comments.
1687287394,c34d04394019f9b4ee6cf15b8ec437d6,PennController,3,0,intro,NULL,PennController,1,_Trial_,Start,1687287053925,61013dd3b0497e2ee44e23f8,61013dd3b0497e2ee44e23f8,NULL
1687287394,c34d04394019f9b4ee6cf15b8ec437d6,PennController,3,0,intro,NULL,PennController,1,_Header_,Start,1687287053925,61013dd3b0497e2ee44e23f8,61013dd3b0497e2ee44e23f8,NULL
1687287394,c34d04394019f9b4ee6cf15b8ec437d6,PennController,3,0,intro,NULL,PennController,1,_Header_,End,1687287053925,61013dd3b0497e2ee44e23f8,61013dd3b0497e2ee44e23f8,NULL
1687287394,c34d04394019f9b4ee6cf15b8ec437d6,PennController,3,0,intro,NULL,PennController,1,_Trial_,End,1687287058558,61013dd3b0497e2ee44e23f8,61013dd3b0497e2ee44e23f8,NULL
# Columns below this comment are as follows:
# 15. item_number.
# 16. item.
# 17. type.
# 18. Group.
# 19. prog.
# 20. prev_image.
# 21. next_image.
# 22. height.
# 23. Comments.
1687287394,c34d04394019f9b4ee6cf15b8ec437d6,PennController,10,0,experiment,NULL,PennController,9,_Trial_,Start,1687287058560,61013dd3b0497e2ee44e23f8,61013dd3b0497e2ee44e23f8,7,stack,critical,D,25,stack15.jpg,stack35.jpg,high,NULL
1687287394,c34d04394019f9b4ee6cf15b8ec437d6,PennController,10,0,experiment,NULL,PennController,9,_Header_,Start,1687287058560,61013dd3b0497e2ee44e23f8,61013dd3b0497e2ee44e23f8,7,stack,critical,D,25,stack15.jpg,stack35.jpg,high,NULL
1687287394,c34d04394019f9b4ee6cf15b8ec437d6,PennController,10,0,experiment,NULL,PennController,9,_Header_,End,1687287058560,61013dd3b0497e2ee44e23f8,61013dd3b0497e2ee44e23f8,7,stack,critical,D,25,stack15.jpg,stack35.jpg,high,NULL
1687287394,c34d04394019f9b4ee6cf15b8ec437d6,PennController,10,0,experiment,NULL,Canvas,canvas6,Print,NA,1687287064364,61013dd3b0497e2ee44e23f8,61013dd3b0497e2ee44e23f8,7,stack,critical,D,25,stack15.jpg,stack35.jpg,high,NULL
1687287394,c34d04394019f9b4ee6cf15b8ec437d6,PennController,10,0,experiment,NULL,Video,progression,buffer,0.014574,1687287062160,61013dd3b0497e2ee44e23f8,61013dd3b0497e2ee44e23f8,7,stack,critical,D,25,stack15.jpg,stack35.jpg,high,NULL
1687287394,c34d04394019f9b4ee6cf15b8ec437d6,PennController,10,0,experiment,NULL,Selector,choice,Selection,option2,1687287072044,61013dd3b0497e2ee44e23f8,61013dd3b0497e2ee44e23f8,7,stack,critical,D,25,stack15.jpg,stack35.jpg,high,option1;option2
1687287394,c34d04394019f9b4ee6cf15b8ec437d6,PennController,10,0,experiment,NULL,PennController,9,_Trial_,End,1687287072051,61013dd3b0497e2ee44e23f8,61013dd3b0497e2ee44e23f8,7,stack,critical,D,25,stack15.jpg,stack35.jpg,high,NULL
1687287394,c34d04394019f9b4ee6cf15b8ec437d6,PennController,21,0,experiment,NULL,PennController,20,_Trial_,Start,1687287072063,61013dd3b0497e2ee44e23f8,61013dd3b0497e2ee44e23f8,18,ball,critical,D,75,ball65.jpg,ball85.jpg,high,NULL
1687287394,c34d04394019f9b4ee6cf15b8ec437d6,PennController,21,0,experiment,NULL,PennController,20,_Header_,Start,1687287072063,61013dd3b0497e2ee44e23f8,61013dd3b0497e2ee44e23f8,18,ball,critical,D,75,ball65.jpg,ball85.jpg,high,NULL
1687287394,c34d04394019f9b4ee6cf15b8ec437d6,PennController,21,0,experiment,NULL,PennController,20,_Header_,End,1687287072063,61013dd3b0497e2ee44e23f8,61013dd3b0497e2ee44e23f8,18,ball,critical,D,75,ball65.jpg,ball85.jpg,high,NULL
1687287394,c34d04394019f9b4ee6cf15b8ec437d6,PennController,21,0,experiment,NULL,Canvas,canvas6,Print,NA,1687287079802,61013dd3b0497e2ee44e23f8,61013dd3b0497e2ee44e23f8,18,ball,critical,D,75,ball65.jpg,ball85.jpg,high,NULL
1687287394,c34d04394019f9b4ee6cf15b8ec437d6,PennController,21,0,experiment,NULL,Video,progression,buffer,0.021207,1687287075643,61013dd3b0497e2ee44e23f8,61013dd3b0497e2ee44e23f8,18,ball,critical,D,75,ball65.jpg,ball85.jpg,high,NULL
1687287394,c34d04394019f9b4ee6cf15b8ec437d6,PennController,21,0,experiment,NULL,Selector,choice,Selection,option1,1687287080718,61013dd3b0497e2ee44e23f8,61013dd3b0497e2ee44e23f8,18,ball,critical,D,75,ball65.jpg,ball85.jpg,high,option2;option1
1687287394,c34d04394019f9b4ee6cf15b8ec437d6,PennController,21,0,experiment,NULL,PennController,20,_Trial_,End,1687287080723,61013dd3b0497e2ee44e23f8,61013dd3b0497e2ee44e23f8,18,ball,critical,D,75,ball65.jpg,ball85.jpg,high,NULL
1687287394,c34d04394019f9b4ee6cf15b8ec437d6,PennController,14,0,experiment,NULL,PennController,13,_Trial_,Start,1687287080733,61013dd3b0497e2ee44e23f8,61013dd3b0497e2ee44e23f8,11,beads,critical,D,50,beads40.jpg,beads60.jpg,high,NULL
1687287394,c34d04394019f9b4ee6cf15b8ec437d6,PennController,14,0,experiment,NULL,PennController,13,_Header_,Start,1687287080733,61013dd3b0497e2ee44e23f8,61013dd3b0497e2ee44e23f8,11,beads,critical,D,50,beads40.jpg,beads60.jpg,high,NULL
1687287394,c34d04394019f9b4ee6cf15b8ec437d6,PennController,14,0,experiment,NULL,PennController,13,_Header_,End,1687287080733,61013dd3b0497e2ee44e23f8,61013dd3b0497e2ee44e23f8,11,beads,critical,D,50,beads40.jpg,beads60.jpg,high,NULL
1687287394,c34d04394019f9b4ee6cf15b8ec437d6,PennController,14,0,experiment,NULL,Canvas,canvas6,Print,NA,1687287087487,61013dd3b0497e2ee44e23f8,61013dd3b0497e2ee44e23f8,11,beads,critical,D,50,beads40.jpg,beads60.jpg,high,NULL
1687287394,c34d04394019f9b4ee6cf15b8ec437d6,PennController,14,0,experiment,NULL,Video,progression,buffer,0.030512,1687287084334,61013dd3b0497e2ee44e23f8,61013dd3b0497e2ee44e23f8,11,beads,critical,D,50,beads40.jpg,beads60.jpg,high,NULL
1687287394,c34d04394019f9b4ee6cf15b8ec437d6,PennController,14,0,experiment,NULL,Selector,choice,Selection,option2,1687287090738,61013dd3b0497e2ee44e23f8,61013dd3b0497e2ee44e23f8,11,beads,critical,D,50,beads40.jpg,beads60.jpg,high,option2;option1
1687287394,c34d04394019f9b4ee6cf15b8ec437d6,PennController,14,0,experiment,NULL,PennController,13,_Trial_,End,1687287090744,61013dd3b0497e2ee44e23f8,61013dd3b0497e2ee44e23f8,11,beads,critical,D,50,beads40.jpg,beads60.jpg,high,NULL
1687287394,c34d04394019f9b4ee6cf15b8ec437d6,PennController,32,0,experiment,NULL,PennController,31,_Trial_,Start,1687287090753,61013dd3b0497e2ee44e23f8,61013dd3b0497e2ee44e23f8,29,frog,filler,D,50,frog40.jpg,frog60.jpg,GoalB,NULL
1687287394,c34d04394019f9b4ee6cf15b8ec437d6,PennController,32,0,experiment,NULL,PennController,31,_Header_,Start,1687287090753,61013dd3b0497e2ee44e23f8,61013dd3b0497e2ee44e23f8,29,frog,filler,D,50,frog40.jpg,frog60.jpg,GoalB,NULL
1687287394,c34d04394019f9b4ee6cf15b8ec437d6,PennController,32,0,experiment,NULL,PennController,31,_Header_,End,1687287090753,61013dd3b0497e2ee44e23f8,61013dd3b0497e2ee44e23f8,29,frog,filler,D,50,frog40.jpg,frog60.jpg,GoalB,NULL
1687287394,c34d04394019f9b4ee6cf15b8ec437d6,PennController,32,0,experiment,NULL,Canvas,canvas6,Print,NA,1687287097494,61013dd3b0497e2ee44e23f8,61013dd3b0497e2ee44e23f8,29,frog,filler,D,50,frog40.jpg,frog60.jpg,GoalB,NULL
1687287394,c34d04394019f9b4ee6cf15b8ec437d6,PennController,32,0,experiment,NULL,Video,progression,buffer,0.023446,1687287094335,61013dd3b0497e2ee44e23f8,61013dd3b0497e2ee44e23f8,29,frog,filler,D,50,frog40.jpg,frog60.jpg,GoalB,NULL
1687287394,c34d04394019f9b4ee6cf15b8ec437d6,PennController,32,0,experiment,NULL,Selector,choice,Selection,option2,1687287099074,61013dd3b0497e2ee44e23f8,61013dd3b0497e2ee44e23f8,29,frog,filler,D,50,frog40.jpg,frog60.jpg,GoalB,option1;option2
1687287394,c34d04394019f9b4ee6cf15b8ec437d6,PennController,32,0,experiment,NULL,PennController,31,_Trial_,End,1687287099079,61013dd3b0497e2ee44e23f8,61013dd3b0497e2ee44e23f8,29,frog,filler,D,50,frog40.jpg,frog60.jpg,GoalB,NULL
1687287394,c34d04394019f9b4ee6cf15b8ec437d6,PennController,30,0,experiment,NULL,PennController,29,_Trial_,Start,1687287099084,61013dd3b0497e2ee44e23f8,61013dd3b0497e2ee44e23f8,27,square,filler,D,75,square65.jpg,square85.jpg,GoalB,NULL
1687287394,c34d04394019f9b4ee6cf15b8ec437d6,PennController,30,0,experiment,NULL,PennController,29,_Header_,Start,1687287099084,61013dd3b0497e2ee44e23f8,61013dd3b0497e2ee44e23f8,27,square,filler,D,75,square65.jpg,square85.jpg,GoalB,NULL
1687287394,c34d04394019f9b4ee6cf15b8ec437d6,PennController,30,0,experiment,NULL,PennController,29,_Header_,End,1687287099084,61013dd3b0497e2ee44e23f8,61013dd3b0497e2ee44e23f8,27,square,filler,D,75,square65.jpg,square85.jpg,GoalB,NULL
1687287394,c34d04394019f9b4ee6cf15b8ec437d6,PennController,30,0,experiment,NULL,Canvas,canvas6,Print,NA,1687287106837,61013dd3b0497e2ee44e23f8,61013dd3b0497e2ee44e23f8,27,square,filler,D,75,square65.jpg,square85.jpg,GoalB,NULL
1687287394,c34d04394019f9b4ee6cf15b8ec437d6,PennController,30,0,experiment,NULL,Video,progression,buffer,0.013835,1687287102667,61013dd3b0497e2ee44e23f8,61013dd3b0497e2ee44e23f8,27,square,filler,D,75,square65.jpg,square85.jpg,GoalB,NULL
1687287394,c34d04394019f9b4ee6cf15b8ec437d6,PennController,30,0,experiment,NULL,Selector,choice,Selection,option2,1687287108252,61013dd3b0497e2ee44e23f8,61013dd3b0497e2ee44e23f8,27,square,filler,D,75,square65.jpg,square85.jpg,GoalB,option2;option1
1687287394,c34d04394019f9b4ee6cf15b8ec437d6,PennController,30,0,experiment,NULL,PennController,29,_Trial_,End,1687287108256,61013dd3b0497e2ee44e23f8,61013dd3b0497e2ee44e23f8,27,square,filler,D,75,square65.jpg,square85.jpg,GoalB,NULL
1687287394,c34d04394019f9b4ee6cf15b8ec437d6,PennController,18,0,experiment,NULL,PennController,17,_Trial_,Start,1687287108261,61013dd3b0497e2ee44e23f8,61013dd3b0497e2ee44e23f8,15,zip,critical,D,75,zip65.jpg,zip85.jpg,high,NULL
1687287394,c34d04394019f9b4ee6cf15b8ec437d6,PennController,18,0,experiment,NULL,PennController,17,_Header_,Start,1687287108261,61013dd3b0497e2ee44e23f8,61013dd3b0497e2ee44e23f8,15,zip,critical,D,75,zip65.jpg,zip85.jpg,high,NULL
1687287394,c34d04394019f9b4ee6cf15b8ec437d6,PennController,18,0,experiment,NULL,PennController,17,_Header_,End,1687287108261,61013dd3b0497e2ee44e23f8,61013dd3b0497e2ee44e23f8,15,zip,critical,D,75,zip65.jpg,zip85.jpg,high,NULL
1687287394,c34d04394019f9b4ee6cf15b8ec437d6,PennController,18,0,experiment,NULL,Canvas,canvas6,Print,NA,1687287115201,61013dd3b0497e2ee44e23f8,61013dd3b0497e2ee44e23f8,15,zip,critical,D,75,zip65.jpg,zip85.jpg,high,NULL
1687287394,c34d04394019f9b4ee6cf15b8ec437d6,PennController,18,0,experiment,NULL,Video,progression,buffer,0.016731,1687287111829,61013dd3b0497e2ee44e23f8,61013dd3b0497e2ee44e23f8,15,zip,critical,D,75,zip65.jpg,zip85.jpg,high,NULL
1687287394,c34d04394019f9b4ee6cf15b8ec437d6,PennController,18,0,experiment,NULL,Selector,choice,Selection,option2,1687287116795,61013dd3b0497e2ee44e23f8,61013dd3b0497e2ee44e23f8,15,zip,critical,D,75,zip65.jpg,zip85.jpg,high,option1;option2
1687287394,c34d04394019f9b4ee6cf15b8ec437d6,PennController,18,0,experiment,NULL,PennController,17,_Trial_,End,1687287116799,61013dd3b0497e2ee44e23f8,61013dd3b0497e2ee44e23f8,15,zip,critical,D,75,zip65.jpg,zip85.jpg,high,NULL
1687287394,c34d04394019f9b4ee6cf15b8ec437d6,PennController,13,0,experiment,NULL,PennController,12,_Trial_,Start,1687287116803,61013dd3b0497e2ee44e23f8,61013dd3b0497e2ee44e23f8,10,train,critical,D,25,train15.jpg,train35.jpg,high,NULL
1687287394,c34d04394019f9b4ee6cf15b8ec437d6,PennController,13,0,experiment,NULL,PennController,12,_Header_,Start,1687287116803,61013dd3b0497e2ee44e23f8,61013dd3b0497e2ee44e23f8,10,train,critical,D,25,train15.jpg,train35.jpg,high,NULL
1687287394,c34d04394019f9b4ee6cf15b8ec437d6,PennController,13,0,experiment,NULL,PennController,12,_Header_,End,1687287116803,61013dd3b0497e2ee44e23f8,61013dd3b0497e2ee44e23f8,10,train,critical,D,25,train15.jpg,train35.jpg,high,NULL
1687287394,c34d04394019f9b4ee6cf15b8ec437d6,PennController,13,0,experiment,NULL,Canvas,canvas6,Print,NA,1687287122538,61013dd3b0497e2ee44e23f8,61013dd3b0497e2ee44e23f8,10,train,critical,D,25,train15.jpg,train35.jpg,high,NULL
1687287394,c34d04394019f9b4ee6cf15b8ec437d6,PennController,13,0,experiment,NULL,Video,progression,buffer,0.022511,1687287120372,61013dd3b0497e2ee44e23f8,61013dd3b0497e2ee44e23f8,10,train,critical,D,25,train15.jpg,train35.jpg,high,NULL
1687287394,c34d04394019f9b4ee6cf15b8ec437d6,PennController,13,0,experiment,NULL,Selector,choice,Selection,option1,1687287126245,61013dd3b0497e2ee44e23f8,61013dd3b0497e2ee44e23f8,10,train,critical,D,25,train15.jpg,train35.jpg,high,option2;option1
1687287394,c34d04394019f9b4ee6cf15b8ec437d6,PennController,13,0,experiment,NULL,PennController,12,_Trial_,End,1687287126251,61013dd3b0497e2ee44e23f8,61013dd3b0497e2ee44e23f8,10,train,critical,D,25,train15.jpg,train35.jpg,high,NULL
1687287394,c34d04394019f9b4ee6cf15b8ec437d6,PennController,7,0,experiment,NULL,PennController,6,_Trial_,Start,1687287126256,61013dd3b0497e2ee44e23f8,61013dd3b0497e2ee44e23f8,4,candy,critical,D,25,candy15.jpg,candy35.jpg,high,NULL
1687287394,c34d04394019f9b4ee6cf15b8ec437d6,PennController,7,0,experiment,NULL,PennController,6,_Header_,Start,1687287126256,61013dd3b0497e2ee44e23f8,61013dd3b0497e2ee44e23f8,4,candy,critical,D,25,candy15.jpg,candy35.jpg,high,NULL
1687287394,c34d04394019f9b4ee6cf15b8ec437d6,PennController,7,0,experiment,NULL,PennController,6,_Header_,End,1687287126256,61013dd3b0497e2ee44e23f8,61013dd3b0497e2ee44e23f8,4,candy,critical,D,25,candy15.jpg,candy35.jpg,high,NULL
1687287394,c34d04394019f9b4ee6cf15b8ec437d6,PennController,7,0,experiment,NULL,Canvas,canvas6,Print,NA,1687287131989,61013dd3b0497e2ee44e23f8,61013dd3b0497e2ee44e23f8,4,candy,critical,D,25,candy15.jpg,candy35.jpg,high,NULL
1687287394,c34d04394019f9b4ee6cf15b8ec437d6,PennController,7,0,experiment,NULL,Video,progression,buffer,0.025691,1687287129833,61013dd3b0497e2ee44e23f8,61013dd3b0497e2ee44e23f8,4,candy,critical,D,25,candy15.jpg,candy35.jpg,high,NULL
1687287394,c34d04394019f9b4ee6cf15b8ec437d6,PennController,7,0,experiment,NULL,Selector,choice,Selection,option1,1687287133876,61013dd3b0497e2ee44e23f8,61013dd3b0497e2ee44e23f8,4,candy,critical,D,25,candy15.jpg,candy35.jpg,high,option1;option2
1687287394,c34d04394019f9b4ee6cf15b8ec437d6,PennController,7,0,experiment,NULL,PennController,6,_Trial_,End,1687287133880,61013dd3b0497e2ee44e23f8,61013dd3b0497e2ee44e23f8,4,candy,critical,D,25,candy15.jpg,candy35.jpg,high,NULL
1687287394,c34d04394019f9b4ee6cf15b8ec437d6,PennController,20,0,experiment,NULL,PennController,19,_Trial_,Start,1687287133886,61013dd3b0497e2ee44e23f8,61013dd3b0497e2ee44e23f8,17,roll,critical,D,50,roll40.jpg,roll60.jpg,high,NULL
1687287394,c34d04394019f9b4ee6cf15b8ec437d6,PennController,20,0,experiment,NULL,PennController,19,_Header_,Start,1687287133886,61013dd3b0497e2ee44e23f8,61013dd3b0497e2ee44e23f8,17,roll,critical,D,50,roll40.jpg,roll60.jpg,high,NULL
1687287394,c34d04394019f9b4ee6cf15b8ec437d6,PennController,20,0,experiment,NULL,PennController,19,_Header_,End,1687287133886,61013dd3b0497e2ee44e23f8,61013dd3b0497e2ee44e23f8,17,roll,critical,D,50,roll40.jpg,roll60.jpg,high,NULL
1687287394,c34d04394019f9b4ee6cf15b8ec437d6,PennController,20,0,experiment,NULL,Canvas,canvas6,Print,NA,1687287140607,61013dd3b0497e2ee44e23f8,61013dd3b0497e2ee44e23f8,17,roll,critical,D,50,roll40.jpg,roll60.jpg,high,NULL
1687287394,c34d04394019f9b4ee6cf15b8ec437d6,PennController,20,0,experiment,NULL,Video,progression,buffer,0.02361,1687287137453,61013dd3b0497e2ee44e23f8,61013dd3b0497e2ee44e23f8,17,roll,critical,D,50,roll40.jpg,roll60.jpg,high,NULL
1687287394,c34d04394019f9b4ee6cf15b8ec437d6,PennController,20,0,experiment,NULL,Selector,choice,Selection,option1,1687287141955,61013dd3b0497e2ee44e23f8,61013dd3b0497e2ee44e23f8,17,roll,critical,D,50,roll40.jpg,roll60.jpg,high,option1;option2
1687287394,c34d04394019f9b4ee6cf15b8ec437d6,PennController,20,0,experiment,NULL,PennController,19,_Trial_,End,1687287141959,61013dd3b0497e2ee44e23f8,61013dd3b0497e2ee44e23f8,17,roll,critical,D,50,roll40.jpg,roll60.jpg,high,NULL
1687287394,c34d04394019f9b4ee6cf15b8ec437d6,PennController,22,0,experiment,NULL,PennController,21,_Trial_,Start,1687287141963,61013dd3b0497e2ee44e23f8,61013dd3b0497e2ee44e23f8,19,cup,filler,D,25,cup15.jpg,cup35.jpg,GoalB,NULL
1687287394,c34d04394019f9b4ee6cf15b8ec437d6,PennController,22,0,experiment,NULL,PennController,21,_Header_,Start,1687287141963,61013dd3b0497e2ee44e23f8,61013dd3b0497e2ee44e23f8,19,cup,filler,D,25,cup15.jpg,cup35.jpg,GoalB,NULL
1687287394,c34d04394019f9b4ee6cf15b8ec437d6,PennController,22,0,experiment,NULL,PennController,21,_Header_,End,1687287141963,61013dd3b0497e2ee44e23f8,61013dd3b0497e2ee44e23f8,19,cup,filler,D,25,cup15.jpg,cup35.jpg,GoalB,NULL
1687287394,c34d04394019f9b4ee6cf15b8ec437d6,PennController,22,0,experiment,NULL,Canvas,canvas6,Print,NA,1687287147679,61013dd3b0497e2ee44e23f8,61013dd3b0497e2ee44e23f8,19,cup,filler,D,25,cup15.jpg,cup35.jpg,GoalB,NULL
1687287394,c34d04394019f9b4ee6cf15b8ec437d6,PennController,22,0,experiment,NULL,Video,progression,buffer,0.025108,1687287145528,61013dd3b0497e2ee44e23f8,61013dd3b0497e2ee44e23f8,19,cup,filler,D,25,cup15.jpg,cup35.jpg,GoalB,NULL
1687287394,c34d04394019f9b4ee6cf15b8ec437d6,PennController,22,0,experiment,NULL,Selector,choice,Selection,option2,1687287150112,61013dd3b0497e2ee44e23f8,61013dd3b0497e2ee44e23f8,19,cup,filler,D,25,cup15.jpg,cup35.jpg,GoalB,option2;option1
1687287394,c34d04394019f9b4ee6cf15b8ec437d6,PennController,22,0,experiment,NULL,PennController,21,_Trial_,End,1687287150117,61013dd3b0497e2ee44e23f8,61013dd3b0497e2ee44e23f8,19,cup,filler,D,25,cup15.jpg,cup35.jpg,GoalB,NULL
1687287394,c34d04394019f9b4ee6cf15b8ec437d6,PennController,31,0,experiment,NULL,PennController,30,_Trial_,Start,1687287150122,61013dd3b0497e2ee44e23f8,61013dd3b0497e2ee44e23f8,28,sort,filler,D,25,sort15.jpg,sort35.jpg,GoalA,NULL
1687287394,c34d04394019f9b4ee6cf15b8ec437d6,PennController,31,0,experiment,NULL,PennController,30,_Header_,Start,1687287150122,61013dd3b0497e2ee44e23f8,61013dd3b0497e2ee44e23f8,28,sort,filler,D,25,sort15.jpg,sort35.jpg,GoalA,NULL
1687287394,c34d04394019f9b4ee6cf15b8ec437d6,PennController,31,0,experiment,NULL,PennController,30,_Header_,End,1687287150123,61013dd3b0497e2ee44e23f8,61013dd3b0497e2ee44e23f8,28,sort,filler,D,25,sort15.jpg,sort35.jpg,GoalA,NULL
1687287394,c34d04394019f9b4ee6cf15b8ec437d6,PennController,31,0,experiment,NULL,Canvas,canvas6,Print,NA,1687287155857,61013dd3b0497e2ee44e23f8,61013dd3b0497e2ee44e23f8,28,sort,filler,D,25,sort15.jpg,sort35.jpg,GoalA,NULL
1687287394,c34d04394019f9b4ee6cf15b8ec437d6,PennController,31,0,experiment,NULL,Video,progression,buffer,0.020502,1687287153689,61013dd3b0497e2ee44e23f8,61013dd3b0497e2ee44e23f8,28,sort,filler,D,25,sort15.jpg,sort35.jpg,GoalA,NULL
1687287394,c34d04394019f9b4ee6cf15b8ec437d6,PennController,31,0,experiment,NULL,Selector,choice,Selection,option1,1687287157361,61013dd3b0497e2ee44e23f8,61013dd3b0497e2ee44e23f8,28,sort,filler,D,25,sort15.jpg,sort35.jpg,GoalA,option2;option1
1687287394,c34d04394019f9b4ee6cf15b8ec437d6,PennController,31,0,experiment,NULL,PennController,30,_Trial_,End,1687287157364,61013dd3b0497e2ee44e23f8,61013dd3b0497e2ee44e23f8,28,sort,filler,D,25,sort15.jpg,sort35.jpg,GoalA,NULL
1687287394,c34d04394019f9b4ee6cf15b8ec437d6,PennController,9,0,experiment,NULL,PennController,8,_Trial_,Start,1687287157368,61013dd3b0497e2ee44e23f8,61013dd3b0497e2ee44e23f8,6,flower,critical,D,75,flower65.jpg,flower85.jpg,high,NULL
1687287394,c34d04394019f9b4ee6cf15b8ec437d6,PennController,9,0,experiment,NULL,PennController,8,_Header_,Start,1687287157368,61013dd3b0497e2ee44e23f8,61013dd3b0497e2ee44e23f8,6,flower,critical,D,75,flower65.jpg,flower85.jpg,high,NULL
1687287394,c34d04394019f9b4ee6cf15b8ec437d6,PennController,9,0,experiment,NULL,PennController,8,_Header_,End,1687287157368,61013dd3b0497e2ee44e23f8,61013dd3b0497e2ee44e23f8,6,flower,critical,D,75,flower65.jpg,flower85.jpg,high,NULL
1687287394,c34d04394019f9b4ee6cf15b8ec437d6,PennController,9,0,experiment,NULL,Canvas,canvas6,Print,NA,1687287165102,61013dd3b0497e2ee44e23f8,61013dd3b0497e2ee44e23f8,6,flower,critical,D,75,flower65.jpg,flower85.jpg,high,NULL
1687287394,c34d04394019f9b4ee6cf15b8ec437d6,PennController,9,0,experiment,NULL,Video,progression,buffer,0.028036,1687287160951,61013dd3b0497e2ee44e23f8,61013dd3b0497e2ee44e23f8,6,flower,critical,D,75,flower65.jpg,flower85.jpg,high,NULL
1687287394,c34d04394019f9b4ee6cf15b8ec437d6,PennController,9,0,experiment,NULL,Selector,choice,Selection,option2,1687287166633,61013dd3b0497e2ee44e23f8,61013dd3b0497e2ee44e23f8,6,flower,critical,D,75,flower65.jpg,flower85.jpg,high,option2;option1
1687287394,c34d04394019f9b4ee6cf15b8ec437d6,PennController,9,0,experiment,NULL,PennController,8,_Trial_,End,1687287166637,61013dd3b0497e2ee44e23f8,61013dd3b0497e2ee44e23f8,6,flower,critical,D,75,flower65.jpg,flower85.jpg,high,NULL
1687287394,c34d04394019f9b4ee6cf15b8ec437d6,PennController,16,0,experiment,NULL,PennController,15,_Trial_,Start,1687287166640,61013dd3b0497e2ee44e23f8,61013dd3b0497e2ee44e23f8,13,mix,critical,D,25,mix15.jpg,mix35.jpg,high,NULL
1687287394,c34d04394019f9b4ee6cf15b8ec437d6,PennController,16,0,experiment,NULL,PennController,15,_Header_,Start,1687287166640,61013dd3b0497e2ee44e23f8,61013dd3b0497e2ee44e23f8,13,mix,critical,D,25,mix15.jpg,mix35.jpg,high,NULL
1687287394,c34d04394019f9b4ee6cf15b8ec437d6,PennController,16,0,experiment,NULL,PennController,15,_Header_,End,1687287166640,61013dd3b0497e2ee44e23f8,61013dd3b0497e2ee44e23f8,13,mix,critical,D,25,mix15.jpg,mix35.jpg,high,NULL
1687287394,c34d04394019f9b4ee6cf15b8ec437d6,PennController,16,0,experiment,NULL,Canvas,canvas6,Print,NA,1687287172394,61013dd3b0497e2ee44e23f8,61013dd3b0497e2ee44e23f8,13,mix,critical,D,25,mix15.jpg,mix35.jpg,high,NULL
1687287394,c34d04394019f9b4ee6cf15b8ec437d6,PennController,16,0,experiment,NULL,Video,progression,buffer,0.019855,1687287170224,61013dd3b0497e2ee44e23f8,61013dd3b0497e2ee44e23f8,13,mix,critical,D,25,mix15.jpg,mix35.jpg,high,NULL
1687287394,c34d04394019f9b4ee6cf15b8ec437d6,PennController,16,0,experiment,NULL,Selector,choice,Selection,option1,1687287173692,61013dd3b0497e2ee44e23f8,61013dd3b0497e2ee44e23f8,13,mix,critical,D,25,mix15.jpg,mix35.jpg,high,option2;option1
1687287394,c34d04394019f9b4ee6cf15b8ec437d6,PennController,16,0,experiment,NULL,PennController,15,_Trial_,End,1687287173696,61013dd3b0497e2ee44e23f8,61013dd3b0497e2ee44e23f8,13,mix,critical,D,25,mix15.jpg,mix35.jpg,high,NULL
1687287394,c34d04394019f9b4ee6cf15b8ec437d6,PennController,25,0,experiment,NULL,PennController,24,_Trial_,Start,1687287173704,61013dd3b0497e2ee44e23f8,61013dd3b0497e2ee44e23f8,22,wall,filler,D,25,wall15.jpg,wall35.jpg,GoalA,NULL
1687287394,c34d04394019f9b4ee6cf15b8ec437d6,PennController,25,0,experiment,NULL,PennController,24,_Header_,Start,1687287173704,61013dd3b0497e2ee44e23f8,61013dd3b0497e2ee44e23f8,22,wall,filler,D,25,wall15.jpg,wall35.jpg,GoalA,NULL
1687287394,c34d04394019f9b4ee6cf15b8ec437d6,PennController,25,0,experiment,NULL,PennController,24,_Header_,End,1687287173704,61013dd3b0497e2ee44e23f8,61013dd3b0497e2ee44e23f8,22,wall,filler,D,25,wall15.jpg,wall35.jpg,GoalA,NULL
1687287394,c34d04394019f9b4ee6cf15b8ec437d6,PennController,25,0,experiment,NULL,Canvas,canvas6,Print,NA,1687287179441,61013dd3b0497e2ee44e23f8,61013dd3b0497e2ee44e23f8,22,wall,filler,D,25,wall15.jpg,wall35.jpg,GoalA,NULL
1687287394,c34d04394019f9b4ee6cf15b8ec437d6,PennController,25,0,experiment,NULL,Video,progression,buffer,0.023215,1687287177280,61013dd3b0497e2ee44e23f8,61013dd3b0497e2ee44e23f8,22,wall,filler,D,25,wall15.jpg,wall35.jpg,GoalA,NULL
1687287394,c34d04394019f9b4ee6cf15b8ec437d6,PennController,25,0,experiment,NULL,Selector,choice,Selection,option1,1687287183703,61013dd3b0497e2ee44e23f8,61013dd3b0497e2ee44e23f8,22,wall,filler,D,25,wall15.jpg,wall35.jpg,GoalA,option1;option2
1687287394,c34d04394019f9b4ee6cf15b8ec437d6,PennController,25,0,experiment,NULL,PennController,24,_Trial_,End,1687287183707,61013dd3b0497e2ee44e23f8,61013dd3b0497e2ee44e23f8,22,wall,filler,D,25,wall15.jpg,wall35.jpg,GoalA,NULL
1687287394,c34d04394019f9b4ee6cf15b8ec437d6,PennController,6,0,experiment,NULL,PennController,5,_Trial_,Start,1687287183710,61013dd3b0497e2ee44e23f8,61013dd3b0497e2ee44e23f8,3,clean,critical,D,75,clean65.jpg,clean85.jpg,high,NULL
1687287394,c34d04394019f9b4ee6cf15b8ec437d6,PennController,6,0,experiment,NULL,PennController,5,_Header_,Start,1687287183710,61013dd3b0497e2ee44e23f8,61013dd3b0497e2ee44e23f8,3,clean,critical,D,75,clean65.jpg,clean85.jpg,high,NULL
1687287394,c34d04394019f9b4ee6cf15b8ec437d6,PennController,6,0,experiment,NULL,PennController,5,_Header_,End,1687287183710,61013dd3b0497e2ee44e23f8,61013dd3b0497e2ee44e23f8,3,clean,critical,D,75,clean65.jpg,clean85.jpg,high,NULL
1687287394,c34d04394019f9b4ee6cf15b8ec437d6,PennController,6,0,experiment,NULL,Canvas,canvas6,Print,NA,1687287191582,61013dd3b0497e2ee44e23f8,61013dd3b0497e2ee44e23f8,3,clean,critical,D,75,clean65.jpg,clean85.jpg,high,NULL
1687287394,c34d04394019f9b4ee6cf15b8ec437d6,PennController,6,0,experiment,NULL,Video,progression,buffer,0.02,1687287187284,61013dd3b0497e2ee44e23f8,61013dd3b0497e2ee44e23f8,3,clean,critical,D,75,clean65.jpg,clean85.jpg,high,NULL
1687287394,c34d04394019f9b4ee6cf15b8ec437d6,PennController,6,0,experiment,NULL,Selector,choice,Selection,option1,1687287192769,61013dd3b0497e2ee44e23f8,61013dd3b0497e2ee44e23f8,3,clean,critical,D,75,clean65.jpg,clean85.jpg,high,option1;option2
1687287394,c34d04394019f9b4ee6cf15b8ec437d6,PennController,6,0,experiment,NULL,PennController,5,_Trial_,End,1687287192775,61013dd3b0497e2ee44e23f8,61013dd3b0497e2ee44e23f8,3,clean,critical,D,75,clean65.jpg,clean85.jpg,high,NULL
1687287394,c34d04394019f9b4ee6cf15b8ec437d6,PennController,23,0,experiment,NULL,PennController,22,_Trial_,Start,1687287192778,61013dd3b0497e2ee44e23f8,61013dd3b0497e2ee44e23f8,20,cat,filler,D,50,cat40.jpg,cat60.jpg,GoalA,NULL
1687287394,c34d04394019f9b4ee6cf15b8ec437d6,PennController,23,0,experiment,NULL,PennController,22,_Header_,Start,1687287192778,61013dd3b0497e2ee44e23f8,61013dd3b0497e2ee44e23f8,20,cat,filler,D,50,cat40.jpg,cat60.jpg,GoalA,NULL
1687287394,c34d04394019f9b4ee6cf15b8ec437d6,PennController,23,0,experiment,NULL,PennController,22,_Header_,End,1687287192778,61013dd3b0497e2ee44e23f8,61013dd3b0497e2ee44e23f8,20,cat,filler,D,50,cat40.jpg,cat60.jpg,GoalA,NULL
1687287394,c34d04394019f9b4ee6cf15b8ec437d6,PennController,23,0,experiment,NULL,Canvas,canvas6,Print,NA,1687287199510,61013dd3b0497e2ee44e23f8,61013dd3b0497e2ee44e23f8,20,cat,filler,D,50,cat40.jpg,cat60.jpg,GoalA,NULL
1687287394,c34d04394019f9b4ee6cf15b8ec437d6,PennController,23,0,experiment,NULL,Video,progression,buffer,0.019622,1687287196355,61013dd3b0497e2ee44e23f8,61013dd3b0497e2ee44e23f8,20,cat,filler,D,50,cat40.jpg,cat60.jpg,GoalA,NULL
1687287394,c34d04394019f9b4ee6cf15b8ec437d6,PennController,23,0,experiment,NULL,Selector,choice,Selection,option2,1687287200582,61013dd3b0497e2ee44e23f8,61013dd3b0497e2ee44e23f8,20,cat,filler,D,50,cat40.jpg,cat60.jpg,GoalA,option2;option1
1687287394,c34d04394019f9b4ee6cf15b8ec437d6,PennController,23,0,experiment,NULL,PennController,22,_Trial_,End,1687287200586,61013dd3b0497e2ee44e23f8,61013dd3b0497e2ee44e23f8,20,cat,filler,D,50,cat40.jpg,cat60.jpg,GoalA,NULL
1687287394,c34d04394019f9b4ee6cf15b8ec437d6,PennController,19,0,experiment,NULL,PennController,18,_Trial_,Start,1687287200592,61013dd3b0497e2ee44e23f8,61013dd3b0497e2ee44e23f8,16,blinds,critical,D,25,blinds15.jpg,blinds33.jpg,high,NULL
1687287394,c34d04394019f9b4ee6cf15b8ec437d6,PennController,19,0,experiment,NULL,PennController,18,_Header_,Start,1687287200592,61013dd3b0497e2ee44e23f8,61013dd3b0497e2ee44e23f8,16,blinds,critical,D,25,blinds15.jpg,blinds33.jpg,high,NULL
1687287394,c34d04394019f9b4ee6cf15b8ec437d6,PennController,19,0,experiment,NULL,PennController,18,_Header_,End,1687287200592,61013dd3b0497e2ee44e23f8,61013dd3b0497e2ee44e23f8,16,blinds,critical,D,25,blinds15.jpg,blinds33.jpg,high,NULL
1687287394,c34d04394019f9b4ee6cf15b8ec437d6,PennController,19,0,experiment,NULL,Canvas,canvas6,Print,NA,1687287206927,61013dd3b0497e2ee44e23f8,61013dd3b0497e2ee44e23f8,16,blinds,critical,D,25,blinds15.jpg,blinds33.jpg,high,NULL
1687287394,c34d04394019f9b4ee6cf15b8ec437d6,PennController,19,0,experiment,NULL,Video,progression,buffer,0.013956,1687287204156,61013dd3b0497e2ee44e23f8,61013dd3b0497e2ee44e23f8,16,blinds,critical,D,25,blinds15.jpg,blinds33.jpg,high,NULL
1687287394,c34d04394019f9b4ee6cf15b8ec437d6,PennController,19,0,experiment,NULL,Selector,choice,Selection,option2,1687287209138,61013dd3b0497e2ee44e23f8,61013dd3b0497e2ee44e23f8,16,blinds,critical,D,25,blinds15.jpg,blinds33.jpg,high,option1;option2
1687287394,c34d04394019f9b4ee6cf15b8ec437d6,PennController,19,0,experiment,NULL,PennController,18,_Trial_,End,1687287209142,61013dd3b0497e2ee44e23f8,61013dd3b0497e2ee44e23f8,16,blinds,critical,D,25,blinds15.jpg,blinds33.jpg,high,NULL
1687287394,c34d04394019f9b4ee6cf15b8ec437d6,PennController,8,0,experiment,NULL,PennController,7,_Trial_,Start,1687287209147,61013dd3b0497e2ee44e23f8,61013dd3b0497e2ee44e23f8,5,book,critical,D,50,book40.jpg,book60.jpg,high,NULL
1687287394,c34d04394019f9b4ee6cf15b8ec437d6,PennController,8,0,experiment,NULL,PennController,7,_Header_,Start,1687287209147,61013dd3b0497e2ee44e23f8,61013dd3b0497e2ee44e23f8,5,book,critical,D,50,book40.jpg,book60.jpg,high,NULL
1687287394,c34d04394019f9b4ee6cf15b8ec437d6,PennController,8,0,experiment,NULL,PennController,7,_Header_,End,1687287209147,61013dd3b0497e2ee44e23f8,61013dd3b0497e2ee44e23f8,5,book,critical,D,50,book40.jpg,book60.jpg,high,NULL
1687287394,c34d04394019f9b4ee6cf15b8ec437d6,PennController,8,0,experiment,NULL,Canvas,canvas6,Print,NA,1687287215889,61013dd3b0497e2ee44e23f8,61013dd3b0497e2ee44e23f8,5,book,critical,D,50,book40.jpg,book60.jpg,high,NULL
1687287394,c34d04394019f9b4ee6cf15b8ec437d6,PennController,8,0,experiment,NULL,Video,progression,buffer,0.019046,1687287212722,61013dd3b0497e2ee44e23f8,61013dd3b0497e2ee44e23f8,5,book,critical,D,50,book40.jpg,book60.jpg,high,NULL
1687287394,c34d04394019f9b4ee6cf15b8ec437d6,PennController,8,0,experiment,NULL,Selector,choice,Selection,option2,1687287217853,61013dd3b0497e2ee44e23f8,61013dd3b0497e2ee44e23f8,5,book,critical,D,50,book40.jpg,book60.jpg,high,option1;option2
1687287394,c34d04394019f9b4ee6cf15b8ec437d6,PennController,8,0,experiment,NULL,PennController,7,_Trial_,End,1687287217857,61013dd3b0497e2ee44e23f8,61013dd3b0497e2ee44e23f8,5,book,critical,D,50,book40.jpg,book60.jpg,high,NULL
1687287394,c34d04394019f9b4ee6cf15b8ec437d6,PennController,15,0,experiment,NULL,PennController,14,_Trial_,Start,1687287217862,61013dd3b0497e2ee44e23f8,61013dd3b0497e2ee44e23f8,12,erase,critical,D,75,erase66.jpg,erase84.jpg,high,NULL
1687287394,c34d04394019f9b4ee6cf15b8ec437d6,PennController,15,0,experiment,NULL,PennController,14,_Header_,Start,1687287217862,61013dd3b0497e2ee44e23f8,61013dd3b0497e2ee44e23f8,12,erase,critical,D,75,erase66.jpg,erase84.jpg,high,NULL
1687287394,c34d04394019f9b4ee6cf15b8ec437d6,PennController,15,0,experiment,NULL,PennController,14,_Header_,End,1687287217862,61013dd3b0497e2ee44e23f8,61013dd3b0497e2ee44e23f8,12,erase,critical,D,75,erase66.jpg,erase84.jpg,high,NULL
1687287394,c34d04394019f9b4ee6cf15b8ec437d6,PennController,15,0,experiment,NULL,Canvas,canvas6,Print,NA,1687287227605,61013dd3b0497e2ee44e23f8,61013dd3b0497e2ee44e23f8,12,erase,critical,D,75,erase66.jpg,erase84.jpg,high,NULL
1687287394,c34d04394019f9b4ee6cf15b8ec437d6,PennController,15,0,experiment,NULL,Video,progression,buffer,0.019793,1687287221436,61013dd3b0497e2ee44e23f8,61013dd3b0497e2ee44e23f8,12,erase,critical,D,75,erase66.jpg,erase84.jpg,high,NULL
1687287394,c34d04394019f9b4ee6cf15b8ec437d6,PennController,15,0,experiment,NULL,Selector,choice,Selection,option2,1687287229193,61013dd3b0497e2ee44e23f8,61013dd3b0497e2ee44e23f8,12,erase,critical,D,75,erase66.jpg,erase84.jpg,high,option1;option2
1687287394,c34d04394019f9b4ee6cf15b8ec437d6,PennController,15,0,experiment,NULL,PennController,14,_Trial_,End,1687287229198,61013dd3b0497e2ee44e23f8,61013dd3b0497e2ee44e23f8,12,erase,critical,D,75,erase66.jpg,erase84.jpg,high,NULL
1687287394,c34d04394019f9b4ee6cf15b8ec437d6,PennController,29,0,experiment,NULL,PennController,28,_Trial_,Start,1687287229207,61013dd3b0497e2ee44e23f8,61013dd3b0497e2ee44e23f8,26,sandwich,filler,D,50,sandwich40.jpg,sandwich60.jpg,GoalA,NULL
1687287394,c34d04394019f9b4ee6cf15b8ec437d6,PennController,29,0,experiment,NULL,PennController,28,_Header_,Start,1687287229207,61013dd3b0497e2ee44e23f8,61013dd3b0497e2ee44e23f8,26,sandwich,filler,D,50,sandwich40.jpg,sandwich60.jpg,GoalA,NULL
1687287394,c34d04394019f9b4ee6cf15b8ec437d6,PennController,29,0,experiment,NULL,PennController,28,_Header_,End,1687287229207,61013dd3b0497e2ee44e23f8,61013dd3b0497e2ee44e23f8,26,sandwich,filler,D,50,sandwich40.jpg,sandwich60.jpg,GoalA,NULL
1687287394,c34d04394019f9b4ee6cf15b8ec437d6,PennController,29,0,experiment,NULL,Canvas,canvas6,Print,NA,1687287235939,61013dd3b0497e2ee44e23f8,61013dd3b0497e2ee44e23f8,26,sandwich,filler,D,50,sandwich40.jpg,sandwich60.jpg,GoalA,NULL
1687287394,c34d04394019f9b4ee6cf15b8ec437d6,PennController,29,0,experiment,NULL,Video,progression,buffer,0.018679,1687287232777,61013dd3b0497e2ee44e23f8,61013dd3b0497e2ee44e23f8,26,sandwich,filler,D,50,sandwich40.jpg,sandwich60.jpg,GoalA,NULL
1687287394,c34d04394019f9b4ee6cf15b8ec437d6,PennController,29,0,experiment,NULL,Selector,choice,Selection,option1,1687287237052,61013dd3b0497e2ee44e23f8,61013dd3b0497e2ee44e23f8,26,sandwich,filler,D,50,sandwich40.jpg,sandwich60.jpg,GoalA,option2;option1
1687287394,c34d04394019f9b4ee6cf15b8ec437d6,PennController,29,0,experiment,NULL,PennController,28,_Trial_,End,1687287237056,61013dd3b0497e2ee44e23f8,61013dd3b0497e2ee44e23f8,26,sandwich,filler,D,50,sandwich40.jpg,sandwich60.jpg,GoalA,NULL
1687287394,c34d04394019f9b4ee6cf15b8ec437d6,PennController,17,0,experiment,NULL,PennController,16,_Trial_,Start,1687287237059,61013dd3b0497e2ee44e23f8,61013dd3b0497e2ee44e23f8,14,cover,critical,D,50,cover42.jpg,cover60.jpg,high,NULL
1687287394,c34d04394019f9b4ee6cf15b8ec437d6,PennController,17,0,experiment,NULL,PennController,16,_Header_,Start,1687287237059,61013dd3b0497e2ee44e23f8,61013dd3b0497e2ee44e23f8,14,cover,critical,D,50,cover42.jpg,cover60.jpg,high,NULL
1687287394,c34d04394019f9b4ee6cf15b8ec437d6,PennController,17,0,experiment,NULL,PennController,16,_Header_,End,1687287237059,61013dd3b0497e2ee44e23f8,61013dd3b0497e2ee44e23f8,14,cover,critical,D,50,cover42.jpg,cover60.jpg,high,NULL
1687287394,c34d04394019f9b4ee6cf15b8ec437d6,PennController,17,0,experiment,NULL,Canvas,canvas6,Print,NA,1687287245199,61013dd3b0497e2ee44e23f8,61013dd3b0497e2ee44e23f8,14,cover,critical,D,50,cover42.jpg,cover60.jpg,high,NULL
1687287394,c34d04394019f9b4ee6cf15b8ec437d6,PennController,17,0,experiment,NULL,Video,progression,buffer,0.0209,1687287240625,61013dd3b0497e2ee44e23f8,61013dd3b0497e2ee44e23f8,14,cover,critical,D,50,cover42.jpg,cover60.jpg,high,NULL
1687287394,c34d04394019f9b4ee6cf15b8ec437d6,PennController,17,0,experiment,NULL,Selector,choice,Selection,option2,1687287248022,61013dd3b0497e2ee44e23f8,61013dd3b0497e2ee44e23f8,14,cover,critical,D,50,cover42.jpg,cover60.jpg,high,option1;option2
1687287394,c34d04394019f9b4ee6cf15b8ec437d6,PennController,17,0,experiment,NULL,PennController,16,_Trial_,End,1687287248026,61013dd3b0497e2ee44e23f8,61013dd3b0497e2ee44e23f8,14,cover,critical,D,50,cover42.jpg,cover60.jpg,high,NULL
1687287394,c34d04394019f9b4ee6cf15b8ec437d6,PennController,11,0,experiment,NULL,PennController,10,_Trial_,Start,1687287248031,61013dd3b0497e2ee44e23f8,61013dd3b0497e2ee44e23f8,8,cucumber,critical,D,50,cucumber42.jpg,cucumber60.jpg,high,NULL
1687287394,c34d04394019f9b4ee6cf15b8ec437d6,PennController,11,0,experiment,NULL,PennController,10,_Header_,Start,1687287248031,61013dd3b0497e2ee44e23f8,61013dd3b0497e2ee44e23f8,8,cucumber,critical,D,50,cucumber42.jpg,cucumber60.jpg,high,NULL
1687287394,c34d04394019f9b4ee6cf15b8ec437d6,PennController,11,0,experiment,NULL,PennController,10,_Header_,End,1687287248031,61013dd3b0497e2ee44e23f8,61013dd3b0497e2ee44e23f8,8,cucumber,critical,D,50,cucumber42.jpg,cucumber60.jpg,high,NULL
1687287394,c34d04394019f9b4ee6cf15b8ec437d6,PennController,11,0,experiment,NULL,Canvas,canvas6,Print,NA,1687287256179,61013dd3b0497e2ee44e23f8,61013dd3b0497e2ee44e23f8,8,cucumber,critical,D,50,cucumber42.jpg,cucumber60.jpg,high,NULL
1687287394,c34d04394019f9b4ee6cf15b8ec437d6,PennController,11,0,experiment,NULL,Video,progression,buffer,0.026052,1687287251608,61013dd3b0497e2ee44e23f8,61013dd3b0497e2ee44e23f8,8,cucumber,critical,D,50,cucumber42.jpg,cucumber60.jpg,high,NULL
1687287394,c34d04394019f9b4ee6cf15b8ec437d6,PennController,11,0,experiment,NULL,Selector,choice,Selection,option1,1687287257773,61013dd3b0497e2ee44e23f8,61013dd3b0497e2ee44e23f8,8,cucumber,critical,D,50,cucumber42.jpg,cucumber60.jpg,high,option2;option1
1687287394,c34d04394019f9b4ee6cf15b8ec437d6,PennController,11,0,experiment,NULL,PennController,10,_Trial_,End,1687287257778,61013dd3b0497e2ee44e23f8,61013dd3b0497e2ee44e23f8,8,cucumber,critical,D,50,cucumber42.jpg,cucumber60.jpg,high,NULL
1687287394,c34d04394019f9b4ee6cf15b8ec437d6,PennController,4,0,experiment,NULL,PennController,3,_Trial_,Start,1687287257782,61013dd3b0497e2ee44e23f8,61013dd3b0497e2ee44e23f8,1,vase,critical,D,25,vase15.jpg,vase35.jpg,high,NULL
1687287394,c34d04394019f9b4ee6cf15b8ec437d6,PennController,4,0,experiment,NULL,PennController,3,_Header_,Start,1687287257782,61013dd3b0497e2ee44e23f8,61013dd3b0497e2ee44e23f8,1,vase,critical,D,25,vase15.jpg,vase35.jpg,high,NULL
1687287394,c34d04394019f9b4ee6cf15b8ec437d6,PennController,4,0,experiment,NULL,PennController,3,_Header_,End,1687287257782,61013dd3b0497e2ee44e23f8,61013dd3b0497e2ee44e23f8,1,vase,critical,D,25,vase15.jpg,vase35.jpg,high,NULL
1687287394,c34d04394019f9b4ee6cf15b8ec437d6,PennController,4,0,experiment,NULL,Canvas,canvas6,Print,NA,1687287263517,61013dd3b0497e2ee44e23f8,61013dd3b0497e2ee44e23f8,1,vase,critical,D,25,vase15.jpg,vase35.jpg,high,NULL
1687287394,c34d04394019f9b4ee6cf15b8ec437d6,PennController,4,0,experiment,NULL,Video,progression,buffer,0.010674,1687287261341,61013dd3b0497e2ee44e23f8,61013dd3b0497e2ee44e23f8,1,vase,critical,D,25,vase15.jpg,vase35.jpg,high,NULL
1687287394,c34d04394019f9b4ee6cf15b8ec437d6,PennController,4,0,experiment,NULL,Selector,choice,Selection,option2,1687287265223,61013dd3b0497e2ee44e23f8,61013dd3b0497e2ee44e23f8,1,vase,critical,D,25,vase15.jpg,vase35.jpg,high,option2;option1
1687287394,c34d04394019f9b4ee6cf15b8ec437d6,PennController,4,0,experiment,NULL,PennController,3,_Trial_,End,1687287265226,61013dd3b0497e2ee44e23f8,61013dd3b0497e2ee44e23f8,1,vase,critical,D,25,vase15.jpg,vase35.jpg,high,NULL
1687287394,c34d04394019f9b4ee6cf15b8ec437d6,PennController,26,0,experiment,NULL,PennController,25,_Trial_,Start,1687287265232,61013dd3b0497e2ee44e23f8,61013dd3b0497e2ee44e23f8,23,color,filler,D,50,color40.jpg,color60.jpg,GoalB,NULL
1687287394,c34d04394019f9b4ee6cf15b8ec437d6,PennController,26,0,experiment,NULL,PennController,25,_Header_,Start,1687287265232,61013dd3b0497e2ee44e23f8,61013dd3b0497e2ee44e23f8,23,color,filler,D,50,color40.jpg,color60.jpg,GoalB,NULL
1687287394,c34d04394019f9b4ee6cf15b8ec437d6,PennController,26,0,experiment,NULL,PennController,25,_Header_,End,1687287265232,61013dd3b0497e2ee44e23f8,61013dd3b0497e2ee44e23f8,23,color,filler,D,50,color40.jpg,color60.jpg,GoalB,NULL
1687287394,c34d04394019f9b4ee6cf15b8ec437d6,PennController,26,0,experiment,NULL,Canvas,canvas6,Print,NA,1687287271961,61013dd3b0497e2ee44e23f8,61013dd3b0497e2ee44e23f8,23,color,filler,D,50,color40.jpg,color60.jpg,GoalB,NULL
1687287394,c34d04394019f9b4ee6cf15b8ec437d6,PennController,26,0,experiment,NULL,Video,progression,buffer,0.013799,1687287268791,61013dd3b0497e2ee44e23f8,61013dd3b0497e2ee44e23f8,23,color,filler,D,50,color40.jpg,color60.jpg,GoalB,NULL
1687287394,c34d04394019f9b4ee6cf15b8ec437d6,PennController,26,0,experiment,NULL,Selector,choice,Selection,option1,1687287274505,61013dd3b0497e2ee44e23f8,61013dd3b0497e2ee44e23f8,23,color,filler,D,50,color40.jpg,color60.jpg,GoalB,option2;option1
1687287394,c34d04394019f9b4ee6cf15b8ec437d6,PennController,26,0,experiment,NULL,PennController,25,_Trial_,End,1687287274509,61013dd3b0497e2ee44e23f8,61013dd3b0497e2ee44e23f8,23,color,filler,D,50,color40.jpg,color60.jpg,GoalB,NULL
1687287394,c34d04394019f9b4ee6cf15b8ec437d6,PennController,28,0,experiment,NULL,PennController,27,_Trial_,Start,1687287274513,61013dd3b0497e2ee44e23f8,61013dd3b0497e2ee44e23f8,25,house,filler,D,25,house15.jpg,house35.jpg,GoalB,NULL
1687287394,c34d04394019f9b4ee6cf15b8ec437d6,PennController,28,0,experiment,NULL,PennController,27,_Header_,Start,1687287274513,61013dd3b0497e2ee44e23f8,61013dd3b0497e2ee44e23f8,25,house,filler,D,25,house15.jpg,house35.jpg,GoalB,NULL
1687287394,c34d04394019f9b4ee6cf15b8ec437d6,PennController,28,0,experiment,NULL,PennController,27,_Header_,End,1687287274513,61013dd3b0497e2ee44e23f8,61013dd3b0497e2ee44e23f8,25,house,filler,D,25,house15.jpg,house35.jpg,GoalB,NULL
1687287394,c34d04394019f9b4ee6cf15b8ec437d6,PennController,28,0,experiment,NULL,Canvas,canvas6,Print,NA,1687287280258,61013dd3b0497e2ee44e23f8,61013dd3b0497e2ee44e23f8,25,house,filler,D,25,house15.jpg,house35.jpg,GoalB,NULL
1687287394,c34d04394019f9b4ee6cf15b8ec437d6,PennController,28,0,experiment,NULL,Video,progression,buffer,0.027332,1687287278103,61013dd3b0497e2ee44e23f8,61013dd3b0497e2ee44e23f8,25,house,filler,D,25,house15.jpg,house35.jpg,GoalB,NULL
1687287394,c34d04394019f9b4ee6cf15b8ec437d6,PennController,28,0,experiment,NULL,Selector,choice,Selection,option2,1687287281709,61013dd3b0497e2ee44e23f8,61013dd3b0497e2ee44e23f8,25,house,filler,D,25,house15.jpg,house35.jpg,GoalB,option1;option2
1687287394,c34d04394019f9b4ee6cf15b8ec437d6,PennController,28,0,experiment,NULL,PennController,27,_Trial_,End,1687287281713,61013dd3b0497e2ee44e23f8,61013dd3b0497e2ee44e23f8,25,house,filler,D,25,house15.jpg,house35.jpg,GoalB,NULL
1687287394,c34d04394019f9b4ee6cf15b8ec437d6,PennController,12,0,experiment,NULL,PennController,11,_Trial_,Start,1687287281716,61013dd3b0497e2ee44e23f8,61013dd3b0497e2ee44e23f8,9,cake,critical,D,75,cake66.jpg,cake84.jpg,high,NULL
1687287394,c34d04394019f9b4ee6cf15b8ec437d6,PennController,12,0,experiment,NULL,PennController,11,_Header_,Start,1687287281716,61013dd3b0497e2ee44e23f8,61013dd3b0497e2ee44e23f8,9,cake,critical,D,75,cake66.jpg,cake84.jpg,high,NULL
1687287394,c34d04394019f9b4ee6cf15b8ec437d6,PennController,12,0,experiment,NULL,PennController,11,_Header_,End,1687287281716,61013dd3b0497e2ee44e23f8,61013dd3b0497e2ee44e23f8,9,cake,critical,D,75,cake66.jpg,cake84.jpg,high,NULL
1687287394,c34d04394019f9b4ee6cf15b8ec437d6,PennController,12,0,experiment,NULL,Canvas,canvas6,Print,NA,1687287291449,61013dd3b0497e2ee44e23f8,61013dd3b0497e2ee44e23f8,9,cake,critical,D,75,cake66.jpg,cake84.jpg,high,NULL
1687287394,c34d04394019f9b4ee6cf15b8ec437d6,PennController,12,0,experiment,NULL,Video,progression,buffer,0.026328,1687287285290,61013dd3b0497e2ee44e23f8,61013dd3b0497e2ee44e23f8,9,cake,critical,D,75,cake66.jpg,cake84.jpg,high,NULL
1687287394,c34d04394019f9b4ee6cf15b8ec437d6,PennController,12,0,experiment,NULL,Selector,choice,Selection,option2,1687287293229,61013dd3b0497e2ee44e23f8,61013dd3b0497e2ee44e23f8,9,cake,critical,D,75,cake66.jpg,cake84.jpg,high,option2;option1
1687287394,c34d04394019f9b4ee6cf15b8ec437d6,PennController,12,0,experiment,NULL,PennController,11,_Trial_,End,1687287293233,61013dd3b0497e2ee44e23f8,61013dd3b0497e2ee44e23f8,9,cake,critical,D,75,cake66.jpg,cake84.jpg,high,NULL
1687287394,c34d04394019f9b4ee6cf15b8ec437d6,PennController,27,0,experiment,NULL,PennController,26,_Trial_,Start,1687287293236,61013dd3b0497e2ee44e23f8,61013dd3b0497e2ee44e23f8,24,match,filler,D,75,match65.jpg,match85.jpg,GoalA,NULL
1687287394,c34d04394019f9b4ee6cf15b8ec437d6,PennController,27,0,experiment,NULL,PennController,26,_Header_,Start,1687287293236,61013dd3b0497e2ee44e23f8,61013dd3b0497e2ee44e23f8,24,match,filler,D,75,match65.jpg,match85.jpg,GoalA,NULL
1687287394,c34d04394019f9b4ee6cf15b8ec437d6,PennController,27,0,experiment,NULL,PennController,26,_Header_,End,1687287293236,61013dd3b0497e2ee44e23f8,61013dd3b0497e2ee44e23f8,24,match,filler,D,75,match65.jpg,match85.jpg,GoalA,NULL
1687287394,c34d04394019f9b4ee6cf15b8ec437d6,PennController,27,0,experiment,NULL,Canvas,canvas6,Print,NA,1687287300966,61013dd3b0497e2ee44e23f8,61013dd3b0497e2ee44e23f8,24,match,filler,D,75,match65.jpg,match85.jpg,GoalA,NULL
1687287394,c34d04394019f9b4ee6cf15b8ec437d6,PennController,27,0,experiment,NULL,Video,progression,buffer,0.025915,1687287296812,61013dd3b0497e2ee44e23f8,61013dd3b0497e2ee44e23f8,24,match,filler,D,75,match65.jpg,match85.jpg,GoalA,NULL
1687287394,c34d04394019f9b4ee6cf15b8ec437d6,PennController,27,0,experiment,NULL,Selector,choice,Selection,option2,1687287302352,61013dd3b0497e2ee44e23f8,61013dd3b0497e2ee44e23f8,24,match,filler,D,75,match65.jpg,match85.jpg,GoalA,option2;option1
1687287394,c34d04394019f9b4ee6cf15b8ec437d6,PennController,27,0,experiment,NULL,PennController,26,_Trial_,End,1687287302356,61013dd3b0497e2ee44e23f8,61013dd3b0497e2ee44e23f8,24,match,filler,D,75,match65.jpg,match85.jpg,GoalA,NULL
1687287394,c34d04394019f9b4ee6cf15b8ec437d6,PennController,5,0,experiment,NULL,PennController,4,_Trial_,Start,1687287302363,61013dd3b0497e2ee44e23f8,61013dd3b0497e2ee44e23f8,2,door,critical,D,50,door40.jpg,door60.jpg,high,NULL
1687287394,c34d04394019f9b4ee6cf15b8ec437d6,PennController,5,0,experiment,NULL,PennController,4,_Header_,Start,1687287302363,61013dd3b0497e2ee44e23f8,61013dd3b0497e2ee44e23f8,2,door,critical,D,50,door40.jpg,door60.jpg,high,NULL
1687287394,c34d04394019f9b4ee6cf15b8ec437d6,PennController,5,0,experiment,NULL,PennController,4,_Header_,End,1687287302363,61013dd3b0497e2ee44e23f8,61013dd3b0497e2ee44e23f8,2,door,critical,D,50,door40.jpg,door60.jpg,high,NULL
1687287394,c34d04394019f9b4ee6cf15b8ec437d6,PennController,5,0,experiment,NULL,Canvas,canvas6,Print,NA,1687287309095,61013dd3b0497e2ee44e23f8,61013dd3b0497e2ee44e23f8,2,door,critical,D,50,door40.jpg,door60.jpg,high,NULL
1687287394,c34d04394019f9b4ee6cf15b8ec437d6,PennController,5,0,experiment,NULL,Video,progression,buffer,0.020522,1687287305928,61013dd3b0497e2ee44e23f8,61013dd3b0497e2ee44e23f8,2,door,critical,D,50,door40.jpg,door60.jpg,high,NULL
1687287394,c34d04394019f9b4ee6cf15b8ec437d6,PennController,5,0,experiment,NULL,Selector,choice,Selection,option2,1687287312823,61013dd3b0497e2ee44e23f8,61013dd3b0497e2ee44e23f8,2,door,critical,D,50,door40.jpg,door60.jpg,high,option2;option1
1687287394,c34d04394019f9b4ee6cf15b8ec437d6,PennController,5,0,experiment,NULL,PennController,4,_Trial_,End,1687287312828,61013dd3b0497e2ee44e23f8,61013dd3b0497e2ee44e23f8,2,door,critical,D,50,door40.jpg,door60.jpg,high,NULL
1687287394,c34d04394019f9b4ee6cf15b8ec437d6,PennController,24,0,experiment,NULL,PennController,23,_Trial_,Start,1687287312833,61013dd3b0497e2ee44e23f8,61013dd3b0497e2ee44e23f8,21,visit,filler,D,75,visit65.jpg,visit85.jpg,GoalB,NULL
1687287394,c34d04394019f9b4ee6cf15b8ec437d6,PennController,24,0,experiment,NULL,PennController,23,_Header_,Start,1687287312833,61013dd3b0497e2ee44e23f8,61013dd3b0497e2ee44e23f8,21,visit,filler,D,75,visit65.jpg,visit85.jpg,GoalB,NULL
1687287394,c34d04394019f9b4ee6cf15b8ec437d6,PennController,24,0,experiment,NULL,PennController,23,_Header_,End,1687287312833,61013dd3b0497e2ee44e23f8,61013dd3b0497e2ee44e23f8,21,visit,filler,D,75,visit65.jpg,visit85.jpg,GoalB,NULL
1687287394,c34d04394019f9b4ee6cf15b8ec437d6,PennController,24,0,experiment,NULL,Canvas,canvas6,Print,NA,1687287320573,61013dd3b0497e2ee44e23f8,61013dd3b0497e2ee44e23f8,21,visit,filler,D,75,visit65.jpg,visit85.jpg,GoalB,NULL
1687287394,c34d04394019f9b4ee6cf15b8ec437d6,PennController,24,0,experiment,NULL,Video,progression,buffer,0.021228,1687287316407,61013dd3b0497e2ee44e23f8,61013dd3b0497e2ee44e23f8,21,visit,filler,D,75,visit65.jpg,visit85.jpg,GoalB,NULL
1687287394,c34d04394019f9b4ee6cf15b8ec437d6,PennController,24,0,experiment,NULL,Selector,choice,Selection,option2,1687287321926,61013dd3b0497e2ee44e23f8,61013dd3b0497e2ee44e23f8,21,visit,filler,D,75,visit65.jpg,visit85.jpg,GoalB,option2;option1
1687287394,c34d04394019f9b4ee6cf15b8ec437d6,PennController,24,0,experiment,NULL,PennController,23,_Trial_,End,1687287321929,61013dd3b0497e2ee44e23f8,61013dd3b0497e2ee44e23f8,21,visit,filler,D,75,visit65.jpg,visit85.jpg,GoalB,NULL
