#
# Results on Tuesday June 20 2023 18:57:29 UTC
# USER AGENT: Mozilla/5.0 (Windows NT 10.0; Win64; x64) AppleWebKit/537.36 (KHTML, like Gecko) Chrome/114.0.0.0 Safari/537.36
# Design number was non-random = 3
#
# Columns below this comment are as follows:
# 1. Results reception time.
# 2. MD5 hash of participant's IP address.
# 3. Controller name.
# 4. Order number of item.
# 5. Inner element number.
# 6. Label.
# 7. Latin Square Group.
# 8. PennElementType.
# 9. PennElementName.
# 10. Parameter.
# 11. Value.
# 12. EventTime.
# 13. PROLIFIC_ID.
# 14. Comments.
1687287449,8f8fe214bbea73d427090f2050af7441,PennController,2,0,consent,NULL,PennController,0,_Trial_,Start,1687287082955,5ca3e355c0173b001222f915,NULL
1687287449,8f8fe214bbea73d427090f2050af7441,PennController,2,0,consent,NULL,PennController,0,_Header_,Start,1687287082955,5ca3e355c0173b001222f915,NULL
1687287449,8f8fe214bbea73d427090f2050af7441,PennController,2,0,consent,NULL,PennController,0,_Header_,End,1687287082955,5ca3e355c0173b001222f915,NULL
1687287449,8f8fe214bbea73d427090f2050af7441,PennController,2,0,consent,NULL,PennController,0,_Trial_,End,1687287092392,5ca3e355c0173b001222f915,NULL
# Columns below this comment are as follows:
# 14. ID.
# 15. Comments.
1687287449,8f8fe214bbea73d427090f2050af7441,PennController,3,0,intro,NULL,PennController,1,_Trial_,Start,1687287092395,5ca3e355c0173b001222f915,5ca3e355c0173b001222f915,NULL
1687287449,8f8fe214bbea73d427090f2050af7441,PennController,3,0,intro,NULL,PennController,1,_Header_,Start,1687287092395,5ca3e355c0173b001222f915,5ca3e355c0173b001222f915,NULL
1687287449,8f8fe214bbea73d427090f2050af7441,PennController,3,0,intro,NULL,PennController,1,_Header_,End,1687287092395,5ca3e355c0173b001222f915,5ca3e355c0173b001222f915,NULL
1687287449,8f8fe214bbea73d427090f2050af7441,PennController,3,0,intro,NULL,PennController,1,_Trial_,End,1687287103785,5ca3e355c0173b001222f915,5ca3e355c0173b001222f915,NULL
# Columns below this comment are as follows:
# 15. item_number.
# 16. item.
# 17. type.
# 18. Group.
# 19. prog.
# 20. prev_image.
# 21. next_image.
# 22. height.
# 23. Comments.
1687287449,8f8fe214bbea73d427090f2050af7441,PennController,8,0,experiment,NULL,PennController,7,_Trial_,Start,1687287103788,5ca3e355c0173b001222f915,5ca3e355c0173b001222f915,5,book,critical,D,50,book40.jpg,book60.jpg,high,NULL
1687287449,8f8fe214bbea73d427090f2050af7441,PennController,8,0,experiment,NULL,PennController,7,_Header_,Start,1687287103788,5ca3e355c0173b001222f915,5ca3e355c0173b001222f915,5,book,critical,D,50,book40.jpg,book60.jpg,high,NULL
1687287449,8f8fe214bbea73d427090f2050af7441,PennController,8,0,experiment,NULL,PennController,7,_Header_,End,1687287103788,5ca3e355c0173b001222f915,5ca3e355c0173b001222f915,5,book,critical,D,50,book40.jpg,book60.jpg,high,NULL
1687287449,8f8fe214bbea73d427090f2050af7441,PennController,8,0,experiment,NULL,Canvas,canvas6,Print,NA,1687287110532,5ca3e355c0173b001222f915,5ca3e355c0173b001222f915,5,book,critical,D,50,book40.jpg,book60.jpg,high,NULL
1687287449,8f8fe214bbea73d427090f2050af7441,PennController,8,0,experiment,NULL,Video,progression,buffer,0.011572,1687287107355,5ca3e355c0173b001222f915,5ca3e355c0173b001222f915,5,book,critical,D,50,book40.jpg,book60.jpg,high,NULL
1687287449,8f8fe214bbea73d427090f2050af7441,PennController,8,0,experiment,NULL,Selector,choice,Selection,option2,1687287181564,5ca3e355c0173b001222f915,5ca3e355c0173b001222f915,5,book,critical,D,50,book40.jpg,book60.jpg,high,option1;option2
1687287449,8f8fe214bbea73d427090f2050af7441,PennController,8,0,experiment,NULL,PennController,7,_Trial_,End,1687287181569,5ca3e355c0173b001222f915,5ca3e355c0173b001222f915,5,book,critical,D,50,book40.jpg,book60.jpg,high,NULL
1687287449,8f8fe214bbea73d427090f2050af7441,PennController,4,0,experiment,NULL,PennController,3,_Trial_,Start,1687287181577,5ca3e355c0173b001222f915,5ca3e355c0173b001222f915,1,vase,critical,D,25,vase15.jpg,vase35.jpg,high,NULL
1687287449,8f8fe214bbea73d427090f2050af7441,PennController,4,0,experiment,NULL,PennController,3,_Header_,Start,1687287181577,5ca3e355c0173b001222f915,5ca3e355c0173b001222f915,1,vase,critical,D,25,vase15.jpg,vase35.jpg,high,NULL
1687287449,8f8fe214bbea73d427090f2050af7441,PennController,4,0,experiment,NULL,PennController,3,_Header_,End,1687287181577,5ca3e355c0173b001222f915,5ca3e355c0173b001222f915,1,vase,critical,D,25,vase15.jpg,vase35.jpg,high,NULL
1687287449,8f8fe214bbea73d427090f2050af7441,PennController,4,0,experiment,NULL,Canvas,canvas6,Print,NA,1687287187297,5ca3e355c0173b001222f915,5ca3e355c0173b001222f915,1,vase,critical,D,25,vase15.jpg,vase35.jpg,high,NULL
1687287449,8f8fe214bbea73d427090f2050af7441,PennController,4,0,experiment,NULL,Video,progression,buffer,0.007252,1687287185114,5ca3e355c0173b001222f915,5ca3e355c0173b001222f915,1,vase,critical,D,25,vase15.jpg,vase35.jpg,high,NULL
1687287449,8f8fe214bbea73d427090f2050af7441,PennController,4,0,experiment,NULL,Selector,choice,Selection,option2,1687287189963,5ca3e355c0173b001222f915,5ca3e355c0173b001222f915,1,vase,critical,D,25,vase15.jpg,vase35.jpg,high,option1;option2
1687287449,8f8fe214bbea73d427090f2050af7441,PennController,4,0,experiment,NULL,PennController,3,_Trial_,End,1687287189964,5ca3e355c0173b001222f915,5ca3e355c0173b001222f915,1,vase,critical,D,25,vase15.jpg,vase35.jpg,high,NULL
1687287449,8f8fe214bbea73d427090f2050af7441,PennController,25,0,experiment,NULL,PennController,24,_Trial_,Start,1687287189966,5ca3e355c0173b001222f915,5ca3e355c0173b001222f915,22,wall,filler,D,25,wall15.jpg,wall35.jpg,GoalA,NULL
1687287449,8f8fe214bbea73d427090f2050af7441,PennController,25,0,experiment,NULL,PennController,24,_Header_,Start,1687287189966,5ca3e355c0173b001222f915,5ca3e355c0173b001222f915,22,wall,filler,D,25,wall15.jpg,wall35.jpg,GoalA,NULL
1687287449,8f8fe214bbea73d427090f2050af7441,PennController,25,0,experiment,NULL,PennController,24,_Header_,End,1687287189966,5ca3e355c0173b001222f915,5ca3e355c0173b001222f915,22,wall,filler,D,25,wall15.jpg,wall35.jpg,GoalA,NULL
1687287449,8f8fe214bbea73d427090f2050af7441,PennController,25,0,experiment,NULL,Canvas,canvas6,Print,NA,1687287195692,5ca3e355c0173b001222f915,5ca3e355c0173b001222f915,22,wall,filler,D,25,wall15.jpg,wall35.jpg,GoalA,NULL
1687287449,8f8fe214bbea73d427090f2050af7441,PennController,25,0,experiment,NULL,Video,progression,buffer,0.013548,1687287193523,5ca3e355c0173b001222f915,5ca3e355c0173b001222f915,22,wall,filler,D,25,wall15.jpg,wall35.jpg,GoalA,NULL
1687287449,8f8fe214bbea73d427090f2050af7441,PennController,25,0,experiment,NULL,Selector,choice,Selection,option1,1687287200219,5ca3e355c0173b001222f915,5ca3e355c0173b001222f915,22,wall,filler,D,25,wall15.jpg,wall35.jpg,GoalA,option1;option2
1687287449,8f8fe214bbea73d427090f2050af7441,PennController,25,0,experiment,NULL,PennController,24,_Trial_,End,1687287200220,5ca3e355c0173b001222f915,5ca3e355c0173b001222f915,22,wall,filler,D,25,wall15.jpg,wall35.jpg,GoalA,NULL
1687287449,8f8fe214bbea73d427090f2050af7441,PennController,21,0,experiment,NULL,PennController,20,_Trial_,Start,1687287200223,5ca3e355c0173b001222f915,5ca3e355c0173b001222f915,18,ball,critical,D,75,ball65.jpg,ball85.jpg,high,NULL
1687287449,8f8fe214bbea73d427090f2050af7441,PennController,21,0,experiment,NULL,PennController,20,_Header_,Start,1687287200223,5ca3e355c0173b001222f915,5ca3e355c0173b001222f915,18,ball,critical,D,75,ball65.jpg,ball85.jpg,high,NULL
1687287449,8f8fe214bbea73d427090f2050af7441,PennController,21,0,experiment,NULL,PennController,20,_Header_,End,1687287200223,5ca3e355c0173b001222f915,5ca3e355c0173b001222f915,18,ball,critical,D,75,ball65.jpg,ball85.jpg,high,NULL
1687287449,8f8fe214bbea73d427090f2050af7441,PennController,21,0,experiment,NULL,Canvas,canvas6,Print,NA,1687287207947,5ca3e355c0173b001222f915,5ca3e355c0173b001222f915,18,ball,critical,D,75,ball65.jpg,ball85.jpg,high,NULL
1687287449,8f8fe214bbea73d427090f2050af7441,PennController,21,0,experiment,NULL,Video,progression,buffer,0.011276,1687287203775,5ca3e355c0173b001222f915,5ca3e355c0173b001222f915,18,ball,critical,D,75,ball65.jpg,ball85.jpg,high,NULL
1687287449,8f8fe214bbea73d427090f2050af7441,PennController,21,0,experiment,NULL,Selector,choice,Selection,option1,1687287210371,5ca3e355c0173b001222f915,5ca3e355c0173b001222f915,18,ball,critical,D,75,ball65.jpg,ball85.jpg,high,option2;option1
1687287449,8f8fe214bbea73d427090f2050af7441,PennController,21,0,experiment,NULL,PennController,20,_Trial_,End,1687287210372,5ca3e355c0173b001222f915,5ca3e355c0173b001222f915,18,ball,critical,D,75,ball65.jpg,ball85.jpg,high,NULL
1687287449,8f8fe214bbea73d427090f2050af7441,PennController,9,0,experiment,NULL,PennController,8,_Trial_,Start,1687287210374,5ca3e355c0173b001222f915,5ca3e355c0173b001222f915,6,flower,critical,D,75,flower65.jpg,flower85.jpg,high,NULL
1687287449,8f8fe214bbea73d427090f2050af7441,PennController,9,0,experiment,NULL,PennController,8,_Header_,Start,1687287210374,5ca3e355c0173b001222f915,5ca3e355c0173b001222f915,6,flower,critical,D,75,flower65.jpg,flower85.jpg,high,NULL
1687287449,8f8fe214bbea73d427090f2050af7441,PennController,9,0,experiment,NULL,PennController,8,_Header_,End,1687287210374,5ca3e355c0173b001222f915,5ca3e355c0173b001222f915,6,flower,critical,D,75,flower65.jpg,flower85.jpg,high,NULL
1687287449,8f8fe214bbea73d427090f2050af7441,PennController,9,0,experiment,NULL,Canvas,canvas6,Print,NA,1687287218084,5ca3e355c0173b001222f915,5ca3e355c0173b001222f915,6,flower,critical,D,75,flower65.jpg,flower85.jpg,high,NULL
1687287449,8f8fe214bbea73d427090f2050af7441,PennController,9,0,experiment,NULL,Video,progression,buffer,0.009449,1687287213917,5ca3e355c0173b001222f915,5ca3e355c0173b001222f915,6,flower,critical,D,75,flower65.jpg,flower85.jpg,high,NULL
1687287449,8f8fe214bbea73d427090f2050af7441,PennController,9,0,experiment,NULL,Selector,choice,Selection,option1,1687287224419,5ca3e355c0173b001222f915,5ca3e355c0173b001222f915,6,flower,critical,D,75,flower65.jpg,flower85.jpg,high,option2;option1
1687287449,8f8fe214bbea73d427090f2050af7441,PennController,9,0,experiment,NULL,PennController,8,_Trial_,End,1687287224421,5ca3e355c0173b001222f915,5ca3e355c0173b001222f915,6,flower,critical,D,75,flower65.jpg,flower85.jpg,high,NULL
1687287449,8f8fe214bbea73d427090f2050af7441,PennController,20,0,experiment,NULL,PennController,19,_Trial_,Start,1687287224422,5ca3e355c0173b001222f915,5ca3e355c0173b001222f915,17,roll,critical,D,50,roll40.jpg,roll60.jpg,high,NULL
1687287449,8f8fe214bbea73d427090f2050af7441,PennController,20,0,experiment,NULL,PennController,19,_Header_,Start,1687287224422,5ca3e355c0173b001222f915,5ca3e355c0173b001222f915,17,roll,critical,D,50,roll40.jpg,roll60.jpg,high,NULL
1687287449,8f8fe214bbea73d427090f2050af7441,PennController,20,0,experiment,NULL,PennController,19,_Header_,End,1687287224422,5ca3e355c0173b001222f915,5ca3e355c0173b001222f915,17,roll,critical,D,50,roll40.jpg,roll60.jpg,high,NULL
1687287449,8f8fe214bbea73d427090f2050af7441,PennController,20,0,experiment,NULL,Canvas,canvas6,Print,NA,1687287231145,5ca3e355c0173b001222f915,5ca3e355c0173b001222f915,17,roll,critical,D,50,roll40.jpg,roll60.jpg,high,NULL
1687287449,8f8fe214bbea73d427090f2050af7441,PennController,20,0,experiment,NULL,Video,progression,buffer,0.009949,1687287227970,5ca3e355c0173b001222f915,5ca3e355c0173b001222f915,17,roll,critical,D,50,roll40.jpg,roll60.jpg,high,NULL
1687287449,8f8fe214bbea73d427090f2050af7441,PennController,20,0,experiment,NULL,Selector,choice,Selection,option1,1687287233228,5ca3e355c0173b001222f915,5ca3e355c0173b001222f915,17,roll,critical,D,50,roll40.jpg,roll60.jpg,high,option1;option2
1687287449,8f8fe214bbea73d427090f2050af7441,PennController,20,0,experiment,NULL,PennController,19,_Trial_,End,1687287233229,5ca3e355c0173b001222f915,5ca3e355c0173b001222f915,17,roll,critical,D,50,roll40.jpg,roll60.jpg,high,NULL
1687287449,8f8fe214bbea73d427090f2050af7441,PennController,14,0,experiment,NULL,PennController,13,_Trial_,Start,1687287233230,5ca3e355c0173b001222f915,5ca3e355c0173b001222f915,11,beads,critical,D,50,beads40.jpg,beads60.jpg,high,NULL
1687287449,8f8fe214bbea73d427090f2050af7441,PennController,14,0,experiment,NULL,PennController,13,_Header_,Start,1687287233230,5ca3e355c0173b001222f915,5ca3e355c0173b001222f915,11,beads,critical,D,50,beads40.jpg,beads60.jpg,high,NULL
1687287449,8f8fe214bbea73d427090f2050af7441,PennController,14,0,experiment,NULL,PennController,13,_Header_,End,1687287233230,5ca3e355c0173b001222f915,5ca3e355c0173b001222f915,11,beads,critical,D,50,beads40.jpg,beads60.jpg,high,NULL
1687287449,8f8fe214bbea73d427090f2050af7441,PennController,14,0,experiment,NULL,Canvas,canvas6,Print,NA,1687287239936,5ca3e355c0173b001222f915,5ca3e355c0173b001222f915,11,beads,critical,D,50,beads40.jpg,beads60.jpg,high,NULL
1687287449,8f8fe214bbea73d427090f2050af7441,PennController,14,0,experiment,NULL,Video,progression,buffer,0.00939,1687287236768,5ca3e355c0173b001222f915,5ca3e355c0173b001222f915,11,beads,critical,D,50,beads40.jpg,beads60.jpg,high,NULL
1687287449,8f8fe214bbea73d427090f2050af7441,PennController,14,0,experiment,NULL,Selector,choice,Selection,option1,1687287241507,5ca3e355c0173b001222f915,5ca3e355c0173b001222f915,11,beads,critical,D,50,beads40.jpg,beads60.jpg,high,option2;option1
1687287449,8f8fe214bbea73d427090f2050af7441,PennController,14,0,experiment,NULL,PennController,13,_Trial_,End,1687287241509,5ca3e355c0173b001222f915,5ca3e355c0173b001222f915,11,beads,critical,D,50,beads40.jpg,beads60.jpg,high,NULL
1687287449,8f8fe214bbea73d427090f2050af7441,PennController,31,0,experiment,NULL,PennController,30,_Trial_,Start,1687287241510,5ca3e355c0173b001222f915,5ca3e355c0173b001222f915,28,sort,filler,D,25,sort15.jpg,sort35.jpg,GoalA,NULL
1687287449,8f8fe214bbea73d427090f2050af7441,PennController,31,0,experiment,NULL,PennController,30,_Header_,Start,1687287241510,5ca3e355c0173b001222f915,5ca3e355c0173b001222f915,28,sort,filler,D,25,sort15.jpg,sort35.jpg,GoalA,NULL
1687287449,8f8fe214bbea73d427090f2050af7441,PennController,31,0,experiment,NULL,PennController,30,_Header_,End,1687287241510,5ca3e355c0173b001222f915,5ca3e355c0173b001222f915,28,sort,filler,D,25,sort15.jpg,sort35.jpg,GoalA,NULL
1687287449,8f8fe214bbea73d427090f2050af7441,PennController,31,0,experiment,NULL,Canvas,canvas6,Print,NA,1687287247227,5ca3e355c0173b001222f915,5ca3e355c0173b001222f915,28,sort,filler,D,25,sort15.jpg,sort35.jpg,GoalA,NULL
1687287449,8f8fe214bbea73d427090f2050af7441,PennController,31,0,experiment,NULL,Video,progression,buffer,0.010515,1687287245061,5ca3e355c0173b001222f915,5ca3e355c0173b001222f915,28,sort,filler,D,25,sort15.jpg,sort35.jpg,GoalA,NULL
1687287449,8f8fe214bbea73d427090f2050af7441,PennController,31,0,experiment,NULL,Selector,choice,Selection,option1,1687287249907,5ca3e355c0173b001222f915,5ca3e355c0173b001222f915,28,sort,filler,D,25,sort15.jpg,sort35.jpg,GoalA,option1;option2
1687287449,8f8fe214bbea73d427090f2050af7441,PennController,31,0,experiment,NULL,PennController,30,_Trial_,End,1687287249908,5ca3e355c0173b001222f915,5ca3e355c0173b001222f915,28,sort,filler,D,25,sort15.jpg,sort35.jpg,GoalA,NULL
1687287449,8f8fe214bbea73d427090f2050af7441,PennController,28,0,experiment,NULL,PennController,27,_Trial_,Start,1687287249909,5ca3e355c0173b001222f915,5ca3e355c0173b001222f915,25,house,filler,D,25,house15.jpg,house35.jpg,GoalB,NULL
1687287449,8f8fe214bbea73d427090f2050af7441,PennController,28,0,experiment,NULL,PennController,27,_Header_,Start,1687287249909,5ca3e355c0173b001222f915,5ca3e355c0173b001222f915,25,house,filler,D,25,house15.jpg,house35.jpg,GoalB,NULL
1687287449,8f8fe214bbea73d427090f2050af7441,PennController,28,0,experiment,NULL,PennController,27,_Header_,End,1687287249910,5ca3e355c0173b001222f915,5ca3e355c0173b001222f915,25,house,filler,D,25,house15.jpg,house35.jpg,GoalB,NULL
1687287449,8f8fe214bbea73d427090f2050af7441,PennController,28,0,experiment,NULL,Canvas,canvas6,Print,NA,1687287255618,5ca3e355c0173b001222f915,5ca3e355c0173b001222f915,25,house,filler,D,25,house15.jpg,house35.jpg,GoalB,NULL
1687287449,8f8fe214bbea73d427090f2050af7441,PennController,28,0,experiment,NULL,Video,progression,buffer,0.012902,1687287253454,5ca3e355c0173b001222f915,5ca3e355c0173b001222f915,25,house,filler,D,25,house15.jpg,house35.jpg,GoalB,NULL
1687287449,8f8fe214bbea73d427090f2050af7441,PennController,28,0,experiment,NULL,Selector,choice,Selection,option1,1687287257395,5ca3e355c0173b001222f915,5ca3e355c0173b001222f915,25,house,filler,D,25,house15.jpg,house35.jpg,GoalB,option1;option2
1687287449,8f8fe214bbea73d427090f2050af7441,PennController,28,0,experiment,NULL,PennController,27,_Trial_,End,1687287257397,5ca3e355c0173b001222f915,5ca3e355c0173b001222f915,25,house,filler,D,25,house15.jpg,house35.jpg,GoalB,NULL
1687287449,8f8fe214bbea73d427090f2050af7441,PennController,11,0,experiment,NULL,PennController,10,_Trial_,Start,1687287257399,5ca3e355c0173b001222f915,5ca3e355c0173b001222f915,8,cucumber,critical,D,50,cucumber42.jpg,cucumber60.jpg,high,NULL
1687287449,8f8fe214bbea73d427090f2050af7441,PennController,11,0,experiment,NULL,PennController,10,_Header_,Start,1687287257399,5ca3e355c0173b001222f915,5ca3e355c0173b001222f915,8,cucumber,critical,D,50,cucumber42.jpg,cucumber60.jpg,high,NULL
1687287449,8f8fe214bbea73d427090f2050af7441,PennController,11,0,experiment,NULL,PennController,10,_Header_,End,1687287257399,5ca3e355c0173b001222f915,5ca3e355c0173b001222f915,8,cucumber,critical,D,50,cucumber42.jpg,cucumber60.jpg,high,NULL
1687287449,8f8fe214bbea73d427090f2050af7441,PennController,11,0,experiment,NULL,Canvas,canvas6,Print,NA,1687287265520,5ca3e355c0173b001222f915,5ca3e355c0173b001222f915,8,cucumber,critical,D,50,cucumber42.jpg,cucumber60.jpg,high,NULL
1687287449,8f8fe214bbea73d427090f2050af7441,PennController,11,0,experiment,NULL,Video,progression,buffer,0.012673,1687287260947,5ca3e355c0173b001222f915,5ca3e355c0173b001222f915,8,cucumber,critical,D,50,cucumber42.jpg,cucumber60.jpg,high,NULL
1687287449,8f8fe214bbea73d427090f2050af7441,PennController,11,0,experiment,NULL,Selector,choice,Selection,option1,1687287268891,5ca3e355c0173b001222f915,5ca3e355c0173b001222f915,8,cucumber,critical,D,50,cucumber42.jpg,cucumber60.jpg,high,option2;option1
1687287449,8f8fe214bbea73d427090f2050af7441,PennController,11,0,experiment,NULL,PennController,10,_Trial_,End,1687287268892,5ca3e355c0173b001222f915,5ca3e355c0173b001222f915,8,cucumber,critical,D,50,cucumber42.jpg,cucumber60.jpg,high,NULL
1687287449,8f8fe214bbea73d427090f2050af7441,PennController,10,0,experiment,NULL,PennController,9,_Trial_,Start,1687287268893,5ca3e355c0173b001222f915,5ca3e355c0173b001222f915,7,stack,critical,D,25,stack15.jpg,stack35.jpg,high,NULL
1687287449,8f8fe214bbea73d427090f2050af7441,PennController,10,0,experiment,NULL,PennController,9,_Header_,Start,1687287268893,5ca3e355c0173b001222f915,5ca3e355c0173b001222f915,7,stack,critical,D,25,stack15.jpg,stack35.jpg,high,NULL
1687287449,8f8fe214bbea73d427090f2050af7441,PennController,10,0,experiment,NULL,PennController,9,_Header_,End,1687287268893,5ca3e355c0173b001222f915,5ca3e355c0173b001222f915,7,stack,critical,D,25,stack15.jpg,stack35.jpg,high,NULL
1687287449,8f8fe214bbea73d427090f2050af7441,PennController,10,0,experiment,NULL,Canvas,canvas6,Print,NA,1687287274618,5ca3e355c0173b001222f915,5ca3e355c0173b001222f915,7,stack,critical,D,25,stack15.jpg,stack35.jpg,high,NULL
1687287449,8f8fe214bbea73d427090f2050af7441,PennController,10,0,experiment,NULL,Video,progression,buffer,0.013748,1687287272450,5ca3e355c0173b001222f915,5ca3e355c0173b001222f915,7,stack,critical,D,25,stack15.jpg,stack35.jpg,high,NULL
1687287449,8f8fe214bbea73d427090f2050af7441,PennController,10,0,experiment,NULL,Selector,choice,Selection,option1,1687287276707,5ca3e355c0173b001222f915,5ca3e355c0173b001222f915,7,stack,critical,D,25,stack15.jpg,stack35.jpg,high,option2;option1
1687287449,8f8fe214bbea73d427090f2050af7441,PennController,10,0,experiment,NULL,PennController,9,_Trial_,End,1687287276708,5ca3e355c0173b001222f915,5ca3e355c0173b001222f915,7,stack,critical,D,25,stack15.jpg,stack35.jpg,high,NULL
1687287449,8f8fe214bbea73d427090f2050af7441,PennController,6,0,experiment,NULL,PennController,5,_Trial_,Start,1687287276709,5ca3e355c0173b001222f915,5ca3e355c0173b001222f915,3,clean,critical,D,75,clean65.jpg,clean85.jpg,high,NULL
1687287449,8f8fe214bbea73d427090f2050af7441,PennController,6,0,experiment,NULL,PennController,5,_Header_,Start,1687287276709,5ca3e355c0173b001222f915,5ca3e355c0173b001222f915,3,clean,critical,D,75,clean65.jpg,clean85.jpg,high,NULL
1687287449,8f8fe214bbea73d427090f2050af7441,PennController,6,0,experiment,NULL,PennController,5,_Header_,End,1687287276709,5ca3e355c0173b001222f915,5ca3e355c0173b001222f915,3,clean,critical,D,75,clean65.jpg,clean85.jpg,high,NULL
1687287449,8f8fe214bbea73d427090f2050af7441,PennController,6,0,experiment,NULL,Canvas,canvas6,Print,NA,1687287284420,5ca3e355c0173b001222f915,5ca3e355c0173b001222f915,3,clean,critical,D,75,clean65.jpg,clean85.jpg,high,NULL
1687287449,8f8fe214bbea73d427090f2050af7441,PennController,6,0,experiment,NULL,Video,progression,buffer,0.013571,1687287280254,5ca3e355c0173b001222f915,5ca3e355c0173b001222f915,3,clean,critical,D,75,clean65.jpg,clean85.jpg,high,NULL
1687287449,8f8fe214bbea73d427090f2050af7441,PennController,6,0,experiment,NULL,Selector,choice,Selection,option2,1687287286435,5ca3e355c0173b001222f915,5ca3e355c0173b001222f915,3,clean,critical,D,75,clean65.jpg,clean85.jpg,high,option2;option1
1687287449,8f8fe214bbea73d427090f2050af7441,PennController,6,0,experiment,NULL,PennController,5,_Trial_,End,1687287286437,5ca3e355c0173b001222f915,5ca3e355c0173b001222f915,3,clean,critical,D,75,clean65.jpg,clean85.jpg,high,NULL
1687287449,8f8fe214bbea73d427090f2050af7441,PennController,26,0,experiment,NULL,PennController,25,_Trial_,Start,1687287286438,5ca3e355c0173b001222f915,5ca3e355c0173b001222f915,23,color,filler,D,50,color40.jpg,color60.jpg,GoalB,NULL
1687287449,8f8fe214bbea73d427090f2050af7441,PennController,26,0,experiment,NULL,PennController,25,_Header_,Start,1687287286438,5ca3e355c0173b001222f915,5ca3e355c0173b001222f915,23,color,filler,D,50,color40.jpg,color60.jpg,GoalB,NULL
1687287449,8f8fe214bbea73d427090f2050af7441,PennController,26,0,experiment,NULL,PennController,25,_Header_,End,1687287286438,5ca3e355c0173b001222f915,5ca3e355c0173b001222f915,23,color,filler,D,50,color40.jpg,color60.jpg,GoalB,NULL
1687287449,8f8fe214bbea73d427090f2050af7441,PennController,26,0,experiment,NULL,Canvas,canvas6,Print,NA,1687287293152,5ca3e355c0173b001222f915,5ca3e355c0173b001222f915,23,color,filler,D,50,color40.jpg,color60.jpg,GoalB,NULL
1687287449,8f8fe214bbea73d427090f2050af7441,PennController,26,0,experiment,NULL,Video,progression,buffer,0.014848,1687287289981,5ca3e355c0173b001222f915,5ca3e355c0173b001222f915,23,color,filler,D,50,color40.jpg,color60.jpg,GoalB,NULL
1687287449,8f8fe214bbea73d427090f2050af7441,PennController,26,0,experiment,NULL,Selector,choice,Selection,option1,1687287300083,5ca3e355c0173b001222f915,5ca3e355c0173b001222f915,23,color,filler,D,50,color40.jpg,color60.jpg,GoalB,option2;option1
1687287449,8f8fe214bbea73d427090f2050af7441,PennController,26,0,experiment,NULL,PennController,25,_Trial_,End,1687287300085,5ca3e355c0173b001222f915,5ca3e355c0173b001222f915,23,color,filler,D,50,color40.jpg,color60.jpg,GoalB,NULL
1687287449,8f8fe214bbea73d427090f2050af7441,PennController,19,0,experiment,NULL,PennController,18,_Trial_,Start,1687287300086,5ca3e355c0173b001222f915,5ca3e355c0173b001222f915,16,blinds,critical,D,25,blinds15.jpg,blinds33.jpg,high,NULL
1687287449,8f8fe214bbea73d427090f2050af7441,PennController,19,0,experiment,NULL,PennController,18,_Header_,Start,1687287300086,5ca3e355c0173b001222f915,5ca3e355c0173b001222f915,16,blinds,critical,D,25,blinds15.jpg,blinds33.jpg,high,NULL
1687287449,8f8fe214bbea73d427090f2050af7441,PennController,19,0,experiment,NULL,PennController,18,_Header_,End,1687287300086,5ca3e355c0173b001222f915,5ca3e355c0173b001222f915,16,blinds,critical,D,25,blinds15.jpg,blinds33.jpg,high,NULL
1687287449,8f8fe214bbea73d427090f2050af7441,PennController,19,0,experiment,NULL,Canvas,canvas6,Print,NA,1687287306402,5ca3e355c0173b001222f915,5ca3e355c0173b001222f915,16,blinds,critical,D,25,blinds15.jpg,blinds33.jpg,high,NULL
1687287449,8f8fe214bbea73d427090f2050af7441,PennController,19,0,experiment,NULL,Video,progression,buffer,0.0114,1687287303641,5ca3e355c0173b001222f915,5ca3e355c0173b001222f915,16,blinds,critical,D,25,blinds15.jpg,blinds33.jpg,high,NULL
1687287449,8f8fe214bbea73d427090f2050af7441,PennController,19,0,experiment,NULL,Selector,choice,Selection,option2,1687287308811,5ca3e355c0173b001222f915,5ca3e355c0173b001222f915,16,blinds,critical,D,25,blinds15.jpg,blinds33.jpg,high,option2;option1
1687287449,8f8fe214bbea73d427090f2050af7441,PennController,19,0,experiment,NULL,PennController,18,_Trial_,End,1687287308812,5ca3e355c0173b001222f915,5ca3e355c0173b001222f915,16,blinds,critical,D,25,blinds15.jpg,blinds33.jpg,high,NULL
1687287449,8f8fe214bbea73d427090f2050af7441,PennController,16,0,experiment,NULL,PennController,15,_Trial_,Start,1687287308813,5ca3e355c0173b001222f915,5ca3e355c0173b001222f915,13,mix,critical,D,25,mix15.jpg,mix35.jpg,high,NULL
1687287449,8f8fe214bbea73d427090f2050af7441,PennController,16,0,experiment,NULL,PennController,15,_Header_,Start,1687287308813,5ca3e355c0173b001222f915,5ca3e355c0173b001222f915,13,mix,critical,D,25,mix15.jpg,mix35.jpg,high,NULL
1687287449,8f8fe214bbea73d427090f2050af7441,PennController,16,0,experiment,NULL,PennController,15,_Header_,End,1687287308813,5ca3e355c0173b001222f915,5ca3e355c0173b001222f915,13,mix,critical,D,25,mix15.jpg,mix35.jpg,high,NULL
1687287449,8f8fe214bbea73d427090f2050af7441,PennController,16,0,experiment,NULL,Canvas,canvas6,Print,NA,1687287314524,5ca3e355c0173b001222f915,5ca3e355c0173b001222f915,13,mix,critical,D,25,mix15.jpg,mix35.jpg,high,NULL
1687287449,8f8fe214bbea73d427090f2050af7441,PennController,16,0,experiment,NULL,Video,progression,buffer,0.013118,1687287312361,5ca3e355c0173b001222f915,5ca3e355c0173b001222f915,13,mix,critical,D,25,mix15.jpg,mix35.jpg,high,NULL
1687287449,8f8fe214bbea73d427090f2050af7441,PennController,16,0,experiment,NULL,Selector,choice,Selection,option1,1687287315979,5ca3e355c0173b001222f915,5ca3e355c0173b001222f915,13,mix,critical,D,25,mix15.jpg,mix35.jpg,high,option1;option2
1687287449,8f8fe214bbea73d427090f2050af7441,PennController,16,0,experiment,NULL,PennController,15,_Trial_,End,1687287315980,5ca3e355c0173b001222f915,5ca3e355c0173b001222f915,13,mix,critical,D,25,mix15.jpg,mix35.jpg,high,NULL
1687287449,8f8fe214bbea73d427090f2050af7441,PennController,18,0,experiment,NULL,PennController,17,_Trial_,Start,1687287315981,5ca3e355c0173b001222f915,5ca3e355c0173b001222f915,15,zip,critical,D,75,zip65.jpg,zip85.jpg,high,NULL
1687287449,8f8fe214bbea73d427090f2050af7441,PennController,18,0,experiment,NULL,PennController,17,_Header_,Start,1687287315981,5ca3e355c0173b001222f915,5ca3e355c0173b001222f915,15,zip,critical,D,75,zip65.jpg,zip85.jpg,high,NULL
1687287449,8f8fe214bbea73d427090f2050af7441,PennController,18,0,experiment,NULL,PennController,17,_Header_,End,1687287315981,5ca3e355c0173b001222f915,5ca3e355c0173b001222f915,15,zip,critical,D,75,zip65.jpg,zip85.jpg,high,NULL
1687287449,8f8fe214bbea73d427090f2050af7441,PennController,18,0,experiment,NULL,Canvas,canvas6,Print,NA,1687287322901,5ca3e355c0173b001222f915,5ca3e355c0173b001222f915,15,zip,critical,D,75,zip65.jpg,zip85.jpg,high,NULL
1687287449,8f8fe214bbea73d427090f2050af7441,PennController,18,0,experiment,NULL,Video,progression,buffer,0.005543,1687287319537,5ca3e355c0173b001222f915,5ca3e355c0173b001222f915,15,zip,critical,D,75,zip65.jpg,zip85.jpg,high,NULL
1687287449,8f8fe214bbea73d427090f2050af7441,PennController,18,0,experiment,NULL,Selector,choice,Selection,option1,1687287324739,5ca3e355c0173b001222f915,5ca3e355c0173b001222f915,15,zip,critical,D,75,zip65.jpg,zip85.jpg,high,option2;option1
1687287449,8f8fe214bbea73d427090f2050af7441,PennController,18,0,experiment,NULL,PennController,17,_Trial_,End,1687287324740,5ca3e355c0173b001222f915,5ca3e355c0173b001222f915,15,zip,critical,D,75,zip65.jpg,zip85.jpg,high,NULL
1687287449,8f8fe214bbea73d427090f2050af7441,PennController,15,0,experiment,NULL,PennController,14,_Trial_,Start,1687287324742,5ca3e355c0173b001222f915,5ca3e355c0173b001222f915,12,erase,critical,D,75,erase66.jpg,erase84.jpg,high,NULL
1687287449,8f8fe214bbea73d427090f2050af7441,PennController,15,0,experiment,NULL,PennController,14,_Header_,Start,1687287324742,5ca3e355c0173b001222f915,5ca3e355c0173b001222f915,12,erase,critical,D,75,erase66.jpg,erase84.jpg,high,NULL
1687287449,8f8fe214bbea73d427090f2050af7441,PennController,15,0,experiment,NULL,PennController,14,_Header_,End,1687287324742,5ca3e355c0173b001222f915,5ca3e355c0173b001222f915,12,erase,critical,D,75,erase66.jpg,erase84.jpg,high,NULL
1687287449,8f8fe214bbea73d427090f2050af7441,PennController,15,0,experiment,NULL,Canvas,canvas6,Print,NA,1687287334452,5ca3e355c0173b001222f915,5ca3e355c0173b001222f915,12,erase,critical,D,75,erase66.jpg,erase84.jpg,high,NULL
1687287449,8f8fe214bbea73d427090f2050af7441,PennController,15,0,experiment,NULL,Video,progression,buffer,0.012627,1687287328291,5ca3e355c0173b001222f915,5ca3e355c0173b001222f915,12,erase,critical,D,75,erase66.jpg,erase84.jpg,high,NULL
1687287449,8f8fe214bbea73d427090f2050af7441,PennController,15,0,experiment,NULL,Selector,choice,Selection,option1,1687287336891,5ca3e355c0173b001222f915,5ca3e355c0173b001222f915,12,erase,critical,D,75,erase66.jpg,erase84.jpg,high,option1;option2
1687287449,8f8fe214bbea73d427090f2050af7441,PennController,15,0,experiment,NULL,PennController,14,_Trial_,End,1687287336892,5ca3e355c0173b001222f915,5ca3e355c0173b001222f915,12,erase,critical,D,75,erase66.jpg,erase84.jpg,high,NULL
1687287449,8f8fe214bbea73d427090f2050af7441,PennController,12,0,experiment,NULL,PennController,11,_Trial_,Start,1687287336893,5ca3e355c0173b001222f915,5ca3e355c0173b001222f915,9,cake,critical,D,75,cake66.jpg,cake84.jpg,high,NULL
1687287449,8f8fe214bbea73d427090f2050af7441,PennController,12,0,experiment,NULL,PennController,11,_Header_,Start,1687287336893,5ca3e355c0173b001222f915,5ca3e355c0173b001222f915,9,cake,critical,D,75,cake66.jpg,cake84.jpg,high,NULL
1687287449,8f8fe214bbea73d427090f2050af7441,PennController,12,0,experiment,NULL,PennController,11,_Header_,End,1687287336893,5ca3e355c0173b001222f915,5ca3e355c0173b001222f915,9,cake,critical,D,75,cake66.jpg,cake84.jpg,high,NULL
1687287449,8f8fe214bbea73d427090f2050af7441,PennController,12,0,experiment,NULL,Canvas,canvas6,Print,NA,1687287346605,5ca3e355c0173b001222f915,5ca3e355c0173b001222f915,9,cake,critical,D,75,cake66.jpg,cake84.jpg,high,NULL
1687287449,8f8fe214bbea73d427090f2050af7441,PennController,12,0,experiment,NULL,Video,progression,buffer,0.007966,1687287340442,5ca3e355c0173b001222f915,5ca3e355c0173b001222f915,9,cake,critical,D,75,cake66.jpg,cake84.jpg,high,NULL
1687287449,8f8fe214bbea73d427090f2050af7441,PennController,12,0,experiment,NULL,Selector,choice,Selection,option1,1687287349251,5ca3e355c0173b001222f915,5ca3e355c0173b001222f915,9,cake,critical,D,75,cake66.jpg,cake84.jpg,high,option2;option1
1687287449,8f8fe214bbea73d427090f2050af7441,PennController,12,0,experiment,NULL,PennController,11,_Trial_,End,1687287349253,5ca3e355c0173b001222f915,5ca3e355c0173b001222f915,9,cake,critical,D,75,cake66.jpg,cake84.jpg,high,NULL
1687287449,8f8fe214bbea73d427090f2050af7441,PennController,22,0,experiment,NULL,PennController,21,_Trial_,Start,1687287349255,5ca3e355c0173b001222f915,5ca3e355c0173b001222f915,19,cup,filler,D,25,cup15.jpg,cup35.jpg,GoalB,NULL
1687287449,8f8fe214bbea73d427090f2050af7441,PennController,22,0,experiment,NULL,PennController,21,_Header_,Start,1687287349255,5ca3e355c0173b001222f915,5ca3e355c0173b001222f915,19,cup,filler,D,25,cup15.jpg,cup35.jpg,GoalB,NULL
1687287449,8f8fe214bbea73d427090f2050af7441,PennController,22,0,experiment,NULL,PennController,21,_Header_,End,1687287349255,5ca3e355c0173b001222f915,5ca3e355c0173b001222f915,19,cup,filler,D,25,cup15.jpg,cup35.jpg,GoalB,NULL
1687287449,8f8fe214bbea73d427090f2050af7441,PennController,22,0,experiment,NULL,Canvas,canvas6,Print,NA,1687287354975,5ca3e355c0173b001222f915,5ca3e355c0173b001222f915,19,cup,filler,D,25,cup15.jpg,cup35.jpg,GoalB,NULL
1687287449,8f8fe214bbea73d427090f2050af7441,PennController,22,0,experiment,NULL,Video,progression,buffer,0.012964,1687287352806,5ca3e355c0173b001222f915,5ca3e355c0173b001222f915,19,cup,filler,D,25,cup15.jpg,cup35.jpg,GoalB,NULL
1687287449,8f8fe214bbea73d427090f2050af7441,PennController,22,0,experiment,NULL,Selector,choice,Selection,option2,1687287356379,5ca3e355c0173b001222f915,5ca3e355c0173b001222f915,19,cup,filler,D,25,cup15.jpg,cup35.jpg,GoalB,option1;option2
1687287449,8f8fe214bbea73d427090f2050af7441,PennController,22,0,experiment,NULL,PennController,21,_Trial_,End,1687287356380,5ca3e355c0173b001222f915,5ca3e355c0173b001222f915,19,cup,filler,D,25,cup15.jpg,cup35.jpg,GoalB,NULL
1687287449,8f8fe214bbea73d427090f2050af7441,PennController,7,0,experiment,NULL,PennController,6,_Trial_,Start,1687287356381,5ca3e355c0173b001222f915,5ca3e355c0173b001222f915,4,candy,critical,D,25,candy15.jpg,candy35.jpg,high,NULL
1687287449,8f8fe214bbea73d427090f2050af7441,PennController,7,0,experiment,NULL,PennController,6,_Header_,Start,1687287356381,5ca3e355c0173b001222f915,5ca3e355c0173b001222f915,4,candy,critical,D,25,candy15.jpg,candy35.jpg,high,NULL
1687287449,8f8fe214bbea73d427090f2050af7441,PennController,7,0,experiment,NULL,PennController,6,_Header_,End,1687287356381,5ca3e355c0173b001222f915,5ca3e355c0173b001222f915,4,candy,critical,D,25,candy15.jpg,candy35.jpg,high,NULL
1687287449,8f8fe214bbea73d427090f2050af7441,PennController,7,0,experiment,NULL,Canvas,canvas6,Print,NA,1687287362092,5ca3e355c0173b001222f915,5ca3e355c0173b001222f915,4,candy,critical,D,25,candy15.jpg,candy35.jpg,high,NULL
1687287449,8f8fe214bbea73d427090f2050af7441,PennController,7,0,experiment,NULL,Video,progression,buffer,0.009801,1687287359925,5ca3e355c0173b001222f915,5ca3e355c0173b001222f915,4,candy,critical,D,25,candy15.jpg,candy35.jpg,high,NULL
1687287449,8f8fe214bbea73d427090f2050af7441,PennController,7,0,experiment,NULL,Selector,choice,Selection,option2,1687287363747,5ca3e355c0173b001222f915,5ca3e355c0173b001222f915,4,candy,critical,D,25,candy15.jpg,candy35.jpg,high,option1;option2
1687287449,8f8fe214bbea73d427090f2050af7441,PennController,7,0,experiment,NULL,PennController,6,_Trial_,End,1687287363749,5ca3e355c0173b001222f915,5ca3e355c0173b001222f915,4,candy,critical,D,25,candy15.jpg,candy35.jpg,high,NULL
1687287449,8f8fe214bbea73d427090f2050af7441,PennController,29,0,experiment,NULL,PennController,28,_Trial_,Start,1687287363750,5ca3e355c0173b001222f915,5ca3e355c0173b001222f915,26,sandwich,filler,D,50,sandwich40.jpg,sandwich60.jpg,GoalA,NULL
1687287449,8f8fe214bbea73d427090f2050af7441,PennController,29,0,experiment,NULL,PennController,28,_Header_,Start,1687287363750,5ca3e355c0173b001222f915,5ca3e355c0173b001222f915,26,sandwich,filler,D,50,sandwich40.jpg,sandwich60.jpg,GoalA,NULL
1687287449,8f8fe214bbea73d427090f2050af7441,PennController,29,0,experiment,NULL,PennController,28,_Header_,End,1687287363750,5ca3e355c0173b001222f915,5ca3e355c0173b001222f915,26,sandwich,filler,D,50,sandwich40.jpg,sandwich60.jpg,GoalA,NULL
1687287449,8f8fe214bbea73d427090f2050af7441,PennController,29,0,experiment,NULL,Canvas,canvas6,Print,NA,1687287370475,5ca3e355c0173b001222f915,5ca3e355c0173b001222f915,26,sandwich,filler,D,50,sandwich40.jpg,sandwich60.jpg,GoalA,NULL
1687287449,8f8fe214bbea73d427090f2050af7441,PennController,29,0,experiment,NULL,Video,progression,buffer,0.011554,1687287367300,5ca3e355c0173b001222f915,5ca3e355c0173b001222f915,26,sandwich,filler,D,50,sandwich40.jpg,sandwich60.jpg,GoalA,NULL
1687287449,8f8fe214bbea73d427090f2050af7441,PennController,29,0,experiment,NULL,Selector,choice,Selection,option1,1687287372939,5ca3e355c0173b001222f915,5ca3e355c0173b001222f915,26,sandwich,filler,D,50,sandwich40.jpg,sandwich60.jpg,GoalA,option1;option2
1687287449,8f8fe214bbea73d427090f2050af7441,PennController,29,0,experiment,NULL,PennController,28,_Trial_,End,1687287372940,5ca3e355c0173b001222f915,5ca3e355c0173b001222f915,26,sandwich,filler,D,50,sandwich40.jpg,sandwich60.jpg,GoalA,NULL
1687287449,8f8fe214bbea73d427090f2050af7441,PennController,17,0,experiment,NULL,PennController,16,_Trial_,Start,1687287372941,5ca3e355c0173b001222f915,5ca3e355c0173b001222f915,14,cover,critical,D,50,cover42.jpg,cover60.jpg,high,NULL
1687287449,8f8fe214bbea73d427090f2050af7441,PennController,17,0,experiment,NULL,PennController,16,_Header_,Start,1687287372941,5ca3e355c0173b001222f915,5ca3e355c0173b001222f915,14,cover,critical,D,50,cover42.jpg,cover60.jpg,high,NULL
1687287449,8f8fe214bbea73d427090f2050af7441,PennController,17,0,experiment,NULL,PennController,16,_Header_,End,1687287372941,5ca3e355c0173b001222f915,5ca3e355c0173b001222f915,14,cover,critical,D,50,cover42.jpg,cover60.jpg,high,NULL
1687287449,8f8fe214bbea73d427090f2050af7441,PennController,17,0,experiment,NULL,Canvas,canvas6,Print,NA,1687287381062,5ca3e355c0173b001222f915,5ca3e355c0173b001222f915,14,cover,critical,D,50,cover42.jpg,cover60.jpg,high,NULL
1687287449,8f8fe214bbea73d427090f2050af7441,PennController,17,0,experiment,NULL,Video,progression,buffer,0.017521,1687287376489,5ca3e355c0173b001222f915,5ca3e355c0173b001222f915,14,cover,critical,D,50,cover42.jpg,cover60.jpg,high,NULL
1687287449,8f8fe214bbea73d427090f2050af7441,PennController,17,0,experiment,NULL,Selector,choice,Selection,option1,1687287382573,5ca3e355c0173b001222f915,5ca3e355c0173b001222f915,14,cover,critical,D,50,cover42.jpg,cover60.jpg,high,option1;option2
1687287449,8f8fe214bbea73d427090f2050af7441,PennController,17,0,experiment,NULL,PennController,16,_Trial_,End,1687287382574,5ca3e355c0173b001222f915,5ca3e355c0173b001222f915,14,cover,critical,D,50,cover42.jpg,cover60.jpg,high,NULL
1687287449,8f8fe214bbea73d427090f2050af7441,PennController,23,0,experiment,NULL,PennController,22,_Trial_,Start,1687287382575,5ca3e355c0173b001222f915,5ca3e355c0173b001222f915,20,cat,filler,D,50,cat40.jpg,cat60.jpg,GoalA,NULL
1687287449,8f8fe214bbea73d427090f2050af7441,PennController,23,0,experiment,NULL,PennController,22,_Header_,Start,1687287382575,5ca3e355c0173b001222f915,5ca3e355c0173b001222f915,20,cat,filler,D,50,cat40.jpg,cat60.jpg,GoalA,NULL
1687287449,8f8fe214bbea73d427090f2050af7441,PennController,23,0,experiment,NULL,PennController,22,_Header_,End,1687287382575,5ca3e355c0173b001222f915,5ca3e355c0173b001222f915,20,cat,filler,D,50,cat40.jpg,cat60.jpg,GoalA,NULL
1687287449,8f8fe214bbea73d427090f2050af7441,PennController,23,0,experiment,NULL,Canvas,canvas6,Print,NA,1687287389297,5ca3e355c0173b001222f915,5ca3e355c0173b001222f915,20,cat,filler,D,50,cat40.jpg,cat60.jpg,GoalA,NULL
1687287449,8f8fe214bbea73d427090f2050af7441,PennController,23,0,experiment,NULL,Video,progression,buffer,0.013046,1687287386120,5ca3e355c0173b001222f915,5ca3e355c0173b001222f915,20,cat,filler,D,50,cat40.jpg,cat60.jpg,GoalA,NULL
1687287449,8f8fe214bbea73d427090f2050af7441,PennController,23,0,experiment,NULL,Selector,choice,Selection,option1,1687287392276,5ca3e355c0173b001222f915,5ca3e355c0173b001222f915,20,cat,filler,D,50,cat40.jpg,cat60.jpg,GoalA,option2;option1
1687287449,8f8fe214bbea73d427090f2050af7441,PennController,23,0,experiment,NULL,PennController,22,_Trial_,End,1687287392278,5ca3e355c0173b001222f915,5ca3e355c0173b001222f915,20,cat,filler,D,50,cat40.jpg,cat60.jpg,GoalA,NULL
1687287449,8f8fe214bbea73d427090f2050af7441,PennController,30,0,experiment,NULL,PennController,29,_Trial_,Start,1687287392279,5ca3e355c0173b001222f915,5ca3e355c0173b001222f915,27,square,filler,D,75,square65.jpg,square85.jpg,GoalB,NULL
1687287449,8f8fe214bbea73d427090f2050af7441,PennController,30,0,experiment,NULL,PennController,29,_Header_,Start,1687287392279,5ca3e355c0173b001222f915,5ca3e355c0173b001222f915,27,square,filler,D,75,square65.jpg,square85.jpg,GoalB,NULL
1687287449,8f8fe214bbea73d427090f2050af7441,PennController,30,0,experiment,NULL,PennController,29,_Header_,End,1687287392279,5ca3e355c0173b001222f915,5ca3e355c0173b001222f915,27,square,filler,D,75,square65.jpg,square85.jpg,GoalB,NULL
1687287449,8f8fe214bbea73d427090f2050af7441,PennController,30,0,experiment,NULL,Canvas,canvas6,Print,NA,1687287399995,5ca3e355c0173b001222f915,5ca3e355c0173b001222f915,27,square,filler,D,75,square65.jpg,square85.jpg,GoalB,NULL
1687287449,8f8fe214bbea73d427090f2050af7441,PennController,30,0,experiment,NULL,Video,progression,buffer,0.007033,1687287395817,5ca3e355c0173b001222f915,5ca3e355c0173b001222f915,27,square,filler,D,75,square65.jpg,square85.jpg,GoalB,NULL
1687287449,8f8fe214bbea73d427090f2050af7441,PennController,30,0,experiment,NULL,Selector,choice,Selection,option2,1687287401452,5ca3e355c0173b001222f915,5ca3e355c0173b001222f915,27,square,filler,D,75,square65.jpg,square85.jpg,GoalB,option1;option2
1687287449,8f8fe214bbea73d427090f2050af7441,PennController,30,0,experiment,NULL,PennController,29,_Trial_,End,1687287401453,5ca3e355c0173b001222f915,5ca3e355c0173b001222f915,27,square,filler,D,75,square65.jpg,square85.jpg,GoalB,NULL
1687287449,8f8fe214bbea73d427090f2050af7441,PennController,24,0,experiment,NULL,PennController,23,_Trial_,Start,1687287401454,5ca3e355c0173b001222f915,5ca3e355c0173b001222f915,21,visit,filler,D,75,visit65.jpg,visit85.jpg,GoalB,NULL
1687287449,8f8fe214bbea73d427090f2050af7441,PennController,24,0,experiment,NULL,PennController,23,_Header_,Start,1687287401454,5ca3e355c0173b001222f915,5ca3e355c0173b001222f915,21,visit,filler,D,75,visit65.jpg,visit85.jpg,GoalB,NULL
1687287449,8f8fe214bbea73d427090f2050af7441,PennController,24,0,experiment,NULL,PennController,23,_Header_,End,1687287401454,5ca3e355c0173b001222f915,5ca3e355c0173b001222f915,21,visit,filler,D,75,visit65.jpg,visit85.jpg,GoalB,NULL
1687287449,8f8fe214bbea73d427090f2050af7441,PennController,24,0,experiment,NULL,Canvas,canvas6,Print,NA,1687287409155,5ca3e355c0173b001222f915,5ca3e355c0173b001222f915,21,visit,filler,D,75,visit65.jpg,visit85.jpg,GoalB,NULL
1687287449,8f8fe214bbea73d427090f2050af7441,PennController,24,0,experiment,NULL,Video,progression,buffer,0.01663,1687287404996,5ca3e355c0173b001222f915,5ca3e355c0173b001222f915,21,visit,filler,D,75,visit65.jpg,visit85.jpg,GoalB,NULL
1687287449,8f8fe214bbea73d427090f2050af7441,PennController,24,0,experiment,NULL,Selector,choice,Selection,option1,1687287412140,5ca3e355c0173b001222f915,5ca3e355c0173b001222f915,21,visit,filler,D,75,visit65.jpg,visit85.jpg,GoalB,option1;option2
1687287449,8f8fe214bbea73d427090f2050af7441,PennController,24,0,experiment,NULL,PennController,23,_Trial_,End,1687287412142,5ca3e355c0173b001222f915,5ca3e355c0173b001222f915,21,visit,filler,D,75,visit65.jpg,visit85.jpg,GoalB,NULL
1687287449,8f8fe214bbea73d427090f2050af7441,PennController,13,0,experiment,NULL,PennController,12,_Trial_,Start,1687287412143,5ca3e355c0173b001222f915,5ca3e355c0173b001222f915,10,train,critical,D,25,train15.jpg,train35.jpg,high,NULL
1687287449,8f8fe214bbea73d427090f2050af7441,PennController,13,0,experiment,NULL,PennController,12,_Header_,Start,1687287412143,5ca3e355c0173b001222f915,5ca3e355c0173b001222f915,10,train,critical,D,25,train15.jpg,train35.jpg,high,NULL
1687287449,8f8fe214bbea73d427090f2050af7441,PennController,13,0,experiment,NULL,PennController,12,_Header_,End,1687287412143,5ca3e355c0173b001222f915,5ca3e355c0173b001222f915,10,train,critical,D,25,train15.jpg,train35.jpg,high,NULL
1687287449,8f8fe214bbea73d427090f2050af7441,PennController,13,0,experiment,NULL,Canvas,canvas6,Print,NA,1687287417839,5ca3e355c0173b001222f915,5ca3e355c0173b001222f915,10,train,critical,D,25,train15.jpg,train35.jpg,high,NULL
1687287449,8f8fe214bbea73d427090f2050af7441,PennController,13,0,experiment,NULL,Video,progression,buffer,0.008377,1687287415681,5ca3e355c0173b001222f915,5ca3e355c0173b001222f915,10,train,critical,D,25,train15.jpg,train35.jpg,high,NULL
1687287449,8f8fe214bbea73d427090f2050af7441,PennController,13,0,experiment,NULL,Selector,choice,Selection,option1,1687287418980,5ca3e355c0173b001222f915,5ca3e355c0173b001222f915,10,train,critical,D,25,train15.jpg,train35.jpg,high,option1;option2
1687287449,8f8fe214bbea73d427090f2050af7441,PennController,13,0,experiment,NULL,PennController,12,_Trial_,End,1687287418981,5ca3e355c0173b001222f915,5ca3e355c0173b001222f915,10,train,critical,D,25,train15.jpg,train35.jpg,high,NULL
1687287449,8f8fe214bbea73d427090f2050af7441,PennController,5,0,experiment,NULL,PennController,4,_Trial_,Start,1687287418982,5ca3e355c0173b001222f915,5ca3e355c0173b001222f915,2,door,critical,D,50,door40.jpg,door60.jpg,high,NULL
1687287449,8f8fe214bbea73d427090f2050af7441,PennController,5,0,experiment,NULL,PennController,4,_Header_,Start,1687287418982,5ca3e355c0173b001222f915,5ca3e355c0173b001222f915,2,door,critical,D,50,door40.jpg,door60.jpg,high,NULL
1687287449,8f8fe214bbea73d427090f2050af7441,PennController,5,0,experiment,NULL,PennController,4,_Header_,End,1687287418982,5ca3e355c0173b001222f915,5ca3e355c0173b001222f915,2,door,critical,D,50,door40.jpg,door60.jpg,high,NULL
1687287449,8f8fe214bbea73d427090f2050af7441,PennController,5,0,experiment,NULL,Canvas,canvas6,Print,NA,1687287425696,5ca3e355c0173b001222f915,5ca3e355c0173b001222f915,2,door,critical,D,50,door40.jpg,door60.jpg,high,NULL
1687287449,8f8fe214bbea73d427090f2050af7441,PennController,5,0,experiment,NULL,Video,progression,buffer,0.010062,1687287422530,5ca3e355c0173b001222f915,5ca3e355c0173b001222f915,2,door,critical,D,50,door40.jpg,door60.jpg,high,NULL
1687287449,8f8fe214bbea73d427090f2050af7441,PennController,5,0,experiment,NULL,Selector,choice,Selection,option1,1687287427276,5ca3e355c0173b001222f915,5ca3e355c0173b001222f915,2,door,critical,D,50,door40.jpg,door60.jpg,high,option1;option2
1687287449,8f8fe214bbea73d427090f2050af7441,PennController,5,0,experiment,NULL,PennController,4,_Trial_,End,1687287427278,5ca3e355c0173b001222f915,5ca3e355c0173b001222f915,2,door,critical,D,50,door40.jpg,door60.jpg,high,NULL
1687287449,8f8fe214bbea73d427090f2050af7441,PennController,27,0,experiment,NULL,PennController,26,_Trial_,Start,1687287427280,5ca3e355c0173b001222f915,5ca3e355c0173b001222f915,24,match,filler,D,75,match65.jpg,match85.jpg,GoalA,NULL
1687287449,8f8fe214bbea73d427090f2050af7441,PennController,27,0,experiment,NULL,PennController,26,_Header_,Start,1687287427280,5ca3e355c0173b001222f915,5ca3e355c0173b001222f915,24,match,filler,D,75,match65.jpg,match85.jpg,GoalA,NULL
1687287449,8f8fe214bbea73d427090f2050af7441,PennController,27,0,experiment,NULL,PennController,26,_Header_,End,1687287427280,5ca3e355c0173b001222f915,5ca3e355c0173b001222f915,24,match,filler,D,75,match65.jpg,match85.jpg,GoalA,NULL
1687287449,8f8fe214bbea73d427090f2050af7441,PennController,27,0,experiment,NULL,Canvas,canvas6,Print,NA,1687287434997,5ca3e355c0173b001222f915,5ca3e355c0173b001222f915,24,match,filler,D,75,match65.jpg,match85.jpg,GoalA,NULL
1687287449,8f8fe214bbea73d427090f2050af7441,PennController,27,0,experiment,NULL,Video,progression,buffer,0.012329,1687287430830,5ca3e355c0173b001222f915,5ca3e355c0173b001222f915,24,match,filler,D,75,match65.jpg,match85.jpg,GoalA,NULL
1687287449,8f8fe214bbea73d427090f2050af7441,PennController,27,0,experiment,NULL,Selector,choice,Selection,option1,1687287437212,5ca3e355c0173b001222f915,5ca3e355c0173b001222f915,24,match,filler,D,75,match65.jpg,match85.jpg,GoalA,option1;option2
1687287449,8f8fe214bbea73d427090f2050af7441,PennController,27,0,experiment,NULL,PennController,26,_Trial_,End,1687287437214,5ca3e355c0173b001222f915,5ca3e355c0173b001222f915,24,match,filler,D,75,match65.jpg,match85.jpg,GoalA,NULL
1687287449,8f8fe214bbea73d427090f2050af7441,PennController,32,0,experiment,NULL,PennController,31,_Trial_,Start,1687287437214,5ca3e355c0173b001222f915,5ca3e355c0173b001222f915,29,frog,filler,D,50,frog40.jpg,frog60.jpg,GoalB,NULL
1687287449,8f8fe214bbea73d427090f2050af7441,PennController,32,0,experiment,NULL,PennController,31,_Header_,Start,1687287437214,5ca3e355c0173b001222f915,5ca3e355c0173b001222f915,29,frog,filler,D,50,frog40.jpg,frog60.jpg,GoalB,NULL
1687287449,8f8fe214bbea73d427090f2050af7441,PennController,32,0,experiment,NULL,PennController,31,_Header_,End,1687287437214,5ca3e355c0173b001222f915,5ca3e355c0173b001222f915,29,frog,filler,D,50,frog40.jpg,frog60.jpg,GoalB,NULL
1687287449,8f8fe214bbea73d427090f2050af7441,PennController,32,0,experiment,NULL,Canvas,canvas6,Print,NA,1687287443931,5ca3e355c0173b001222f915,5ca3e355c0173b001222f915,29,frog,filler,D,50,frog40.jpg,frog60.jpg,GoalB,NULL
1687287449,8f8fe214bbea73d427090f2050af7441,PennController,32,0,experiment,NULL,Video,progression,buffer,0.014652,1687287440761,5ca3e355c0173b001222f915,5ca3e355c0173b001222f915,29,frog,filler,D,50,frog40.jpg,frog60.jpg,GoalB,NULL
1687287449,8f8fe214bbea73d427090f2050af7441,PennController,32,0,experiment,NULL,Selector,choice,Selection,option2,1687287449285,5ca3e355c0173b001222f915,5ca3e355c0173b001222f915,29,frog,filler,D,50,frog40.jpg,frog60.jpg,GoalB,option1;option2
1687287449,8f8fe214bbea73d427090f2050af7441,PennController,32,0,experiment,NULL,PennController,31,_Trial_,End,1687287449286,5ca3e355c0173b001222f915,5ca3e355c0173b001222f915,29,frog,filler,D,50,frog40.jpg,frog60.jpg,GoalB,NULL
