#
# Results on Tuesday June 20 2023 18:52:14 UTC
# USER AGENT: Mozilla/5.0 (Windows NT 10.0; Win64; x64) AppleWebKit/537.36 (KHTML, like Gecko) Chrome/114.0.0.0 Safari/537.36
# Design number was non-random = 3
#
# Columns below this comment are as follows:
# 1. Results reception time.
# 2. MD5 hash of participant's IP address.
# 3. Controller name.
# 4. Order number of item.
# 5. Inner element number.
# 6. Label.
# 7. Latin Square Group.
# 8. PennElementType.
# 9. PennElementName.
# 10. Parameter.
# 11. Value.
# 12. EventTime.
# 13. PROLIFIC_ID.
# 14. Comments.
1687287134,b8997e19c3197fea5774a80f55cac625,PennController,2,0,consent,NULL,PennController,0,_Trial_,Start,1687286828982,616ed344e2f23b7597b423f7,NULL
1687287134,b8997e19c3197fea5774a80f55cac625,PennController,2,0,consent,NULL,PennController,0,_Header_,Start,1687286828982,616ed344e2f23b7597b423f7,NULL
1687287134,b8997e19c3197fea5774a80f55cac625,PennController,2,0,consent,NULL,PennController,0,_Header_,End,1687286828983,616ed344e2f23b7597b423f7,NULL
1687287134,b8997e19c3197fea5774a80f55cac625,PennController,2,0,consent,NULL,PennController,0,_Trial_,End,1687286838559,616ed344e2f23b7597b423f7,NULL
# Columns below this comment are as follows:
# 14. ID.
# 15. Comments.
1687287134,b8997e19c3197fea5774a80f55cac625,PennController,3,0,intro,NULL,PennController,1,_Trial_,Start,1687286838563,616ed344e2f23b7597b423f7,616ed344e2f23b7597b423f7,NULL
1687287134,b8997e19c3197fea5774a80f55cac625,PennController,3,0,intro,NULL,PennController,1,_Header_,Start,1687286838563,616ed344e2f23b7597b423f7,616ed344e2f23b7597b423f7,NULL
1687287134,b8997e19c3197fea5774a80f55cac625,PennController,3,0,intro,NULL,PennController,1,_Header_,End,1687286838563,616ed344e2f23b7597b423f7,616ed344e2f23b7597b423f7,NULL
1687287134,b8997e19c3197fea5774a80f55cac625,PennController,3,0,intro,NULL,PennController,1,_Trial_,End,1687286853386,616ed344e2f23b7597b423f7,616ed344e2f23b7597b423f7,NULL
# Columns below this comment are as follows:
# 15. item_number.
# 16. item.
# 17. type.
# 18. Group.
# 19. prog.
# 20. prev_image.
# 21. next_image.
# 22. height.
# 23. Comments.
1687287134,b8997e19c3197fea5774a80f55cac625,PennController,5,0,experiment,NULL,PennController,4,_Trial_,Start,1687286853391,616ed344e2f23b7597b423f7,616ed344e2f23b7597b423f7,2,door,critical,D,50,door40.jpg,door60.jpg,high,NULL
1687287134,b8997e19c3197fea5774a80f55cac625,PennController,5,0,experiment,NULL,PennController,4,_Header_,Start,1687286853391,616ed344e2f23b7597b423f7,616ed344e2f23b7597b423f7,2,door,critical,D,50,door40.jpg,door60.jpg,high,NULL
1687287134,b8997e19c3197fea5774a80f55cac625,PennController,5,0,experiment,NULL,PennController,4,_Header_,End,1687286853391,616ed344e2f23b7597b423f7,616ed344e2f23b7597b423f7,2,door,critical,D,50,door40.jpg,door60.jpg,high,NULL
1687287134,b8997e19c3197fea5774a80f55cac625,PennController,5,0,experiment,NULL,Canvas,canvas6,Print,NA,1687286860183,616ed344e2f23b7597b423f7,616ed344e2f23b7597b423f7,2,door,critical,D,50,door40.jpg,door60.jpg,high,NULL
1687287134,b8997e19c3197fea5774a80f55cac625,PennController,5,0,experiment,NULL,Video,progression,buffer,0.015691,1687286856990,616ed344e2f23b7597b423f7,616ed344e2f23b7597b423f7,2,door,critical,D,50,door40.jpg,door60.jpg,high,NULL
1687287134,b8997e19c3197fea5774a80f55cac625,PennController,5,0,experiment,NULL,Selector,choice,Selection,option1,1687286866086,616ed344e2f23b7597b423f7,616ed344e2f23b7597b423f7,2,door,critical,D,50,door40.jpg,door60.jpg,high,option1;option2
1687287134,b8997e19c3197fea5774a80f55cac625,PennController,5,0,experiment,NULL,PennController,4,_Trial_,End,1687286866088,616ed344e2f23b7597b423f7,616ed344e2f23b7597b423f7,2,door,critical,D,50,door40.jpg,door60.jpg,high,NULL
1687287134,b8997e19c3197fea5774a80f55cac625,PennController,15,0,experiment,NULL,PennController,14,_Trial_,Start,1687286866089,616ed344e2f23b7597b423f7,616ed344e2f23b7597b423f7,12,erase,critical,D,75,erase66.jpg,erase84.jpg,high,NULL
1687287134,b8997e19c3197fea5774a80f55cac625,PennController,15,0,experiment,NULL,PennController,14,_Header_,Start,1687286866089,616ed344e2f23b7597b423f7,616ed344e2f23b7597b423f7,12,erase,critical,D,75,erase66.jpg,erase84.jpg,high,NULL
1687287134,b8997e19c3197fea5774a80f55cac625,PennController,15,0,experiment,NULL,PennController,14,_Header_,End,1687286866089,616ed344e2f23b7597b423f7,616ed344e2f23b7597b423f7,12,erase,critical,D,75,erase66.jpg,erase84.jpg,high,NULL
1687287134,b8997e19c3197fea5774a80f55cac625,PennController,15,0,experiment,NULL,Canvas,canvas6,Print,NA,1687286875804,616ed344e2f23b7597b423f7,616ed344e2f23b7597b423f7,12,erase,critical,D,75,erase66.jpg,erase84.jpg,high,NULL
1687287134,b8997e19c3197fea5774a80f55cac625,PennController,15,0,experiment,NULL,Video,progression,buffer,0.015858,1687286869653,616ed344e2f23b7597b423f7,616ed344e2f23b7597b423f7,12,erase,critical,D,75,erase66.jpg,erase84.jpg,high,NULL
1687287134,b8997e19c3197fea5774a80f55cac625,PennController,15,0,experiment,NULL,Selector,choice,Selection,option2,1687286877390,616ed344e2f23b7597b423f7,616ed344e2f23b7597b423f7,12,erase,critical,D,75,erase66.jpg,erase84.jpg,high,option1;option2
1687287134,b8997e19c3197fea5774a80f55cac625,PennController,15,0,experiment,NULL,PennController,14,_Trial_,End,1687286877392,616ed344e2f23b7597b423f7,616ed344e2f23b7597b423f7,12,erase,critical,D,75,erase66.jpg,erase84.jpg,high,NULL
1687287134,b8997e19c3197fea5774a80f55cac625,PennController,32,0,experiment,NULL,PennController,31,_Trial_,Start,1687286877393,616ed344e2f23b7597b423f7,616ed344e2f23b7597b423f7,29,frog,filler,D,50,frog40.jpg,frog60.jpg,GoalB,NULL
1687287134,b8997e19c3197fea5774a80f55cac625,PennController,32,0,experiment,NULL,PennController,31,_Header_,Start,1687286877393,616ed344e2f23b7597b423f7,616ed344e2f23b7597b423f7,29,frog,filler,D,50,frog40.jpg,frog60.jpg,GoalB,NULL
1687287134,b8997e19c3197fea5774a80f55cac625,PennController,32,0,experiment,NULL,PennController,31,_Header_,End,1687286877393,616ed344e2f23b7597b423f7,616ed344e2f23b7597b423f7,29,frog,filler,D,50,frog40.jpg,frog60.jpg,GoalB,NULL
1687287134,b8997e19c3197fea5774a80f55cac625,PennController,32,0,experiment,NULL,Canvas,canvas6,Print,NA,1687286884124,616ed344e2f23b7597b423f7,616ed344e2f23b7597b423f7,29,frog,filler,D,50,frog40.jpg,frog60.jpg,GoalB,NULL
1687287134,b8997e19c3197fea5774a80f55cac625,PennController,32,0,experiment,NULL,Video,progression,buffer,0.01844,1687286880958,616ed344e2f23b7597b423f7,616ed344e2f23b7597b423f7,29,frog,filler,D,50,frog40.jpg,frog60.jpg,GoalB,NULL
1687287134,b8997e19c3197fea5774a80f55cac625,PennController,32,0,experiment,NULL,Selector,choice,Selection,option2,1687286886292,616ed344e2f23b7597b423f7,616ed344e2f23b7597b423f7,29,frog,filler,D,50,frog40.jpg,frog60.jpg,GoalB,option1;option2
1687287134,b8997e19c3197fea5774a80f55cac625,PennController,32,0,experiment,NULL,PennController,31,_Trial_,End,1687286886293,616ed344e2f23b7597b423f7,616ed344e2f23b7597b423f7,29,frog,filler,D,50,frog40.jpg,frog60.jpg,GoalB,NULL
1687287134,b8997e19c3197fea5774a80f55cac625,PennController,30,0,experiment,NULL,PennController,29,_Trial_,Start,1687286886295,616ed344e2f23b7597b423f7,616ed344e2f23b7597b423f7,27,square,filler,D,75,square65.jpg,square85.jpg,GoalB,NULL
1687287134,b8997e19c3197fea5774a80f55cac625,PennController,30,0,experiment,NULL,PennController,29,_Header_,Start,1687286886295,616ed344e2f23b7597b423f7,616ed344e2f23b7597b423f7,27,square,filler,D,75,square65.jpg,square85.jpg,GoalB,NULL
1687287134,b8997e19c3197fea5774a80f55cac625,PennController,30,0,experiment,NULL,PennController,29,_Header_,End,1687286886295,616ed344e2f23b7597b423f7,616ed344e2f23b7597b423f7,27,square,filler,D,75,square65.jpg,square85.jpg,GoalB,NULL
1687287134,b8997e19c3197fea5774a80f55cac625,PennController,30,0,experiment,NULL,Canvas,canvas6,Print,NA,1687286894008,616ed344e2f23b7597b423f7,616ed344e2f23b7597b423f7,27,square,filler,D,75,square65.jpg,square85.jpg,GoalB,NULL
1687287134,b8997e19c3197fea5774a80f55cac625,PennController,30,0,experiment,NULL,Video,progression,buffer,0.009874,1687286889844,616ed344e2f23b7597b423f7,616ed344e2f23b7597b423f7,27,square,filler,D,75,square65.jpg,square85.jpg,GoalB,NULL
1687287134,b8997e19c3197fea5774a80f55cac625,PennController,30,0,experiment,NULL,Selector,choice,Selection,option1,1687286898516,616ed344e2f23b7597b423f7,616ed344e2f23b7597b423f7,27,square,filler,D,75,square65.jpg,square85.jpg,GoalB,option2;option1
1687287134,b8997e19c3197fea5774a80f55cac625,PennController,30,0,experiment,NULL,PennController,29,_Trial_,End,1687286898517,616ed344e2f23b7597b423f7,616ed344e2f23b7597b423f7,27,square,filler,D,75,square65.jpg,square85.jpg,GoalB,NULL
1687287134,b8997e19c3197fea5774a80f55cac625,PennController,23,0,experiment,NULL,PennController,22,_Trial_,Start,1687286898518,616ed344e2f23b7597b423f7,616ed344e2f23b7597b423f7,20,cat,filler,D,50,cat40.jpg,cat60.jpg,GoalA,NULL
1687287134,b8997e19c3197fea5774a80f55cac625,PennController,23,0,experiment,NULL,PennController,22,_Header_,Start,1687286898518,616ed344e2f23b7597b423f7,616ed344e2f23b7597b423f7,20,cat,filler,D,50,cat40.jpg,cat60.jpg,GoalA,NULL
1687287134,b8997e19c3197fea5774a80f55cac625,PennController,23,0,experiment,NULL,PennController,22,_Header_,End,1687286898518,616ed344e2f23b7597b423f7,616ed344e2f23b7597b423f7,20,cat,filler,D,50,cat40.jpg,cat60.jpg,GoalA,NULL
1687287134,b8997e19c3197fea5774a80f55cac625,PennController,23,0,experiment,NULL,Canvas,canvas6,Print,NA,1687286905247,616ed344e2f23b7597b423f7,616ed344e2f23b7597b423f7,20,cat,filler,D,50,cat40.jpg,cat60.jpg,GoalA,NULL
1687287134,b8997e19c3197fea5774a80f55cac625,PennController,23,0,experiment,NULL,Video,progression,buffer,0.019962,1687286902092,616ed344e2f23b7597b423f7,616ed344e2f23b7597b423f7,20,cat,filler,D,50,cat40.jpg,cat60.jpg,GoalA,NULL
1687287134,b8997e19c3197fea5774a80f55cac625,PennController,23,0,experiment,NULL,Selector,choice,Selection,option2,1687286908931,616ed344e2f23b7597b423f7,616ed344e2f23b7597b423f7,20,cat,filler,D,50,cat40.jpg,cat60.jpg,GoalA,option2;option1
1687287134,b8997e19c3197fea5774a80f55cac625,PennController,23,0,experiment,NULL,PennController,22,_Trial_,End,1687286908932,616ed344e2f23b7597b423f7,616ed344e2f23b7597b423f7,20,cat,filler,D,50,cat40.jpg,cat60.jpg,GoalA,NULL
1687287134,b8997e19c3197fea5774a80f55cac625,PennController,27,0,experiment,NULL,PennController,26,_Trial_,Start,1687286908934,616ed344e2f23b7597b423f7,616ed344e2f23b7597b423f7,24,match,filler,D,75,match65.jpg,match85.jpg,GoalA,NULL
1687287134,b8997e19c3197fea5774a80f55cac625,PennController,27,0,experiment,NULL,PennController,26,_Header_,Start,1687286908934,616ed344e2f23b7597b423f7,616ed344e2f23b7597b423f7,24,match,filler,D,75,match65.jpg,match85.jpg,GoalA,NULL
1687287134,b8997e19c3197fea5774a80f55cac625,PennController,27,0,experiment,NULL,PennController,26,_Header_,End,1687286908934,616ed344e2f23b7597b423f7,616ed344e2f23b7597b423f7,24,match,filler,D,75,match65.jpg,match85.jpg,GoalA,NULL
1687287134,b8997e19c3197fea5774a80f55cac625,PennController,27,0,experiment,NULL,Canvas,canvas6,Print,NA,1687286916653,616ed344e2f23b7597b423f7,616ed344e2f23b7597b423f7,24,match,filler,D,75,match65.jpg,match85.jpg,GoalA,NULL
1687287134,b8997e19c3197fea5774a80f55cac625,PennController,27,0,experiment,NULL,Video,progression,buffer,0.018543,1687286912487,616ed344e2f23b7597b423f7,616ed344e2f23b7597b423f7,24,match,filler,D,75,match65.jpg,match85.jpg,GoalA,NULL
1687287134,b8997e19c3197fea5774a80f55cac625,PennController,27,0,experiment,NULL,Selector,choice,Selection,option1,1687286919517,616ed344e2f23b7597b423f7,616ed344e2f23b7597b423f7,24,match,filler,D,75,match65.jpg,match85.jpg,GoalA,option1;option2
1687287134,b8997e19c3197fea5774a80f55cac625,PennController,27,0,experiment,NULL,PennController,26,_Trial_,End,1687286919519,616ed344e2f23b7597b423f7,616ed344e2f23b7597b423f7,24,match,filler,D,75,match65.jpg,match85.jpg,GoalA,NULL
1687287134,b8997e19c3197fea5774a80f55cac625,PennController,14,0,experiment,NULL,PennController,13,_Trial_,Start,1687286919520,616ed344e2f23b7597b423f7,616ed344e2f23b7597b423f7,11,beads,critical,D,50,beads40.jpg,beads60.jpg,high,NULL
1687287134,b8997e19c3197fea5774a80f55cac625,PennController,14,0,experiment,NULL,PennController,13,_Header_,Start,1687286919520,616ed344e2f23b7597b423f7,616ed344e2f23b7597b423f7,11,beads,critical,D,50,beads40.jpg,beads60.jpg,high,NULL
1687287134,b8997e19c3197fea5774a80f55cac625,PennController,14,0,experiment,NULL,PennController,13,_Header_,End,1687286919520,616ed344e2f23b7597b423f7,616ed344e2f23b7597b423f7,11,beads,critical,D,50,beads40.jpg,beads60.jpg,high,NULL
1687287134,b8997e19c3197fea5774a80f55cac625,PennController,14,0,experiment,NULL,Canvas,canvas6,Print,NA,1687286926243,616ed344e2f23b7597b423f7,616ed344e2f23b7597b423f7,11,beads,critical,D,50,beads40.jpg,beads60.jpg,high,NULL
1687287134,b8997e19c3197fea5774a80f55cac625,PennController,14,0,experiment,NULL,Video,progression,buffer,0.014311,1687286923083,616ed344e2f23b7597b423f7,616ed344e2f23b7597b423f7,11,beads,critical,D,50,beads40.jpg,beads60.jpg,high,NULL
1687287134,b8997e19c3197fea5774a80f55cac625,PennController,14,0,experiment,NULL,Selector,choice,Selection,option1,1687286928164,616ed344e2f23b7597b423f7,616ed344e2f23b7597b423f7,11,beads,critical,D,50,beads40.jpg,beads60.jpg,high,option1;option2
1687287134,b8997e19c3197fea5774a80f55cac625,PennController,14,0,experiment,NULL,PennController,13,_Trial_,End,1687286928166,616ed344e2f23b7597b423f7,616ed344e2f23b7597b423f7,11,beads,critical,D,50,beads40.jpg,beads60.jpg,high,NULL
1687287134,b8997e19c3197fea5774a80f55cac625,PennController,20,0,experiment,NULL,PennController,19,_Trial_,Start,1687286928167,616ed344e2f23b7597b423f7,616ed344e2f23b7597b423f7,17,roll,critical,D,50,roll40.jpg,roll60.jpg,high,NULL
1687287134,b8997e19c3197fea5774a80f55cac625,PennController,20,0,experiment,NULL,PennController,19,_Header_,Start,1687286928168,616ed344e2f23b7597b423f7,616ed344e2f23b7597b423f7,17,roll,critical,D,50,roll40.jpg,roll60.jpg,high,NULL
1687287134,b8997e19c3197fea5774a80f55cac625,PennController,20,0,experiment,NULL,PennController,19,_Header_,End,1687286928168,616ed344e2f23b7597b423f7,616ed344e2f23b7597b423f7,17,roll,critical,D,50,roll40.jpg,roll60.jpg,high,NULL
1687287134,b8997e19c3197fea5774a80f55cac625,PennController,20,0,experiment,NULL,Canvas,canvas6,Print,NA,1687286934893,616ed344e2f23b7597b423f7,616ed344e2f23b7597b423f7,17,roll,critical,D,50,roll40.jpg,roll60.jpg,high,NULL
1687287134,b8997e19c3197fea5774a80f55cac625,PennController,20,0,experiment,NULL,Video,progression,buffer,0.019732,1687286931740,616ed344e2f23b7597b423f7,616ed344e2f23b7597b423f7,17,roll,critical,D,50,roll40.jpg,roll60.jpg,high,NULL
1687287134,b8997e19c3197fea5774a80f55cac625,PennController,20,0,experiment,NULL,Selector,choice,Selection,option1,1687286936603,616ed344e2f23b7597b423f7,616ed344e2f23b7597b423f7,17,roll,critical,D,50,roll40.jpg,roll60.jpg,high,option1;option2
1687287134,b8997e19c3197fea5774a80f55cac625,PennController,20,0,experiment,NULL,PennController,19,_Trial_,End,1687286936604,616ed344e2f23b7597b423f7,616ed344e2f23b7597b423f7,17,roll,critical,D,50,roll40.jpg,roll60.jpg,high,NULL
1687287134,b8997e19c3197fea5774a80f55cac625,PennController,12,0,experiment,NULL,PennController,11,_Trial_,Start,1687286936605,616ed344e2f23b7597b423f7,616ed344e2f23b7597b423f7,9,cake,critical,D,75,cake66.jpg,cake84.jpg,high,NULL
1687287134,b8997e19c3197fea5774a80f55cac625,PennController,12,0,experiment,NULL,PennController,11,_Header_,Start,1687286936605,616ed344e2f23b7597b423f7,616ed344e2f23b7597b423f7,9,cake,critical,D,75,cake66.jpg,cake84.jpg,high,NULL
1687287134,b8997e19c3197fea5774a80f55cac625,PennController,12,0,experiment,NULL,PennController,11,_Header_,End,1687286936605,616ed344e2f23b7597b423f7,616ed344e2f23b7597b423f7,9,cake,critical,D,75,cake66.jpg,cake84.jpg,high,NULL
1687287134,b8997e19c3197fea5774a80f55cac625,PennController,12,0,experiment,NULL,Canvas,canvas6,Print,NA,1687286946345,616ed344e2f23b7597b423f7,616ed344e2f23b7597b423f7,9,cake,critical,D,75,cake66.jpg,cake84.jpg,high,NULL
1687287134,b8997e19c3197fea5774a80f55cac625,PennController,12,0,experiment,NULL,Video,progression,buffer,0.013366,1687286940160,616ed344e2f23b7597b423f7,616ed344e2f23b7597b423f7,9,cake,critical,D,75,cake66.jpg,cake84.jpg,high,NULL
1687287134,b8997e19c3197fea5774a80f55cac625,PennController,12,0,experiment,NULL,Selector,choice,Selection,option2,1687286947639,616ed344e2f23b7597b423f7,616ed344e2f23b7597b423f7,9,cake,critical,D,75,cake66.jpg,cake84.jpg,high,option2;option1
1687287134,b8997e19c3197fea5774a80f55cac625,PennController,12,0,experiment,NULL,PennController,11,_Trial_,End,1687286947641,616ed344e2f23b7597b423f7,616ed344e2f23b7597b423f7,9,cake,critical,D,75,cake66.jpg,cake84.jpg,high,NULL
1687287134,b8997e19c3197fea5774a80f55cac625,PennController,7,0,experiment,NULL,PennController,6,_Trial_,Start,1687286947643,616ed344e2f23b7597b423f7,616ed344e2f23b7597b423f7,4,candy,critical,D,25,candy15.jpg,candy35.jpg,high,NULL
1687287134,b8997e19c3197fea5774a80f55cac625,PennController,7,0,experiment,NULL,PennController,6,_Header_,Start,1687286947643,616ed344e2f23b7597b423f7,616ed344e2f23b7597b423f7,4,candy,critical,D,25,candy15.jpg,candy35.jpg,high,NULL
1687287134,b8997e19c3197fea5774a80f55cac625,PennController,7,0,experiment,NULL,PennController,6,_Header_,End,1687286947643,616ed344e2f23b7597b423f7,616ed344e2f23b7597b423f7,4,candy,critical,D,25,candy15.jpg,candy35.jpg,high,NULL
1687287134,b8997e19c3197fea5774a80f55cac625,PennController,7,0,experiment,NULL,Canvas,canvas6,Print,NA,1687286953362,616ed344e2f23b7597b423f7,616ed344e2f23b7597b423f7,4,candy,critical,D,25,candy15.jpg,candy35.jpg,high,NULL
1687287134,b8997e19c3197fea5774a80f55cac625,PennController,7,0,experiment,NULL,Video,progression,buffer,0.034895,1687286951219,616ed344e2f23b7597b423f7,616ed344e2f23b7597b423f7,4,candy,critical,D,25,candy15.jpg,candy35.jpg,high,NULL
1687287134,b8997e19c3197fea5774a80f55cac625,PennController,7,0,experiment,NULL,Selector,choice,Selection,option2,1687286954670,616ed344e2f23b7597b423f7,616ed344e2f23b7597b423f7,4,candy,critical,D,25,candy15.jpg,candy35.jpg,high,option2;option1
1687287134,b8997e19c3197fea5774a80f55cac625,PennController,7,0,experiment,NULL,PennController,6,_Trial_,End,1687286954672,616ed344e2f23b7597b423f7,616ed344e2f23b7597b423f7,4,candy,critical,D,25,candy15.jpg,candy35.jpg,high,NULL
1687287134,b8997e19c3197fea5774a80f55cac625,PennController,11,0,experiment,NULL,PennController,10,_Trial_,Start,1687286954673,616ed344e2f23b7597b423f7,616ed344e2f23b7597b423f7,8,cucumber,critical,D,50,cucumber42.jpg,cucumber60.jpg,high,NULL
1687287134,b8997e19c3197fea5774a80f55cac625,PennController,11,0,experiment,NULL,PennController,10,_Header_,Start,1687286954673,616ed344e2f23b7597b423f7,616ed344e2f23b7597b423f7,8,cucumber,critical,D,50,cucumber42.jpg,cucumber60.jpg,high,NULL
1687287134,b8997e19c3197fea5774a80f55cac625,PennController,11,0,experiment,NULL,PennController,10,_Header_,End,1687286954674,616ed344e2f23b7597b423f7,616ed344e2f23b7597b423f7,8,cucumber,critical,D,50,cucumber42.jpg,cucumber60.jpg,high,NULL
1687287134,b8997e19c3197fea5774a80f55cac625,PennController,11,0,experiment,NULL,Canvas,canvas6,Print,NA,1687286962804,616ed344e2f23b7597b423f7,616ed344e2f23b7597b423f7,8,cucumber,critical,D,50,cucumber42.jpg,cucumber60.jpg,high,NULL
1687287134,b8997e19c3197fea5774a80f55cac625,PennController,11,0,experiment,NULL,Video,progression,buffer,0.017934,1687286958242,616ed344e2f23b7597b423f7,616ed344e2f23b7597b423f7,8,cucumber,critical,D,50,cucumber42.jpg,cucumber60.jpg,high,NULL
1687287134,b8997e19c3197fea5774a80f55cac625,PennController,11,0,experiment,NULL,Selector,choice,Selection,option1,1687286965094,616ed344e2f23b7597b423f7,616ed344e2f23b7597b423f7,8,cucumber,critical,D,50,cucumber42.jpg,cucumber60.jpg,high,option2;option1
1687287134,b8997e19c3197fea5774a80f55cac625,PennController,11,0,experiment,NULL,PennController,10,_Trial_,End,1687286965095,616ed344e2f23b7597b423f7,616ed344e2f23b7597b423f7,8,cucumber,critical,D,50,cucumber42.jpg,cucumber60.jpg,high,NULL
1687287134,b8997e19c3197fea5774a80f55cac625,PennController,18,0,experiment,NULL,PennController,17,_Trial_,Start,1687286965096,616ed344e2f23b7597b423f7,616ed344e2f23b7597b423f7,15,zip,critical,D,75,zip65.jpg,zip85.jpg,high,NULL
1687287134,b8997e19c3197fea5774a80f55cac625,PennController,18,0,experiment,NULL,PennController,17,_Header_,Start,1687286965096,616ed344e2f23b7597b423f7,616ed344e2f23b7597b423f7,15,zip,critical,D,75,zip65.jpg,zip85.jpg,high,NULL
1687287134,b8997e19c3197fea5774a80f55cac625,PennController,18,0,experiment,NULL,PennController,17,_Header_,End,1687286965096,616ed344e2f23b7597b423f7,616ed344e2f23b7597b423f7,15,zip,critical,D,75,zip65.jpg,zip85.jpg,high,NULL
1687287134,b8997e19c3197fea5774a80f55cac625,PennController,18,0,experiment,NULL,Canvas,canvas6,Print,NA,1687286972015,616ed344e2f23b7597b423f7,616ed344e2f23b7597b423f7,15,zip,critical,D,75,zip65.jpg,zip85.jpg,high,NULL
1687287134,b8997e19c3197fea5774a80f55cac625,PennController,18,0,experiment,NULL,Video,progression,buffer,0.011885,1687286968641,616ed344e2f23b7597b423f7,616ed344e2f23b7597b423f7,15,zip,critical,D,75,zip65.jpg,zip85.jpg,high,NULL
1687287134,b8997e19c3197fea5774a80f55cac625,PennController,18,0,experiment,NULL,Selector,choice,Selection,option2,1687286974103,616ed344e2f23b7597b423f7,616ed344e2f23b7597b423f7,15,zip,critical,D,75,zip65.jpg,zip85.jpg,high,option1;option2
1687287134,b8997e19c3197fea5774a80f55cac625,PennController,18,0,experiment,NULL,PennController,17,_Trial_,End,1687286974104,616ed344e2f23b7597b423f7,616ed344e2f23b7597b423f7,15,zip,critical,D,75,zip65.jpg,zip85.jpg,high,NULL
1687287134,b8997e19c3197fea5774a80f55cac625,PennController,6,0,experiment,NULL,PennController,5,_Trial_,Start,1687286974104,616ed344e2f23b7597b423f7,616ed344e2f23b7597b423f7,3,clean,critical,D,75,clean65.jpg,clean85.jpg,high,NULL
1687287134,b8997e19c3197fea5774a80f55cac625,PennController,6,0,experiment,NULL,PennController,5,_Header_,Start,1687286974104,616ed344e2f23b7597b423f7,616ed344e2f23b7597b423f7,3,clean,critical,D,75,clean65.jpg,clean85.jpg,high,NULL
1687287134,b8997e19c3197fea5774a80f55cac625,PennController,6,0,experiment,NULL,PennController,5,_Header_,End,1687286974105,616ed344e2f23b7597b423f7,616ed344e2f23b7597b423f7,3,clean,critical,D,75,clean65.jpg,clean85.jpg,high,NULL
1687287134,b8997e19c3197fea5774a80f55cac625,PennController,6,0,experiment,NULL,Canvas,canvas6,Print,NA,1687286981824,616ed344e2f23b7597b423f7,616ed344e2f23b7597b423f7,3,clean,critical,D,75,clean65.jpg,clean85.jpg,high,NULL
1687287134,b8997e19c3197fea5774a80f55cac625,PennController,6,0,experiment,NULL,Video,progression,buffer,0.010489,1687286977661,616ed344e2f23b7597b423f7,616ed344e2f23b7597b423f7,3,clean,critical,D,75,clean65.jpg,clean85.jpg,high,NULL
1687287134,b8997e19c3197fea5774a80f55cac625,PennController,6,0,experiment,NULL,Selector,choice,Selection,option1,1687286985329,616ed344e2f23b7597b423f7,616ed344e2f23b7597b423f7,3,clean,critical,D,75,clean65.jpg,clean85.jpg,high,option1;option2
1687287134,b8997e19c3197fea5774a80f55cac625,PennController,6,0,experiment,NULL,PennController,5,_Trial_,End,1687286985331,616ed344e2f23b7597b423f7,616ed344e2f23b7597b423f7,3,clean,critical,D,75,clean65.jpg,clean85.jpg,high,NULL
1687287134,b8997e19c3197fea5774a80f55cac625,PennController,31,0,experiment,NULL,PennController,30,_Trial_,Start,1687286985332,616ed344e2f23b7597b423f7,616ed344e2f23b7597b423f7,28,sort,filler,D,25,sort15.jpg,sort35.jpg,GoalA,NULL
1687287134,b8997e19c3197fea5774a80f55cac625,PennController,31,0,experiment,NULL,PennController,30,_Header_,Start,1687286985332,616ed344e2f23b7597b423f7,616ed344e2f23b7597b423f7,28,sort,filler,D,25,sort15.jpg,sort35.jpg,GoalA,NULL
1687287134,b8997e19c3197fea5774a80f55cac625,PennController,31,0,experiment,NULL,PennController,30,_Header_,End,1687286985332,616ed344e2f23b7597b423f7,616ed344e2f23b7597b423f7,28,sort,filler,D,25,sort15.jpg,sort35.jpg,GoalA,NULL
1687287134,b8997e19c3197fea5774a80f55cac625,PennController,31,0,experiment,NULL,Canvas,canvas6,Print,NA,1687286991048,616ed344e2f23b7597b423f7,616ed344e2f23b7597b423f7,28,sort,filler,D,25,sort15.jpg,sort35.jpg,GoalA,NULL
1687287134,b8997e19c3197fea5774a80f55cac625,PennController,31,0,experiment,NULL,Video,progression,buffer,0.013912,1687286988885,616ed344e2f23b7597b423f7,616ed344e2f23b7597b423f7,28,sort,filler,D,25,sort15.jpg,sort35.jpg,GoalA,NULL
1687287134,b8997e19c3197fea5774a80f55cac625,PennController,31,0,experiment,NULL,Selector,choice,Selection,option2,1687286995491,616ed344e2f23b7597b423f7,616ed344e2f23b7597b423f7,28,sort,filler,D,25,sort15.jpg,sort35.jpg,GoalA,option2;option1
1687287134,b8997e19c3197fea5774a80f55cac625,PennController,31,0,experiment,NULL,PennController,30,_Trial_,End,1687286995493,616ed344e2f23b7597b423f7,616ed344e2f23b7597b423f7,28,sort,filler,D,25,sort15.jpg,sort35.jpg,GoalA,NULL
1687287134,b8997e19c3197fea5774a80f55cac625,PennController,21,0,experiment,NULL,PennController,20,_Trial_,Start,1687286995495,616ed344e2f23b7597b423f7,616ed344e2f23b7597b423f7,18,ball,critical,D,75,ball65.jpg,ball85.jpg,high,NULL
1687287134,b8997e19c3197fea5774a80f55cac625,PennController,21,0,experiment,NULL,PennController,20,_Header_,Start,1687286995495,616ed344e2f23b7597b423f7,616ed344e2f23b7597b423f7,18,ball,critical,D,75,ball65.jpg,ball85.jpg,high,NULL
1687287134,b8997e19c3197fea5774a80f55cac625,PennController,21,0,experiment,NULL,PennController,20,_Header_,End,1687286995495,616ed344e2f23b7597b423f7,616ed344e2f23b7597b423f7,18,ball,critical,D,75,ball65.jpg,ball85.jpg,high,NULL
1687287134,b8997e19c3197fea5774a80f55cac625,PennController,21,0,experiment,NULL,Canvas,canvas6,Print,NA,1687287003235,616ed344e2f23b7597b423f7,616ed344e2f23b7597b423f7,18,ball,critical,D,75,ball65.jpg,ball85.jpg,high,NULL
1687287134,b8997e19c3197fea5774a80f55cac625,PennController,21,0,experiment,NULL,Video,progression,buffer,0.023793,1687286999086,616ed344e2f23b7597b423f7,616ed344e2f23b7597b423f7,18,ball,critical,D,75,ball65.jpg,ball85.jpg,high,NULL
1687287134,b8997e19c3197fea5774a80f55cac625,PennController,21,0,experiment,NULL,Selector,choice,Selection,option2,1687287005752,616ed344e2f23b7597b423f7,616ed344e2f23b7597b423f7,18,ball,critical,D,75,ball65.jpg,ball85.jpg,high,option2;option1
1687287134,b8997e19c3197fea5774a80f55cac625,PennController,21,0,experiment,NULL,PennController,20,_Trial_,End,1687287005753,616ed344e2f23b7597b423f7,616ed344e2f23b7597b423f7,18,ball,critical,D,75,ball65.jpg,ball85.jpg,high,NULL
1687287134,b8997e19c3197fea5774a80f55cac625,PennController,22,0,experiment,NULL,PennController,21,_Trial_,Start,1687287005754,616ed344e2f23b7597b423f7,616ed344e2f23b7597b423f7,19,cup,filler,D,25,cup15.jpg,cup35.jpg,GoalB,NULL
1687287134,b8997e19c3197fea5774a80f55cac625,PennController,22,0,experiment,NULL,PennController,21,_Header_,Start,1687287005754,616ed344e2f23b7597b423f7,616ed344e2f23b7597b423f7,19,cup,filler,D,25,cup15.jpg,cup35.jpg,GoalB,NULL
1687287134,b8997e19c3197fea5774a80f55cac625,PennController,22,0,experiment,NULL,PennController,21,_Header_,End,1687287005754,616ed344e2f23b7597b423f7,616ed344e2f23b7597b423f7,19,cup,filler,D,25,cup15.jpg,cup35.jpg,GoalB,NULL
1687287134,b8997e19c3197fea5774a80f55cac625,PennController,22,0,experiment,NULL,Canvas,canvas6,Print,NA,1687287011485,616ed344e2f23b7597b423f7,616ed344e2f23b7597b423f7,19,cup,filler,D,25,cup15.jpg,cup35.jpg,GoalB,NULL
1687287134,b8997e19c3197fea5774a80f55cac625,PennController,22,0,experiment,NULL,Video,progression,buffer,0.003653,1687287009298,616ed344e2f23b7597b423f7,616ed344e2f23b7597b423f7,19,cup,filler,D,25,cup15.jpg,cup35.jpg,GoalB,NULL
1687287134,b8997e19c3197fea5774a80f55cac625,PennController,22,0,experiment,NULL,Selector,choice,Selection,option2,1687287012773,616ed344e2f23b7597b423f7,616ed344e2f23b7597b423f7,19,cup,filler,D,25,cup15.jpg,cup35.jpg,GoalB,option2;option1
1687287134,b8997e19c3197fea5774a80f55cac625,PennController,22,0,experiment,NULL,PennController,21,_Trial_,End,1687287012774,616ed344e2f23b7597b423f7,616ed344e2f23b7597b423f7,19,cup,filler,D,25,cup15.jpg,cup35.jpg,GoalB,NULL
1687287134,b8997e19c3197fea5774a80f55cac625,PennController,29,0,experiment,NULL,PennController,28,_Trial_,Start,1687287012775,616ed344e2f23b7597b423f7,616ed344e2f23b7597b423f7,26,sandwich,filler,D,50,sandwich40.jpg,sandwich60.jpg,GoalA,NULL
1687287134,b8997e19c3197fea5774a80f55cac625,PennController,29,0,experiment,NULL,PennController,28,_Header_,Start,1687287012775,616ed344e2f23b7597b423f7,616ed344e2f23b7597b423f7,26,sandwich,filler,D,50,sandwich40.jpg,sandwich60.jpg,GoalA,NULL
1687287134,b8997e19c3197fea5774a80f55cac625,PennController,29,0,experiment,NULL,PennController,28,_Header_,End,1687287012775,616ed344e2f23b7597b423f7,616ed344e2f23b7597b423f7,26,sandwich,filler,D,50,sandwich40.jpg,sandwich60.jpg,GoalA,NULL
1687287134,b8997e19c3197fea5774a80f55cac625,PennController,29,0,experiment,NULL,Canvas,canvas6,Print,NA,1687287019503,616ed344e2f23b7597b423f7,616ed344e2f23b7597b423f7,26,sandwich,filler,D,50,sandwich40.jpg,sandwich60.jpg,GoalA,NULL
1687287134,b8997e19c3197fea5774a80f55cac625,PennController,29,0,experiment,NULL,Video,progression,buffer,0.013027,1687287016328,616ed344e2f23b7597b423f7,616ed344e2f23b7597b423f7,26,sandwich,filler,D,50,sandwich40.jpg,sandwich60.jpg,GoalA,NULL
1687287134,b8997e19c3197fea5774a80f55cac625,PennController,29,0,experiment,NULL,Selector,choice,Selection,option1,1687287021599,616ed344e2f23b7597b423f7,616ed344e2f23b7597b423f7,26,sandwich,filler,D,50,sandwich40.jpg,sandwich60.jpg,GoalA,option2;option1
1687287134,b8997e19c3197fea5774a80f55cac625,PennController,29,0,experiment,NULL,PennController,28,_Trial_,End,1687287021602,616ed344e2f23b7597b423f7,616ed344e2f23b7597b423f7,26,sandwich,filler,D,50,sandwich40.jpg,sandwich60.jpg,GoalA,NULL
1687287134,b8997e19c3197fea5774a80f55cac625,PennController,4,0,experiment,NULL,PennController,3,_Trial_,Start,1687287021603,616ed344e2f23b7597b423f7,616ed344e2f23b7597b423f7,1,vase,critical,D,25,vase15.jpg,vase35.jpg,high,NULL
1687287134,b8997e19c3197fea5774a80f55cac625,PennController,4,0,experiment,NULL,PennController,3,_Header_,Start,1687287021603,616ed344e2f23b7597b423f7,616ed344e2f23b7597b423f7,1,vase,critical,D,25,vase15.jpg,vase35.jpg,high,NULL
1687287134,b8997e19c3197fea5774a80f55cac625,PennController,4,0,experiment,NULL,PennController,3,_Header_,End,1687287021603,616ed344e2f23b7597b423f7,616ed344e2f23b7597b423f7,1,vase,critical,D,25,vase15.jpg,vase35.jpg,high,NULL
1687287134,b8997e19c3197fea5774a80f55cac625,PennController,4,0,experiment,NULL,Canvas,canvas6,Print,NA,1687287027312,616ed344e2f23b7597b423f7,616ed344e2f23b7597b423f7,1,vase,critical,D,25,vase15.jpg,vase35.jpg,high,NULL
1687287134,b8997e19c3197fea5774a80f55cac625,PennController,4,0,experiment,NULL,Video,progression,buffer,0.012129,1687287025147,616ed344e2f23b7597b423f7,616ed344e2f23b7597b423f7,1,vase,critical,D,25,vase15.jpg,vase35.jpg,high,NULL
1687287134,b8997e19c3197fea5774a80f55cac625,PennController,4,0,experiment,NULL,Selector,choice,Selection,option2,1687287028610,616ed344e2f23b7597b423f7,616ed344e2f23b7597b423f7,1,vase,critical,D,25,vase15.jpg,vase35.jpg,high,option1;option2
1687287134,b8997e19c3197fea5774a80f55cac625,PennController,4,0,experiment,NULL,PennController,3,_Trial_,End,1687287028611,616ed344e2f23b7597b423f7,616ed344e2f23b7597b423f7,1,vase,critical,D,25,vase15.jpg,vase35.jpg,high,NULL
1687287134,b8997e19c3197fea5774a80f55cac625,PennController,25,0,experiment,NULL,PennController,24,_Trial_,Start,1687287028612,616ed344e2f23b7597b423f7,616ed344e2f23b7597b423f7,22,wall,filler,D,25,wall15.jpg,wall35.jpg,GoalA,NULL
1687287134,b8997e19c3197fea5774a80f55cac625,PennController,25,0,experiment,NULL,PennController,24,_Header_,Start,1687287028612,616ed344e2f23b7597b423f7,616ed344e2f23b7597b423f7,22,wall,filler,D,25,wall15.jpg,wall35.jpg,GoalA,NULL
1687287134,b8997e19c3197fea5774a80f55cac625,PennController,25,0,experiment,NULL,PennController,24,_Header_,End,1687287028612,616ed344e2f23b7597b423f7,616ed344e2f23b7597b423f7,22,wall,filler,D,25,wall15.jpg,wall35.jpg,GoalA,NULL
1687287134,b8997e19c3197fea5774a80f55cac625,PennController,25,0,experiment,NULL,Canvas,canvas6,Print,NA,1687287034335,616ed344e2f23b7597b423f7,616ed344e2f23b7597b423f7,22,wall,filler,D,25,wall15.jpg,wall35.jpg,GoalA,NULL
1687287134,b8997e19c3197fea5774a80f55cac625,PennController,25,0,experiment,NULL,Video,progression,buffer,0.013292,1687287032171,616ed344e2f23b7597b423f7,616ed344e2f23b7597b423f7,22,wall,filler,D,25,wall15.jpg,wall35.jpg,GoalA,NULL
1687287134,b8997e19c3197fea5774a80f55cac625,PennController,25,0,experiment,NULL,Selector,choice,Selection,option2,1687287037176,616ed344e2f23b7597b423f7,616ed344e2f23b7597b423f7,22,wall,filler,D,25,wall15.jpg,wall35.jpg,GoalA,option2;option1
1687287134,b8997e19c3197fea5774a80f55cac625,PennController,25,0,experiment,NULL,PennController,24,_Trial_,End,1687287037178,616ed344e2f23b7597b423f7,616ed344e2f23b7597b423f7,22,wall,filler,D,25,wall15.jpg,wall35.jpg,GoalA,NULL
1687287134,b8997e19c3197fea5774a80f55cac625,PennController,8,0,experiment,NULL,PennController,7,_Trial_,Start,1687287037179,616ed344e2f23b7597b423f7,616ed344e2f23b7597b423f7,5,book,critical,D,50,book40.jpg,book60.jpg,high,NULL
1687287134,b8997e19c3197fea5774a80f55cac625,PennController,8,0,experiment,NULL,PennController,7,_Header_,Start,1687287037179,616ed344e2f23b7597b423f7,616ed344e2f23b7597b423f7,5,book,critical,D,50,book40.jpg,book60.jpg,high,NULL
1687287134,b8997e19c3197fea5774a80f55cac625,PennController,8,0,experiment,NULL,PennController,7,_Header_,End,1687287037179,616ed344e2f23b7597b423f7,616ed344e2f23b7597b423f7,5,book,critical,D,50,book40.jpg,book60.jpg,high,NULL
1687287134,b8997e19c3197fea5774a80f55cac625,PennController,8,0,experiment,NULL,Canvas,canvas6,Print,NA,1687287043895,616ed344e2f23b7597b423f7,616ed344e2f23b7597b423f7,5,book,critical,D,50,book40.jpg,book60.jpg,high,NULL
1687287134,b8997e19c3197fea5774a80f55cac625,PennController,8,0,experiment,NULL,Video,progression,buffer,0.013209,1687287040734,616ed344e2f23b7597b423f7,616ed344e2f23b7597b423f7,5,book,critical,D,50,book40.jpg,book60.jpg,high,NULL
1687287134,b8997e19c3197fea5774a80f55cac625,PennController,8,0,experiment,NULL,Selector,choice,Selection,option1,1687287046264,616ed344e2f23b7597b423f7,616ed344e2f23b7597b423f7,5,book,critical,D,50,book40.jpg,book60.jpg,high,option2;option1
1687287134,b8997e19c3197fea5774a80f55cac625,PennController,8,0,experiment,NULL,PennController,7,_Trial_,End,1687287046265,616ed344e2f23b7597b423f7,616ed344e2f23b7597b423f7,5,book,critical,D,50,book40.jpg,book60.jpg,high,NULL
1687287134,b8997e19c3197fea5774a80f55cac625,PennController,17,0,experiment,NULL,PennController,16,_Trial_,Start,1687287046266,616ed344e2f23b7597b423f7,616ed344e2f23b7597b423f7,14,cover,critical,D,50,cover42.jpg,cover60.jpg,high,NULL
1687287134,b8997e19c3197fea5774a80f55cac625,PennController,17,0,experiment,NULL,PennController,16,_Header_,Start,1687287046266,616ed344e2f23b7597b423f7,616ed344e2f23b7597b423f7,14,cover,critical,D,50,cover42.jpg,cover60.jpg,high,NULL
1687287134,b8997e19c3197fea5774a80f55cac625,PennController,17,0,experiment,NULL,PennController,16,_Header_,End,1687287046266,616ed344e2f23b7597b423f7,616ed344e2f23b7597b423f7,14,cover,critical,D,50,cover42.jpg,cover60.jpg,high,NULL
1687287134,b8997e19c3197fea5774a80f55cac625,PennController,17,0,experiment,NULL,Canvas,canvas6,Print,NA,1687287054382,616ed344e2f23b7597b423f7,616ed344e2f23b7597b423f7,14,cover,critical,D,50,cover42.jpg,cover60.jpg,high,NULL
1687287134,b8997e19c3197fea5774a80f55cac625,PennController,17,0,experiment,NULL,Video,progression,buffer,0.013864,1687287049824,616ed344e2f23b7597b423f7,616ed344e2f23b7597b423f7,14,cover,critical,D,50,cover42.jpg,cover60.jpg,high,NULL
1687287134,b8997e19c3197fea5774a80f55cac625,PennController,17,0,experiment,NULL,Selector,choice,Selection,option2,1687287057931,616ed344e2f23b7597b423f7,616ed344e2f23b7597b423f7,14,cover,critical,D,50,cover42.jpg,cover60.jpg,high,option1;option2
1687287134,b8997e19c3197fea5774a80f55cac625,PennController,17,0,experiment,NULL,PennController,16,_Trial_,End,1687287057932,616ed344e2f23b7597b423f7,616ed344e2f23b7597b423f7,14,cover,critical,D,50,cover42.jpg,cover60.jpg,high,NULL
1687287134,b8997e19c3197fea5774a80f55cac625,PennController,16,0,experiment,NULL,PennController,15,_Trial_,Start,1687287057933,616ed344e2f23b7597b423f7,616ed344e2f23b7597b423f7,13,mix,critical,D,25,mix15.jpg,mix35.jpg,high,NULL
1687287134,b8997e19c3197fea5774a80f55cac625,PennController,16,0,experiment,NULL,PennController,15,_Header_,Start,1687287057933,616ed344e2f23b7597b423f7,616ed344e2f23b7597b423f7,13,mix,critical,D,25,mix15.jpg,mix35.jpg,high,NULL
1687287134,b8997e19c3197fea5774a80f55cac625,PennController,16,0,experiment,NULL,PennController,15,_Header_,End,1687287057933,616ed344e2f23b7597b423f7,616ed344e2f23b7597b423f7,13,mix,critical,D,25,mix15.jpg,mix35.jpg,high,NULL
1687287134,b8997e19c3197fea5774a80f55cac625,PennController,16,0,experiment,NULL,Canvas,canvas6,Print,NA,1687287063662,616ed344e2f23b7597b423f7,616ed344e2f23b7597b423f7,13,mix,critical,D,25,mix15.jpg,mix35.jpg,high,NULL
1687287134,b8997e19c3197fea5774a80f55cac625,PennController,16,0,experiment,NULL,Video,progression,buffer,0.015355,1687287061495,616ed344e2f23b7597b423f7,616ed344e2f23b7597b423f7,13,mix,critical,D,25,mix15.jpg,mix35.jpg,high,NULL
1687287134,b8997e19c3197fea5774a80f55cac625,PennController,16,0,experiment,NULL,Selector,choice,Selection,option1,1687287066148,616ed344e2f23b7597b423f7,616ed344e2f23b7597b423f7,13,mix,critical,D,25,mix15.jpg,mix35.jpg,high,option2;option1
1687287134,b8997e19c3197fea5774a80f55cac625,PennController,16,0,experiment,NULL,PennController,15,_Trial_,End,1687287066149,616ed344e2f23b7597b423f7,616ed344e2f23b7597b423f7,13,mix,critical,D,25,mix15.jpg,mix35.jpg,high,NULL
1687287134,b8997e19c3197fea5774a80f55cac625,PennController,10,0,experiment,NULL,PennController,9,_Trial_,Start,1687287066149,616ed344e2f23b7597b423f7,616ed344e2f23b7597b423f7,7,stack,critical,D,25,stack15.jpg,stack35.jpg,high,NULL
1687287134,b8997e19c3197fea5774a80f55cac625,PennController,10,0,experiment,NULL,PennController,9,_Header_,Start,1687287066149,616ed344e2f23b7597b423f7,616ed344e2f23b7597b423f7,7,stack,critical,D,25,stack15.jpg,stack35.jpg,high,NULL
1687287134,b8997e19c3197fea5774a80f55cac625,PennController,10,0,experiment,NULL,PennController,9,_Header_,End,1687287066149,616ed344e2f23b7597b423f7,616ed344e2f23b7597b423f7,7,stack,critical,D,25,stack15.jpg,stack35.jpg,high,NULL
1687287134,b8997e19c3197fea5774a80f55cac625,PennController,10,0,experiment,NULL,Canvas,canvas6,Print,NA,1687287071891,616ed344e2f23b7597b423f7,616ed344e2f23b7597b423f7,7,stack,critical,D,25,stack15.jpg,stack35.jpg,high,NULL
1687287134,b8997e19c3197fea5774a80f55cac625,PennController,10,0,experiment,NULL,Video,progression,buffer,0.011868,1687287069716,616ed344e2f23b7597b423f7,616ed344e2f23b7597b423f7,7,stack,critical,D,25,stack15.jpg,stack35.jpg,high,NULL
1687287134,b8997e19c3197fea5774a80f55cac625,PennController,10,0,experiment,NULL,Selector,choice,Selection,option2,1687287078407,616ed344e2f23b7597b423f7,616ed344e2f23b7597b423f7,7,stack,critical,D,25,stack15.jpg,stack35.jpg,high,option2;option1
1687287134,b8997e19c3197fea5774a80f55cac625,PennController,10,0,experiment,NULL,PennController,9,_Trial_,End,1687287078408,616ed344e2f23b7597b423f7,616ed344e2f23b7597b423f7,7,stack,critical,D,25,stack15.jpg,stack35.jpg,high,NULL
1687287134,b8997e19c3197fea5774a80f55cac625,PennController,19,0,experiment,NULL,PennController,18,_Trial_,Start,1687287078409,616ed344e2f23b7597b423f7,616ed344e2f23b7597b423f7,16,blinds,critical,D,25,blinds15.jpg,blinds33.jpg,high,NULL
1687287134,b8997e19c3197fea5774a80f55cac625,PennController,19,0,experiment,NULL,PennController,18,_Header_,Start,1687287078409,616ed344e2f23b7597b423f7,616ed344e2f23b7597b423f7,16,blinds,critical,D,25,blinds15.jpg,blinds33.jpg,high,NULL
1687287134,b8997e19c3197fea5774a80f55cac625,PennController,19,0,experiment,NULL,PennController,18,_Header_,End,1687287078409,616ed344e2f23b7597b423f7,616ed344e2f23b7597b423f7,16,blinds,critical,D,25,blinds15.jpg,blinds33.jpg,high,NULL
1687287134,b8997e19c3197fea5774a80f55cac625,PennController,19,0,experiment,NULL,Canvas,canvas6,Print,NA,1687287084722,616ed344e2f23b7597b423f7,616ed344e2f23b7597b423f7,16,blinds,critical,D,25,blinds15.jpg,blinds33.jpg,high,NULL
1687287134,b8997e19c3197fea5774a80f55cac625,PennController,19,0,experiment,NULL,Video,progression,buffer,0.008039,1687287081952,616ed344e2f23b7597b423f7,616ed344e2f23b7597b423f7,16,blinds,critical,D,25,blinds15.jpg,blinds33.jpg,high,NULL
1687287134,b8997e19c3197fea5774a80f55cac625,PennController,19,0,experiment,NULL,Selector,choice,Selection,option1,1687287086612,616ed344e2f23b7597b423f7,616ed344e2f23b7597b423f7,16,blinds,critical,D,25,blinds15.jpg,blinds33.jpg,high,option2;option1
1687287134,b8997e19c3197fea5774a80f55cac625,PennController,19,0,experiment,NULL,PennController,18,_Trial_,End,1687287086613,616ed344e2f23b7597b423f7,616ed344e2f23b7597b423f7,16,blinds,critical,D,25,blinds15.jpg,blinds33.jpg,high,NULL
1687287134,b8997e19c3197fea5774a80f55cac625,PennController,24,0,experiment,NULL,PennController,23,_Trial_,Start,1687287086614,616ed344e2f23b7597b423f7,616ed344e2f23b7597b423f7,21,visit,filler,D,75,visit65.jpg,visit85.jpg,GoalB,NULL
1687287134,b8997e19c3197fea5774a80f55cac625,PennController,24,0,experiment,NULL,PennController,23,_Header_,Start,1687287086614,616ed344e2f23b7597b423f7,616ed344e2f23b7597b423f7,21,visit,filler,D,75,visit65.jpg,visit85.jpg,GoalB,NULL
1687287134,b8997e19c3197fea5774a80f55cac625,PennController,24,0,experiment,NULL,PennController,23,_Header_,End,1687287086614,616ed344e2f23b7597b423f7,616ed344e2f23b7597b423f7,21,visit,filler,D,75,visit65.jpg,visit85.jpg,GoalB,NULL
1687287134,b8997e19c3197fea5774a80f55cac625,PennController,24,0,experiment,NULL,Canvas,canvas6,Print,NA,1687287094330,616ed344e2f23b7597b423f7,616ed344e2f23b7597b423f7,21,visit,filler,D,75,visit65.jpg,visit85.jpg,GoalB,NULL
1687287134,b8997e19c3197fea5774a80f55cac625,PennController,24,0,experiment,NULL,Video,progression,buffer,0.019478,1687287090167,616ed344e2f23b7597b423f7,616ed344e2f23b7597b423f7,21,visit,filler,D,75,visit65.jpg,visit85.jpg,GoalB,NULL
1687287134,b8997e19c3197fea5774a80f55cac625,PennController,24,0,experiment,NULL,Selector,choice,Selection,option2,1687287095871,616ed344e2f23b7597b423f7,616ed344e2f23b7597b423f7,21,visit,filler,D,75,visit65.jpg,visit85.jpg,GoalB,option1;option2
1687287134,b8997e19c3197fea5774a80f55cac625,PennController,24,0,experiment,NULL,PennController,23,_Trial_,End,1687287095872,616ed344e2f23b7597b423f7,616ed344e2f23b7597b423f7,21,visit,filler,D,75,visit65.jpg,visit85.jpg,GoalB,NULL
1687287134,b8997e19c3197fea5774a80f55cac625,PennController,13,0,experiment,NULL,PennController,12,_Trial_,Start,1687287095873,616ed344e2f23b7597b423f7,616ed344e2f23b7597b423f7,10,train,critical,D,25,train15.jpg,train35.jpg,high,NULL
1687287134,b8997e19c3197fea5774a80f55cac625,PennController,13,0,experiment,NULL,PennController,12,_Header_,Start,1687287095873,616ed344e2f23b7597b423f7,616ed344e2f23b7597b423f7,10,train,critical,D,25,train15.jpg,train35.jpg,high,NULL
1687287134,b8997e19c3197fea5774a80f55cac625,PennController,13,0,experiment,NULL,PennController,12,_Header_,End,1687287095873,616ed344e2f23b7597b423f7,616ed344e2f23b7597b423f7,10,train,critical,D,25,train15.jpg,train35.jpg,high,NULL
1687287134,b8997e19c3197fea5774a80f55cac625,PennController,13,0,experiment,NULL,Canvas,canvas6,Print,NA,1687287101581,616ed344e2f23b7597b423f7,616ed344e2f23b7597b423f7,10,train,critical,D,25,train15.jpg,train35.jpg,high,NULL
1687287134,b8997e19c3197fea5774a80f55cac625,PennController,13,0,experiment,NULL,Video,progression,buffer,0.003038,1687287099411,616ed344e2f23b7597b423f7,616ed344e2f23b7597b423f7,10,train,critical,D,25,train15.jpg,train35.jpg,high,NULL
1687287134,b8997e19c3197fea5774a80f55cac625,PennController,13,0,experiment,NULL,Selector,choice,Selection,option1,1687287103685,616ed344e2f23b7597b423f7,616ed344e2f23b7597b423f7,10,train,critical,D,25,train15.jpg,train35.jpg,high,option2;option1
1687287134,b8997e19c3197fea5774a80f55cac625,PennController,13,0,experiment,NULL,PennController,12,_Trial_,End,1687287103686,616ed344e2f23b7597b423f7,616ed344e2f23b7597b423f7,10,train,critical,D,25,train15.jpg,train35.jpg,high,NULL
1687287134,b8997e19c3197fea5774a80f55cac625,PennController,28,0,experiment,NULL,PennController,27,_Trial_,Start,1687287103687,616ed344e2f23b7597b423f7,616ed344e2f23b7597b423f7,25,house,filler,D,25,house15.jpg,house35.jpg,GoalB,NULL
1687287134,b8997e19c3197fea5774a80f55cac625,PennController,28,0,experiment,NULL,PennController,27,_Header_,Start,1687287103687,616ed344e2f23b7597b423f7,616ed344e2f23b7597b423f7,25,house,filler,D,25,house15.jpg,house35.jpg,GoalB,NULL
1687287134,b8997e19c3197fea5774a80f55cac625,PennController,28,0,experiment,NULL,PennController,27,_Header_,End,1687287103687,616ed344e2f23b7597b423f7,616ed344e2f23b7597b423f7,25,house,filler,D,25,house15.jpg,house35.jpg,GoalB,NULL
1687287134,b8997e19c3197fea5774a80f55cac625,PennController,28,0,experiment,NULL,Canvas,canvas6,Print,NA,1687287109418,616ed344e2f23b7597b423f7,616ed344e2f23b7597b423f7,25,house,filler,D,25,house15.jpg,house35.jpg,GoalB,NULL
1687287134,b8997e19c3197fea5774a80f55cac625,PennController,28,0,experiment,NULL,Video,progression,buffer,0.013662,1687287107243,616ed344e2f23b7597b423f7,616ed344e2f23b7597b423f7,25,house,filler,D,25,house15.jpg,house35.jpg,GoalB,NULL
1687287134,b8997e19c3197fea5774a80f55cac625,PennController,28,0,experiment,NULL,Selector,choice,Selection,option2,1687287114219,616ed344e2f23b7597b423f7,616ed344e2f23b7597b423f7,25,house,filler,D,25,house15.jpg,house35.jpg,GoalB,option2;option1
1687287134,b8997e19c3197fea5774a80f55cac625,PennController,28,0,experiment,NULL,PennController,27,_Trial_,End,1687287114220,616ed344e2f23b7597b423f7,616ed344e2f23b7597b423f7,25,house,filler,D,25,house15.jpg,house35.jpg,GoalB,NULL
1687287134,b8997e19c3197fea5774a80f55cac625,PennController,26,0,experiment,NULL,PennController,25,_Trial_,Start,1687287114221,616ed344e2f23b7597b423f7,616ed344e2f23b7597b423f7,23,color,filler,D,50,color40.jpg,color60.jpg,GoalB,NULL
1687287134,b8997e19c3197fea5774a80f55cac625,PennController,26,0,experiment,NULL,PennController,25,_Header_,Start,1687287114221,616ed344e2f23b7597b423f7,616ed344e2f23b7597b423f7,23,color,filler,D,50,color40.jpg,color60.jpg,GoalB,NULL
1687287134,b8997e19c3197fea5774a80f55cac625,PennController,26,0,experiment,NULL,PennController,25,_Header_,End,1687287114221,616ed344e2f23b7597b423f7,616ed344e2f23b7597b423f7,23,color,filler,D,50,color40.jpg,color60.jpg,GoalB,NULL
1687287134,b8997e19c3197fea5774a80f55cac625,PennController,26,0,experiment,NULL,Canvas,canvas6,Print,NA,1687287120933,616ed344e2f23b7597b423f7,616ed344e2f23b7597b423f7,23,color,filler,D,50,color40.jpg,color60.jpg,GoalB,NULL
1687287134,b8997e19c3197fea5774a80f55cac625,PennController,26,0,experiment,NULL,Video,progression,buffer,0.013747,1687287117772,616ed344e2f23b7597b423f7,616ed344e2f23b7597b423f7,23,color,filler,D,50,color40.jpg,color60.jpg,GoalB,NULL
1687287134,b8997e19c3197fea5774a80f55cac625,PennController,26,0,experiment,NULL,Selector,choice,Selection,option2,1687287123799,616ed344e2f23b7597b423f7,616ed344e2f23b7597b423f7,23,color,filler,D,50,color40.jpg,color60.jpg,GoalB,option1;option2
1687287134,b8997e19c3197fea5774a80f55cac625,PennController,26,0,experiment,NULL,PennController,25,_Trial_,End,1687287123800,616ed344e2f23b7597b423f7,616ed344e2f23b7597b423f7,23,color,filler,D,50,color40.jpg,color60.jpg,GoalB,NULL
1687287134,b8997e19c3197fea5774a80f55cac625,PennController,9,0,experiment,NULL,PennController,8,_Trial_,Start,1687287123801,616ed344e2f23b7597b423f7,616ed344e2f23b7597b423f7,6,flower,critical,D,75,flower65.jpg,flower85.jpg,high,NULL
1687287134,b8997e19c3197fea5774a80f55cac625,PennController,9,0,experiment,NULL,PennController,8,_Header_,Start,1687287123801,616ed344e2f23b7597b423f7,616ed344e2f23b7597b423f7,6,flower,critical,D,75,flower65.jpg,flower85.jpg,high,NULL
1687287134,b8997e19c3197fea5774a80f55cac625,PennController,9,0,experiment,NULL,PennController,8,_Header_,End,1687287123801,616ed344e2f23b7597b423f7,616ed344e2f23b7597b423f7,6,flower,critical,D,75,flower65.jpg,flower85.jpg,high,NULL
1687287134,b8997e19c3197fea5774a80f55cac625,PennController,9,0,experiment,NULL,Canvas,canvas6,Print,NA,1687287131532,616ed344e2f23b7597b423f7,616ed344e2f23b7597b423f7,6,flower,critical,D,75,flower65.jpg,flower85.jpg,high,NULL
1687287134,b8997e19c3197fea5774a80f55cac625,PennController,9,0,experiment,NULL,Video,progression,buffer,0.015526,1687287127355,616ed344e2f23b7597b423f7,616ed344e2f23b7597b423f7,6,flower,critical,D,75,flower65.jpg,flower85.jpg,high,NULL
1687287134,b8997e19c3197fea5774a80f55cac625,PennController,9,0,experiment,NULL,Selector,choice,Selection,option2,1687287133700,616ed344e2f23b7597b423f7,616ed344e2f23b7597b423f7,6,flower,critical,D,75,flower65.jpg,flower85.jpg,high,option1;option2
1687287134,b8997e19c3197fea5774a80f55cac625,PennController,9,0,experiment,NULL,PennController,8,_Trial_,End,1687287133701,616ed344e2f23b7597b423f7,616ed344e2f23b7597b423f7,6,flower,critical,D,75,flower65.jpg,flower85.jpg,high,NULL
