#
# Results on Tuesday June 20 2023 18:54:50 UTC
# USER AGENT: Mozilla/5.0 (Windows NT 10.0; Win64; x64) AppleWebKit/537.36 (KHTML, like Gecko) Chrome/114.0.0.0 Safari/537.36
# Design number was non-random = 3
#
# Columns below this comment are as follows:
# 1. Results reception time.
# 2. MD5 hash of participant's IP address.
# 3. Controller name.
# 4. Order number of item.
# 5. Inner element number.
# 6. Label.
# 7. Latin Square Group.
# 8. PennElementType.
# 9. PennElementName.
# 10. Parameter.
# 11. Value.
# 12. EventTime.
# 13. PROLIFIC_ID.
# 14. Comments.
1687287290,efdd879e60370d871abbecac538f1f3c,PennController,2,0,consent,NULL,PennController,0,_Trial_,Start,1687290397562,611c5a855953ff3424f8d153,NULL
1687287290,efdd879e60370d871abbecac538f1f3c,PennController,2,0,consent,NULL,PennController,0,_Header_,Start,1687290397562,611c5a855953ff3424f8d153,NULL
1687287290,efdd879e60370d871abbecac538f1f3c,PennController,2,0,consent,NULL,PennController,0,_Header_,End,1687290397562,611c5a855953ff3424f8d153,NULL
1687287290,efdd879e60370d871abbecac538f1f3c,PennController,2,0,consent,NULL,PennController,0,_Trial_,End,1687290478954,611c5a855953ff3424f8d153,NULL
# Columns below this comment are as follows:
# 14. ID.
# 15. Comments.
1687287290,efdd879e60370d871abbecac538f1f3c,PennController,3,0,intro,NULL,PennController,1,_Trial_,Start,1687290478957,611c5a855953ff3424f8d153,611c5a855953ff3424f8d153,NULL
1687287290,efdd879e60370d871abbecac538f1f3c,PennController,3,0,intro,NULL,PennController,1,_Header_,Start,1687290478957,611c5a855953ff3424f8d153,611c5a855953ff3424f8d153,NULL
1687287290,efdd879e60370d871abbecac538f1f3c,PennController,3,0,intro,NULL,PennController,1,_Header_,End,1687290478957,611c5a855953ff3424f8d153,611c5a855953ff3424f8d153,NULL
1687287290,efdd879e60370d871abbecac538f1f3c,PennController,3,0,intro,NULL,PennController,1,_Trial_,End,1687290486801,611c5a855953ff3424f8d153,611c5a855953ff3424f8d153,NULL
# Columns below this comment are as follows:
# 15. item_number.
# 16. item.
# 17. type.
# 18. Group.
# 19. prog.
# 20. prev_image.
# 21. next_image.
# 22. height.
# 23. Comments.
1687287290,efdd879e60370d871abbecac538f1f3c,PennController,30,0,experiment,NULL,PennController,29,_Trial_,Start,1687290486804,611c5a855953ff3424f8d153,611c5a855953ff3424f8d153,27,square,filler,D,75,square65.jpg,square85.jpg,GoalB,NULL
1687287290,efdd879e60370d871abbecac538f1f3c,PennController,30,0,experiment,NULL,PennController,29,_Header_,Start,1687290486804,611c5a855953ff3424f8d153,611c5a855953ff3424f8d153,27,square,filler,D,75,square65.jpg,square85.jpg,GoalB,NULL
1687287290,efdd879e60370d871abbecac538f1f3c,PennController,30,0,experiment,NULL,PennController,29,_Header_,End,1687290486804,611c5a855953ff3424f8d153,611c5a855953ff3424f8d153,27,square,filler,D,75,square65.jpg,square85.jpg,GoalB,NULL
1687287290,efdd879e60370d871abbecac538f1f3c,PennController,30,0,experiment,NULL,Canvas,canvas6,Print,NA,1687290494576,611c5a855953ff3424f8d153,611c5a855953ff3424f8d153,27,square,filler,D,75,square65.jpg,square85.jpg,GoalB,NULL
1687287290,efdd879e60370d871abbecac538f1f3c,PennController,30,0,experiment,NULL,Video,progression,buffer,0.008492,1687290490395,611c5a855953ff3424f8d153,611c5a855953ff3424f8d153,27,square,filler,D,75,square65.jpg,square85.jpg,GoalB,NULL
1687287290,efdd879e60370d871abbecac538f1f3c,PennController,30,0,experiment,NULL,Selector,choice,Selection,option1,1687290554968,611c5a855953ff3424f8d153,611c5a855953ff3424f8d153,27,square,filler,D,75,square65.jpg,square85.jpg,GoalB,option1;option2
1687287290,efdd879e60370d871abbecac538f1f3c,PennController,30,0,experiment,NULL,PennController,29,_Trial_,End,1687290554972,611c5a855953ff3424f8d153,611c5a855953ff3424f8d153,27,square,filler,D,75,square65.jpg,square85.jpg,GoalB,NULL
1687287290,efdd879e60370d871abbecac538f1f3c,PennController,12,0,experiment,NULL,PennController,11,_Trial_,Start,1687290554977,611c5a855953ff3424f8d153,611c5a855953ff3424f8d153,9,cake,critical,D,75,cake66.jpg,cake84.jpg,high,NULL
1687287290,efdd879e60370d871abbecac538f1f3c,PennController,12,0,experiment,NULL,PennController,11,_Header_,Start,1687290554977,611c5a855953ff3424f8d153,611c5a855953ff3424f8d153,9,cake,critical,D,75,cake66.jpg,cake84.jpg,high,NULL
1687287290,efdd879e60370d871abbecac538f1f3c,PennController,12,0,experiment,NULL,PennController,11,_Header_,End,1687290554977,611c5a855953ff3424f8d153,611c5a855953ff3424f8d153,9,cake,critical,D,75,cake66.jpg,cake84.jpg,high,NULL
1687287290,efdd879e60370d871abbecac538f1f3c,PennController,12,0,experiment,NULL,Canvas,canvas6,Print,NA,1687290564721,611c5a855953ff3424f8d153,611c5a855953ff3424f8d153,9,cake,critical,D,75,cake66.jpg,cake84.jpg,high,NULL
1687287290,efdd879e60370d871abbecac538f1f3c,PennController,12,0,experiment,NULL,Video,progression,buffer,0.012033,1687290558533,611c5a855953ff3424f8d153,611c5a855953ff3424f8d153,9,cake,critical,D,75,cake66.jpg,cake84.jpg,high,NULL
1687287290,efdd879e60370d871abbecac538f1f3c,PennController,12,0,experiment,NULL,Selector,choice,Selection,option2,1687290566138,611c5a855953ff3424f8d153,611c5a855953ff3424f8d153,9,cake,critical,D,75,cake66.jpg,cake84.jpg,high,option2;option1
1687287290,efdd879e60370d871abbecac538f1f3c,PennController,12,0,experiment,NULL,PennController,11,_Trial_,End,1687290566140,611c5a855953ff3424f8d153,611c5a855953ff3424f8d153,9,cake,critical,D,75,cake66.jpg,cake84.jpg,high,NULL
1687287290,efdd879e60370d871abbecac538f1f3c,PennController,11,0,experiment,NULL,PennController,10,_Trial_,Start,1687290566142,611c5a855953ff3424f8d153,611c5a855953ff3424f8d153,8,cucumber,critical,D,50,cucumber42.jpg,cucumber60.jpg,high,NULL
1687287290,efdd879e60370d871abbecac538f1f3c,PennController,11,0,experiment,NULL,PennController,10,_Header_,Start,1687290566142,611c5a855953ff3424f8d153,611c5a855953ff3424f8d153,8,cucumber,critical,D,50,cucumber42.jpg,cucumber60.jpg,high,NULL
1687287290,efdd879e60370d871abbecac538f1f3c,PennController,11,0,experiment,NULL,PennController,10,_Header_,End,1687290566142,611c5a855953ff3424f8d153,611c5a855953ff3424f8d153,8,cucumber,critical,D,50,cucumber42.jpg,cucumber60.jpg,high,NULL
1687287290,efdd879e60370d871abbecac538f1f3c,PennController,11,0,experiment,NULL,Canvas,canvas6,Print,NA,1687290574258,611c5a855953ff3424f8d153,611c5a855953ff3424f8d153,8,cucumber,critical,D,50,cucumber42.jpg,cucumber60.jpg,high,NULL
1687287290,efdd879e60370d871abbecac538f1f3c,PennController,11,0,experiment,NULL,Video,progression,buffer,0.012793,1687290569696,611c5a855953ff3424f8d153,611c5a855953ff3424f8d153,8,cucumber,critical,D,50,cucumber42.jpg,cucumber60.jpg,high,NULL
1687287290,efdd879e60370d871abbecac538f1f3c,PennController,11,0,experiment,NULL,Selector,choice,Selection,option1,1687290577957,611c5a855953ff3424f8d153,611c5a855953ff3424f8d153,8,cucumber,critical,D,50,cucumber42.jpg,cucumber60.jpg,high,option1;option2
1687287290,efdd879e60370d871abbecac538f1f3c,PennController,11,0,experiment,NULL,PennController,10,_Trial_,End,1687290577959,611c5a855953ff3424f8d153,611c5a855953ff3424f8d153,8,cucumber,critical,D,50,cucumber42.jpg,cucumber60.jpg,high,NULL
1687287290,efdd879e60370d871abbecac538f1f3c,PennController,18,0,experiment,NULL,PennController,17,_Trial_,Start,1687290577960,611c5a855953ff3424f8d153,611c5a855953ff3424f8d153,15,zip,critical,D,75,zip65.jpg,zip85.jpg,high,NULL
1687287290,efdd879e60370d871abbecac538f1f3c,PennController,18,0,experiment,NULL,PennController,17,_Header_,Start,1687290577960,611c5a855953ff3424f8d153,611c5a855953ff3424f8d153,15,zip,critical,D,75,zip65.jpg,zip85.jpg,high,NULL
1687287290,efdd879e60370d871abbecac538f1f3c,PennController,18,0,experiment,NULL,PennController,17,_Header_,End,1687290577961,611c5a855953ff3424f8d153,611c5a855953ff3424f8d153,15,zip,critical,D,75,zip65.jpg,zip85.jpg,high,NULL
1687287290,efdd879e60370d871abbecac538f1f3c,PennController,18,0,experiment,NULL,Canvas,canvas6,Print,NA,1687290584901,611c5a855953ff3424f8d153,611c5a855953ff3424f8d153,15,zip,critical,D,75,zip65.jpg,zip85.jpg,high,NULL
1687287290,efdd879e60370d871abbecac538f1f3c,PennController,18,0,experiment,NULL,Video,progression,buffer,0.011424,1687290581514,611c5a855953ff3424f8d153,611c5a855953ff3424f8d153,15,zip,critical,D,75,zip65.jpg,zip85.jpg,high,NULL
1687287290,efdd879e60370d871abbecac538f1f3c,PennController,18,0,experiment,NULL,Selector,choice,Selection,option1,1687290589586,611c5a855953ff3424f8d153,611c5a855953ff3424f8d153,15,zip,critical,D,75,zip65.jpg,zip85.jpg,high,option1;option2
1687287290,efdd879e60370d871abbecac538f1f3c,PennController,18,0,experiment,NULL,PennController,17,_Trial_,End,1687290589588,611c5a855953ff3424f8d153,611c5a855953ff3424f8d153,15,zip,critical,D,75,zip65.jpg,zip85.jpg,high,NULL
1687287290,efdd879e60370d871abbecac538f1f3c,PennController,19,0,experiment,NULL,PennController,18,_Trial_,Start,1687290589590,611c5a855953ff3424f8d153,611c5a855953ff3424f8d153,16,blinds,critical,D,25,blinds15.jpg,blinds33.jpg,high,NULL
1687287290,efdd879e60370d871abbecac538f1f3c,PennController,19,0,experiment,NULL,PennController,18,_Header_,Start,1687290589590,611c5a855953ff3424f8d153,611c5a855953ff3424f8d153,16,blinds,critical,D,25,blinds15.jpg,blinds33.jpg,high,NULL
1687287290,efdd879e60370d871abbecac538f1f3c,PennController,19,0,experiment,NULL,PennController,18,_Header_,End,1687290589590,611c5a855953ff3424f8d153,611c5a855953ff3424f8d153,16,blinds,critical,D,25,blinds15.jpg,blinds33.jpg,high,NULL
1687287290,efdd879e60370d871abbecac538f1f3c,PennController,19,0,experiment,NULL,Canvas,canvas6,Print,NA,1687290595919,611c5a855953ff3424f8d153,611c5a855953ff3424f8d153,16,blinds,critical,D,25,blinds15.jpg,blinds33.jpg,high,NULL
1687287290,efdd879e60370d871abbecac538f1f3c,PennController,19,0,experiment,NULL,Video,progression,buffer,0.011483,1687290593141,611c5a855953ff3424f8d153,611c5a855953ff3424f8d153,16,blinds,critical,D,25,blinds15.jpg,blinds33.jpg,high,NULL
1687287290,efdd879e60370d871abbecac538f1f3c,PennController,19,0,experiment,NULL,Selector,choice,Selection,option1,1687290598769,611c5a855953ff3424f8d153,611c5a855953ff3424f8d153,16,blinds,critical,D,25,blinds15.jpg,blinds33.jpg,high,option2;option1
1687287290,efdd879e60370d871abbecac538f1f3c,PennController,19,0,experiment,NULL,PennController,18,_Trial_,End,1687290598770,611c5a855953ff3424f8d153,611c5a855953ff3424f8d153,16,blinds,critical,D,25,blinds15.jpg,blinds33.jpg,high,NULL
1687287290,efdd879e60370d871abbecac538f1f3c,PennController,31,0,experiment,NULL,PennController,30,_Trial_,Start,1687290598772,611c5a855953ff3424f8d153,611c5a855953ff3424f8d153,28,sort,filler,D,25,sort15.jpg,sort35.jpg,GoalA,NULL
1687287290,efdd879e60370d871abbecac538f1f3c,PennController,31,0,experiment,NULL,PennController,30,_Header_,Start,1687290598772,611c5a855953ff3424f8d153,611c5a855953ff3424f8d153,28,sort,filler,D,25,sort15.jpg,sort35.jpg,GoalA,NULL
1687287290,efdd879e60370d871abbecac538f1f3c,PennController,31,0,experiment,NULL,PennController,30,_Header_,End,1687290598772,611c5a855953ff3424f8d153,611c5a855953ff3424f8d153,28,sort,filler,D,25,sort15.jpg,sort35.jpg,GoalA,NULL
1687287290,efdd879e60370d871abbecac538f1f3c,PennController,31,0,experiment,NULL,Canvas,canvas6,Print,NA,1687290604506,611c5a855953ff3424f8d153,611c5a855953ff3424f8d153,28,sort,filler,D,25,sort15.jpg,sort35.jpg,GoalA,NULL
1687287290,efdd879e60370d871abbecac538f1f3c,PennController,31,0,experiment,NULL,Video,progression,buffer,0.007239,1687290602323,611c5a855953ff3424f8d153,611c5a855953ff3424f8d153,28,sort,filler,D,25,sort15.jpg,sort35.jpg,GoalA,NULL
1687287290,efdd879e60370d871abbecac538f1f3c,PennController,31,0,experiment,NULL,Selector,choice,Selection,option1,1687290607665,611c5a855953ff3424f8d153,611c5a855953ff3424f8d153,28,sort,filler,D,25,sort15.jpg,sort35.jpg,GoalA,option2;option1
1687287290,efdd879e60370d871abbecac538f1f3c,PennController,31,0,experiment,NULL,PennController,30,_Trial_,End,1687290607667,611c5a855953ff3424f8d153,611c5a855953ff3424f8d153,28,sort,filler,D,25,sort15.jpg,sort35.jpg,GoalA,NULL
1687287290,efdd879e60370d871abbecac538f1f3c,PennController,21,0,experiment,NULL,PennController,20,_Trial_,Start,1687290607668,611c5a855953ff3424f8d153,611c5a855953ff3424f8d153,18,ball,critical,D,75,ball65.jpg,ball85.jpg,high,NULL
1687287290,efdd879e60370d871abbecac538f1f3c,PennController,21,0,experiment,NULL,PennController,20,_Header_,Start,1687290607668,611c5a855953ff3424f8d153,611c5a855953ff3424f8d153,18,ball,critical,D,75,ball65.jpg,ball85.jpg,high,NULL
1687287290,efdd879e60370d871abbecac538f1f3c,PennController,21,0,experiment,NULL,PennController,20,_Header_,End,1687290607668,611c5a855953ff3424f8d153,611c5a855953ff3424f8d153,18,ball,critical,D,75,ball65.jpg,ball85.jpg,high,NULL
1687287290,efdd879e60370d871abbecac538f1f3c,PennController,21,0,experiment,NULL,Canvas,canvas6,Print,NA,1687290615398,611c5a855953ff3424f8d153,611c5a855953ff3424f8d153,18,ball,critical,D,75,ball65.jpg,ball85.jpg,high,NULL
1687287290,efdd879e60370d871abbecac538f1f3c,PennController,21,0,experiment,NULL,Video,progression,buffer,0.011294,1687290611219,611c5a855953ff3424f8d153,611c5a855953ff3424f8d153,18,ball,critical,D,75,ball65.jpg,ball85.jpg,high,NULL
1687287290,efdd879e60370d871abbecac538f1f3c,PennController,21,0,experiment,NULL,Selector,choice,Selection,option2,1687290617694,611c5a855953ff3424f8d153,611c5a855953ff3424f8d153,18,ball,critical,D,75,ball65.jpg,ball85.jpg,high,option2;option1
1687287290,efdd879e60370d871abbecac538f1f3c,PennController,21,0,experiment,NULL,PennController,20,_Trial_,End,1687290617695,611c5a855953ff3424f8d153,611c5a855953ff3424f8d153,18,ball,critical,D,75,ball65.jpg,ball85.jpg,high,NULL
1687287290,efdd879e60370d871abbecac538f1f3c,PennController,20,0,experiment,NULL,PennController,19,_Trial_,Start,1687290617697,611c5a855953ff3424f8d153,611c5a855953ff3424f8d153,17,roll,critical,D,50,roll40.jpg,roll60.jpg,high,NULL
1687287290,efdd879e60370d871abbecac538f1f3c,PennController,20,0,experiment,NULL,PennController,19,_Header_,Start,1687290617697,611c5a855953ff3424f8d153,611c5a855953ff3424f8d153,17,roll,critical,D,50,roll40.jpg,roll60.jpg,high,NULL
1687287290,efdd879e60370d871abbecac538f1f3c,PennController,20,0,experiment,NULL,PennController,19,_Header_,End,1687290617697,611c5a855953ff3424f8d153,611c5a855953ff3424f8d153,17,roll,critical,D,50,roll40.jpg,roll60.jpg,high,NULL
1687287290,efdd879e60370d871abbecac538f1f3c,PennController,20,0,experiment,NULL,Canvas,canvas6,Print,NA,1687290624410,611c5a855953ff3424f8d153,611c5a855953ff3424f8d153,17,roll,critical,D,50,roll40.jpg,roll60.jpg,high,NULL
1687287290,efdd879e60370d871abbecac538f1f3c,PennController,20,0,experiment,NULL,Video,progression,buffer,0.011246,1687290621243,611c5a855953ff3424f8d153,611c5a855953ff3424f8d153,17,roll,critical,D,50,roll40.jpg,roll60.jpg,high,NULL
1687287290,efdd879e60370d871abbecac538f1f3c,PennController,20,0,experiment,NULL,Selector,choice,Selection,option2,1687290626349,611c5a855953ff3424f8d153,611c5a855953ff3424f8d153,17,roll,critical,D,50,roll40.jpg,roll60.jpg,high,option1;option2
1687287290,efdd879e60370d871abbecac538f1f3c,PennController,20,0,experiment,NULL,PennController,19,_Trial_,End,1687290626350,611c5a855953ff3424f8d153,611c5a855953ff3424f8d153,17,roll,critical,D,50,roll40.jpg,roll60.jpg,high,NULL
1687287290,efdd879e60370d871abbecac538f1f3c,PennController,24,0,experiment,NULL,PennController,23,_Trial_,Start,1687290626351,611c5a855953ff3424f8d153,611c5a855953ff3424f8d153,21,visit,filler,D,75,visit65.jpg,visit85.jpg,GoalB,NULL
1687287290,efdd879e60370d871abbecac538f1f3c,PennController,24,0,experiment,NULL,PennController,23,_Header_,Start,1687290626351,611c5a855953ff3424f8d153,611c5a855953ff3424f8d153,21,visit,filler,D,75,visit65.jpg,visit85.jpg,GoalB,NULL
1687287290,efdd879e60370d871abbecac538f1f3c,PennController,24,0,experiment,NULL,PennController,23,_Header_,End,1687290626351,611c5a855953ff3424f8d153,611c5a855953ff3424f8d153,21,visit,filler,D,75,visit65.jpg,visit85.jpg,GoalB,NULL
1687287290,efdd879e60370d871abbecac538f1f3c,PennController,24,0,experiment,NULL,Canvas,canvas6,Print,NA,1687290634085,611c5a855953ff3424f8d153,611c5a855953ff3424f8d153,21,visit,filler,D,75,visit65.jpg,visit85.jpg,GoalB,NULL
1687287290,efdd879e60370d871abbecac538f1f3c,PennController,24,0,experiment,NULL,Video,progression,buffer,0.013202,1687290629904,611c5a855953ff3424f8d153,611c5a855953ff3424f8d153,21,visit,filler,D,75,visit65.jpg,visit85.jpg,GoalB,NULL
1687287290,efdd879e60370d871abbecac538f1f3c,PennController,24,0,experiment,NULL,Selector,choice,Selection,option2,1687290635911,611c5a855953ff3424f8d153,611c5a855953ff3424f8d153,21,visit,filler,D,75,visit65.jpg,visit85.jpg,GoalB,option1;option2
1687287290,efdd879e60370d871abbecac538f1f3c,PennController,24,0,experiment,NULL,PennController,23,_Trial_,End,1687290635913,611c5a855953ff3424f8d153,611c5a855953ff3424f8d153,21,visit,filler,D,75,visit65.jpg,visit85.jpg,GoalB,NULL
1687287290,efdd879e60370d871abbecac538f1f3c,PennController,7,0,experiment,NULL,PennController,6,_Trial_,Start,1687290635915,611c5a855953ff3424f8d153,611c5a855953ff3424f8d153,4,candy,critical,D,25,candy15.jpg,candy35.jpg,high,NULL
1687287290,efdd879e60370d871abbecac538f1f3c,PennController,7,0,experiment,NULL,PennController,6,_Header_,Start,1687290635915,611c5a855953ff3424f8d153,611c5a855953ff3424f8d153,4,candy,critical,D,25,candy15.jpg,candy35.jpg,high,NULL
1687287290,efdd879e60370d871abbecac538f1f3c,PennController,7,0,experiment,NULL,PennController,6,_Header_,End,1687290635915,611c5a855953ff3424f8d153,611c5a855953ff3424f8d153,4,candy,critical,D,25,candy15.jpg,candy35.jpg,high,NULL
1687287290,efdd879e60370d871abbecac538f1f3c,PennController,7,0,experiment,NULL,Canvas,canvas6,Print,NA,1687290641634,611c5a855953ff3424f8d153,611c5a855953ff3424f8d153,4,candy,critical,D,25,candy15.jpg,candy35.jpg,high,NULL
1687287290,efdd879e60370d871abbecac538f1f3c,PennController,7,0,experiment,NULL,Video,progression,buffer,0.014741,1687290639463,611c5a855953ff3424f8d153,611c5a855953ff3424f8d153,4,candy,critical,D,25,candy15.jpg,candy35.jpg,high,NULL
1687287290,efdd879e60370d871abbecac538f1f3c,PennController,7,0,experiment,NULL,Selector,choice,Selection,option2,1687290643072,611c5a855953ff3424f8d153,611c5a855953ff3424f8d153,4,candy,critical,D,25,candy15.jpg,candy35.jpg,high,option1;option2
1687287290,efdd879e60370d871abbecac538f1f3c,PennController,7,0,experiment,NULL,PennController,6,_Trial_,End,1687290643073,611c5a855953ff3424f8d153,611c5a855953ff3424f8d153,4,candy,critical,D,25,candy15.jpg,candy35.jpg,high,NULL
1687287290,efdd879e60370d871abbecac538f1f3c,PennController,27,0,experiment,NULL,PennController,26,_Trial_,Start,1687290643075,611c5a855953ff3424f8d153,611c5a855953ff3424f8d153,24,match,filler,D,75,match65.jpg,match85.jpg,GoalA,NULL
1687287290,efdd879e60370d871abbecac538f1f3c,PennController,27,0,experiment,NULL,PennController,26,_Header_,Start,1687290643075,611c5a855953ff3424f8d153,611c5a855953ff3424f8d153,24,match,filler,D,75,match65.jpg,match85.jpg,GoalA,NULL
1687287290,efdd879e60370d871abbecac538f1f3c,PennController,27,0,experiment,NULL,PennController,26,_Header_,End,1687290643075,611c5a855953ff3424f8d153,611c5a855953ff3424f8d153,24,match,filler,D,75,match65.jpg,match85.jpg,GoalA,NULL
1687287290,efdd879e60370d871abbecac538f1f3c,PennController,27,0,experiment,NULL,Canvas,canvas6,Print,NA,1687290650790,611c5a855953ff3424f8d153,611c5a855953ff3424f8d153,24,match,filler,D,75,match65.jpg,match85.jpg,GoalA,NULL
1687287290,efdd879e60370d871abbecac538f1f3c,PennController,27,0,experiment,NULL,Video,progression,buffer,0.015527,1687290646622,611c5a855953ff3424f8d153,611c5a855953ff3424f8d153,24,match,filler,D,75,match65.jpg,match85.jpg,GoalA,NULL
1687287290,efdd879e60370d871abbecac538f1f3c,PennController,27,0,experiment,NULL,Selector,choice,Selection,option1,1687290652533,611c5a855953ff3424f8d153,611c5a855953ff3424f8d153,24,match,filler,D,75,match65.jpg,match85.jpg,GoalA,option2;option1
1687287290,efdd879e60370d871abbecac538f1f3c,PennController,27,0,experiment,NULL,PennController,26,_Trial_,End,1687290652534,611c5a855953ff3424f8d153,611c5a855953ff3424f8d153,24,match,filler,D,75,match65.jpg,match85.jpg,GoalA,NULL
1687287290,efdd879e60370d871abbecac538f1f3c,PennController,4,0,experiment,NULL,PennController,3,_Trial_,Start,1687290652536,611c5a855953ff3424f8d153,611c5a855953ff3424f8d153,1,vase,critical,D,25,vase15.jpg,vase35.jpg,high,NULL
1687287290,efdd879e60370d871abbecac538f1f3c,PennController,4,0,experiment,NULL,PennController,3,_Header_,Start,1687290652536,611c5a855953ff3424f8d153,611c5a855953ff3424f8d153,1,vase,critical,D,25,vase15.jpg,vase35.jpg,high,NULL
1687287290,efdd879e60370d871abbecac538f1f3c,PennController,4,0,experiment,NULL,PennController,3,_Header_,End,1687290652536,611c5a855953ff3424f8d153,611c5a855953ff3424f8d153,1,vase,critical,D,25,vase15.jpg,vase35.jpg,high,NULL
1687287290,efdd879e60370d871abbecac538f1f3c,PennController,4,0,experiment,NULL,Canvas,canvas6,Print,NA,1687290658262,611c5a855953ff3424f8d153,611c5a855953ff3424f8d153,1,vase,critical,D,25,vase15.jpg,vase35.jpg,high,NULL
1687287290,efdd879e60370d871abbecac538f1f3c,PennController,4,0,experiment,NULL,Video,progression,buffer,0.009142,1687290656079,611c5a855953ff3424f8d153,611c5a855953ff3424f8d153,1,vase,critical,D,25,vase15.jpg,vase35.jpg,high,NULL
1687287290,efdd879e60370d871abbecac538f1f3c,PennController,4,0,experiment,NULL,Selector,choice,Selection,option2,1687290660329,611c5a855953ff3424f8d153,611c5a855953ff3424f8d153,1,vase,critical,D,25,vase15.jpg,vase35.jpg,high,option2;option1
1687287290,efdd879e60370d871abbecac538f1f3c,PennController,4,0,experiment,NULL,PennController,3,_Trial_,End,1687290660331,611c5a855953ff3424f8d153,611c5a855953ff3424f8d153,1,vase,critical,D,25,vase15.jpg,vase35.jpg,high,NULL
1687287290,efdd879e60370d871abbecac538f1f3c,PennController,29,0,experiment,NULL,PennController,28,_Trial_,Start,1687290660332,611c5a855953ff3424f8d153,611c5a855953ff3424f8d153,26,sandwich,filler,D,50,sandwich40.jpg,sandwich60.jpg,GoalA,NULL
1687287290,efdd879e60370d871abbecac538f1f3c,PennController,29,0,experiment,NULL,PennController,28,_Header_,Start,1687290660332,611c5a855953ff3424f8d153,611c5a855953ff3424f8d153,26,sandwich,filler,D,50,sandwich40.jpg,sandwich60.jpg,GoalA,NULL
1687287290,efdd879e60370d871abbecac538f1f3c,PennController,29,0,experiment,NULL,PennController,28,_Header_,End,1687290660332,611c5a855953ff3424f8d153,611c5a855953ff3424f8d153,26,sandwich,filler,D,50,sandwich40.jpg,sandwich60.jpg,GoalA,NULL
1687287290,efdd879e60370d871abbecac538f1f3c,PennController,29,0,experiment,NULL,Canvas,canvas6,Print,NA,1687290667074,611c5a855953ff3424f8d153,611c5a855953ff3424f8d153,26,sandwich,filler,D,50,sandwich40.jpg,sandwich60.jpg,GoalA,NULL
1687287290,efdd879e60370d871abbecac538f1f3c,PennController,29,0,experiment,NULL,Video,progression,buffer,0.011657,1687290663889,611c5a855953ff3424f8d153,611c5a855953ff3424f8d153,26,sandwich,filler,D,50,sandwich40.jpg,sandwich60.jpg,GoalA,NULL
1687287290,efdd879e60370d871abbecac538f1f3c,PennController,29,0,experiment,NULL,Selector,choice,Selection,option1,1687290668731,611c5a855953ff3424f8d153,611c5a855953ff3424f8d153,26,sandwich,filler,D,50,sandwich40.jpg,sandwich60.jpg,GoalA,option2;option1
1687287290,efdd879e60370d871abbecac538f1f3c,PennController,29,0,experiment,NULL,PennController,28,_Trial_,End,1687290668733,611c5a855953ff3424f8d153,611c5a855953ff3424f8d153,26,sandwich,filler,D,50,sandwich40.jpg,sandwich60.jpg,GoalA,NULL
1687287290,efdd879e60370d871abbecac538f1f3c,PennController,8,0,experiment,NULL,PennController,7,_Trial_,Start,1687290668734,611c5a855953ff3424f8d153,611c5a855953ff3424f8d153,5,book,critical,D,50,book40.jpg,book60.jpg,high,NULL
1687287290,efdd879e60370d871abbecac538f1f3c,PennController,8,0,experiment,NULL,PennController,7,_Header_,Start,1687290668734,611c5a855953ff3424f8d153,611c5a855953ff3424f8d153,5,book,critical,D,50,book40.jpg,book60.jpg,high,NULL
1687287290,efdd879e60370d871abbecac538f1f3c,PennController,8,0,experiment,NULL,PennController,7,_Header_,End,1687290668734,611c5a855953ff3424f8d153,611c5a855953ff3424f8d153,5,book,critical,D,50,book40.jpg,book60.jpg,high,NULL
1687287290,efdd879e60370d871abbecac538f1f3c,PennController,8,0,experiment,NULL,Canvas,canvas6,Print,NA,1687290675460,611c5a855953ff3424f8d153,611c5a855953ff3424f8d153,5,book,critical,D,50,book40.jpg,book60.jpg,high,NULL
1687287290,efdd879e60370d871abbecac538f1f3c,PennController,8,0,experiment,NULL,Video,progression,buffer,0.011869,1687290672280,611c5a855953ff3424f8d153,611c5a855953ff3424f8d153,5,book,critical,D,50,book40.jpg,book60.jpg,high,NULL
1687287290,efdd879e60370d871abbecac538f1f3c,PennController,8,0,experiment,NULL,Selector,choice,Selection,option2,1687290677193,611c5a855953ff3424f8d153,611c5a855953ff3424f8d153,5,book,critical,D,50,book40.jpg,book60.jpg,high,option1;option2
1687287290,efdd879e60370d871abbecac538f1f3c,PennController,8,0,experiment,NULL,PennController,7,_Trial_,End,1687290677195,611c5a855953ff3424f8d153,611c5a855953ff3424f8d153,5,book,critical,D,50,book40.jpg,book60.jpg,high,NULL
1687287290,efdd879e60370d871abbecac538f1f3c,PennController,13,0,experiment,NULL,PennController,12,_Trial_,Start,1687290677196,611c5a855953ff3424f8d153,611c5a855953ff3424f8d153,10,train,critical,D,25,train15.jpg,train35.jpg,high,NULL
1687287290,efdd879e60370d871abbecac538f1f3c,PennController,13,0,experiment,NULL,PennController,12,_Header_,Start,1687290677196,611c5a855953ff3424f8d153,611c5a855953ff3424f8d153,10,train,critical,D,25,train15.jpg,train35.jpg,high,NULL
1687287290,efdd879e60370d871abbecac538f1f3c,PennController,13,0,experiment,NULL,PennController,12,_Header_,End,1687290677196,611c5a855953ff3424f8d153,611c5a855953ff3424f8d153,10,train,critical,D,25,train15.jpg,train35.jpg,high,NULL
1687287290,efdd879e60370d871abbecac538f1f3c,PennController,13,0,experiment,NULL,Canvas,canvas6,Print,NA,1687290682930,611c5a855953ff3424f8d153,611c5a855953ff3424f8d153,10,train,critical,D,25,train15.jpg,train35.jpg,high,NULL
1687287290,efdd879e60370d871abbecac538f1f3c,PennController,13,0,experiment,NULL,Video,progression,buffer,0.011422,1687290680753,611c5a855953ff3424f8d153,611c5a855953ff3424f8d153,10,train,critical,D,25,train15.jpg,train35.jpg,high,NULL
1687287290,efdd879e60370d871abbecac538f1f3c,PennController,13,0,experiment,NULL,Selector,choice,Selection,option1,1687290686321,611c5a855953ff3424f8d153,611c5a855953ff3424f8d153,10,train,critical,D,25,train15.jpg,train35.jpg,high,option1;option2
1687287290,efdd879e60370d871abbecac538f1f3c,PennController,13,0,experiment,NULL,PennController,12,_Trial_,End,1687290686323,611c5a855953ff3424f8d153,611c5a855953ff3424f8d153,10,train,critical,D,25,train15.jpg,train35.jpg,high,NULL
1687287290,efdd879e60370d871abbecac538f1f3c,PennController,5,0,experiment,NULL,PennController,4,_Trial_,Start,1687290686324,611c5a855953ff3424f8d153,611c5a855953ff3424f8d153,2,door,critical,D,50,door40.jpg,door60.jpg,high,NULL
1687287290,efdd879e60370d871abbecac538f1f3c,PennController,5,0,experiment,NULL,PennController,4,_Header_,Start,1687290686324,611c5a855953ff3424f8d153,611c5a855953ff3424f8d153,2,door,critical,D,50,door40.jpg,door60.jpg,high,NULL
1687287290,efdd879e60370d871abbecac538f1f3c,PennController,5,0,experiment,NULL,PennController,4,_Header_,End,1687290686324,611c5a855953ff3424f8d153,611c5a855953ff3424f8d153,2,door,critical,D,50,door40.jpg,door60.jpg,high,NULL
1687287290,efdd879e60370d871abbecac538f1f3c,PennController,5,0,experiment,NULL,Canvas,canvas6,Print,NA,1687290693060,611c5a855953ff3424f8d153,611c5a855953ff3424f8d153,2,door,critical,D,50,door40.jpg,door60.jpg,high,NULL
1687287290,efdd879e60370d871abbecac538f1f3c,PennController,5,0,experiment,NULL,Video,progression,buffer,0.012076,1687290689878,611c5a855953ff3424f8d153,611c5a855953ff3424f8d153,2,door,critical,D,50,door40.jpg,door60.jpg,high,NULL
1687287290,efdd879e60370d871abbecac538f1f3c,PennController,5,0,experiment,NULL,Selector,choice,Selection,option2,1687290696369,611c5a855953ff3424f8d153,611c5a855953ff3424f8d153,2,door,critical,D,50,door40.jpg,door60.jpg,high,option2;option1
1687287290,efdd879e60370d871abbecac538f1f3c,PennController,5,0,experiment,NULL,PennController,4,_Trial_,End,1687290696370,611c5a855953ff3424f8d153,611c5a855953ff3424f8d153,2,door,critical,D,50,door40.jpg,door60.jpg,high,NULL
1687287290,efdd879e60370d871abbecac538f1f3c,PennController,28,0,experiment,NULL,PennController,27,_Trial_,Start,1687290696372,611c5a855953ff3424f8d153,611c5a855953ff3424f8d153,25,house,filler,D,25,house15.jpg,house35.jpg,GoalB,NULL
1687287290,efdd879e60370d871abbecac538f1f3c,PennController,28,0,experiment,NULL,PennController,27,_Header_,Start,1687290696372,611c5a855953ff3424f8d153,611c5a855953ff3424f8d153,25,house,filler,D,25,house15.jpg,house35.jpg,GoalB,NULL
1687287290,efdd879e60370d871abbecac538f1f3c,PennController,28,0,experiment,NULL,PennController,27,_Header_,End,1687290696372,611c5a855953ff3424f8d153,611c5a855953ff3424f8d153,25,house,filler,D,25,house15.jpg,house35.jpg,GoalB,NULL
1687287290,efdd879e60370d871abbecac538f1f3c,PennController,28,0,experiment,NULL,Canvas,canvas6,Print,NA,1687290702100,611c5a855953ff3424f8d153,611c5a855953ff3424f8d153,25,house,filler,D,25,house15.jpg,house35.jpg,GoalB,NULL
1687287290,efdd879e60370d871abbecac538f1f3c,PennController,28,0,experiment,NULL,Video,progression,buffer,0.011197,1687290699922,611c5a855953ff3424f8d153,611c5a855953ff3424f8d153,25,house,filler,D,25,house15.jpg,house35.jpg,GoalB,NULL
1687287290,efdd879e60370d871abbecac538f1f3c,PennController,28,0,experiment,NULL,Selector,choice,Selection,option2,1687290704003,611c5a855953ff3424f8d153,611c5a855953ff3424f8d153,25,house,filler,D,25,house15.jpg,house35.jpg,GoalB,option1;option2
1687287290,efdd879e60370d871abbecac538f1f3c,PennController,28,0,experiment,NULL,PennController,27,_Trial_,End,1687290704005,611c5a855953ff3424f8d153,611c5a855953ff3424f8d153,25,house,filler,D,25,house15.jpg,house35.jpg,GoalB,NULL
1687287290,efdd879e60370d871abbecac538f1f3c,PennController,22,0,experiment,NULL,PennController,21,_Trial_,Start,1687290704006,611c5a855953ff3424f8d153,611c5a855953ff3424f8d153,19,cup,filler,D,25,cup15.jpg,cup35.jpg,GoalB,NULL
1687287290,efdd879e60370d871abbecac538f1f3c,PennController,22,0,experiment,NULL,PennController,21,_Header_,Start,1687290704006,611c5a855953ff3424f8d153,611c5a855953ff3424f8d153,19,cup,filler,D,25,cup15.jpg,cup35.jpg,GoalB,NULL
1687287290,efdd879e60370d871abbecac538f1f3c,PennController,22,0,experiment,NULL,PennController,21,_Header_,End,1687290704006,611c5a855953ff3424f8d153,611c5a855953ff3424f8d153,19,cup,filler,D,25,cup15.jpg,cup35.jpg,GoalB,NULL
1687287290,efdd879e60370d871abbecac538f1f3c,PennController,22,0,experiment,NULL,Canvas,canvas6,Print,NA,1687290709727,611c5a855953ff3424f8d153,611c5a855953ff3424f8d153,19,cup,filler,D,25,cup15.jpg,cup35.jpg,GoalB,NULL
1687287290,efdd879e60370d871abbecac538f1f3c,PennController,22,0,experiment,NULL,Video,progression,buffer,0.013047,1687290707556,611c5a855953ff3424f8d153,611c5a855953ff3424f8d153,19,cup,filler,D,25,cup15.jpg,cup35.jpg,GoalB,NULL
1687287290,efdd879e60370d871abbecac538f1f3c,PennController,22,0,experiment,NULL,Selector,choice,Selection,option1,1687290712193,611c5a855953ff3424f8d153,611c5a855953ff3424f8d153,19,cup,filler,D,25,cup15.jpg,cup35.jpg,GoalB,option2;option1
1687287290,efdd879e60370d871abbecac538f1f3c,PennController,22,0,experiment,NULL,PennController,21,_Trial_,End,1687290712194,611c5a855953ff3424f8d153,611c5a855953ff3424f8d153,19,cup,filler,D,25,cup15.jpg,cup35.jpg,GoalB,NULL
1687287290,efdd879e60370d871abbecac538f1f3c,PennController,14,0,experiment,NULL,PennController,13,_Trial_,Start,1687290712196,611c5a855953ff3424f8d153,611c5a855953ff3424f8d153,11,beads,critical,D,50,beads40.jpg,beads60.jpg,high,NULL
1687287290,efdd879e60370d871abbecac538f1f3c,PennController,14,0,experiment,NULL,PennController,13,_Header_,Start,1687290712196,611c5a855953ff3424f8d153,611c5a855953ff3424f8d153,11,beads,critical,D,50,beads40.jpg,beads60.jpg,high,NULL
1687287290,efdd879e60370d871abbecac538f1f3c,PennController,14,0,experiment,NULL,PennController,13,_Header_,End,1687290712196,611c5a855953ff3424f8d153,611c5a855953ff3424f8d153,11,beads,critical,D,50,beads40.jpg,beads60.jpg,high,NULL
1687287290,efdd879e60370d871abbecac538f1f3c,PennController,14,0,experiment,NULL,Canvas,canvas6,Print,NA,1687290718914,611c5a855953ff3424f8d153,611c5a855953ff3424f8d153,11,beads,critical,D,50,beads40.jpg,beads60.jpg,high,NULL
1687287290,efdd879e60370d871abbecac538f1f3c,PennController,14,0,experiment,NULL,Video,progression,buffer,0.009787,1687290715743,611c5a855953ff3424f8d153,611c5a855953ff3424f8d153,11,beads,critical,D,50,beads40.jpg,beads60.jpg,high,NULL
1687287290,efdd879e60370d871abbecac538f1f3c,PennController,14,0,experiment,NULL,Selector,choice,Selection,option2,1687290721120,611c5a855953ff3424f8d153,611c5a855953ff3424f8d153,11,beads,critical,D,50,beads40.jpg,beads60.jpg,high,option1;option2
1687287290,efdd879e60370d871abbecac538f1f3c,PennController,14,0,experiment,NULL,PennController,13,_Trial_,End,1687290721121,611c5a855953ff3424f8d153,611c5a855953ff3424f8d153,11,beads,critical,D,50,beads40.jpg,beads60.jpg,high,NULL
1687287290,efdd879e60370d871abbecac538f1f3c,PennController,9,0,experiment,NULL,PennController,8,_Trial_,Start,1687290721123,611c5a855953ff3424f8d153,611c5a855953ff3424f8d153,6,flower,critical,D,75,flower65.jpg,flower85.jpg,high,NULL
1687287290,efdd879e60370d871abbecac538f1f3c,PennController,9,0,experiment,NULL,PennController,8,_Header_,Start,1687290721123,611c5a855953ff3424f8d153,611c5a855953ff3424f8d153,6,flower,critical,D,75,flower65.jpg,flower85.jpg,high,NULL
1687287290,efdd879e60370d871abbecac538f1f3c,PennController,9,0,experiment,NULL,PennController,8,_Header_,End,1687290721123,611c5a855953ff3424f8d153,611c5a855953ff3424f8d153,6,flower,critical,D,75,flower65.jpg,flower85.jpg,high,NULL
1687287290,efdd879e60370d871abbecac538f1f3c,PennController,9,0,experiment,NULL,Canvas,canvas6,Print,NA,1687290728873,611c5a855953ff3424f8d153,611c5a855953ff3424f8d153,6,flower,critical,D,75,flower65.jpg,flower85.jpg,high,NULL
1687287290,efdd879e60370d871abbecac538f1f3c,PennController,9,0,experiment,NULL,Video,progression,buffer,0.012307,1687290724694,611c5a855953ff3424f8d153,611c5a855953ff3424f8d153,6,flower,critical,D,75,flower65.jpg,flower85.jpg,high,NULL
1687287290,efdd879e60370d871abbecac538f1f3c,PennController,9,0,experiment,NULL,Selector,choice,Selection,option2,1687290730339,611c5a855953ff3424f8d153,611c5a855953ff3424f8d153,6,flower,critical,D,75,flower65.jpg,flower85.jpg,high,option1;option2
1687287290,efdd879e60370d871abbecac538f1f3c,PennController,9,0,experiment,NULL,PennController,8,_Trial_,End,1687290730341,611c5a855953ff3424f8d153,611c5a855953ff3424f8d153,6,flower,critical,D,75,flower65.jpg,flower85.jpg,high,NULL
1687287290,efdd879e60370d871abbecac538f1f3c,PennController,32,0,experiment,NULL,PennController,31,_Trial_,Start,1687290730342,611c5a855953ff3424f8d153,611c5a855953ff3424f8d153,29,frog,filler,D,50,frog40.jpg,frog60.jpg,GoalB,NULL
1687287290,efdd879e60370d871abbecac538f1f3c,PennController,32,0,experiment,NULL,PennController,31,_Header_,Start,1687290730342,611c5a855953ff3424f8d153,611c5a855953ff3424f8d153,29,frog,filler,D,50,frog40.jpg,frog60.jpg,GoalB,NULL
1687287290,efdd879e60370d871abbecac538f1f3c,PennController,32,0,experiment,NULL,PennController,31,_Header_,End,1687290730343,611c5a855953ff3424f8d153,611c5a855953ff3424f8d153,29,frog,filler,D,50,frog40.jpg,frog60.jpg,GoalB,NULL
1687287290,efdd879e60370d871abbecac538f1f3c,PennController,32,0,experiment,NULL,Canvas,canvas6,Print,NA,1687290737075,611c5a855953ff3424f8d153,611c5a855953ff3424f8d153,29,frog,filler,D,50,frog40.jpg,frog60.jpg,GoalB,NULL
1687287290,efdd879e60370d871abbecac538f1f3c,PennController,32,0,experiment,NULL,Video,progression,buffer,0.010846,1687290733894,611c5a855953ff3424f8d153,611c5a855953ff3424f8d153,29,frog,filler,D,50,frog40.jpg,frog60.jpg,GoalB,NULL
1687287290,efdd879e60370d871abbecac538f1f3c,PennController,32,0,experiment,NULL,Selector,choice,Selection,option2,1687290738721,611c5a855953ff3424f8d153,611c5a855953ff3424f8d153,29,frog,filler,D,50,frog40.jpg,frog60.jpg,GoalB,option1;option2
1687287290,efdd879e60370d871abbecac538f1f3c,PennController,32,0,experiment,NULL,PennController,31,_Trial_,End,1687290738722,611c5a855953ff3424f8d153,611c5a855953ff3424f8d153,29,frog,filler,D,50,frog40.jpg,frog60.jpg,GoalB,NULL
1687287290,efdd879e60370d871abbecac538f1f3c,PennController,17,0,experiment,NULL,PennController,16,_Trial_,Start,1687290738723,611c5a855953ff3424f8d153,611c5a855953ff3424f8d153,14,cover,critical,D,50,cover42.jpg,cover60.jpg,high,NULL
1687287290,efdd879e60370d871abbecac538f1f3c,PennController,17,0,experiment,NULL,PennController,16,_Header_,Start,1687290738723,611c5a855953ff3424f8d153,611c5a855953ff3424f8d153,14,cover,critical,D,50,cover42.jpg,cover60.jpg,high,NULL
1687287290,efdd879e60370d871abbecac538f1f3c,PennController,17,0,experiment,NULL,PennController,16,_Header_,End,1687290738724,611c5a855953ff3424f8d153,611c5a855953ff3424f8d153,14,cover,critical,D,50,cover42.jpg,cover60.jpg,high,NULL
1687287290,efdd879e60370d871abbecac538f1f3c,PennController,17,0,experiment,NULL,Canvas,canvas6,Print,NA,1687290746836,611c5a855953ff3424f8d153,611c5a855953ff3424f8d153,14,cover,critical,D,50,cover42.jpg,cover60.jpg,high,NULL
1687287290,efdd879e60370d871abbecac538f1f3c,PennController,17,0,experiment,NULL,Video,progression,buffer,0.007146,1687290742269,611c5a855953ff3424f8d153,611c5a855953ff3424f8d153,14,cover,critical,D,50,cover42.jpg,cover60.jpg,high,NULL
1687287290,efdd879e60370d871abbecac538f1f3c,PennController,17,0,experiment,NULL,Selector,choice,Selection,option2,1687290751251,611c5a855953ff3424f8d153,611c5a855953ff3424f8d153,14,cover,critical,D,50,cover42.jpg,cover60.jpg,high,option1;option2
1687287290,efdd879e60370d871abbecac538f1f3c,PennController,17,0,experiment,NULL,PennController,16,_Trial_,End,1687290751252,611c5a855953ff3424f8d153,611c5a855953ff3424f8d153,14,cover,critical,D,50,cover42.jpg,cover60.jpg,high,NULL
1687287290,efdd879e60370d871abbecac538f1f3c,PennController,23,0,experiment,NULL,PennController,22,_Trial_,Start,1687290751254,611c5a855953ff3424f8d153,611c5a855953ff3424f8d153,20,cat,filler,D,50,cat40.jpg,cat60.jpg,GoalA,NULL
1687287290,efdd879e60370d871abbecac538f1f3c,PennController,23,0,experiment,NULL,PennController,22,_Header_,Start,1687290751254,611c5a855953ff3424f8d153,611c5a855953ff3424f8d153,20,cat,filler,D,50,cat40.jpg,cat60.jpg,GoalA,NULL
1687287290,efdd879e60370d871abbecac538f1f3c,PennController,23,0,experiment,NULL,PennController,22,_Header_,End,1687290751254,611c5a855953ff3424f8d153,611c5a855953ff3424f8d153,20,cat,filler,D,50,cat40.jpg,cat60.jpg,GoalA,NULL
1687287290,efdd879e60370d871abbecac538f1f3c,PennController,23,0,experiment,NULL,Canvas,canvas6,Print,NA,1687290757975,611c5a855953ff3424f8d153,611c5a855953ff3424f8d153,20,cat,filler,D,50,cat40.jpg,cat60.jpg,GoalA,NULL
1687287290,efdd879e60370d871abbecac538f1f3c,PennController,23,0,experiment,NULL,Video,progression,buffer,0.014058,1687290754808,611c5a855953ff3424f8d153,611c5a855953ff3424f8d153,20,cat,filler,D,50,cat40.jpg,cat60.jpg,GoalA,NULL
1687287290,efdd879e60370d871abbecac538f1f3c,PennController,23,0,experiment,NULL,Selector,choice,Selection,option2,1687290759328,611c5a855953ff3424f8d153,611c5a855953ff3424f8d153,20,cat,filler,D,50,cat40.jpg,cat60.jpg,GoalA,option1;option2
1687287290,efdd879e60370d871abbecac538f1f3c,PennController,23,0,experiment,NULL,PennController,22,_Trial_,End,1687290759330,611c5a855953ff3424f8d153,611c5a855953ff3424f8d153,20,cat,filler,D,50,cat40.jpg,cat60.jpg,GoalA,NULL
1687287290,efdd879e60370d871abbecac538f1f3c,PennController,10,0,experiment,NULL,PennController,9,_Trial_,Start,1687290759331,611c5a855953ff3424f8d153,611c5a855953ff3424f8d153,7,stack,critical,D,25,stack15.jpg,stack35.jpg,high,NULL
1687287290,efdd879e60370d871abbecac538f1f3c,PennController,10,0,experiment,NULL,PennController,9,_Header_,Start,1687290759331,611c5a855953ff3424f8d153,611c5a855953ff3424f8d153,7,stack,critical,D,25,stack15.jpg,stack35.jpg,high,NULL
1687287290,efdd879e60370d871abbecac538f1f3c,PennController,10,0,experiment,NULL,PennController,9,_Header_,End,1687290759331,611c5a855953ff3424f8d153,611c5a855953ff3424f8d153,7,stack,critical,D,25,stack15.jpg,stack35.jpg,high,NULL
1687287290,efdd879e60370d871abbecac538f1f3c,PennController,10,0,experiment,NULL,Canvas,canvas6,Print,NA,1687290765056,611c5a855953ff3424f8d153,611c5a855953ff3424f8d153,7,stack,critical,D,25,stack15.jpg,stack35.jpg,high,NULL
1687287290,efdd879e60370d871abbecac538f1f3c,PennController,10,0,experiment,NULL,Video,progression,buffer,0.015374,1687290762882,611c5a855953ff3424f8d153,611c5a855953ff3424f8d153,7,stack,critical,D,25,stack15.jpg,stack35.jpg,high,NULL
1687287290,efdd879e60370d871abbecac538f1f3c,PennController,10,0,experiment,NULL,Selector,choice,Selection,option1,1687290768507,611c5a855953ff3424f8d153,611c5a855953ff3424f8d153,7,stack,critical,D,25,stack15.jpg,stack35.jpg,high,option1;option2
1687287290,efdd879e60370d871abbecac538f1f3c,PennController,10,0,experiment,NULL,PennController,9,_Trial_,End,1687290768509,611c5a855953ff3424f8d153,611c5a855953ff3424f8d153,7,stack,critical,D,25,stack15.jpg,stack35.jpg,high,NULL
1687287290,efdd879e60370d871abbecac538f1f3c,PennController,25,0,experiment,NULL,PennController,24,_Trial_,Start,1687290768510,611c5a855953ff3424f8d153,611c5a855953ff3424f8d153,22,wall,filler,D,25,wall15.jpg,wall35.jpg,GoalA,NULL
1687287290,efdd879e60370d871abbecac538f1f3c,PennController,25,0,experiment,NULL,PennController,24,_Header_,Start,1687290768510,611c5a855953ff3424f8d153,611c5a855953ff3424f8d153,22,wall,filler,D,25,wall15.jpg,wall35.jpg,GoalA,NULL
1687287290,efdd879e60370d871abbecac538f1f3c,PennController,25,0,experiment,NULL,PennController,24,_Header_,End,1687290768510,611c5a855953ff3424f8d153,611c5a855953ff3424f8d153,22,wall,filler,D,25,wall15.jpg,wall35.jpg,GoalA,NULL
1687287290,efdd879e60370d871abbecac538f1f3c,PennController,25,0,experiment,NULL,Canvas,canvas6,Print,NA,1687290774242,611c5a855953ff3424f8d153,611c5a855953ff3424f8d153,22,wall,filler,D,25,wall15.jpg,wall35.jpg,GoalA,NULL
1687287290,efdd879e60370d871abbecac538f1f3c,PennController,25,0,experiment,NULL,Video,progression,buffer,0.015604,1687290772064,611c5a855953ff3424f8d153,611c5a855953ff3424f8d153,22,wall,filler,D,25,wall15.jpg,wall35.jpg,GoalA,NULL
1687287290,efdd879e60370d871abbecac538f1f3c,PennController,25,0,experiment,NULL,Selector,choice,Selection,option2,1687290788528,611c5a855953ff3424f8d153,611c5a855953ff3424f8d153,22,wall,filler,D,25,wall15.jpg,wall35.jpg,GoalA,option2;option1
1687287290,efdd879e60370d871abbecac538f1f3c,PennController,25,0,experiment,NULL,PennController,24,_Trial_,End,1687290788530,611c5a855953ff3424f8d153,611c5a855953ff3424f8d153,22,wall,filler,D,25,wall15.jpg,wall35.jpg,GoalA,NULL
1687287290,efdd879e60370d871abbecac538f1f3c,PennController,15,0,experiment,NULL,PennController,14,_Trial_,Start,1687290788531,611c5a855953ff3424f8d153,611c5a855953ff3424f8d153,12,erase,critical,D,75,erase66.jpg,erase84.jpg,high,NULL
1687287290,efdd879e60370d871abbecac538f1f3c,PennController,15,0,experiment,NULL,PennController,14,_Header_,Start,1687290788531,611c5a855953ff3424f8d153,611c5a855953ff3424f8d153,12,erase,critical,D,75,erase66.jpg,erase84.jpg,high,NULL
1687287290,efdd879e60370d871abbecac538f1f3c,PennController,15,0,experiment,NULL,PennController,14,_Header_,End,1687290788531,611c5a855953ff3424f8d153,611c5a855953ff3424f8d153,12,erase,critical,D,75,erase66.jpg,erase84.jpg,high,NULL
1687287290,efdd879e60370d871abbecac538f1f3c,PennController,15,0,experiment,NULL,Canvas,canvas6,Print,NA,1687290798260,611c5a855953ff3424f8d153,611c5a855953ff3424f8d153,12,erase,critical,D,75,erase66.jpg,erase84.jpg,high,NULL
1687287290,efdd879e60370d871abbecac538f1f3c,PennController,15,0,experiment,NULL,Video,progression,buffer,0.012964,1687290792084,611c5a855953ff3424f8d153,611c5a855953ff3424f8d153,12,erase,critical,D,75,erase66.jpg,erase84.jpg,high,NULL
1687287290,efdd879e60370d871abbecac538f1f3c,PennController,15,0,experiment,NULL,Selector,choice,Selection,option2,1687290801160,611c5a855953ff3424f8d153,611c5a855953ff3424f8d153,12,erase,critical,D,75,erase66.jpg,erase84.jpg,high,option2;option1
1687287290,efdd879e60370d871abbecac538f1f3c,PennController,15,0,experiment,NULL,PennController,14,_Trial_,End,1687290801162,611c5a855953ff3424f8d153,611c5a855953ff3424f8d153,12,erase,critical,D,75,erase66.jpg,erase84.jpg,high,NULL
1687287290,efdd879e60370d871abbecac538f1f3c,PennController,16,0,experiment,NULL,PennController,15,_Trial_,Start,1687290801163,611c5a855953ff3424f8d153,611c5a855953ff3424f8d153,13,mix,critical,D,25,mix15.jpg,mix35.jpg,high,NULL
1687287290,efdd879e60370d871abbecac538f1f3c,PennController,16,0,experiment,NULL,PennController,15,_Header_,Start,1687290801163,611c5a855953ff3424f8d153,611c5a855953ff3424f8d153,13,mix,critical,D,25,mix15.jpg,mix35.jpg,high,NULL
1687287290,efdd879e60370d871abbecac538f1f3c,PennController,16,0,experiment,NULL,PennController,15,_Header_,End,1687290801163,611c5a855953ff3424f8d153,611c5a855953ff3424f8d153,13,mix,critical,D,25,mix15.jpg,mix35.jpg,high,NULL
1687287290,efdd879e60370d871abbecac538f1f3c,PennController,16,0,experiment,NULL,Canvas,canvas6,Print,NA,1687290806886,611c5a855953ff3424f8d153,611c5a855953ff3424f8d153,13,mix,critical,D,25,mix15.jpg,mix35.jpg,high,NULL
1687287290,efdd879e60370d871abbecac538f1f3c,PennController,16,0,experiment,NULL,Video,progression,buffer,0.01327,1687290804708,611c5a855953ff3424f8d153,611c5a855953ff3424f8d153,13,mix,critical,D,25,mix15.jpg,mix35.jpg,high,NULL
1687287290,efdd879e60370d871abbecac538f1f3c,PennController,16,0,experiment,NULL,Selector,choice,Selection,option2,1687290808159,611c5a855953ff3424f8d153,611c5a855953ff3424f8d153,13,mix,critical,D,25,mix15.jpg,mix35.jpg,high,option2;option1
1687287290,efdd879e60370d871abbecac538f1f3c,PennController,16,0,experiment,NULL,PennController,15,_Trial_,End,1687290808160,611c5a855953ff3424f8d153,611c5a855953ff3424f8d153,13,mix,critical,D,25,mix15.jpg,mix35.jpg,high,NULL
1687287290,efdd879e60370d871abbecac538f1f3c,PennController,26,0,experiment,NULL,PennController,25,_Trial_,Start,1687290808161,611c5a855953ff3424f8d153,611c5a855953ff3424f8d153,23,color,filler,D,50,color40.jpg,color60.jpg,GoalB,NULL
1687287290,efdd879e60370d871abbecac538f1f3c,PennController,26,0,experiment,NULL,PennController,25,_Header_,Start,1687290808161,611c5a855953ff3424f8d153,611c5a855953ff3424f8d153,23,color,filler,D,50,color40.jpg,color60.jpg,GoalB,NULL
1687287290,efdd879e60370d871abbecac538f1f3c,PennController,26,0,experiment,NULL,PennController,25,_Header_,End,1687290808161,611c5a855953ff3424f8d153,611c5a855953ff3424f8d153,23,color,filler,D,50,color40.jpg,color60.jpg,GoalB,NULL
1687287290,efdd879e60370d871abbecac538f1f3c,PennController,26,0,experiment,NULL,Canvas,canvas6,Print,NA,1687290814883,611c5a855953ff3424f8d153,611c5a855953ff3424f8d153,23,color,filler,D,50,color40.jpg,color60.jpg,GoalB,NULL
1687287290,efdd879e60370d871abbecac538f1f3c,PennController,26,0,experiment,NULL,Video,progression,buffer,0.013229,1687290811716,611c5a855953ff3424f8d153,611c5a855953ff3424f8d153,23,color,filler,D,50,color40.jpg,color60.jpg,GoalB,NULL
1687287290,efdd879e60370d871abbecac538f1f3c,PennController,26,0,experiment,NULL,Selector,choice,Selection,option2,1687290817369,611c5a855953ff3424f8d153,611c5a855953ff3424f8d153,23,color,filler,D,50,color40.jpg,color60.jpg,GoalB,option2;option1
1687287290,efdd879e60370d871abbecac538f1f3c,PennController,26,0,experiment,NULL,PennController,25,_Trial_,End,1687290817370,611c5a855953ff3424f8d153,611c5a855953ff3424f8d153,23,color,filler,D,50,color40.jpg,color60.jpg,GoalB,NULL
1687287290,efdd879e60370d871abbecac538f1f3c,PennController,6,0,experiment,NULL,PennController,5,_Trial_,Start,1687290817371,611c5a855953ff3424f8d153,611c5a855953ff3424f8d153,3,clean,critical,D,75,clean65.jpg,clean85.jpg,high,NULL
1687287290,efdd879e60370d871abbecac538f1f3c,PennController,6,0,experiment,NULL,PennController,5,_Header_,Start,1687290817371,611c5a855953ff3424f8d153,611c5a855953ff3424f8d153,3,clean,critical,D,75,clean65.jpg,clean85.jpg,high,NULL
1687287290,efdd879e60370d871abbecac538f1f3c,PennController,6,0,experiment,NULL,PennController,5,_Header_,End,1687290817371,611c5a855953ff3424f8d153,611c5a855953ff3424f8d153,3,clean,critical,D,75,clean65.jpg,clean85.jpg,high,NULL
1687287290,efdd879e60370d871abbecac538f1f3c,PennController,6,0,experiment,NULL,Canvas,canvas6,Print,NA,1687290825105,611c5a855953ff3424f8d153,611c5a855953ff3424f8d153,3,clean,critical,D,75,clean65.jpg,clean85.jpg,high,NULL
1687287290,efdd879e60370d871abbecac538f1f3c,PennController,6,0,experiment,NULL,Video,progression,buffer,0.012411,1687290820925,611c5a855953ff3424f8d153,611c5a855953ff3424f8d153,3,clean,critical,D,75,clean65.jpg,clean85.jpg,high,NULL
1687287290,efdd879e60370d871abbecac538f1f3c,PennController,6,0,experiment,NULL,Selector,choice,Selection,option1,1687290826719,611c5a855953ff3424f8d153,611c5a855953ff3424f8d153,3,clean,critical,D,75,clean65.jpg,clean85.jpg,high,option1;option2
1687287290,efdd879e60370d871abbecac538f1f3c,PennController,6,0,experiment,NULL,PennController,5,_Trial_,End,1687290826720,611c5a855953ff3424f8d153,611c5a855953ff3424f8d153,3,clean,critical,D,75,clean65.jpg,clean85.jpg,high,NULL
