#
# Results on Wednesday June 21 2023 19:57:52 UTC
# USER AGENT: Mozilla/5.0 (Windows NT 10.0; Win64; x64) AppleWebKit/537.36 (KHTML, like Gecko) Chrome/114.0.0.0 Safari/537.36
# Design number was non-random = 67
#
# Columns below this comment are as follows:
# 1. Results reception time.
# 2. MD5 hash of participant's IP address.
# 3. Controller name.
# 4. Order number of item.
# 5. Inner element number.
# 6. Label.
# 7. Latin Square Group.
# 8. PennElementType.
# 9. PennElementName.
# 10. Parameter.
# 11. Value.
# 12. EventTime.
# 13. PROLIFIC_ID.
# 14. Comments.
1687377472,0de9e16d81144487944c4846f69bf24b,PennController,3,0,consent,NULL,PennController,0,_Trial_,Start,1687377115521,6107f99b4033d300a0879ed9,NULL
1687377472,0de9e16d81144487944c4846f69bf24b,PennController,3,0,consent,NULL,PennController,0,_Header_,Start,1687377115521,6107f99b4033d300a0879ed9,NULL
1687377472,0de9e16d81144487944c4846f69bf24b,PennController,3,0,consent,NULL,PennController,0,_Header_,End,1687377115522,6107f99b4033d300a0879ed9,NULL
1687377472,0de9e16d81144487944c4846f69bf24b,PennController,3,0,consent,NULL,PennController,0,_Trial_,End,1687377146161,6107f99b4033d300a0879ed9,NULL
# Columns below this comment are as follows:
# 14. ID.
# 15. Comments.
1687377472,0de9e16d81144487944c4846f69bf24b,PennController,4,0,intro,NULL,PennController,1,_Trial_,Start,1687377146163,6107f99b4033d300a0879ed9,6107f99b4033d300a0879ed9,NULL
1687377472,0de9e16d81144487944c4846f69bf24b,PennController,4,0,intro,NULL,PennController,1,_Header_,Start,1687377146163,6107f99b4033d300a0879ed9,6107f99b4033d300a0879ed9,NULL
1687377472,0de9e16d81144487944c4846f69bf24b,PennController,4,0,intro,NULL,PennController,1,_Header_,End,1687377146163,6107f99b4033d300a0879ed9,6107f99b4033d300a0879ed9,NULL
1687377472,0de9e16d81144487944c4846f69bf24b,PennController,4,0,intro,NULL,PennController,1,_Trial_,End,1687377223968,6107f99b4033d300a0879ed9,6107f99b4033d300a0879ed9,NULL
# Columns below this comment are as follows:
# 15. item_number.
# 16. item.
# 17. type.
# 18. Group.
# 19. prog.
# 20. prev_image.
# 21. next_image.
# 22. height.
# 23. Comments.
1687377472,0de9e16d81144487944c4846f69bf24b,PennController,5,0,experiment,NULL,PennController,3,_Trial_,Start,1687377223969,6107f99b4033d300a0879ed9,6107f99b4033d300a0879ed9,1,vase,critical,F,75,vase65.jpg,vase85.jpg,high,NULL
1687377472,0de9e16d81144487944c4846f69bf24b,PennController,5,0,experiment,NULL,PennController,3,_Header_,Start,1687377223969,6107f99b4033d300a0879ed9,6107f99b4033d300a0879ed9,1,vase,critical,F,75,vase65.jpg,vase85.jpg,high,NULL
1687377472,0de9e16d81144487944c4846f69bf24b,PennController,5,0,experiment,NULL,PennController,3,_Header_,End,1687377223969,6107f99b4033d300a0879ed9,6107f99b4033d300a0879ed9,1,vase,critical,F,75,vase65.jpg,vase85.jpg,high,NULL
1687377472,0de9e16d81144487944c4846f69bf24b,PennController,5,0,experiment,NULL,Canvas,canvas6,Print,NA,1687377231656,6107f99b4033d300a0879ed9,6107f99b4033d300a0879ed9,1,vase,critical,F,75,vase65.jpg,vase85.jpg,high,NULL
1687377472,0de9e16d81144487944c4846f69bf24b,PennController,5,0,experiment,NULL,Video,progression,buffer,0.003044,1687377227498,6107f99b4033d300a0879ed9,6107f99b4033d300a0879ed9,1,vase,critical,F,75,vase65.jpg,vase85.jpg,high,NULL
1687377472,0de9e16d81144487944c4846f69bf24b,PennController,5,0,experiment,NULL,Selector,choice,Selection,option2,1687377233487,6107f99b4033d300a0879ed9,6107f99b4033d300a0879ed9,1,vase,critical,F,75,vase65.jpg,vase85.jpg,high,option1;option2
1687377472,0de9e16d81144487944c4846f69bf24b,PennController,5,0,experiment,NULL,PennController,3,_Trial_,End,1687377233489,6107f99b4033d300a0879ed9,6107f99b4033d300a0879ed9,1,vase,critical,F,75,vase65.jpg,vase85.jpg,high,NULL
1687377472,0de9e16d81144487944c4846f69bf24b,PennController,29,0,experiment,NULL,PennController,27,_Trial_,Start,1687377233490,6107f99b4033d300a0879ed9,6107f99b4033d300a0879ed9,25,house,filler,F,75,house65.jpg,house85.jpg,GoalB,NULL
1687377472,0de9e16d81144487944c4846f69bf24b,PennController,29,0,experiment,NULL,PennController,27,_Header_,Start,1687377233490,6107f99b4033d300a0879ed9,6107f99b4033d300a0879ed9,25,house,filler,F,75,house65.jpg,house85.jpg,GoalB,NULL
1687377472,0de9e16d81144487944c4846f69bf24b,PennController,29,0,experiment,NULL,PennController,27,_Header_,End,1687377233490,6107f99b4033d300a0879ed9,6107f99b4033d300a0879ed9,25,house,filler,F,75,house65.jpg,house85.jpg,GoalB,NULL
1687377472,0de9e16d81144487944c4846f69bf24b,PennController,29,0,experiment,NULL,Canvas,canvas6,Print,NA,1687377241170,6107f99b4033d300a0879ed9,6107f99b4033d300a0879ed9,25,house,filler,F,75,house65.jpg,house85.jpg,GoalB,NULL
1687377472,0de9e16d81144487944c4846f69bf24b,PennController,29,0,experiment,NULL,Video,progression,buffer,0.002592,1687377237010,6107f99b4033d300a0879ed9,6107f99b4033d300a0879ed9,25,house,filler,F,75,house65.jpg,house85.jpg,GoalB,NULL
1687377472,0de9e16d81144487944c4846f69bf24b,PennController,29,0,experiment,NULL,Selector,choice,Selection,option2,1687377244482,6107f99b4033d300a0879ed9,6107f99b4033d300a0879ed9,25,house,filler,F,75,house65.jpg,house85.jpg,GoalB,option2;option1
1687377472,0de9e16d81144487944c4846f69bf24b,PennController,29,0,experiment,NULL,PennController,27,_Trial_,End,1687377244483,6107f99b4033d300a0879ed9,6107f99b4033d300a0879ed9,25,house,filler,F,75,house65.jpg,house85.jpg,GoalB,NULL
1687377472,0de9e16d81144487944c4846f69bf24b,PennController,23,0,experiment,NULL,PennController,21,_Trial_,Start,1687377244484,6107f99b4033d300a0879ed9,6107f99b4033d300a0879ed9,19,cup,filler,F,75,cup65.jpg,cup85.jpg,GoalB,NULL
1687377472,0de9e16d81144487944c4846f69bf24b,PennController,23,0,experiment,NULL,PennController,21,_Header_,Start,1687377244484,6107f99b4033d300a0879ed9,6107f99b4033d300a0879ed9,19,cup,filler,F,75,cup65.jpg,cup85.jpg,GoalB,NULL
1687377472,0de9e16d81144487944c4846f69bf24b,PennController,23,0,experiment,NULL,PennController,21,_Header_,End,1687377244484,6107f99b4033d300a0879ed9,6107f99b4033d300a0879ed9,19,cup,filler,F,75,cup65.jpg,cup85.jpg,GoalB,NULL
1687377472,0de9e16d81144487944c4846f69bf24b,PennController,23,0,experiment,NULL,Canvas,canvas6,Print,NA,1687377252173,6107f99b4033d300a0879ed9,6107f99b4033d300a0879ed9,19,cup,filler,F,75,cup65.jpg,cup85.jpg,GoalB,NULL
1687377472,0de9e16d81144487944c4846f69bf24b,PennController,23,0,experiment,NULL,Video,progression,buffer,0.002236,1687377248004,6107f99b4033d300a0879ed9,6107f99b4033d300a0879ed9,19,cup,filler,F,75,cup65.jpg,cup85.jpg,GoalB,NULL
1687377472,0de9e16d81144487944c4846f69bf24b,PennController,23,0,experiment,NULL,Selector,choice,Selection,option1,1687377254089,6107f99b4033d300a0879ed9,6107f99b4033d300a0879ed9,19,cup,filler,F,75,cup65.jpg,cup85.jpg,GoalB,option2;option1
1687377472,0de9e16d81144487944c4846f69bf24b,PennController,23,0,experiment,NULL,PennController,21,_Trial_,End,1687377254090,6107f99b4033d300a0879ed9,6107f99b4033d300a0879ed9,19,cup,filler,F,75,cup65.jpg,cup85.jpg,GoalB,NULL
1687377472,0de9e16d81144487944c4846f69bf24b,PennController,31,0,experiment,NULL,PennController,29,_Trial_,Start,1687377254091,6107f99b4033d300a0879ed9,6107f99b4033d300a0879ed9,27,square,filler,F,50,square40.jpg,square60.jpg,GoalB,NULL
1687377472,0de9e16d81144487944c4846f69bf24b,PennController,31,0,experiment,NULL,PennController,29,_Header_,Start,1687377254091,6107f99b4033d300a0879ed9,6107f99b4033d300a0879ed9,27,square,filler,F,50,square40.jpg,square60.jpg,GoalB,NULL
1687377472,0de9e16d81144487944c4846f69bf24b,PennController,31,0,experiment,NULL,PennController,29,_Header_,End,1687377254092,6107f99b4033d300a0879ed9,6107f99b4033d300a0879ed9,27,square,filler,F,50,square40.jpg,square60.jpg,GoalB,NULL
1687377472,0de9e16d81144487944c4846f69bf24b,PennController,31,0,experiment,NULL,Canvas,canvas6,Print,NA,1687377260774,6107f99b4033d300a0879ed9,6107f99b4033d300a0879ed9,27,square,filler,F,50,square40.jpg,square60.jpg,GoalB,NULL
1687377472,0de9e16d81144487944c4846f69bf24b,PennController,31,0,experiment,NULL,Video,progression,buffer,0.002133,1687377257605,6107f99b4033d300a0879ed9,6107f99b4033d300a0879ed9,27,square,filler,F,50,square40.jpg,square60.jpg,GoalB,NULL
1687377472,0de9e16d81144487944c4846f69bf24b,PennController,31,0,experiment,NULL,Selector,choice,Selection,option2,1687377261911,6107f99b4033d300a0879ed9,6107f99b4033d300a0879ed9,27,square,filler,F,50,square40.jpg,square60.jpg,GoalB,option1;option2
1687377472,0de9e16d81144487944c4846f69bf24b,PennController,31,0,experiment,NULL,PennController,29,_Trial_,End,1687377261912,6107f99b4033d300a0879ed9,6107f99b4033d300a0879ed9,27,square,filler,F,50,square40.jpg,square60.jpg,GoalB,NULL
1687377472,0de9e16d81144487944c4846f69bf24b,PennController,27,0,experiment,NULL,PennController,25,_Trial_,Start,1687377261913,6107f99b4033d300a0879ed9,6107f99b4033d300a0879ed9,23,color,filler,F,25,color15.jpg,color35.jpg,GoalB,NULL
1687377472,0de9e16d81144487944c4846f69bf24b,PennController,27,0,experiment,NULL,PennController,25,_Header_,Start,1687377261913,6107f99b4033d300a0879ed9,6107f99b4033d300a0879ed9,23,color,filler,F,25,color15.jpg,color35.jpg,GoalB,NULL
1687377472,0de9e16d81144487944c4846f69bf24b,PennController,27,0,experiment,NULL,PennController,25,_Header_,End,1687377261913,6107f99b4033d300a0879ed9,6107f99b4033d300a0879ed9,23,color,filler,F,25,color15.jpg,color35.jpg,GoalB,NULL
1687377472,0de9e16d81144487944c4846f69bf24b,PennController,27,0,experiment,NULL,Canvas,canvas6,Print,NA,1687377267608,6107f99b4033d300a0879ed9,6107f99b4033d300a0879ed9,23,color,filler,F,25,color15.jpg,color35.jpg,GoalB,NULL
1687377472,0de9e16d81144487944c4846f69bf24b,PennController,27,0,experiment,NULL,Video,progression,buffer,0.002053,1687377265433,6107f99b4033d300a0879ed9,6107f99b4033d300a0879ed9,23,color,filler,F,25,color15.jpg,color35.jpg,GoalB,NULL
1687377472,0de9e16d81144487944c4846f69bf24b,PennController,27,0,experiment,NULL,Selector,choice,Selection,option2,1687377271955,6107f99b4033d300a0879ed9,6107f99b4033d300a0879ed9,23,color,filler,F,25,color15.jpg,color35.jpg,GoalB,option1;option2
1687377472,0de9e16d81144487944c4846f69bf24b,PennController,27,0,experiment,NULL,PennController,25,_Trial_,End,1687377271956,6107f99b4033d300a0879ed9,6107f99b4033d300a0879ed9,23,color,filler,F,25,color15.jpg,color35.jpg,GoalB,NULL
1687377472,0de9e16d81144487944c4846f69bf24b,PennController,10,0,experiment,NULL,PennController,8,_Trial_,Start,1687377271957,6107f99b4033d300a0879ed9,6107f99b4033d300a0879ed9,6,flower,critical,F,50,flower40.jpg,flower60.jpg,high,NULL
1687377472,0de9e16d81144487944c4846f69bf24b,PennController,10,0,experiment,NULL,PennController,8,_Header_,Start,1687377271957,6107f99b4033d300a0879ed9,6107f99b4033d300a0879ed9,6,flower,critical,F,50,flower40.jpg,flower60.jpg,high,NULL
1687377472,0de9e16d81144487944c4846f69bf24b,PennController,10,0,experiment,NULL,PennController,8,_Header_,End,1687377271957,6107f99b4033d300a0879ed9,6107f99b4033d300a0879ed9,6,flower,critical,F,50,flower40.jpg,flower60.jpg,high,NULL
1687377472,0de9e16d81144487944c4846f69bf24b,PennController,10,0,experiment,NULL,Canvas,canvas6,Print,NA,1687377278640,6107f99b4033d300a0879ed9,6107f99b4033d300a0879ed9,6,flower,critical,F,50,flower40.jpg,flower60.jpg,high,NULL
1687377472,0de9e16d81144487944c4846f69bf24b,PennController,10,0,experiment,NULL,Video,progression,buffer,0.002198,1687377275473,6107f99b4033d300a0879ed9,6107f99b4033d300a0879ed9,6,flower,critical,F,50,flower40.jpg,flower60.jpg,high,NULL
1687377472,0de9e16d81144487944c4846f69bf24b,PennController,10,0,experiment,NULL,Selector,choice,Selection,option2,1687377281020,6107f99b4033d300a0879ed9,6107f99b4033d300a0879ed9,6,flower,critical,F,50,flower40.jpg,flower60.jpg,high,option2;option1
1687377472,0de9e16d81144487944c4846f69bf24b,PennController,10,0,experiment,NULL,PennController,8,_Trial_,End,1687377281021,6107f99b4033d300a0879ed9,6107f99b4033d300a0879ed9,6,flower,critical,F,50,flower40.jpg,flower60.jpg,high,NULL
1687377472,0de9e16d81144487944c4846f69bf24b,PennController,32,0,experiment,NULL,PennController,30,_Trial_,Start,1687377281022,6107f99b4033d300a0879ed9,6107f99b4033d300a0879ed9,28,sort,filler,F,75,sort65.jpg,sort85.jpg,GoalA,NULL
1687377472,0de9e16d81144487944c4846f69bf24b,PennController,32,0,experiment,NULL,PennController,30,_Header_,Start,1687377281022,6107f99b4033d300a0879ed9,6107f99b4033d300a0879ed9,28,sort,filler,F,75,sort65.jpg,sort85.jpg,GoalA,NULL
1687377472,0de9e16d81144487944c4846f69bf24b,PennController,32,0,experiment,NULL,PennController,30,_Header_,End,1687377281022,6107f99b4033d300a0879ed9,6107f99b4033d300a0879ed9,28,sort,filler,F,75,sort65.jpg,sort85.jpg,GoalA,NULL
1687377472,0de9e16d81144487944c4846f69bf24b,PennController,32,0,experiment,NULL,Canvas,canvas6,Print,NA,1687377288709,6107f99b4033d300a0879ed9,6107f99b4033d300a0879ed9,28,sort,filler,F,75,sort65.jpg,sort85.jpg,GoalA,NULL
1687377472,0de9e16d81144487944c4846f69bf24b,PennController,32,0,experiment,NULL,Video,progression,buffer,0.002403,1687377284545,6107f99b4033d300a0879ed9,6107f99b4033d300a0879ed9,28,sort,filler,F,75,sort65.jpg,sort85.jpg,GoalA,NULL
1687377472,0de9e16d81144487944c4846f69bf24b,PennController,32,0,experiment,NULL,Selector,choice,Selection,option1,1687377293707,6107f99b4033d300a0879ed9,6107f99b4033d300a0879ed9,28,sort,filler,F,75,sort65.jpg,sort85.jpg,GoalA,option2;option1
1687377472,0de9e16d81144487944c4846f69bf24b,PennController,32,0,experiment,NULL,PennController,30,_Trial_,End,1687377293708,6107f99b4033d300a0879ed9,6107f99b4033d300a0879ed9,28,sort,filler,F,75,sort65.jpg,sort85.jpg,GoalA,NULL
1687377472,0de9e16d81144487944c4846f69bf24b,PennController,17,0,experiment,NULL,PennController,15,_Trial_,Start,1687377293710,6107f99b4033d300a0879ed9,6107f99b4033d300a0879ed9,13,mix,critical,F,75,mix65.jpg,mix85.jpg,high,NULL
1687377472,0de9e16d81144487944c4846f69bf24b,PennController,17,0,experiment,NULL,PennController,15,_Header_,Start,1687377293710,6107f99b4033d300a0879ed9,6107f99b4033d300a0879ed9,13,mix,critical,F,75,mix65.jpg,mix85.jpg,high,NULL
1687377472,0de9e16d81144487944c4846f69bf24b,PennController,17,0,experiment,NULL,PennController,15,_Header_,End,1687377293710,6107f99b4033d300a0879ed9,6107f99b4033d300a0879ed9,13,mix,critical,F,75,mix65.jpg,mix85.jpg,high,NULL
1687377472,0de9e16d81144487944c4846f69bf24b,PennController,17,0,experiment,NULL,Canvas,canvas6,Print,NA,1687377301390,6107f99b4033d300a0879ed9,6107f99b4033d300a0879ed9,13,mix,critical,F,75,mix65.jpg,mix85.jpg,high,NULL
1687377472,0de9e16d81144487944c4846f69bf24b,PennController,17,0,experiment,NULL,Video,progression,buffer,0.002583,1687377297226,6107f99b4033d300a0879ed9,6107f99b4033d300a0879ed9,13,mix,critical,F,75,mix65.jpg,mix85.jpg,high,NULL
1687377472,0de9e16d81144487944c4846f69bf24b,PennController,17,0,experiment,NULL,Selector,choice,Selection,option1,1687377303092,6107f99b4033d300a0879ed9,6107f99b4033d300a0879ed9,13,mix,critical,F,75,mix65.jpg,mix85.jpg,high,option1;option2
1687377472,0de9e16d81144487944c4846f69bf24b,PennController,17,0,experiment,NULL,PennController,15,_Trial_,End,1687377303093,6107f99b4033d300a0879ed9,6107f99b4033d300a0879ed9,13,mix,critical,F,75,mix65.jpg,mix85.jpg,high,NULL
1687377472,0de9e16d81144487944c4846f69bf24b,PennController,7,0,experiment,NULL,PennController,5,_Trial_,Start,1687377303094,6107f99b4033d300a0879ed9,6107f99b4033d300a0879ed9,3,clean,critical,F,50,clean40.jpg,clean60.jpg,high,NULL
1687377472,0de9e16d81144487944c4846f69bf24b,PennController,7,0,experiment,NULL,PennController,5,_Header_,Start,1687377303094,6107f99b4033d300a0879ed9,6107f99b4033d300a0879ed9,3,clean,critical,F,50,clean40.jpg,clean60.jpg,high,NULL
1687377472,0de9e16d81144487944c4846f69bf24b,PennController,7,0,experiment,NULL,PennController,5,_Header_,End,1687377303094,6107f99b4033d300a0879ed9,6107f99b4033d300a0879ed9,3,clean,critical,F,50,clean40.jpg,clean60.jpg,high,NULL
1687377472,0de9e16d81144487944c4846f69bf24b,PennController,7,0,experiment,NULL,Canvas,canvas6,Print,NA,1687377309773,6107f99b4033d300a0879ed9,6107f99b4033d300a0879ed9,3,clean,critical,F,50,clean40.jpg,clean60.jpg,high,NULL
1687377472,0de9e16d81144487944c4846f69bf24b,PennController,7,0,experiment,NULL,Video,progression,buffer,0.002948,1687377306608,6107f99b4033d300a0879ed9,6107f99b4033d300a0879ed9,3,clean,critical,F,50,clean40.jpg,clean60.jpg,high,NULL
1687377472,0de9e16d81144487944c4846f69bf24b,PennController,7,0,experiment,NULL,Selector,choice,Selection,option1,1687377311087,6107f99b4033d300a0879ed9,6107f99b4033d300a0879ed9,3,clean,critical,F,50,clean40.jpg,clean60.jpg,high,option1;option2
1687377472,0de9e16d81144487944c4846f69bf24b,PennController,7,0,experiment,NULL,PennController,5,_Trial_,End,1687377311088,6107f99b4033d300a0879ed9,6107f99b4033d300a0879ed9,3,clean,critical,F,50,clean40.jpg,clean60.jpg,high,NULL
1687377472,0de9e16d81144487944c4846f69bf24b,PennController,16,0,experiment,NULL,PennController,14,_Trial_,Start,1687377311089,6107f99b4033d300a0879ed9,6107f99b4033d300a0879ed9,12,erase,critical,F,50,erase42.jpg,erase60.jpg,high,NULL
1687377472,0de9e16d81144487944c4846f69bf24b,PennController,16,0,experiment,NULL,PennController,14,_Header_,Start,1687377311089,6107f99b4033d300a0879ed9,6107f99b4033d300a0879ed9,12,erase,critical,F,50,erase42.jpg,erase60.jpg,high,NULL
1687377472,0de9e16d81144487944c4846f69bf24b,PennController,16,0,experiment,NULL,PennController,14,_Header_,End,1687377311089,6107f99b4033d300a0879ed9,6107f99b4033d300a0879ed9,12,erase,critical,F,50,erase42.jpg,erase60.jpg,high,NULL
1687377472,0de9e16d81144487944c4846f69bf24b,PennController,16,0,experiment,NULL,Canvas,canvas6,Print,NA,1687377319176,6107f99b4033d300a0879ed9,6107f99b4033d300a0879ed9,12,erase,critical,F,50,erase42.jpg,erase60.jpg,high,NULL
1687377472,0de9e16d81144487944c4846f69bf24b,PennController,16,0,experiment,NULL,Video,progression,buffer,0.002474,1687377314607,6107f99b4033d300a0879ed9,6107f99b4033d300a0879ed9,12,erase,critical,F,50,erase42.jpg,erase60.jpg,high,NULL
1687377472,0de9e16d81144487944c4846f69bf24b,PennController,16,0,experiment,NULL,Selector,choice,Selection,option1,1687377322731,6107f99b4033d300a0879ed9,6107f99b4033d300a0879ed9,12,erase,critical,F,50,erase42.jpg,erase60.jpg,high,option2;option1
1687377472,0de9e16d81144487944c4846f69bf24b,PennController,16,0,experiment,NULL,PennController,14,_Trial_,End,1687377322731,6107f99b4033d300a0879ed9,6107f99b4033d300a0879ed9,12,erase,critical,F,50,erase42.jpg,erase60.jpg,high,NULL
1687377472,0de9e16d81144487944c4846f69bf24b,PennController,11,0,experiment,NULL,PennController,9,_Trial_,Start,1687377322732,6107f99b4033d300a0879ed9,6107f99b4033d300a0879ed9,7,stack,critical,F,75,stack65.jpg,stack85.jpg,high,NULL
1687377472,0de9e16d81144487944c4846f69bf24b,PennController,11,0,experiment,NULL,PennController,9,_Header_,Start,1687377322732,6107f99b4033d300a0879ed9,6107f99b4033d300a0879ed9,7,stack,critical,F,75,stack65.jpg,stack85.jpg,high,NULL
1687377472,0de9e16d81144487944c4846f69bf24b,PennController,11,0,experiment,NULL,PennController,9,_Header_,End,1687377322732,6107f99b4033d300a0879ed9,6107f99b4033d300a0879ed9,7,stack,critical,F,75,stack65.jpg,stack85.jpg,high,NULL
1687377472,0de9e16d81144487944c4846f69bf24b,PennController,11,0,experiment,NULL,Canvas,canvas6,Print,NA,1687377330423,6107f99b4033d300a0879ed9,6107f99b4033d300a0879ed9,7,stack,critical,F,75,stack65.jpg,stack85.jpg,high,NULL
1687377472,0de9e16d81144487944c4846f69bf24b,PennController,11,0,experiment,NULL,Video,progression,buffer,0.00354,1687377326254,6107f99b4033d300a0879ed9,6107f99b4033d300a0879ed9,7,stack,critical,F,75,stack65.jpg,stack85.jpg,high,NULL
1687377472,0de9e16d81144487944c4846f69bf24b,PennController,11,0,experiment,NULL,Selector,choice,Selection,option2,1687377335611,6107f99b4033d300a0879ed9,6107f99b4033d300a0879ed9,7,stack,critical,F,75,stack65.jpg,stack85.jpg,high,option1;option2
1687377472,0de9e16d81144487944c4846f69bf24b,PennController,11,0,experiment,NULL,PennController,9,_Trial_,End,1687377335612,6107f99b4033d300a0879ed9,6107f99b4033d300a0879ed9,7,stack,critical,F,75,stack65.jpg,stack85.jpg,high,NULL
1687377472,0de9e16d81144487944c4846f69bf24b,PennController,18,0,experiment,NULL,PennController,16,_Trial_,Start,1687377335612,6107f99b4033d300a0879ed9,6107f99b4033d300a0879ed9,14,cover,critical,F,25,cover15.jpg,cover33.jpg,high,NULL
1687377472,0de9e16d81144487944c4846f69bf24b,PennController,18,0,experiment,NULL,PennController,16,_Header_,Start,1687377335612,6107f99b4033d300a0879ed9,6107f99b4033d300a0879ed9,14,cover,critical,F,25,cover15.jpg,cover33.jpg,high,NULL
1687377472,0de9e16d81144487944c4846f69bf24b,PennController,18,0,experiment,NULL,PennController,16,_Header_,End,1687377335613,6107f99b4033d300a0879ed9,6107f99b4033d300a0879ed9,14,cover,critical,F,25,cover15.jpg,cover33.jpg,high,NULL
1687377472,0de9e16d81144487944c4846f69bf24b,PennController,18,0,experiment,NULL,Canvas,canvas6,Print,NA,1687377341890,6107f99b4033d300a0879ed9,6107f99b4033d300a0879ed9,14,cover,critical,F,25,cover15.jpg,cover33.jpg,high,NULL
1687377472,0de9e16d81144487944c4846f69bf24b,PennController,18,0,experiment,NULL,Video,progression,buffer,0.002028,1687377339126,6107f99b4033d300a0879ed9,6107f99b4033d300a0879ed9,14,cover,critical,F,25,cover15.jpg,cover33.jpg,high,NULL
1687377472,0de9e16d81144487944c4846f69bf24b,PennController,18,0,experiment,NULL,Selector,choice,Selection,option2,1687377343729,6107f99b4033d300a0879ed9,6107f99b4033d300a0879ed9,14,cover,critical,F,25,cover15.jpg,cover33.jpg,high,option1;option2
1687377472,0de9e16d81144487944c4846f69bf24b,PennController,18,0,experiment,NULL,PennController,16,_Trial_,End,1687377343730,6107f99b4033d300a0879ed9,6107f99b4033d300a0879ed9,14,cover,critical,F,25,cover15.jpg,cover33.jpg,high,NULL
1687377472,0de9e16d81144487944c4846f69bf24b,PennController,28,0,experiment,NULL,PennController,26,_Trial_,Start,1687377343731,6107f99b4033d300a0879ed9,6107f99b4033d300a0879ed9,24,match,filler,F,50,match40.jpg,match60.jpg,GoalA,NULL
1687377472,0de9e16d81144487944c4846f69bf24b,PennController,28,0,experiment,NULL,PennController,26,_Header_,Start,1687377343731,6107f99b4033d300a0879ed9,6107f99b4033d300a0879ed9,24,match,filler,F,50,match40.jpg,match60.jpg,GoalA,NULL
1687377472,0de9e16d81144487944c4846f69bf24b,PennController,28,0,experiment,NULL,PennController,26,_Header_,End,1687377343731,6107f99b4033d300a0879ed9,6107f99b4033d300a0879ed9,24,match,filler,F,50,match40.jpg,match60.jpg,GoalA,NULL
1687377472,0de9e16d81144487944c4846f69bf24b,PennController,28,0,experiment,NULL,Canvas,canvas6,Print,NA,1687377350405,6107f99b4033d300a0879ed9,6107f99b4033d300a0879ed9,24,match,filler,F,50,match40.jpg,match60.jpg,GoalA,NULL
1687377472,0de9e16d81144487944c4846f69bf24b,PennController,28,0,experiment,NULL,Video,progression,buffer,0.004048,1687377347251,6107f99b4033d300a0879ed9,6107f99b4033d300a0879ed9,24,match,filler,F,50,match40.jpg,match60.jpg,GoalA,NULL
1687377472,0de9e16d81144487944c4846f69bf24b,PennController,28,0,experiment,NULL,Selector,choice,Selection,option2,1687377352189,6107f99b4033d300a0879ed9,6107f99b4033d300a0879ed9,24,match,filler,F,50,match40.jpg,match60.jpg,GoalA,option1;option2
1687377472,0de9e16d81144487944c4846f69bf24b,PennController,28,0,experiment,NULL,PennController,26,_Trial_,End,1687377352190,6107f99b4033d300a0879ed9,6107f99b4033d300a0879ed9,24,match,filler,F,50,match40.jpg,match60.jpg,GoalA,NULL
1687377472,0de9e16d81144487944c4846f69bf24b,PennController,12,0,experiment,NULL,PennController,10,_Trial_,Start,1687377352190,6107f99b4033d300a0879ed9,6107f99b4033d300a0879ed9,8,cucumber,critical,F,25,cucumber15.jpg,cucumber33.jpg,high,NULL
1687377472,0de9e16d81144487944c4846f69bf24b,PennController,12,0,experiment,NULL,PennController,10,_Header_,Start,1687377352190,6107f99b4033d300a0879ed9,6107f99b4033d300a0879ed9,8,cucumber,critical,F,25,cucumber15.jpg,cucumber33.jpg,high,NULL
1687377472,0de9e16d81144487944c4846f69bf24b,PennController,12,0,experiment,NULL,PennController,10,_Header_,End,1687377352190,6107f99b4033d300a0879ed9,6107f99b4033d300a0879ed9,8,cucumber,critical,F,25,cucumber15.jpg,cucumber33.jpg,high,NULL
1687377472,0de9e16d81144487944c4846f69bf24b,PennController,12,0,experiment,NULL,Canvas,canvas6,Print,NA,1687377358472,6107f99b4033d300a0879ed9,6107f99b4033d300a0879ed9,8,cucumber,critical,F,25,cucumber15.jpg,cucumber33.jpg,high,NULL
1687377472,0de9e16d81144487944c4846f69bf24b,PennController,12,0,experiment,NULL,Video,progression,buffer,0.002349,1687377355707,6107f99b4033d300a0879ed9,6107f99b4033d300a0879ed9,8,cucumber,critical,F,25,cucumber15.jpg,cucumber33.jpg,high,NULL
1687377472,0de9e16d81144487944c4846f69bf24b,PennController,12,0,experiment,NULL,Selector,choice,Selection,option2,1687377360151,6107f99b4033d300a0879ed9,6107f99b4033d300a0879ed9,8,cucumber,critical,F,25,cucumber15.jpg,cucumber33.jpg,high,option2;option1
1687377472,0de9e16d81144487944c4846f69bf24b,PennController,12,0,experiment,NULL,PennController,10,_Trial_,End,1687377360152,6107f99b4033d300a0879ed9,6107f99b4033d300a0879ed9,8,cucumber,critical,F,25,cucumber15.jpg,cucumber33.jpg,high,NULL
1687377472,0de9e16d81144487944c4846f69bf24b,PennController,24,0,experiment,NULL,PennController,22,_Trial_,Start,1687377360153,6107f99b4033d300a0879ed9,6107f99b4033d300a0879ed9,20,cat,filler,F,25,cat15.jpg,cat35.jpg,GoalA,NULL
1687377472,0de9e16d81144487944c4846f69bf24b,PennController,24,0,experiment,NULL,PennController,22,_Header_,Start,1687377360153,6107f99b4033d300a0879ed9,6107f99b4033d300a0879ed9,20,cat,filler,F,25,cat15.jpg,cat35.jpg,GoalA,NULL
1687377472,0de9e16d81144487944c4846f69bf24b,PennController,24,0,experiment,NULL,PennController,22,_Header_,End,1687377360153,6107f99b4033d300a0879ed9,6107f99b4033d300a0879ed9,20,cat,filler,F,25,cat15.jpg,cat35.jpg,GoalA,NULL
1687377472,0de9e16d81144487944c4846f69bf24b,PennController,24,0,experiment,NULL,Canvas,canvas6,Print,NA,1687377365822,6107f99b4033d300a0879ed9,6107f99b4033d300a0879ed9,20,cat,filler,F,25,cat15.jpg,cat35.jpg,GoalA,NULL
1687377472,0de9e16d81144487944c4846f69bf24b,PennController,24,0,experiment,NULL,Video,progression,buffer,0.00306,1687377363668,6107f99b4033d300a0879ed9,6107f99b4033d300a0879ed9,20,cat,filler,F,25,cat15.jpg,cat35.jpg,GoalA,NULL
1687377472,0de9e16d81144487944c4846f69bf24b,PennController,24,0,experiment,NULL,Selector,choice,Selection,option2,1687377366942,6107f99b4033d300a0879ed9,6107f99b4033d300a0879ed9,20,cat,filler,F,25,cat15.jpg,cat35.jpg,GoalA,option2;option1
1687377472,0de9e16d81144487944c4846f69bf24b,PennController,24,0,experiment,NULL,PennController,22,_Trial_,End,1687377366943,6107f99b4033d300a0879ed9,6107f99b4033d300a0879ed9,20,cat,filler,F,25,cat15.jpg,cat35.jpg,GoalA,NULL
1687377472,0de9e16d81144487944c4846f69bf24b,PennController,21,0,experiment,NULL,PennController,19,_Trial_,Start,1687377366943,6107f99b4033d300a0879ed9,6107f99b4033d300a0879ed9,17,roll,critical,F,25,roll15.jpg,roll35.jpg,high,NULL
1687377472,0de9e16d81144487944c4846f69bf24b,PennController,21,0,experiment,NULL,PennController,19,_Header_,Start,1687377366943,6107f99b4033d300a0879ed9,6107f99b4033d300a0879ed9,17,roll,critical,F,25,roll15.jpg,roll35.jpg,high,NULL
1687377472,0de9e16d81144487944c4846f69bf24b,PennController,21,0,experiment,NULL,PennController,19,_Header_,End,1687377366943,6107f99b4033d300a0879ed9,6107f99b4033d300a0879ed9,17,roll,critical,F,25,roll15.jpg,roll35.jpg,high,NULL
1687377472,0de9e16d81144487944c4846f69bf24b,PennController,21,0,experiment,NULL,Canvas,canvas6,Print,NA,1687377372624,6107f99b4033d300a0879ed9,6107f99b4033d300a0879ed9,17,roll,critical,F,25,roll15.jpg,roll35.jpg,high,NULL
1687377472,0de9e16d81144487944c4846f69bf24b,PennController,21,0,experiment,NULL,Video,progression,buffer,0.002052,1687377370457,6107f99b4033d300a0879ed9,6107f99b4033d300a0879ed9,17,roll,critical,F,25,roll15.jpg,roll35.jpg,high,NULL
1687377472,0de9e16d81144487944c4846f69bf24b,PennController,21,0,experiment,NULL,Selector,choice,Selection,option2,1687377373631,6107f99b4033d300a0879ed9,6107f99b4033d300a0879ed9,17,roll,critical,F,25,roll15.jpg,roll35.jpg,high,option1;option2
1687377472,0de9e16d81144487944c4846f69bf24b,PennController,21,0,experiment,NULL,PennController,19,_Trial_,End,1687377373632,6107f99b4033d300a0879ed9,6107f99b4033d300a0879ed9,17,roll,critical,F,25,roll15.jpg,roll35.jpg,high,NULL
1687377472,0de9e16d81144487944c4846f69bf24b,PennController,26,0,experiment,NULL,PennController,24,_Trial_,Start,1687377373633,6107f99b4033d300a0879ed9,6107f99b4033d300a0879ed9,22,wall,filler,F,75,wall65.jpg,wall85.jpg,GoalA,NULL
1687377472,0de9e16d81144487944c4846f69bf24b,PennController,26,0,experiment,NULL,PennController,24,_Header_,Start,1687377373633,6107f99b4033d300a0879ed9,6107f99b4033d300a0879ed9,22,wall,filler,F,75,wall65.jpg,wall85.jpg,GoalA,NULL
1687377472,0de9e16d81144487944c4846f69bf24b,PennController,26,0,experiment,NULL,PennController,24,_Header_,End,1687377373633,6107f99b4033d300a0879ed9,6107f99b4033d300a0879ed9,22,wall,filler,F,75,wall65.jpg,wall85.jpg,GoalA,NULL
1687377472,0de9e16d81144487944c4846f69bf24b,PennController,26,0,experiment,NULL,Canvas,canvas6,Print,NA,1687377381327,6107f99b4033d300a0879ed9,6107f99b4033d300a0879ed9,22,wall,filler,F,75,wall65.jpg,wall85.jpg,GoalA,NULL
1687377472,0de9e16d81144487944c4846f69bf24b,PennController,26,0,experiment,NULL,Video,progression,buffer,0.002172,1687377377153,6107f99b4033d300a0879ed9,6107f99b4033d300a0879ed9,22,wall,filler,F,75,wall65.jpg,wall85.jpg,GoalA,NULL
1687377472,0de9e16d81144487944c4846f69bf24b,PennController,26,0,experiment,NULL,Selector,choice,Selection,option1,1687377382947,6107f99b4033d300a0879ed9,6107f99b4033d300a0879ed9,22,wall,filler,F,75,wall65.jpg,wall85.jpg,GoalA,option2;option1
1687377472,0de9e16d81144487944c4846f69bf24b,PennController,26,0,experiment,NULL,PennController,24,_Trial_,End,1687377382948,6107f99b4033d300a0879ed9,6107f99b4033d300a0879ed9,22,wall,filler,F,75,wall65.jpg,wall85.jpg,GoalA,NULL
1687377472,0de9e16d81144487944c4846f69bf24b,PennController,25,0,experiment,NULL,PennController,23,_Trial_,Start,1687377382948,6107f99b4033d300a0879ed9,6107f99b4033d300a0879ed9,21,visit,filler,F,50,visit40.jpg,visit60.jpg,GoalB,NULL
1687377472,0de9e16d81144487944c4846f69bf24b,PennController,25,0,experiment,NULL,PennController,23,_Header_,Start,1687377382948,6107f99b4033d300a0879ed9,6107f99b4033d300a0879ed9,21,visit,filler,F,50,visit40.jpg,visit60.jpg,GoalB,NULL
1687377472,0de9e16d81144487944c4846f69bf24b,PennController,25,0,experiment,NULL,PennController,23,_Header_,End,1687377382948,6107f99b4033d300a0879ed9,6107f99b4033d300a0879ed9,21,visit,filler,F,50,visit40.jpg,visit60.jpg,GoalB,NULL
1687377472,0de9e16d81144487944c4846f69bf24b,PennController,25,0,experiment,NULL,Canvas,canvas6,Print,NA,1687377389644,6107f99b4033d300a0879ed9,6107f99b4033d300a0879ed9,21,visit,filler,F,50,visit40.jpg,visit60.jpg,GoalB,NULL
1687377472,0de9e16d81144487944c4846f69bf24b,PennController,25,0,experiment,NULL,Video,progression,buffer,0.003051,1687377386470,6107f99b4033d300a0879ed9,6107f99b4033d300a0879ed9,21,visit,filler,F,50,visit40.jpg,visit60.jpg,GoalB,NULL
1687377472,0de9e16d81144487944c4846f69bf24b,PennController,25,0,experiment,NULL,Selector,choice,Selection,option2,1687377390834,6107f99b4033d300a0879ed9,6107f99b4033d300a0879ed9,21,visit,filler,F,50,visit40.jpg,visit60.jpg,GoalB,option1;option2
1687377472,0de9e16d81144487944c4846f69bf24b,PennController,25,0,experiment,NULL,PennController,23,_Trial_,End,1687377390834,6107f99b4033d300a0879ed9,6107f99b4033d300a0879ed9,21,visit,filler,F,50,visit40.jpg,visit60.jpg,GoalB,NULL
1687377472,0de9e16d81144487944c4846f69bf24b,PennController,14,0,experiment,NULL,PennController,12,_Trial_,Start,1687377390835,6107f99b4033d300a0879ed9,6107f99b4033d300a0879ed9,10,train,critical,F,75,train65.jpg,train85.jpg,high,NULL
1687377472,0de9e16d81144487944c4846f69bf24b,PennController,14,0,experiment,NULL,PennController,12,_Header_,Start,1687377390835,6107f99b4033d300a0879ed9,6107f99b4033d300a0879ed9,10,train,critical,F,75,train65.jpg,train85.jpg,high,NULL
1687377472,0de9e16d81144487944c4846f69bf24b,PennController,14,0,experiment,NULL,PennController,12,_Header_,End,1687377390835,6107f99b4033d300a0879ed9,6107f99b4033d300a0879ed9,10,train,critical,F,75,train65.jpg,train85.jpg,high,NULL
1687377472,0de9e16d81144487944c4846f69bf24b,PennController,14,0,experiment,NULL,Canvas,canvas6,Print,NA,1687377398511,6107f99b4033d300a0879ed9,6107f99b4033d300a0879ed9,10,train,critical,F,75,train65.jpg,train85.jpg,high,NULL
1687377472,0de9e16d81144487944c4846f69bf24b,PennController,14,0,experiment,NULL,Video,progression,buffer,0.002136,1687377394348,6107f99b4033d300a0879ed9,6107f99b4033d300a0879ed9,10,train,critical,F,75,train65.jpg,train85.jpg,high,NULL
1687377472,0de9e16d81144487944c4846f69bf24b,PennController,14,0,experiment,NULL,Selector,choice,Selection,option2,1687377399889,6107f99b4033d300a0879ed9,6107f99b4033d300a0879ed9,10,train,critical,F,75,train65.jpg,train85.jpg,high,option2;option1
1687377472,0de9e16d81144487944c4846f69bf24b,PennController,14,0,experiment,NULL,PennController,12,_Trial_,End,1687377399890,6107f99b4033d300a0879ed9,6107f99b4033d300a0879ed9,10,train,critical,F,75,train65.jpg,train85.jpg,high,NULL
1687377472,0de9e16d81144487944c4846f69bf24b,PennController,6,0,experiment,NULL,PennController,4,_Trial_,Start,1687377399891,6107f99b4033d300a0879ed9,6107f99b4033d300a0879ed9,2,door,critical,F,25,door15.jpg,door35.jpg,high,NULL
1687377472,0de9e16d81144487944c4846f69bf24b,PennController,6,0,experiment,NULL,PennController,4,_Header_,Start,1687377399891,6107f99b4033d300a0879ed9,6107f99b4033d300a0879ed9,2,door,critical,F,25,door15.jpg,door35.jpg,high,NULL
1687377472,0de9e16d81144487944c4846f69bf24b,PennController,6,0,experiment,NULL,PennController,4,_Header_,End,1687377399891,6107f99b4033d300a0879ed9,6107f99b4033d300a0879ed9,2,door,critical,F,25,door15.jpg,door35.jpg,high,NULL
1687377472,0de9e16d81144487944c4846f69bf24b,PennController,6,0,experiment,NULL,Canvas,canvas6,Print,NA,1687377405578,6107f99b4033d300a0879ed9,6107f99b4033d300a0879ed9,2,door,critical,F,25,door15.jpg,door35.jpg,high,NULL
1687377472,0de9e16d81144487944c4846f69bf24b,PennController,6,0,experiment,NULL,Video,progression,buffer,0.002221,1687377403409,6107f99b4033d300a0879ed9,6107f99b4033d300a0879ed9,2,door,critical,F,25,door15.jpg,door35.jpg,high,NULL
1687377472,0de9e16d81144487944c4846f69bf24b,PennController,6,0,experiment,NULL,Selector,choice,Selection,option2,1687377406804,6107f99b4033d300a0879ed9,6107f99b4033d300a0879ed9,2,door,critical,F,25,door15.jpg,door35.jpg,high,option2;option1
1687377472,0de9e16d81144487944c4846f69bf24b,PennController,6,0,experiment,NULL,PennController,4,_Trial_,End,1687377406805,6107f99b4033d300a0879ed9,6107f99b4033d300a0879ed9,2,door,critical,F,25,door15.jpg,door35.jpg,high,NULL
1687377472,0de9e16d81144487944c4846f69bf24b,PennController,19,0,experiment,NULL,PennController,17,_Trial_,Start,1687377406806,6107f99b4033d300a0879ed9,6107f99b4033d300a0879ed9,15,zip,critical,F,50,zip40.jpg,zip60.jpg,high,NULL
1687377472,0de9e16d81144487944c4846f69bf24b,PennController,19,0,experiment,NULL,PennController,17,_Header_,Start,1687377406806,6107f99b4033d300a0879ed9,6107f99b4033d300a0879ed9,15,zip,critical,F,50,zip40.jpg,zip60.jpg,high,NULL
1687377472,0de9e16d81144487944c4846f69bf24b,PennController,19,0,experiment,NULL,PennController,17,_Header_,End,1687377406806,6107f99b4033d300a0879ed9,6107f99b4033d300a0879ed9,15,zip,critical,F,50,zip40.jpg,zip60.jpg,high,NULL
1687377472,0de9e16d81144487944c4846f69bf24b,PennController,19,0,experiment,NULL,Canvas,canvas6,Print,NA,1687377413491,6107f99b4033d300a0879ed9,6107f99b4033d300a0879ed9,15,zip,critical,F,50,zip40.jpg,zip60.jpg,high,NULL
1687377472,0de9e16d81144487944c4846f69bf24b,PennController,19,0,experiment,NULL,Video,progression,buffer,0.002548,1687377410324,6107f99b4033d300a0879ed9,6107f99b4033d300a0879ed9,15,zip,critical,F,50,zip40.jpg,zip60.jpg,high,NULL
1687377472,0de9e16d81144487944c4846f69bf24b,PennController,19,0,experiment,NULL,Selector,choice,Selection,option1,1687377414864,6107f99b4033d300a0879ed9,6107f99b4033d300a0879ed9,15,zip,critical,F,50,zip40.jpg,zip60.jpg,high,option1;option2
1687377472,0de9e16d81144487944c4846f69bf24b,PennController,19,0,experiment,NULL,PennController,17,_Trial_,End,1687377414865,6107f99b4033d300a0879ed9,6107f99b4033d300a0879ed9,15,zip,critical,F,50,zip40.jpg,zip60.jpg,high,NULL
1687377472,0de9e16d81144487944c4846f69bf24b,PennController,30,0,experiment,NULL,PennController,28,_Trial_,Start,1687377414865,6107f99b4033d300a0879ed9,6107f99b4033d300a0879ed9,26,sandwich,filler,F,25,sandwich15.jpg,sandwich35.jpg,GoalA,NULL
1687377472,0de9e16d81144487944c4846f69bf24b,PennController,30,0,experiment,NULL,PennController,28,_Header_,Start,1687377414865,6107f99b4033d300a0879ed9,6107f99b4033d300a0879ed9,26,sandwich,filler,F,25,sandwich15.jpg,sandwich35.jpg,GoalA,NULL
1687377472,0de9e16d81144487944c4846f69bf24b,PennController,30,0,experiment,NULL,PennController,28,_Header_,End,1687377414866,6107f99b4033d300a0879ed9,6107f99b4033d300a0879ed9,26,sandwich,filler,F,25,sandwich15.jpg,sandwich35.jpg,GoalA,NULL
1687377472,0de9e16d81144487944c4846f69bf24b,PennController,30,0,experiment,NULL,Canvas,canvas6,Print,NA,1687377420542,6107f99b4033d300a0879ed9,6107f99b4033d300a0879ed9,26,sandwich,filler,F,25,sandwich15.jpg,sandwich35.jpg,GoalA,NULL
1687377472,0de9e16d81144487944c4846f69bf24b,PennController,30,0,experiment,NULL,Video,progression,buffer,0.002496,1687377418382,6107f99b4033d300a0879ed9,6107f99b4033d300a0879ed9,26,sandwich,filler,F,25,sandwich15.jpg,sandwich35.jpg,GoalA,NULL
1687377472,0de9e16d81144487944c4846f69bf24b,PennController,30,0,experiment,NULL,Selector,choice,Selection,option1,1687377421772,6107f99b4033d300a0879ed9,6107f99b4033d300a0879ed9,26,sandwich,filler,F,25,sandwich15.jpg,sandwich35.jpg,GoalA,option1;option2
1687377472,0de9e16d81144487944c4846f69bf24b,PennController,30,0,experiment,NULL,PennController,28,_Trial_,End,1687377421773,6107f99b4033d300a0879ed9,6107f99b4033d300a0879ed9,26,sandwich,filler,F,25,sandwich15.jpg,sandwich35.jpg,GoalA,NULL
1687377472,0de9e16d81144487944c4846f69bf24b,PennController,20,0,experiment,NULL,PennController,18,_Trial_,Start,1687377421774,6107f99b4033d300a0879ed9,6107f99b4033d300a0879ed9,16,blinds,critical,F,75,blinds66.jpg,blinds84.jpg,high,NULL
1687377472,0de9e16d81144487944c4846f69bf24b,PennController,20,0,experiment,NULL,PennController,18,_Header_,Start,1687377421774,6107f99b4033d300a0879ed9,6107f99b4033d300a0879ed9,16,blinds,critical,F,75,blinds66.jpg,blinds84.jpg,high,NULL
1687377472,0de9e16d81144487944c4846f69bf24b,PennController,20,0,experiment,NULL,PennController,18,_Header_,End,1687377421774,6107f99b4033d300a0879ed9,6107f99b4033d300a0879ed9,16,blinds,critical,F,75,blinds66.jpg,blinds84.jpg,high,NULL
1687377472,0de9e16d81144487944c4846f69bf24b,PennController,20,0,experiment,NULL,Canvas,canvas6,Print,NA,1687377431460,6107f99b4033d300a0879ed9,6107f99b4033d300a0879ed9,16,blinds,critical,F,75,blinds66.jpg,blinds84.jpg,high,NULL
1687377472,0de9e16d81144487944c4846f69bf24b,PennController,20,0,experiment,NULL,Video,progression,buffer,0.002485,1687377425289,6107f99b4033d300a0879ed9,6107f99b4033d300a0879ed9,16,blinds,critical,F,75,blinds66.jpg,blinds84.jpg,high,NULL
1687377472,0de9e16d81144487944c4846f69bf24b,PennController,20,0,experiment,NULL,Selector,choice,Selection,option2,1687377433150,6107f99b4033d300a0879ed9,6107f99b4033d300a0879ed9,16,blinds,critical,F,75,blinds66.jpg,blinds84.jpg,high,option1;option2
1687377472,0de9e16d81144487944c4846f69bf24b,PennController,20,0,experiment,NULL,PennController,18,_Trial_,End,1687377433152,6107f99b4033d300a0879ed9,6107f99b4033d300a0879ed9,16,blinds,critical,F,75,blinds66.jpg,blinds84.jpg,high,NULL
1687377472,0de9e16d81144487944c4846f69bf24b,PennController,15,0,experiment,NULL,PennController,13,_Trial_,Start,1687377433153,6107f99b4033d300a0879ed9,6107f99b4033d300a0879ed9,11,beads,critical,F,25,beads15.jpg,beads35.jpg,high,NULL
1687377472,0de9e16d81144487944c4846f69bf24b,PennController,15,0,experiment,NULL,PennController,13,_Header_,Start,1687377433153,6107f99b4033d300a0879ed9,6107f99b4033d300a0879ed9,11,beads,critical,F,25,beads15.jpg,beads35.jpg,high,NULL
1687377472,0de9e16d81144487944c4846f69bf24b,PennController,15,0,experiment,NULL,PennController,13,_Header_,End,1687377433153,6107f99b4033d300a0879ed9,6107f99b4033d300a0879ed9,11,beads,critical,F,25,beads15.jpg,beads35.jpg,high,NULL
1687377472,0de9e16d81144487944c4846f69bf24b,PennController,15,0,experiment,NULL,Canvas,canvas6,Print,NA,1687377438842,6107f99b4033d300a0879ed9,6107f99b4033d300a0879ed9,11,beads,critical,F,25,beads15.jpg,beads35.jpg,high,NULL
1687377472,0de9e16d81144487944c4846f69bf24b,PennController,15,0,experiment,NULL,Video,progression,buffer,0.002438,1687377436671,6107f99b4033d300a0879ed9,6107f99b4033d300a0879ed9,11,beads,critical,F,25,beads15.jpg,beads35.jpg,high,NULL
1687377472,0de9e16d81144487944c4846f69bf24b,PennController,15,0,experiment,NULL,Selector,choice,Selection,option1,1687377440653,6107f99b4033d300a0879ed9,6107f99b4033d300a0879ed9,11,beads,critical,F,25,beads15.jpg,beads35.jpg,high,option1;option2
1687377472,0de9e16d81144487944c4846f69bf24b,PennController,15,0,experiment,NULL,PennController,13,_Trial_,End,1687377440654,6107f99b4033d300a0879ed9,6107f99b4033d300a0879ed9,11,beads,critical,F,25,beads15.jpg,beads35.jpg,high,NULL
1687377472,0de9e16d81144487944c4846f69bf24b,PennController,9,0,experiment,NULL,PennController,7,_Trial_,Start,1687377440655,6107f99b4033d300a0879ed9,6107f99b4033d300a0879ed9,5,book,critical,F,25,book15.jpg,book35.jpg,high,NULL
1687377472,0de9e16d81144487944c4846f69bf24b,PennController,9,0,experiment,NULL,PennController,7,_Header_,Start,1687377440655,6107f99b4033d300a0879ed9,6107f99b4033d300a0879ed9,5,book,critical,F,25,book15.jpg,book35.jpg,high,NULL
1687377472,0de9e16d81144487944c4846f69bf24b,PennController,9,0,experiment,NULL,PennController,7,_Header_,End,1687377440655,6107f99b4033d300a0879ed9,6107f99b4033d300a0879ed9,5,book,critical,F,25,book15.jpg,book35.jpg,high,NULL
1687377472,0de9e16d81144487944c4846f69bf24b,PennController,9,0,experiment,NULL,Canvas,canvas6,Print,NA,1687377446340,6107f99b4033d300a0879ed9,6107f99b4033d300a0879ed9,5,book,critical,F,25,book15.jpg,book35.jpg,high,NULL
1687377472,0de9e16d81144487944c4846f69bf24b,PennController,9,0,experiment,NULL,Video,progression,buffer,0.003245,1687377444176,6107f99b4033d300a0879ed9,6107f99b4033d300a0879ed9,5,book,critical,F,25,book15.jpg,book35.jpg,high,NULL
1687377472,0de9e16d81144487944c4846f69bf24b,PennController,9,0,experiment,NULL,Selector,choice,Selection,option1,1687377447930,6107f99b4033d300a0879ed9,6107f99b4033d300a0879ed9,5,book,critical,F,25,book15.jpg,book35.jpg,high,option1;option2
1687377472,0de9e16d81144487944c4846f69bf24b,PennController,9,0,experiment,NULL,PennController,7,_Trial_,End,1687377447930,6107f99b4033d300a0879ed9,6107f99b4033d300a0879ed9,5,book,critical,F,25,book15.jpg,book35.jpg,high,NULL
1687377472,0de9e16d81144487944c4846f69bf24b,PennController,8,0,experiment,NULL,PennController,6,_Trial_,Start,1687377447931,6107f99b4033d300a0879ed9,6107f99b4033d300a0879ed9,4,candy,critical,F,75,candy65.jpg,candy85.jpg,high,NULL
1687377472,0de9e16d81144487944c4846f69bf24b,PennController,8,0,experiment,NULL,PennController,6,_Header_,Start,1687377447931,6107f99b4033d300a0879ed9,6107f99b4033d300a0879ed9,4,candy,critical,F,75,candy65.jpg,candy85.jpg,high,NULL
1687377472,0de9e16d81144487944c4846f69bf24b,PennController,8,0,experiment,NULL,PennController,6,_Header_,End,1687377447931,6107f99b4033d300a0879ed9,6107f99b4033d300a0879ed9,4,candy,critical,F,75,candy65.jpg,candy85.jpg,high,NULL
1687377472,0de9e16d81144487944c4846f69bf24b,PennController,8,0,experiment,NULL,Canvas,canvas6,Print,NA,1687377455607,6107f99b4033d300a0879ed9,6107f99b4033d300a0879ed9,4,candy,critical,F,75,candy65.jpg,candy85.jpg,high,NULL
1687377472,0de9e16d81144487944c4846f69bf24b,PennController,8,0,experiment,NULL,Video,progression,buffer,0.002658,1687377451444,6107f99b4033d300a0879ed9,6107f99b4033d300a0879ed9,4,candy,critical,F,75,candy65.jpg,candy85.jpg,high,NULL
1687377472,0de9e16d81144487944c4846f69bf24b,PennController,8,0,experiment,NULL,Selector,choice,Selection,option1,1687377456888,6107f99b4033d300a0879ed9,6107f99b4033d300a0879ed9,4,candy,critical,F,75,candy65.jpg,candy85.jpg,high,option2;option1
1687377472,0de9e16d81144487944c4846f69bf24b,PennController,8,0,experiment,NULL,PennController,6,_Trial_,End,1687377456889,6107f99b4033d300a0879ed9,6107f99b4033d300a0879ed9,4,candy,critical,F,75,candy65.jpg,candy85.jpg,high,NULL
1687377472,0de9e16d81144487944c4846f69bf24b,PennController,22,0,experiment,NULL,PennController,20,_Trial_,Start,1687377456890,6107f99b4033d300a0879ed9,6107f99b4033d300a0879ed9,18,ball,critical,F,50,ball40.jpg,ball60.jpg,high,NULL
1687377472,0de9e16d81144487944c4846f69bf24b,PennController,22,0,experiment,NULL,PennController,20,_Header_,Start,1687377456890,6107f99b4033d300a0879ed9,6107f99b4033d300a0879ed9,18,ball,critical,F,50,ball40.jpg,ball60.jpg,high,NULL
1687377472,0de9e16d81144487944c4846f69bf24b,PennController,22,0,experiment,NULL,PennController,20,_Header_,End,1687377456890,6107f99b4033d300a0879ed9,6107f99b4033d300a0879ed9,18,ball,critical,F,50,ball40.jpg,ball60.jpg,high,NULL
1687377472,0de9e16d81144487944c4846f69bf24b,PennController,22,0,experiment,NULL,Canvas,canvas6,Print,NA,1687377463562,6107f99b4033d300a0879ed9,6107f99b4033d300a0879ed9,18,ball,critical,F,50,ball40.jpg,ball60.jpg,high,NULL
1687377472,0de9e16d81144487944c4846f69bf24b,PennController,22,0,experiment,NULL,Video,progression,buffer,0.002749,1687377460401,6107f99b4033d300a0879ed9,6107f99b4033d300a0879ed9,18,ball,critical,F,50,ball40.jpg,ball60.jpg,high,NULL
1687377472,0de9e16d81144487944c4846f69bf24b,PennController,22,0,experiment,NULL,Selector,choice,Selection,option2,1687377467236,6107f99b4033d300a0879ed9,6107f99b4033d300a0879ed9,18,ball,critical,F,50,ball40.jpg,ball60.jpg,high,option1;option2
1687377472,0de9e16d81144487944c4846f69bf24b,PennController,22,0,experiment,NULL,PennController,20,_Trial_,End,1687377467237,6107f99b4033d300a0879ed9,6107f99b4033d300a0879ed9,18,ball,critical,F,50,ball40.jpg,ball60.jpg,high,NULL
1687377472,0de9e16d81144487944c4846f69bf24b,PennController,13,0,experiment,NULL,PennController,11,_Trial_,Start,1687377467238,6107f99b4033d300a0879ed9,6107f99b4033d300a0879ed9,9,cake,critical,F,50,cake42.jpg,cake60.jpg,high,NULL
1687377472,0de9e16d81144487944c4846f69bf24b,PennController,13,0,experiment,NULL,PennController,11,_Header_,Start,1687377467238,6107f99b4033d300a0879ed9,6107f99b4033d300a0879ed9,9,cake,critical,F,50,cake42.jpg,cake60.jpg,high,NULL
1687377472,0de9e16d81144487944c4846f69bf24b,PennController,13,0,experiment,NULL,PennController,11,_Header_,End,1687377467238,6107f99b4033d300a0879ed9,6107f99b4033d300a0879ed9,9,cake,critical,F,50,cake42.jpg,cake60.jpg,high,NULL
1687377472,0de9e16d81144487944c4846f69bf24b,PennController,13,0,experiment,NULL,Canvas,canvas6,Print,NA,1687377475330,6107f99b4033d300a0879ed9,6107f99b4033d300a0879ed9,9,cake,critical,F,50,cake42.jpg,cake60.jpg,high,NULL
1687377472,0de9e16d81144487944c4846f69bf24b,PennController,13,0,experiment,NULL,Video,progression,buffer,0.002319,1687377470754,6107f99b4033d300a0879ed9,6107f99b4033d300a0879ed9,9,cake,critical,F,50,cake42.jpg,cake60.jpg,high,NULL
1687377472,0de9e16d81144487944c4846f69bf24b,PennController,13,0,experiment,NULL,Selector,choice,Selection,option2,1687377476434,6107f99b4033d300a0879ed9,6107f99b4033d300a0879ed9,9,cake,critical,F,50,cake42.jpg,cake60.jpg,high,option2;option1
1687377472,0de9e16d81144487944c4846f69bf24b,PennController,13,0,experiment,NULL,PennController,11,_Trial_,End,1687377476434,6107f99b4033d300a0879ed9,6107f99b4033d300a0879ed9,9,cake,critical,F,50,cake42.jpg,cake60.jpg,high,NULL
1687377472,0de9e16d81144487944c4846f69bf24b,PennController,33,0,experiment,NULL,PennController,31,_Trial_,Start,1687377476435,6107f99b4033d300a0879ed9,6107f99b4033d300a0879ed9,29,frog,filler,F,25,frog15.jpg,frog35.jpg,GoalB,NULL
1687377472,0de9e16d81144487944c4846f69bf24b,PennController,33,0,experiment,NULL,PennController,31,_Header_,Start,1687377476435,6107f99b4033d300a0879ed9,6107f99b4033d300a0879ed9,29,frog,filler,F,25,frog15.jpg,frog35.jpg,GoalB,NULL
1687377472,0de9e16d81144487944c4846f69bf24b,PennController,33,0,experiment,NULL,PennController,31,_Header_,End,1687377476435,6107f99b4033d300a0879ed9,6107f99b4033d300a0879ed9,29,frog,filler,F,25,frog15.jpg,frog35.jpg,GoalB,NULL
1687377472,0de9e16d81144487944c4846f69bf24b,PennController,33,0,experiment,NULL,Canvas,canvas6,Print,NA,1687377482108,6107f99b4033d300a0879ed9,6107f99b4033d300a0879ed9,29,frog,filler,F,25,frog15.jpg,frog35.jpg,GoalB,NULL
1687377472,0de9e16d81144487944c4846f69bf24b,PennController,33,0,experiment,NULL,Video,progression,buffer,0.003364,1687377479951,6107f99b4033d300a0879ed9,6107f99b4033d300a0879ed9,29,frog,filler,F,25,frog15.jpg,frog35.jpg,GoalB,NULL
1687377472,0de9e16d81144487944c4846f69bf24b,PennController,33,0,experiment,NULL,Selector,choice,Selection,option2,1687377483189,6107f99b4033d300a0879ed9,6107f99b4033d300a0879ed9,29,frog,filler,F,25,frog15.jpg,frog35.jpg,GoalB,option1;option2
1687377472,0de9e16d81144487944c4846f69bf24b,PennController,33,0,experiment,NULL,PennController,31,_Trial_,End,1687377483190,6107f99b4033d300a0879ed9,6107f99b4033d300a0879ed9,29,frog,filler,F,25,frog15.jpg,frog35.jpg,GoalB,NULL
