#
# Results on Tuesday June 20 2023 18:55:39 UTC
# USER AGENT: Mozilla/5.0 (Windows NT 10.0; Win64; x64) AppleWebKit/537.36 (KHTML, like Gecko) Chrome/114.0.0.0 Safari/537.36
# Design number was non-random = 3
#
# Columns below this comment are as follows:
# 1. Results reception time.
# 2. MD5 hash of participant's IP address.
# 3. Controller name.
# 4. Order number of item.
# 5. Inner element number.
# 6. Label.
# 7. Latin Square Group.
# 8. PennElementType.
# 9. PennElementName.
# 10. Parameter.
# 11. Value.
# 12. EventTime.
# 13. PROLIFIC_ID.
# 14. Comments.
1687287339,11290cbe22cfaedc410acace914937bb,PennController,2,0,consent,NULL,PennController,0,_Trial_,Start,1687286999695,5d2216762a191b0018d53eb7,NULL
1687287339,11290cbe22cfaedc410acace914937bb,PennController,2,0,consent,NULL,PennController,0,_Header_,Start,1687286999695,5d2216762a191b0018d53eb7,NULL
1687287339,11290cbe22cfaedc410acace914937bb,PennController,2,0,consent,NULL,PennController,0,_Header_,End,1687286999696,5d2216762a191b0018d53eb7,NULL
1687287339,11290cbe22cfaedc410acace914937bb,PennController,2,0,consent,NULL,PennController,0,_Trial_,End,1687287013882,5d2216762a191b0018d53eb7,NULL
# Columns below this comment are as follows:
# 14. ID.
# 15. Comments.
1687287339,11290cbe22cfaedc410acace914937bb,PennController,3,0,intro,NULL,PennController,1,_Trial_,Start,1687287013885,5d2216762a191b0018d53eb7,5d2216762a191b0018d53eb7,NULL
1687287339,11290cbe22cfaedc410acace914937bb,PennController,3,0,intro,NULL,PennController,1,_Header_,Start,1687287013885,5d2216762a191b0018d53eb7,5d2216762a191b0018d53eb7,NULL
1687287339,11290cbe22cfaedc410acace914937bb,PennController,3,0,intro,NULL,PennController,1,_Header_,End,1687287013885,5d2216762a191b0018d53eb7,5d2216762a191b0018d53eb7,NULL
1687287339,11290cbe22cfaedc410acace914937bb,PennController,3,0,intro,NULL,PennController,1,_Trial_,End,1687287027185,5d2216762a191b0018d53eb7,5d2216762a191b0018d53eb7,NULL
# Columns below this comment are as follows:
# 15. item_number.
# 16. item.
# 17. type.
# 18. Group.
# 19. prog.
# 20. prev_image.
# 21. next_image.
# 22. height.
# 23. Comments.
1687287339,11290cbe22cfaedc410acace914937bb,PennController,23,0,experiment,NULL,PennController,22,_Trial_,Start,1687287027187,5d2216762a191b0018d53eb7,5d2216762a191b0018d53eb7,20,cat,filler,D,50,cat40.jpg,cat60.jpg,GoalA,NULL
1687287339,11290cbe22cfaedc410acace914937bb,PennController,23,0,experiment,NULL,PennController,22,_Header_,Start,1687287027187,5d2216762a191b0018d53eb7,5d2216762a191b0018d53eb7,20,cat,filler,D,50,cat40.jpg,cat60.jpg,GoalA,NULL
1687287339,11290cbe22cfaedc410acace914937bb,PennController,23,0,experiment,NULL,PennController,22,_Header_,End,1687287027187,5d2216762a191b0018d53eb7,5d2216762a191b0018d53eb7,20,cat,filler,D,50,cat40.jpg,cat60.jpg,GoalA,NULL
1687287339,11290cbe22cfaedc410acace914937bb,PennController,23,0,experiment,NULL,Canvas,canvas6,Print,NA,1687287033889,5d2216762a191b0018d53eb7,5d2216762a191b0018d53eb7,20,cat,filler,D,50,cat40.jpg,cat60.jpg,GoalA,NULL
1687287339,11290cbe22cfaedc410acace914937bb,PennController,23,0,experiment,NULL,Video,progression,buffer,0.004449,1687287030721,5d2216762a191b0018d53eb7,5d2216762a191b0018d53eb7,20,cat,filler,D,50,cat40.jpg,cat60.jpg,GoalA,NULL
1687287339,11290cbe22cfaedc410acace914937bb,PennController,23,0,experiment,NULL,Selector,choice,Selection,option2,1687287039731,5d2216762a191b0018d53eb7,5d2216762a191b0018d53eb7,20,cat,filler,D,50,cat40.jpg,cat60.jpg,GoalA,option1;option2
1687287339,11290cbe22cfaedc410acace914937bb,PennController,23,0,experiment,NULL,PennController,22,_Trial_,End,1687287039733,5d2216762a191b0018d53eb7,5d2216762a191b0018d53eb7,20,cat,filler,D,50,cat40.jpg,cat60.jpg,GoalA,NULL
1687287339,11290cbe22cfaedc410acace914937bb,PennController,17,0,experiment,NULL,PennController,16,_Trial_,Start,1687287039734,5d2216762a191b0018d53eb7,5d2216762a191b0018d53eb7,14,cover,critical,D,50,cover42.jpg,cover60.jpg,high,NULL
1687287339,11290cbe22cfaedc410acace914937bb,PennController,17,0,experiment,NULL,PennController,16,_Header_,Start,1687287039734,5d2216762a191b0018d53eb7,5d2216762a191b0018d53eb7,14,cover,critical,D,50,cover42.jpg,cover60.jpg,high,NULL
1687287339,11290cbe22cfaedc410acace914937bb,PennController,17,0,experiment,NULL,PennController,16,_Header_,End,1687287039735,5d2216762a191b0018d53eb7,5d2216762a191b0018d53eb7,14,cover,critical,D,50,cover42.jpg,cover60.jpg,high,NULL
1687287339,11290cbe22cfaedc410acace914937bb,PennController,17,0,experiment,NULL,Canvas,canvas6,Print,NA,1687287047826,5d2216762a191b0018d53eb7,5d2216762a191b0018d53eb7,14,cover,critical,D,50,cover42.jpg,cover60.jpg,high,NULL
1687287339,11290cbe22cfaedc410acace914937bb,PennController,17,0,experiment,NULL,Video,progression,buffer,0.002419,1687287043259,5d2216762a191b0018d53eb7,5d2216762a191b0018d53eb7,14,cover,critical,D,50,cover42.jpg,cover60.jpg,high,NULL
1687287339,11290cbe22cfaedc410acace914937bb,PennController,17,0,experiment,NULL,Selector,choice,Selection,option1,1687287051474,5d2216762a191b0018d53eb7,5d2216762a191b0018d53eb7,14,cover,critical,D,50,cover42.jpg,cover60.jpg,high,option1;option2
1687287339,11290cbe22cfaedc410acace914937bb,PennController,17,0,experiment,NULL,PennController,16,_Trial_,End,1687287051476,5d2216762a191b0018d53eb7,5d2216762a191b0018d53eb7,14,cover,critical,D,50,cover42.jpg,cover60.jpg,high,NULL
1687287339,11290cbe22cfaedc410acace914937bb,PennController,18,0,experiment,NULL,PennController,17,_Trial_,Start,1687287051477,5d2216762a191b0018d53eb7,5d2216762a191b0018d53eb7,15,zip,critical,D,75,zip65.jpg,zip85.jpg,high,NULL
1687287339,11290cbe22cfaedc410acace914937bb,PennController,18,0,experiment,NULL,PennController,17,_Header_,Start,1687287051477,5d2216762a191b0018d53eb7,5d2216762a191b0018d53eb7,15,zip,critical,D,75,zip65.jpg,zip85.jpg,high,NULL
1687287339,11290cbe22cfaedc410acace914937bb,PennController,18,0,experiment,NULL,PennController,17,_Header_,End,1687287051477,5d2216762a191b0018d53eb7,5d2216762a191b0018d53eb7,15,zip,critical,D,75,zip65.jpg,zip85.jpg,high,NULL
1687287339,11290cbe22cfaedc410acace914937bb,PennController,18,0,experiment,NULL,Canvas,canvas6,Print,NA,1687287058361,5d2216762a191b0018d53eb7,5d2216762a191b0018d53eb7,15,zip,critical,D,75,zip65.jpg,zip85.jpg,high,NULL
1687287339,11290cbe22cfaedc410acace914937bb,PennController,18,0,experiment,NULL,Video,progression,buffer,0.002547,1687287054997,5d2216762a191b0018d53eb7,5d2216762a191b0018d53eb7,15,zip,critical,D,75,zip65.jpg,zip85.jpg,high,NULL
1687287339,11290cbe22cfaedc410acace914937bb,PennController,18,0,experiment,NULL,Selector,choice,Selection,option1,1687287064241,5d2216762a191b0018d53eb7,5d2216762a191b0018d53eb7,15,zip,critical,D,75,zip65.jpg,zip85.jpg,high,option1;option2
1687287339,11290cbe22cfaedc410acace914937bb,PennController,18,0,experiment,NULL,PennController,17,_Trial_,End,1687287064242,5d2216762a191b0018d53eb7,5d2216762a191b0018d53eb7,15,zip,critical,D,75,zip65.jpg,zip85.jpg,high,NULL
1687287339,11290cbe22cfaedc410acace914937bb,PennController,4,0,experiment,NULL,PennController,3,_Trial_,Start,1687287064244,5d2216762a191b0018d53eb7,5d2216762a191b0018d53eb7,1,vase,critical,D,25,vase15.jpg,vase35.jpg,high,NULL
1687287339,11290cbe22cfaedc410acace914937bb,PennController,4,0,experiment,NULL,PennController,3,_Header_,Start,1687287064244,5d2216762a191b0018d53eb7,5d2216762a191b0018d53eb7,1,vase,critical,D,25,vase15.jpg,vase35.jpg,high,NULL
1687287339,11290cbe22cfaedc410acace914937bb,PennController,4,0,experiment,NULL,PennController,3,_Header_,End,1687287064244,5d2216762a191b0018d53eb7,5d2216762a191b0018d53eb7,1,vase,critical,D,25,vase15.jpg,vase35.jpg,high,NULL
1687287339,11290cbe22cfaedc410acace914937bb,PennController,4,0,experiment,NULL,Canvas,canvas6,Print,NA,1687287069935,5d2216762a191b0018d53eb7,5d2216762a191b0018d53eb7,1,vase,critical,D,25,vase15.jpg,vase35.jpg,high,NULL
1687287339,11290cbe22cfaedc410acace914937bb,PennController,4,0,experiment,NULL,Video,progression,buffer,0.002606,1687287067766,5d2216762a191b0018d53eb7,5d2216762a191b0018d53eb7,1,vase,critical,D,25,vase15.jpg,vase35.jpg,high,NULL
1687287339,11290cbe22cfaedc410acace914937bb,PennController,4,0,experiment,NULL,Selector,choice,Selection,option1,1687287074566,5d2216762a191b0018d53eb7,5d2216762a191b0018d53eb7,1,vase,critical,D,25,vase15.jpg,vase35.jpg,high,option1;option2
1687287339,11290cbe22cfaedc410acace914937bb,PennController,4,0,experiment,NULL,PennController,3,_Trial_,End,1687287074568,5d2216762a191b0018d53eb7,5d2216762a191b0018d53eb7,1,vase,critical,D,25,vase15.jpg,vase35.jpg,high,NULL
1687287339,11290cbe22cfaedc410acace914937bb,PennController,22,0,experiment,NULL,PennController,21,_Trial_,Start,1687287074569,5d2216762a191b0018d53eb7,5d2216762a191b0018d53eb7,19,cup,filler,D,25,cup15.jpg,cup35.jpg,GoalB,NULL
1687287339,11290cbe22cfaedc410acace914937bb,PennController,22,0,experiment,NULL,PennController,21,_Header_,Start,1687287074569,5d2216762a191b0018d53eb7,5d2216762a191b0018d53eb7,19,cup,filler,D,25,cup15.jpg,cup35.jpg,GoalB,NULL
1687287339,11290cbe22cfaedc410acace914937bb,PennController,22,0,experiment,NULL,PennController,21,_Header_,End,1687287074569,5d2216762a191b0018d53eb7,5d2216762a191b0018d53eb7,19,cup,filler,D,25,cup15.jpg,cup35.jpg,GoalB,NULL
1687287339,11290cbe22cfaedc410acace914937bb,PennController,22,0,experiment,NULL,Canvas,canvas6,Print,NA,1687287080252,5d2216762a191b0018d53eb7,5d2216762a191b0018d53eb7,19,cup,filler,D,25,cup15.jpg,cup35.jpg,GoalB,NULL
1687287339,11290cbe22cfaedc410acace914937bb,PennController,22,0,experiment,NULL,Video,progression,buffer,0.002624,1687287078089,5d2216762a191b0018d53eb7,5d2216762a191b0018d53eb7,19,cup,filler,D,25,cup15.jpg,cup35.jpg,GoalB,NULL
1687287339,11290cbe22cfaedc410acace914937bb,PennController,22,0,experiment,NULL,Selector,choice,Selection,option1,1687287089413,5d2216762a191b0018d53eb7,5d2216762a191b0018d53eb7,19,cup,filler,D,25,cup15.jpg,cup35.jpg,GoalB,option2;option1
1687287339,11290cbe22cfaedc410acace914937bb,PennController,22,0,experiment,NULL,PennController,21,_Trial_,End,1687287089416,5d2216762a191b0018d53eb7,5d2216762a191b0018d53eb7,19,cup,filler,D,25,cup15.jpg,cup35.jpg,GoalB,NULL
1687287339,11290cbe22cfaedc410acace914937bb,PennController,9,0,experiment,NULL,PennController,8,_Trial_,Start,1687287089417,5d2216762a191b0018d53eb7,5d2216762a191b0018d53eb7,6,flower,critical,D,75,flower65.jpg,flower85.jpg,high,NULL
1687287339,11290cbe22cfaedc410acace914937bb,PennController,9,0,experiment,NULL,PennController,8,_Header_,Start,1687287089417,5d2216762a191b0018d53eb7,5d2216762a191b0018d53eb7,6,flower,critical,D,75,flower65.jpg,flower85.jpg,high,NULL
1687287339,11290cbe22cfaedc410acace914937bb,PennController,9,0,experiment,NULL,PennController,8,_Header_,End,1687287089417,5d2216762a191b0018d53eb7,5d2216762a191b0018d53eb7,6,flower,critical,D,75,flower65.jpg,flower85.jpg,high,NULL
1687287339,11290cbe22cfaedc410acace914937bb,PennController,9,0,experiment,NULL,Canvas,canvas6,Print,NA,1687287097109,5d2216762a191b0018d53eb7,5d2216762a191b0018d53eb7,6,flower,critical,D,75,flower65.jpg,flower85.jpg,high,NULL
1687287339,11290cbe22cfaedc410acace914937bb,PennController,9,0,experiment,NULL,Video,progression,buffer,0.003997,1687287092941,5d2216762a191b0018d53eb7,5d2216762a191b0018d53eb7,6,flower,critical,D,75,flower65.jpg,flower85.jpg,high,NULL
1687287339,11290cbe22cfaedc410acace914937bb,PennController,9,0,experiment,NULL,Selector,choice,Selection,option1,1687287100324,5d2216762a191b0018d53eb7,5d2216762a191b0018d53eb7,6,flower,critical,D,75,flower65.jpg,flower85.jpg,high,option1;option2
1687287339,11290cbe22cfaedc410acace914937bb,PennController,9,0,experiment,NULL,PennController,8,_Trial_,End,1687287100325,5d2216762a191b0018d53eb7,5d2216762a191b0018d53eb7,6,flower,critical,D,75,flower65.jpg,flower85.jpg,high,NULL
1687287339,11290cbe22cfaedc410acace914937bb,PennController,5,0,experiment,NULL,PennController,4,_Trial_,Start,1687287100326,5d2216762a191b0018d53eb7,5d2216762a191b0018d53eb7,2,door,critical,D,50,door40.jpg,door60.jpg,high,NULL
1687287339,11290cbe22cfaedc410acace914937bb,PennController,5,0,experiment,NULL,PennController,4,_Header_,Start,1687287100326,5d2216762a191b0018d53eb7,5d2216762a191b0018d53eb7,2,door,critical,D,50,door40.jpg,door60.jpg,high,NULL
1687287339,11290cbe22cfaedc410acace914937bb,PennController,5,0,experiment,NULL,PennController,4,_Header_,End,1687287100326,5d2216762a191b0018d53eb7,5d2216762a191b0018d53eb7,2,door,critical,D,50,door40.jpg,door60.jpg,high,NULL
1687287339,11290cbe22cfaedc410acace914937bb,PennController,5,0,experiment,NULL,Canvas,canvas6,Print,NA,1687287107013,5d2216762a191b0018d53eb7,5d2216762a191b0018d53eb7,2,door,critical,D,50,door40.jpg,door60.jpg,high,NULL
1687287339,11290cbe22cfaedc410acace914937bb,PennController,5,0,experiment,NULL,Video,progression,buffer,0.002279,1687287103847,5d2216762a191b0018d53eb7,5d2216762a191b0018d53eb7,2,door,critical,D,50,door40.jpg,door60.jpg,high,NULL
1687287339,11290cbe22cfaedc410acace914937bb,PennController,5,0,experiment,NULL,Selector,choice,Selection,option2,1687287110859,5d2216762a191b0018d53eb7,5d2216762a191b0018d53eb7,2,door,critical,D,50,door40.jpg,door60.jpg,high,option1;option2
1687287339,11290cbe22cfaedc410acace914937bb,PennController,5,0,experiment,NULL,PennController,4,_Trial_,End,1687287110860,5d2216762a191b0018d53eb7,5d2216762a191b0018d53eb7,2,door,critical,D,50,door40.jpg,door60.jpg,high,NULL
1687287339,11290cbe22cfaedc410acace914937bb,PennController,21,0,experiment,NULL,PennController,20,_Trial_,Start,1687287110862,5d2216762a191b0018d53eb7,5d2216762a191b0018d53eb7,18,ball,critical,D,75,ball65.jpg,ball85.jpg,high,NULL
1687287339,11290cbe22cfaedc410acace914937bb,PennController,21,0,experiment,NULL,PennController,20,_Header_,Start,1687287110862,5d2216762a191b0018d53eb7,5d2216762a191b0018d53eb7,18,ball,critical,D,75,ball65.jpg,ball85.jpg,high,NULL
1687287339,11290cbe22cfaedc410acace914937bb,PennController,21,0,experiment,NULL,PennController,20,_Header_,End,1687287110862,5d2216762a191b0018d53eb7,5d2216762a191b0018d53eb7,18,ball,critical,D,75,ball65.jpg,ball85.jpg,high,NULL
1687287339,11290cbe22cfaedc410acace914937bb,PennController,21,0,experiment,NULL,Canvas,canvas6,Print,NA,1687287118550,5d2216762a191b0018d53eb7,5d2216762a191b0018d53eb7,18,ball,critical,D,75,ball65.jpg,ball85.jpg,high,NULL
1687287339,11290cbe22cfaedc410acace914937bb,PennController,21,0,experiment,NULL,Video,progression,buffer,0.0036,1687287114387,5d2216762a191b0018d53eb7,5d2216762a191b0018d53eb7,18,ball,critical,D,75,ball65.jpg,ball85.jpg,high,NULL
1687287339,11290cbe22cfaedc410acace914937bb,PennController,21,0,experiment,NULL,Selector,choice,Selection,option1,1687287121472,5d2216762a191b0018d53eb7,5d2216762a191b0018d53eb7,18,ball,critical,D,75,ball65.jpg,ball85.jpg,high,option2;option1
1687287339,11290cbe22cfaedc410acace914937bb,PennController,21,0,experiment,NULL,PennController,20,_Trial_,End,1687287121474,5d2216762a191b0018d53eb7,5d2216762a191b0018d53eb7,18,ball,critical,D,75,ball65.jpg,ball85.jpg,high,NULL
1687287339,11290cbe22cfaedc410acace914937bb,PennController,15,0,experiment,NULL,PennController,14,_Trial_,Start,1687287121475,5d2216762a191b0018d53eb7,5d2216762a191b0018d53eb7,12,erase,critical,D,75,erase66.jpg,erase84.jpg,high,NULL
1687287339,11290cbe22cfaedc410acace914937bb,PennController,15,0,experiment,NULL,PennController,14,_Header_,Start,1687287121475,5d2216762a191b0018d53eb7,5d2216762a191b0018d53eb7,12,erase,critical,D,75,erase66.jpg,erase84.jpg,high,NULL
1687287339,11290cbe22cfaedc410acace914937bb,PennController,15,0,experiment,NULL,PennController,14,_Header_,End,1687287121475,5d2216762a191b0018d53eb7,5d2216762a191b0018d53eb7,12,erase,critical,D,75,erase66.jpg,erase84.jpg,high,NULL
1687287339,11290cbe22cfaedc410acace914937bb,PennController,15,0,experiment,NULL,Canvas,canvas6,Print,NA,1687287131155,5d2216762a191b0018d53eb7,5d2216762a191b0018d53eb7,12,erase,critical,D,75,erase66.jpg,erase84.jpg,high,NULL
1687287339,11290cbe22cfaedc410acace914937bb,PennController,15,0,experiment,NULL,Video,progression,buffer,0.002491,1687287124992,5d2216762a191b0018d53eb7,5d2216762a191b0018d53eb7,12,erase,critical,D,75,erase66.jpg,erase84.jpg,high,NULL
1687287339,11290cbe22cfaedc410acace914937bb,PennController,15,0,experiment,NULL,Selector,choice,Selection,option1,1687287136846,5d2216762a191b0018d53eb7,5d2216762a191b0018d53eb7,12,erase,critical,D,75,erase66.jpg,erase84.jpg,high,option1;option2
1687287339,11290cbe22cfaedc410acace914937bb,PennController,15,0,experiment,NULL,PennController,14,_Trial_,End,1687287136847,5d2216762a191b0018d53eb7,5d2216762a191b0018d53eb7,12,erase,critical,D,75,erase66.jpg,erase84.jpg,high,NULL
1687287339,11290cbe22cfaedc410acace914937bb,PennController,8,0,experiment,NULL,PennController,7,_Trial_,Start,1687287136848,5d2216762a191b0018d53eb7,5d2216762a191b0018d53eb7,5,book,critical,D,50,book40.jpg,book60.jpg,high,NULL
1687287339,11290cbe22cfaedc410acace914937bb,PennController,8,0,experiment,NULL,PennController,7,_Header_,Start,1687287136848,5d2216762a191b0018d53eb7,5d2216762a191b0018d53eb7,5,book,critical,D,50,book40.jpg,book60.jpg,high,NULL
1687287339,11290cbe22cfaedc410acace914937bb,PennController,8,0,experiment,NULL,PennController,7,_Header_,End,1687287136848,5d2216762a191b0018d53eb7,5d2216762a191b0018d53eb7,5,book,critical,D,50,book40.jpg,book60.jpg,high,NULL
1687287339,11290cbe22cfaedc410acace914937bb,PennController,8,0,experiment,NULL,Canvas,canvas6,Print,NA,1687287143529,5d2216762a191b0018d53eb7,5d2216762a191b0018d53eb7,5,book,critical,D,50,book40.jpg,book60.jpg,high,NULL
1687287339,11290cbe22cfaedc410acace914937bb,PennController,8,0,experiment,NULL,Video,progression,buffer,0.002648,1687287140365,5d2216762a191b0018d53eb7,5d2216762a191b0018d53eb7,5,book,critical,D,50,book40.jpg,book60.jpg,high,NULL
1687287339,11290cbe22cfaedc410acace914937bb,PennController,8,0,experiment,NULL,Selector,choice,Selection,option2,1687287146417,5d2216762a191b0018d53eb7,5d2216762a191b0018d53eb7,5,book,critical,D,50,book40.jpg,book60.jpg,high,option1;option2
1687287339,11290cbe22cfaedc410acace914937bb,PennController,8,0,experiment,NULL,PennController,7,_Trial_,End,1687287146418,5d2216762a191b0018d53eb7,5d2216762a191b0018d53eb7,5,book,critical,D,50,book40.jpg,book60.jpg,high,NULL
1687287339,11290cbe22cfaedc410acace914937bb,PennController,24,0,experiment,NULL,PennController,23,_Trial_,Start,1687287146419,5d2216762a191b0018d53eb7,5d2216762a191b0018d53eb7,21,visit,filler,D,75,visit65.jpg,visit85.jpg,GoalB,NULL
1687287339,11290cbe22cfaedc410acace914937bb,PennController,24,0,experiment,NULL,PennController,23,_Header_,Start,1687287146419,5d2216762a191b0018d53eb7,5d2216762a191b0018d53eb7,21,visit,filler,D,75,visit65.jpg,visit85.jpg,GoalB,NULL
1687287339,11290cbe22cfaedc410acace914937bb,PennController,24,0,experiment,NULL,PennController,23,_Header_,End,1687287146420,5d2216762a191b0018d53eb7,5d2216762a191b0018d53eb7,21,visit,filler,D,75,visit65.jpg,visit85.jpg,GoalB,NULL
1687287339,11290cbe22cfaedc410acace914937bb,PennController,24,0,experiment,NULL,Canvas,canvas6,Print,NA,1687287154100,5d2216762a191b0018d53eb7,5d2216762a191b0018d53eb7,21,visit,filler,D,75,visit65.jpg,visit85.jpg,GoalB,NULL
1687287339,11290cbe22cfaedc410acace914937bb,PennController,24,0,experiment,NULL,Video,progression,buffer,0.002346,1687287149937,5d2216762a191b0018d53eb7,5d2216762a191b0018d53eb7,21,visit,filler,D,75,visit65.jpg,visit85.jpg,GoalB,NULL
1687287339,11290cbe22cfaedc410acace914937bb,PennController,24,0,experiment,NULL,Selector,choice,Selection,option2,1687287156075,5d2216762a191b0018d53eb7,5d2216762a191b0018d53eb7,21,visit,filler,D,75,visit65.jpg,visit85.jpg,GoalB,option2;option1
1687287339,11290cbe22cfaedc410acace914937bb,PennController,24,0,experiment,NULL,PennController,23,_Trial_,End,1687287156077,5d2216762a191b0018d53eb7,5d2216762a191b0018d53eb7,21,visit,filler,D,75,visit65.jpg,visit85.jpg,GoalB,NULL
1687287339,11290cbe22cfaedc410acace914937bb,PennController,13,0,experiment,NULL,PennController,12,_Trial_,Start,1687287156078,5d2216762a191b0018d53eb7,5d2216762a191b0018d53eb7,10,train,critical,D,25,train15.jpg,train35.jpg,high,NULL
1687287339,11290cbe22cfaedc410acace914937bb,PennController,13,0,experiment,NULL,PennController,12,_Header_,Start,1687287156078,5d2216762a191b0018d53eb7,5d2216762a191b0018d53eb7,10,train,critical,D,25,train15.jpg,train35.jpg,high,NULL
1687287339,11290cbe22cfaedc410acace914937bb,PennController,13,0,experiment,NULL,PennController,12,_Header_,End,1687287156078,5d2216762a191b0018d53eb7,5d2216762a191b0018d53eb7,10,train,critical,D,25,train15.jpg,train35.jpg,high,NULL
1687287339,11290cbe22cfaedc410acace914937bb,PennController,13,0,experiment,NULL,Canvas,canvas6,Print,NA,1687287161766,5d2216762a191b0018d53eb7,5d2216762a191b0018d53eb7,10,train,critical,D,25,train15.jpg,train35.jpg,high,NULL
1687287339,11290cbe22cfaedc410acace914937bb,PennController,13,0,experiment,NULL,Video,progression,buffer,0.004083,1687287159596,5d2216762a191b0018d53eb7,5d2216762a191b0018d53eb7,10,train,critical,D,25,train15.jpg,train35.jpg,high,NULL
1687287339,11290cbe22cfaedc410acace914937bb,PennController,13,0,experiment,NULL,Selector,choice,Selection,option1,1687287163679,5d2216762a191b0018d53eb7,5d2216762a191b0018d53eb7,10,train,critical,D,25,train15.jpg,train35.jpg,high,option2;option1
1687287339,11290cbe22cfaedc410acace914937bb,PennController,13,0,experiment,NULL,PennController,12,_Trial_,End,1687287163680,5d2216762a191b0018d53eb7,5d2216762a191b0018d53eb7,10,train,critical,D,25,train15.jpg,train35.jpg,high,NULL
1687287339,11290cbe22cfaedc410acace914937bb,PennController,27,0,experiment,NULL,PennController,26,_Trial_,Start,1687287163681,5d2216762a191b0018d53eb7,5d2216762a191b0018d53eb7,24,match,filler,D,75,match65.jpg,match85.jpg,GoalA,NULL
1687287339,11290cbe22cfaedc410acace914937bb,PennController,27,0,experiment,NULL,PennController,26,_Header_,Start,1687287163681,5d2216762a191b0018d53eb7,5d2216762a191b0018d53eb7,24,match,filler,D,75,match65.jpg,match85.jpg,GoalA,NULL
1687287339,11290cbe22cfaedc410acace914937bb,PennController,27,0,experiment,NULL,PennController,26,_Header_,End,1687287163681,5d2216762a191b0018d53eb7,5d2216762a191b0018d53eb7,24,match,filler,D,75,match65.jpg,match85.jpg,GoalA,NULL
1687287339,11290cbe22cfaedc410acace914937bb,PennController,27,0,experiment,NULL,Canvas,canvas6,Print,NA,1687287171374,5d2216762a191b0018d53eb7,5d2216762a191b0018d53eb7,24,match,filler,D,75,match65.jpg,match85.jpg,GoalA,NULL
1687287339,11290cbe22cfaedc410acace914937bb,PennController,27,0,experiment,NULL,Video,progression,buffer,0.004689,1687287167202,5d2216762a191b0018d53eb7,5d2216762a191b0018d53eb7,24,match,filler,D,75,match65.jpg,match85.jpg,GoalA,NULL
1687287339,11290cbe22cfaedc410acace914937bb,PennController,27,0,experiment,NULL,Selector,choice,Selection,option1,1687287176355,5d2216762a191b0018d53eb7,5d2216762a191b0018d53eb7,24,match,filler,D,75,match65.jpg,match85.jpg,GoalA,option2;option1
1687287339,11290cbe22cfaedc410acace914937bb,PennController,27,0,experiment,NULL,PennController,26,_Trial_,End,1687287176356,5d2216762a191b0018d53eb7,5d2216762a191b0018d53eb7,24,match,filler,D,75,match65.jpg,match85.jpg,GoalA,NULL
1687287339,11290cbe22cfaedc410acace914937bb,PennController,14,0,experiment,NULL,PennController,13,_Trial_,Start,1687287176358,5d2216762a191b0018d53eb7,5d2216762a191b0018d53eb7,11,beads,critical,D,50,beads40.jpg,beads60.jpg,high,NULL
1687287339,11290cbe22cfaedc410acace914937bb,PennController,14,0,experiment,NULL,PennController,13,_Header_,Start,1687287176358,5d2216762a191b0018d53eb7,5d2216762a191b0018d53eb7,11,beads,critical,D,50,beads40.jpg,beads60.jpg,high,NULL
1687287339,11290cbe22cfaedc410acace914937bb,PennController,14,0,experiment,NULL,PennController,13,_Header_,End,1687287176358,5d2216762a191b0018d53eb7,5d2216762a191b0018d53eb7,11,beads,critical,D,50,beads40.jpg,beads60.jpg,high,NULL
1687287339,11290cbe22cfaedc410acace914937bb,PennController,14,0,experiment,NULL,Canvas,canvas6,Print,NA,1687287183043,5d2216762a191b0018d53eb7,5d2216762a191b0018d53eb7,11,beads,critical,D,50,beads40.jpg,beads60.jpg,high,NULL
1687287339,11290cbe22cfaedc410acace914937bb,PennController,14,0,experiment,NULL,Video,progression,buffer,0.002682,1687287179881,5d2216762a191b0018d53eb7,5d2216762a191b0018d53eb7,11,beads,critical,D,50,beads40.jpg,beads60.jpg,high,NULL
1687287339,11290cbe22cfaedc410acace914937bb,PennController,14,0,experiment,NULL,Selector,choice,Selection,option1,1687287187702,5d2216762a191b0018d53eb7,5d2216762a191b0018d53eb7,11,beads,critical,D,50,beads40.jpg,beads60.jpg,high,option1;option2
1687287339,11290cbe22cfaedc410acace914937bb,PennController,14,0,experiment,NULL,PennController,13,_Trial_,End,1687287187703,5d2216762a191b0018d53eb7,5d2216762a191b0018d53eb7,11,beads,critical,D,50,beads40.jpg,beads60.jpg,high,NULL
1687287339,11290cbe22cfaedc410acace914937bb,PennController,29,0,experiment,NULL,PennController,28,_Trial_,Start,1687287187705,5d2216762a191b0018d53eb7,5d2216762a191b0018d53eb7,26,sandwich,filler,D,50,sandwich40.jpg,sandwich60.jpg,GoalA,NULL
1687287339,11290cbe22cfaedc410acace914937bb,PennController,29,0,experiment,NULL,PennController,28,_Header_,Start,1687287187705,5d2216762a191b0018d53eb7,5d2216762a191b0018d53eb7,26,sandwich,filler,D,50,sandwich40.jpg,sandwich60.jpg,GoalA,NULL
1687287339,11290cbe22cfaedc410acace914937bb,PennController,29,0,experiment,NULL,PennController,28,_Header_,End,1687287187705,5d2216762a191b0018d53eb7,5d2216762a191b0018d53eb7,26,sandwich,filler,D,50,sandwich40.jpg,sandwich60.jpg,GoalA,NULL
1687287339,11290cbe22cfaedc410acace914937bb,PennController,29,0,experiment,NULL,Canvas,canvas6,Print,NA,1687287194394,5d2216762a191b0018d53eb7,5d2216762a191b0018d53eb7,26,sandwich,filler,D,50,sandwich40.jpg,sandwich60.jpg,GoalA,NULL
1687287339,11290cbe22cfaedc410acace914937bb,PennController,29,0,experiment,NULL,Video,progression,buffer,0.002281,1687287191228,5d2216762a191b0018d53eb7,5d2216762a191b0018d53eb7,26,sandwich,filler,D,50,sandwich40.jpg,sandwich60.jpg,GoalA,NULL
1687287339,11290cbe22cfaedc410acace914937bb,PennController,29,0,experiment,NULL,Selector,choice,Selection,option1,1687287196077,5d2216762a191b0018d53eb7,5d2216762a191b0018d53eb7,26,sandwich,filler,D,50,sandwich40.jpg,sandwich60.jpg,GoalA,option2;option1
1687287339,11290cbe22cfaedc410acace914937bb,PennController,29,0,experiment,NULL,PennController,28,_Trial_,End,1687287196078,5d2216762a191b0018d53eb7,5d2216762a191b0018d53eb7,26,sandwich,filler,D,50,sandwich40.jpg,sandwich60.jpg,GoalA,NULL
1687287339,11290cbe22cfaedc410acace914937bb,PennController,30,0,experiment,NULL,PennController,29,_Trial_,Start,1687287196079,5d2216762a191b0018d53eb7,5d2216762a191b0018d53eb7,27,square,filler,D,75,square65.jpg,square85.jpg,GoalB,NULL
1687287339,11290cbe22cfaedc410acace914937bb,PennController,30,0,experiment,NULL,PennController,29,_Header_,Start,1687287196079,5d2216762a191b0018d53eb7,5d2216762a191b0018d53eb7,27,square,filler,D,75,square65.jpg,square85.jpg,GoalB,NULL
1687287339,11290cbe22cfaedc410acace914937bb,PennController,30,0,experiment,NULL,PennController,29,_Header_,End,1687287196079,5d2216762a191b0018d53eb7,5d2216762a191b0018d53eb7,27,square,filler,D,75,square65.jpg,square85.jpg,GoalB,NULL
1687287339,11290cbe22cfaedc410acace914937bb,PennController,30,0,experiment,NULL,Canvas,canvas6,Print,NA,1687287203767,5d2216762a191b0018d53eb7,5d2216762a191b0018d53eb7,27,square,filler,D,75,square65.jpg,square85.jpg,GoalB,NULL
1687287339,11290cbe22cfaedc410acace914937bb,PennController,30,0,experiment,NULL,Video,progression,buffer,0.002437,1687287199600,5d2216762a191b0018d53eb7,5d2216762a191b0018d53eb7,27,square,filler,D,75,square65.jpg,square85.jpg,GoalB,NULL
1687287339,11290cbe22cfaedc410acace914937bb,PennController,30,0,experiment,NULL,Selector,choice,Selection,option1,1687287206116,5d2216762a191b0018d53eb7,5d2216762a191b0018d53eb7,27,square,filler,D,75,square65.jpg,square85.jpg,GoalB,option1;option2
1687287339,11290cbe22cfaedc410acace914937bb,PennController,30,0,experiment,NULL,PennController,29,_Trial_,End,1687287206117,5d2216762a191b0018d53eb7,5d2216762a191b0018d53eb7,27,square,filler,D,75,square65.jpg,square85.jpg,GoalB,NULL
1687287339,11290cbe22cfaedc410acace914937bb,PennController,6,0,experiment,NULL,PennController,5,_Trial_,Start,1687287206119,5d2216762a191b0018d53eb7,5d2216762a191b0018d53eb7,3,clean,critical,D,75,clean65.jpg,clean85.jpg,high,NULL
1687287339,11290cbe22cfaedc410acace914937bb,PennController,6,0,experiment,NULL,PennController,5,_Header_,Start,1687287206119,5d2216762a191b0018d53eb7,5d2216762a191b0018d53eb7,3,clean,critical,D,75,clean65.jpg,clean85.jpg,high,NULL
1687287339,11290cbe22cfaedc410acace914937bb,PennController,6,0,experiment,NULL,PennController,5,_Header_,End,1687287206119,5d2216762a191b0018d53eb7,5d2216762a191b0018d53eb7,3,clean,critical,D,75,clean65.jpg,clean85.jpg,high,NULL
1687287339,11290cbe22cfaedc410acace914937bb,PennController,6,0,experiment,NULL,Canvas,canvas6,Print,NA,1687287213802,5d2216762a191b0018d53eb7,5d2216762a191b0018d53eb7,3,clean,critical,D,75,clean65.jpg,clean85.jpg,high,NULL
1687287339,11290cbe22cfaedc410acace914937bb,PennController,6,0,experiment,NULL,Video,progression,buffer,0.002726,1687287209639,5d2216762a191b0018d53eb7,5d2216762a191b0018d53eb7,3,clean,critical,D,75,clean65.jpg,clean85.jpg,high,NULL
1687287339,11290cbe22cfaedc410acace914937bb,PennController,6,0,experiment,NULL,Selector,choice,Selection,option1,1687287216275,5d2216762a191b0018d53eb7,5d2216762a191b0018d53eb7,3,clean,critical,D,75,clean65.jpg,clean85.jpg,high,option2;option1
1687287339,11290cbe22cfaedc410acace914937bb,PennController,6,0,experiment,NULL,PennController,5,_Trial_,End,1687287216276,5d2216762a191b0018d53eb7,5d2216762a191b0018d53eb7,3,clean,critical,D,75,clean65.jpg,clean85.jpg,high,NULL
1687287339,11290cbe22cfaedc410acace914937bb,PennController,32,0,experiment,NULL,PennController,31,_Trial_,Start,1687287216277,5d2216762a191b0018d53eb7,5d2216762a191b0018d53eb7,29,frog,filler,D,50,frog40.jpg,frog60.jpg,GoalB,NULL
1687287339,11290cbe22cfaedc410acace914937bb,PennController,32,0,experiment,NULL,PennController,31,_Header_,Start,1687287216277,5d2216762a191b0018d53eb7,5d2216762a191b0018d53eb7,29,frog,filler,D,50,frog40.jpg,frog60.jpg,GoalB,NULL
1687287339,11290cbe22cfaedc410acace914937bb,PennController,32,0,experiment,NULL,PennController,31,_Header_,End,1687287216277,5d2216762a191b0018d53eb7,5d2216762a191b0018d53eb7,29,frog,filler,D,50,frog40.jpg,frog60.jpg,GoalB,NULL
1687287339,11290cbe22cfaedc410acace914937bb,PennController,32,0,experiment,NULL,Canvas,canvas6,Print,NA,1687287222956,5d2216762a191b0018d53eb7,5d2216762a191b0018d53eb7,29,frog,filler,D,50,frog40.jpg,frog60.jpg,GoalB,NULL
1687287339,11290cbe22cfaedc410acace914937bb,PennController,32,0,experiment,NULL,Video,progression,buffer,0.002325,1687287219794,5d2216762a191b0018d53eb7,5d2216762a191b0018d53eb7,29,frog,filler,D,50,frog40.jpg,frog60.jpg,GoalB,NULL
1687287339,11290cbe22cfaedc410acace914937bb,PennController,32,0,experiment,NULL,Selector,choice,Selection,option2,1687287224902,5d2216762a191b0018d53eb7,5d2216762a191b0018d53eb7,29,frog,filler,D,50,frog40.jpg,frog60.jpg,GoalB,option2;option1
1687287339,11290cbe22cfaedc410acace914937bb,PennController,32,0,experiment,NULL,PennController,31,_Trial_,End,1687287224903,5d2216762a191b0018d53eb7,5d2216762a191b0018d53eb7,29,frog,filler,D,50,frog40.jpg,frog60.jpg,GoalB,NULL
1687287339,11290cbe22cfaedc410acace914937bb,PennController,31,0,experiment,NULL,PennController,30,_Trial_,Start,1687287224904,5d2216762a191b0018d53eb7,5d2216762a191b0018d53eb7,28,sort,filler,D,25,sort15.jpg,sort35.jpg,GoalA,NULL
1687287339,11290cbe22cfaedc410acace914937bb,PennController,31,0,experiment,NULL,PennController,30,_Header_,Start,1687287224904,5d2216762a191b0018d53eb7,5d2216762a191b0018d53eb7,28,sort,filler,D,25,sort15.jpg,sort35.jpg,GoalA,NULL
1687287339,11290cbe22cfaedc410acace914937bb,PennController,31,0,experiment,NULL,PennController,30,_Header_,End,1687287224904,5d2216762a191b0018d53eb7,5d2216762a191b0018d53eb7,28,sort,filler,D,25,sort15.jpg,sort35.jpg,GoalA,NULL
1687287339,11290cbe22cfaedc410acace914937bb,PennController,31,0,experiment,NULL,Canvas,canvas6,Print,NA,1687287230593,5d2216762a191b0018d53eb7,5d2216762a191b0018d53eb7,28,sort,filler,D,25,sort15.jpg,sort35.jpg,GoalA,NULL
1687287339,11290cbe22cfaedc410acace914937bb,PennController,31,0,experiment,NULL,Video,progression,buffer,0.003825,1687287228423,5d2216762a191b0018d53eb7,5d2216762a191b0018d53eb7,28,sort,filler,D,25,sort15.jpg,sort35.jpg,GoalA,NULL
1687287339,11290cbe22cfaedc410acace914937bb,PennController,31,0,experiment,NULL,Selector,choice,Selection,option1,1687287232782,5d2216762a191b0018d53eb7,5d2216762a191b0018d53eb7,28,sort,filler,D,25,sort15.jpg,sort35.jpg,GoalA,option2;option1
1687287339,11290cbe22cfaedc410acace914937bb,PennController,31,0,experiment,NULL,PennController,30,_Trial_,End,1687287232783,5d2216762a191b0018d53eb7,5d2216762a191b0018d53eb7,28,sort,filler,D,25,sort15.jpg,sort35.jpg,GoalA,NULL
1687287339,11290cbe22cfaedc410acace914937bb,PennController,26,0,experiment,NULL,PennController,25,_Trial_,Start,1687287232784,5d2216762a191b0018d53eb7,5d2216762a191b0018d53eb7,23,color,filler,D,50,color40.jpg,color60.jpg,GoalB,NULL
1687287339,11290cbe22cfaedc410acace914937bb,PennController,26,0,experiment,NULL,PennController,25,_Header_,Start,1687287232784,5d2216762a191b0018d53eb7,5d2216762a191b0018d53eb7,23,color,filler,D,50,color40.jpg,color60.jpg,GoalB,NULL
1687287339,11290cbe22cfaedc410acace914937bb,PennController,26,0,experiment,NULL,PennController,25,_Header_,End,1687287232784,5d2216762a191b0018d53eb7,5d2216762a191b0018d53eb7,23,color,filler,D,50,color40.jpg,color60.jpg,GoalB,NULL
1687287339,11290cbe22cfaedc410acace914937bb,PennController,26,0,experiment,NULL,Canvas,canvas6,Print,NA,1687287239476,5d2216762a191b0018d53eb7,5d2216762a191b0018d53eb7,23,color,filler,D,50,color40.jpg,color60.jpg,GoalB,NULL
1687287339,11290cbe22cfaedc410acace914937bb,PennController,26,0,experiment,NULL,Video,progression,buffer,0.003435,1687287236309,5d2216762a191b0018d53eb7,5d2216762a191b0018d53eb7,23,color,filler,D,50,color40.jpg,color60.jpg,GoalB,NULL
1687287339,11290cbe22cfaedc410acace914937bb,PennController,26,0,experiment,NULL,Selector,choice,Selection,option1,1687287245303,5d2216762a191b0018d53eb7,5d2216762a191b0018d53eb7,23,color,filler,D,50,color40.jpg,color60.jpg,GoalB,option2;option1
1687287339,11290cbe22cfaedc410acace914937bb,PennController,26,0,experiment,NULL,PennController,25,_Trial_,End,1687287245304,5d2216762a191b0018d53eb7,5d2216762a191b0018d53eb7,23,color,filler,D,50,color40.jpg,color60.jpg,GoalB,NULL
1687287339,11290cbe22cfaedc410acace914937bb,PennController,11,0,experiment,NULL,PennController,10,_Trial_,Start,1687287245307,5d2216762a191b0018d53eb7,5d2216762a191b0018d53eb7,8,cucumber,critical,D,50,cucumber42.jpg,cucumber60.jpg,high,NULL
1687287339,11290cbe22cfaedc410acace914937bb,PennController,11,0,experiment,NULL,PennController,10,_Header_,Start,1687287245307,5d2216762a191b0018d53eb7,5d2216762a191b0018d53eb7,8,cucumber,critical,D,50,cucumber42.jpg,cucumber60.jpg,high,NULL
1687287339,11290cbe22cfaedc410acace914937bb,PennController,11,0,experiment,NULL,PennController,10,_Header_,End,1687287245307,5d2216762a191b0018d53eb7,5d2216762a191b0018d53eb7,8,cucumber,critical,D,50,cucumber42.jpg,cucumber60.jpg,high,NULL
1687287339,11290cbe22cfaedc410acace914937bb,PennController,11,0,experiment,NULL,Canvas,canvas6,Print,NA,1687287253383,5d2216762a191b0018d53eb7,5d2216762a191b0018d53eb7,8,cucumber,critical,D,50,cucumber42.jpg,cucumber60.jpg,high,NULL
1687287339,11290cbe22cfaedc410acace914937bb,PennController,11,0,experiment,NULL,Video,progression,buffer,0.003682,1687287248826,5d2216762a191b0018d53eb7,5d2216762a191b0018d53eb7,8,cucumber,critical,D,50,cucumber42.jpg,cucumber60.jpg,high,NULL
1687287339,11290cbe22cfaedc410acace914937bb,PennController,11,0,experiment,NULL,Selector,choice,Selection,option1,1687287256599,5d2216762a191b0018d53eb7,5d2216762a191b0018d53eb7,8,cucumber,critical,D,50,cucumber42.jpg,cucumber60.jpg,high,option1;option2
1687287339,11290cbe22cfaedc410acace914937bb,PennController,11,0,experiment,NULL,PennController,10,_Trial_,End,1687287256601,5d2216762a191b0018d53eb7,5d2216762a191b0018d53eb7,8,cucumber,critical,D,50,cucumber42.jpg,cucumber60.jpg,high,NULL
1687287339,11290cbe22cfaedc410acace914937bb,PennController,19,0,experiment,NULL,PennController,18,_Trial_,Start,1687287256602,5d2216762a191b0018d53eb7,5d2216762a191b0018d53eb7,16,blinds,critical,D,25,blinds15.jpg,blinds33.jpg,high,NULL
1687287339,11290cbe22cfaedc410acace914937bb,PennController,19,0,experiment,NULL,PennController,18,_Header_,Start,1687287256602,5d2216762a191b0018d53eb7,5d2216762a191b0018d53eb7,16,blinds,critical,D,25,blinds15.jpg,blinds33.jpg,high,NULL
1687287339,11290cbe22cfaedc410acace914937bb,PennController,19,0,experiment,NULL,PennController,18,_Header_,End,1687287256602,5d2216762a191b0018d53eb7,5d2216762a191b0018d53eb7,16,blinds,critical,D,25,blinds15.jpg,blinds33.jpg,high,NULL
1687287339,11290cbe22cfaedc410acace914937bb,PennController,19,0,experiment,NULL,Canvas,canvas6,Print,NA,1687287262889,5d2216762a191b0018d53eb7,5d2216762a191b0018d53eb7,16,blinds,critical,D,25,blinds15.jpg,blinds33.jpg,high,NULL
1687287339,11290cbe22cfaedc410acace914937bb,PennController,19,0,experiment,NULL,Video,progression,buffer,0.002517,1687287260119,5d2216762a191b0018d53eb7,5d2216762a191b0018d53eb7,16,blinds,critical,D,25,blinds15.jpg,blinds33.jpg,high,NULL
1687287339,11290cbe22cfaedc410acace914937bb,PennController,19,0,experiment,NULL,Selector,choice,Selection,option1,1687287266866,5d2216762a191b0018d53eb7,5d2216762a191b0018d53eb7,16,blinds,critical,D,25,blinds15.jpg,blinds33.jpg,high,option1;option2
1687287339,11290cbe22cfaedc410acace914937bb,PennController,19,0,experiment,NULL,PennController,18,_Trial_,End,1687287266867,5d2216762a191b0018d53eb7,5d2216762a191b0018d53eb7,16,blinds,critical,D,25,blinds15.jpg,blinds33.jpg,high,NULL
1687287339,11290cbe22cfaedc410acace914937bb,PennController,12,0,experiment,NULL,PennController,11,_Trial_,Start,1687287266868,5d2216762a191b0018d53eb7,5d2216762a191b0018d53eb7,9,cake,critical,D,75,cake66.jpg,cake84.jpg,high,NULL
1687287339,11290cbe22cfaedc410acace914937bb,PennController,12,0,experiment,NULL,PennController,11,_Header_,Start,1687287266868,5d2216762a191b0018d53eb7,5d2216762a191b0018d53eb7,9,cake,critical,D,75,cake66.jpg,cake84.jpg,high,NULL
1687287339,11290cbe22cfaedc410acace914937bb,PennController,12,0,experiment,NULL,PennController,11,_Header_,End,1687287266868,5d2216762a191b0018d53eb7,5d2216762a191b0018d53eb7,9,cake,critical,D,75,cake66.jpg,cake84.jpg,high,NULL
1687287339,11290cbe22cfaedc410acace914937bb,PennController,12,0,experiment,NULL,Canvas,canvas6,Print,NA,1687287276559,5d2216762a191b0018d53eb7,5d2216762a191b0018d53eb7,9,cake,critical,D,75,cake66.jpg,cake84.jpg,high,NULL
1687287339,11290cbe22cfaedc410acace914937bb,PennController,12,0,experiment,NULL,Video,progression,buffer,0.002362,1687287270390,5d2216762a191b0018d53eb7,5d2216762a191b0018d53eb7,9,cake,critical,D,75,cake66.jpg,cake84.jpg,high,NULL
1687287339,11290cbe22cfaedc410acace914937bb,PennController,12,0,experiment,NULL,Selector,choice,Selection,option1,1687287289217,5d2216762a191b0018d53eb7,5d2216762a191b0018d53eb7,9,cake,critical,D,75,cake66.jpg,cake84.jpg,high,option1;option2
1687287339,11290cbe22cfaedc410acace914937bb,PennController,12,0,experiment,NULL,PennController,11,_Trial_,End,1687287289218,5d2216762a191b0018d53eb7,5d2216762a191b0018d53eb7,9,cake,critical,D,75,cake66.jpg,cake84.jpg,high,NULL
1687287339,11290cbe22cfaedc410acace914937bb,PennController,16,0,experiment,NULL,PennController,15,_Trial_,Start,1687287289220,5d2216762a191b0018d53eb7,5d2216762a191b0018d53eb7,13,mix,critical,D,25,mix15.jpg,mix35.jpg,high,NULL
1687287339,11290cbe22cfaedc410acace914937bb,PennController,16,0,experiment,NULL,PennController,15,_Header_,Start,1687287289220,5d2216762a191b0018d53eb7,5d2216762a191b0018d53eb7,13,mix,critical,D,25,mix15.jpg,mix35.jpg,high,NULL
1687287339,11290cbe22cfaedc410acace914937bb,PennController,16,0,experiment,NULL,PennController,15,_Header_,End,1687287289220,5d2216762a191b0018d53eb7,5d2216762a191b0018d53eb7,13,mix,critical,D,25,mix15.jpg,mix35.jpg,high,NULL
1687287339,11290cbe22cfaedc410acace914937bb,PennController,16,0,experiment,NULL,Canvas,canvas6,Print,NA,1687287294899,5d2216762a191b0018d53eb7,5d2216762a191b0018d53eb7,13,mix,critical,D,25,mix15.jpg,mix35.jpg,high,NULL
1687287339,11290cbe22cfaedc410acace914937bb,PennController,16,0,experiment,NULL,Video,progression,buffer,0.00263,1687287292739,5d2216762a191b0018d53eb7,5d2216762a191b0018d53eb7,13,mix,critical,D,25,mix15.jpg,mix35.jpg,high,NULL
1687287339,11290cbe22cfaedc410acace914937bb,PennController,16,0,experiment,NULL,Selector,choice,Selection,option1,1687287298198,5d2216762a191b0018d53eb7,5d2216762a191b0018d53eb7,13,mix,critical,D,25,mix15.jpg,mix35.jpg,high,option1;option2
1687287339,11290cbe22cfaedc410acace914937bb,PennController,16,0,experiment,NULL,PennController,15,_Trial_,End,1687287298199,5d2216762a191b0018d53eb7,5d2216762a191b0018d53eb7,13,mix,critical,D,25,mix15.jpg,mix35.jpg,high,NULL
1687287339,11290cbe22cfaedc410acace914937bb,PennController,7,0,experiment,NULL,PennController,6,_Trial_,Start,1687287298201,5d2216762a191b0018d53eb7,5d2216762a191b0018d53eb7,4,candy,critical,D,25,candy15.jpg,candy35.jpg,high,NULL
1687287339,11290cbe22cfaedc410acace914937bb,PennController,7,0,experiment,NULL,PennController,6,_Header_,Start,1687287298201,5d2216762a191b0018d53eb7,5d2216762a191b0018d53eb7,4,candy,critical,D,25,candy15.jpg,candy35.jpg,high,NULL
1687287339,11290cbe22cfaedc410acace914937bb,PennController,7,0,experiment,NULL,PennController,6,_Header_,End,1687287298201,5d2216762a191b0018d53eb7,5d2216762a191b0018d53eb7,4,candy,critical,D,25,candy15.jpg,candy35.jpg,high,NULL
1687287339,11290cbe22cfaedc410acace914937bb,PennController,7,0,experiment,NULL,Canvas,canvas6,Print,NA,1687287303886,5d2216762a191b0018d53eb7,5d2216762a191b0018d53eb7,4,candy,critical,D,25,candy15.jpg,candy35.jpg,high,NULL
1687287339,11290cbe22cfaedc410acace914937bb,PennController,7,0,experiment,NULL,Video,progression,buffer,0.002568,1687287301717,5d2216762a191b0018d53eb7,5d2216762a191b0018d53eb7,4,candy,critical,D,25,candy15.jpg,candy35.jpg,high,NULL
1687287339,11290cbe22cfaedc410acace914937bb,PennController,7,0,experiment,NULL,Selector,choice,Selection,option2,1687287306279,5d2216762a191b0018d53eb7,5d2216762a191b0018d53eb7,4,candy,critical,D,25,candy15.jpg,candy35.jpg,high,option2;option1
1687287339,11290cbe22cfaedc410acace914937bb,PennController,7,0,experiment,NULL,PennController,6,_Trial_,End,1687287306281,5d2216762a191b0018d53eb7,5d2216762a191b0018d53eb7,4,candy,critical,D,25,candy15.jpg,candy35.jpg,high,NULL
1687287339,11290cbe22cfaedc410acace914937bb,PennController,10,0,experiment,NULL,PennController,9,_Trial_,Start,1687287306282,5d2216762a191b0018d53eb7,5d2216762a191b0018d53eb7,7,stack,critical,D,25,stack15.jpg,stack35.jpg,high,NULL
1687287339,11290cbe22cfaedc410acace914937bb,PennController,10,0,experiment,NULL,PennController,9,_Header_,Start,1687287306282,5d2216762a191b0018d53eb7,5d2216762a191b0018d53eb7,7,stack,critical,D,25,stack15.jpg,stack35.jpg,high,NULL
1687287339,11290cbe22cfaedc410acace914937bb,PennController,10,0,experiment,NULL,PennController,9,_Header_,End,1687287306282,5d2216762a191b0018d53eb7,5d2216762a191b0018d53eb7,7,stack,critical,D,25,stack15.jpg,stack35.jpg,high,NULL
1687287339,11290cbe22cfaedc410acace914937bb,PennController,10,0,experiment,NULL,Canvas,canvas6,Print,NA,1687287311955,5d2216762a191b0018d53eb7,5d2216762a191b0018d53eb7,7,stack,critical,D,25,stack15.jpg,stack35.jpg,high,NULL
1687287339,11290cbe22cfaedc410acace914937bb,PennController,10,0,experiment,NULL,Video,progression,buffer,0.004049,1687287309798,5d2216762a191b0018d53eb7,5d2216762a191b0018d53eb7,7,stack,critical,D,25,stack15.jpg,stack35.jpg,high,NULL
1687287339,11290cbe22cfaedc410acace914937bb,PennController,10,0,experiment,NULL,Selector,choice,Selection,option1,1687287314491,5d2216762a191b0018d53eb7,5d2216762a191b0018d53eb7,7,stack,critical,D,25,stack15.jpg,stack35.jpg,high,option1;option2
1687287339,11290cbe22cfaedc410acace914937bb,PennController,10,0,experiment,NULL,PennController,9,_Trial_,End,1687287314492,5d2216762a191b0018d53eb7,5d2216762a191b0018d53eb7,7,stack,critical,D,25,stack15.jpg,stack35.jpg,high,NULL
1687287339,11290cbe22cfaedc410acace914937bb,PennController,28,0,experiment,NULL,PennController,27,_Trial_,Start,1687287314493,5d2216762a191b0018d53eb7,5d2216762a191b0018d53eb7,25,house,filler,D,25,house15.jpg,house35.jpg,GoalB,NULL
1687287339,11290cbe22cfaedc410acace914937bb,PennController,28,0,experiment,NULL,PennController,27,_Header_,Start,1687287314493,5d2216762a191b0018d53eb7,5d2216762a191b0018d53eb7,25,house,filler,D,25,house15.jpg,house35.jpg,GoalB,NULL
1687287339,11290cbe22cfaedc410acace914937bb,PennController,28,0,experiment,NULL,PennController,27,_Header_,End,1687287314493,5d2216762a191b0018d53eb7,5d2216762a191b0018d53eb7,25,house,filler,D,25,house15.jpg,house35.jpg,GoalB,NULL
1687287339,11290cbe22cfaedc410acace914937bb,PennController,28,0,experiment,NULL,Canvas,canvas6,Print,NA,1687287320175,5d2216762a191b0018d53eb7,5d2216762a191b0018d53eb7,25,house,filler,D,25,house15.jpg,house35.jpg,GoalB,NULL
1687287339,11290cbe22cfaedc410acace914937bb,PennController,28,0,experiment,NULL,Video,progression,buffer,0.002537,1687287318010,5d2216762a191b0018d53eb7,5d2216762a191b0018d53eb7,25,house,filler,D,25,house15.jpg,house35.jpg,GoalB,NULL
1687287339,11290cbe22cfaedc410acace914937bb,PennController,28,0,experiment,NULL,Selector,choice,Selection,option2,1687287321596,5d2216762a191b0018d53eb7,5d2216762a191b0018d53eb7,25,house,filler,D,25,house15.jpg,house35.jpg,GoalB,option1;option2
1687287339,11290cbe22cfaedc410acace914937bb,PennController,28,0,experiment,NULL,PennController,27,_Trial_,End,1687287321597,5d2216762a191b0018d53eb7,5d2216762a191b0018d53eb7,25,house,filler,D,25,house15.jpg,house35.jpg,GoalB,NULL
1687287339,11290cbe22cfaedc410acace914937bb,PennController,25,0,experiment,NULL,PennController,24,_Trial_,Start,1687287321598,5d2216762a191b0018d53eb7,5d2216762a191b0018d53eb7,22,wall,filler,D,25,wall15.jpg,wall35.jpg,GoalA,NULL
1687287339,11290cbe22cfaedc410acace914937bb,PennController,25,0,experiment,NULL,PennController,24,_Header_,Start,1687287321598,5d2216762a191b0018d53eb7,5d2216762a191b0018d53eb7,22,wall,filler,D,25,wall15.jpg,wall35.jpg,GoalA,NULL
1687287339,11290cbe22cfaedc410acace914937bb,PennController,25,0,experiment,NULL,PennController,24,_Header_,End,1687287321598,5d2216762a191b0018d53eb7,5d2216762a191b0018d53eb7,22,wall,filler,D,25,wall15.jpg,wall35.jpg,GoalA,NULL
1687287339,11290cbe22cfaedc410acace914937bb,PennController,25,0,experiment,NULL,Canvas,canvas6,Print,NA,1687287327276,5d2216762a191b0018d53eb7,5d2216762a191b0018d53eb7,22,wall,filler,D,25,wall15.jpg,wall35.jpg,GoalA,NULL
1687287339,11290cbe22cfaedc410acace914937bb,PennController,25,0,experiment,NULL,Video,progression,buffer,0.002557,1687287325113,5d2216762a191b0018d53eb7,5d2216762a191b0018d53eb7,22,wall,filler,D,25,wall15.jpg,wall35.jpg,GoalA,NULL
1687287339,11290cbe22cfaedc410acace914937bb,PennController,25,0,experiment,NULL,Selector,choice,Selection,option1,1687287329699,5d2216762a191b0018d53eb7,5d2216762a191b0018d53eb7,22,wall,filler,D,25,wall15.jpg,wall35.jpg,GoalA,option1;option2
1687287339,11290cbe22cfaedc410acace914937bb,PennController,25,0,experiment,NULL,PennController,24,_Trial_,End,1687287329701,5d2216762a191b0018d53eb7,5d2216762a191b0018d53eb7,22,wall,filler,D,25,wall15.jpg,wall35.jpg,GoalA,NULL
1687287339,11290cbe22cfaedc410acace914937bb,PennController,20,0,experiment,NULL,PennController,19,_Trial_,Start,1687287329702,5d2216762a191b0018d53eb7,5d2216762a191b0018d53eb7,17,roll,critical,D,50,roll40.jpg,roll60.jpg,high,NULL
1687287339,11290cbe22cfaedc410acace914937bb,PennController,20,0,experiment,NULL,PennController,19,_Header_,Start,1687287329702,5d2216762a191b0018d53eb7,5d2216762a191b0018d53eb7,17,roll,critical,D,50,roll40.jpg,roll60.jpg,high,NULL
1687287339,11290cbe22cfaedc410acace914937bb,PennController,20,0,experiment,NULL,PennController,19,_Header_,End,1687287329702,5d2216762a191b0018d53eb7,5d2216762a191b0018d53eb7,17,roll,critical,D,50,roll40.jpg,roll60.jpg,high,NULL
1687287339,11290cbe22cfaedc410acace914937bb,PennController,20,0,experiment,NULL,Canvas,canvas6,Print,NA,1687287336417,5d2216762a191b0018d53eb7,5d2216762a191b0018d53eb7,17,roll,critical,D,50,roll40.jpg,roll60.jpg,high,NULL
1687287339,11290cbe22cfaedc410acace914937bb,PennController,20,0,experiment,NULL,Video,progression,buffer,0,1687287333220,5d2216762a191b0018d53eb7,5d2216762a191b0018d53eb7,17,roll,critical,D,50,roll40.jpg,roll60.jpg,high,NULL
1687287339,11290cbe22cfaedc410acace914937bb,PennController,20,0,experiment,NULL,Selector,choice,Selection,option1,1687287338215,5d2216762a191b0018d53eb7,5d2216762a191b0018d53eb7,17,roll,critical,D,50,roll40.jpg,roll60.jpg,high,option1;option2
1687287339,11290cbe22cfaedc410acace914937bb,PennController,20,0,experiment,NULL,PennController,19,_Trial_,End,1687287338216,5d2216762a191b0018d53eb7,5d2216762a191b0018d53eb7,17,roll,critical,D,50,roll40.jpg,roll60.jpg,high,NULL
