#
# Results on Tuesday June 20 2023 18:56:28 UTC
# USER AGENT: Mozilla/5.0 (Macintosh; Intel Mac OS X 10_15_7) AppleWebKit/537.36 (KHTML, like Gecko) Chrome/114.0.0.0 Safari/537.36
# Design number was non-random = 3
#
# Columns below this comment are as follows:
# 1. Results reception time.
# 2. MD5 hash of participant's IP address.
# 3. Controller name.
# 4. Order number of item.
# 5. Inner element number.
# 6. Label.
# 7. Latin Square Group.
# 8. PennElementType.
# 9. PennElementName.
# 10. Parameter.
# 11. Value.
# 12. EventTime.
# 13. PROLIFIC_ID.
# 14. Comments.
1687287388,962760e4262f1ba69cbc0fac6bed0524,PennController,2,0,consent,NULL,PennController,0,_Trial_,Start,1687287110694,616d4433de6fc2ccc4d0df4a,NULL
1687287388,962760e4262f1ba69cbc0fac6bed0524,PennController,2,0,consent,NULL,PennController,0,_Header_,Start,1687287110695,616d4433de6fc2ccc4d0df4a,NULL
1687287388,962760e4262f1ba69cbc0fac6bed0524,PennController,2,0,consent,NULL,PennController,0,_Header_,End,1687287110695,616d4433de6fc2ccc4d0df4a,NULL
1687287388,962760e4262f1ba69cbc0fac6bed0524,PennController,2,0,consent,NULL,PennController,0,_Trial_,End,1687287117519,616d4433de6fc2ccc4d0df4a,NULL
# Columns below this comment are as follows:
# 14. ID.
# 15. Comments.
1687287388,962760e4262f1ba69cbc0fac6bed0524,PennController,3,0,intro,NULL,PennController,1,_Trial_,Start,1687287117522,616d4433de6fc2ccc4d0df4a,616d4433de6fc2ccc4d0df4a,NULL
1687287388,962760e4262f1ba69cbc0fac6bed0524,PennController,3,0,intro,NULL,PennController,1,_Header_,Start,1687287117522,616d4433de6fc2ccc4d0df4a,616d4433de6fc2ccc4d0df4a,NULL
1687287388,962760e4262f1ba69cbc0fac6bed0524,PennController,3,0,intro,NULL,PennController,1,_Header_,End,1687287117522,616d4433de6fc2ccc4d0df4a,616d4433de6fc2ccc4d0df4a,NULL
1687287388,962760e4262f1ba69cbc0fac6bed0524,PennController,3,0,intro,NULL,PennController,1,_Trial_,End,1687287130105,616d4433de6fc2ccc4d0df4a,616d4433de6fc2ccc4d0df4a,NULL
# Columns below this comment are as follows:
# 15. item_number.
# 16. item.
# 17. type.
# 18. Group.
# 19. prog.
# 20. prev_image.
# 21. next_image.
# 22. height.
# 23. Comments.
1687287388,962760e4262f1ba69cbc0fac6bed0524,PennController,23,0,experiment,NULL,PennController,22,_Trial_,Start,1687287130107,616d4433de6fc2ccc4d0df4a,616d4433de6fc2ccc4d0df4a,20,cat,filler,D,50,cat40.jpg,cat60.jpg,GoalA,NULL
1687287388,962760e4262f1ba69cbc0fac6bed0524,PennController,23,0,experiment,NULL,PennController,22,_Header_,Start,1687287130107,616d4433de6fc2ccc4d0df4a,616d4433de6fc2ccc4d0df4a,20,cat,filler,D,50,cat40.jpg,cat60.jpg,GoalA,NULL
1687287388,962760e4262f1ba69cbc0fac6bed0524,PennController,23,0,experiment,NULL,PennController,22,_Header_,End,1687287130107,616d4433de6fc2ccc4d0df4a,616d4433de6fc2ccc4d0df4a,20,cat,filler,D,50,cat40.jpg,cat60.jpg,GoalA,NULL
1687287388,962760e4262f1ba69cbc0fac6bed0524,PennController,23,0,experiment,NULL,Canvas,canvas6,Print,NA,1687287136820,616d4433de6fc2ccc4d0df4a,616d4433de6fc2ccc4d0df4a,20,cat,filler,D,50,cat40.jpg,cat60.jpg,GoalA,NULL
1687287388,962760e4262f1ba69cbc0fac6bed0524,PennController,23,0,experiment,NULL,Video,progression,buffer,0.004359,1687287133650,616d4433de6fc2ccc4d0df4a,616d4433de6fc2ccc4d0df4a,20,cat,filler,D,50,cat40.jpg,cat60.jpg,GoalA,NULL
1687287388,962760e4262f1ba69cbc0fac6bed0524,PennController,23,0,experiment,NULL,Selector,choice,Selection,option2,1687287142009,616d4433de6fc2ccc4d0df4a,616d4433de6fc2ccc4d0df4a,20,cat,filler,D,50,cat40.jpg,cat60.jpg,GoalA,option1;option2
1687287388,962760e4262f1ba69cbc0fac6bed0524,PennController,23,0,experiment,NULL,PennController,22,_Trial_,End,1687287142012,616d4433de6fc2ccc4d0df4a,616d4433de6fc2ccc4d0df4a,20,cat,filler,D,50,cat40.jpg,cat60.jpg,GoalA,NULL
1687287388,962760e4262f1ba69cbc0fac6bed0524,PennController,19,0,experiment,NULL,PennController,18,_Trial_,Start,1687287142016,616d4433de6fc2ccc4d0df4a,616d4433de6fc2ccc4d0df4a,16,blinds,critical,D,25,blinds15.jpg,blinds33.jpg,high,NULL
1687287388,962760e4262f1ba69cbc0fac6bed0524,PennController,19,0,experiment,NULL,PennController,18,_Header_,Start,1687287142016,616d4433de6fc2ccc4d0df4a,616d4433de6fc2ccc4d0df4a,16,blinds,critical,D,25,blinds15.jpg,blinds33.jpg,high,NULL
1687287388,962760e4262f1ba69cbc0fac6bed0524,PennController,19,0,experiment,NULL,PennController,18,_Header_,End,1687287142016,616d4433de6fc2ccc4d0df4a,616d4433de6fc2ccc4d0df4a,16,blinds,critical,D,25,blinds15.jpg,blinds33.jpg,high,NULL
1687287388,962760e4262f1ba69cbc0fac6bed0524,PennController,19,0,experiment,NULL,Canvas,canvas6,Print,NA,1687287148319,616d4433de6fc2ccc4d0df4a,616d4433de6fc2ccc4d0df4a,16,blinds,critical,D,25,blinds15.jpg,blinds33.jpg,high,NULL
1687287388,962760e4262f1ba69cbc0fac6bed0524,PennController,19,0,experiment,NULL,Video,progression,buffer,0.004645,1687287145548,616d4433de6fc2ccc4d0df4a,616d4433de6fc2ccc4d0df4a,16,blinds,critical,D,25,blinds15.jpg,blinds33.jpg,high,NULL
1687287388,962760e4262f1ba69cbc0fac6bed0524,PennController,19,0,experiment,NULL,Selector,choice,Selection,option2,1687287156977,616d4433de6fc2ccc4d0df4a,616d4433de6fc2ccc4d0df4a,16,blinds,critical,D,25,blinds15.jpg,blinds33.jpg,high,option2;option1
1687287388,962760e4262f1ba69cbc0fac6bed0524,PennController,19,0,experiment,NULL,PennController,18,_Trial_,End,1687287156979,616d4433de6fc2ccc4d0df4a,616d4433de6fc2ccc4d0df4a,16,blinds,critical,D,25,blinds15.jpg,blinds33.jpg,high,NULL
1687287388,962760e4262f1ba69cbc0fac6bed0524,PennController,7,0,experiment,NULL,PennController,6,_Trial_,Start,1687287156981,616d4433de6fc2ccc4d0df4a,616d4433de6fc2ccc4d0df4a,4,candy,critical,D,25,candy15.jpg,candy35.jpg,high,NULL
1687287388,962760e4262f1ba69cbc0fac6bed0524,PennController,7,0,experiment,NULL,PennController,6,_Header_,Start,1687287156981,616d4433de6fc2ccc4d0df4a,616d4433de6fc2ccc4d0df4a,4,candy,critical,D,25,candy15.jpg,candy35.jpg,high,NULL
1687287388,962760e4262f1ba69cbc0fac6bed0524,PennController,7,0,experiment,NULL,PennController,6,_Header_,End,1687287156981,616d4433de6fc2ccc4d0df4a,616d4433de6fc2ccc4d0df4a,4,candy,critical,D,25,candy15.jpg,candy35.jpg,high,NULL
1687287388,962760e4262f1ba69cbc0fac6bed0524,PennController,7,0,experiment,NULL,Canvas,canvas6,Print,NA,1687287162686,616d4433de6fc2ccc4d0df4a,616d4433de6fc2ccc4d0df4a,4,candy,critical,D,25,candy15.jpg,candy35.jpg,high,NULL
1687287388,962760e4262f1ba69cbc0fac6bed0524,PennController,7,0,experiment,NULL,Video,progression,buffer,0.005765,1687287160518,616d4433de6fc2ccc4d0df4a,616d4433de6fc2ccc4d0df4a,4,candy,critical,D,25,candy15.jpg,candy35.jpg,high,NULL
1687287388,962760e4262f1ba69cbc0fac6bed0524,PennController,7,0,experiment,NULL,Selector,choice,Selection,option2,1687287164161,616d4433de6fc2ccc4d0df4a,616d4433de6fc2ccc4d0df4a,4,candy,critical,D,25,candy15.jpg,candy35.jpg,high,option2;option1
1687287388,962760e4262f1ba69cbc0fac6bed0524,PennController,7,0,experiment,NULL,PennController,6,_Trial_,End,1687287164163,616d4433de6fc2ccc4d0df4a,616d4433de6fc2ccc4d0df4a,4,candy,critical,D,25,candy15.jpg,candy35.jpg,high,NULL
1687287388,962760e4262f1ba69cbc0fac6bed0524,PennController,8,0,experiment,NULL,PennController,7,_Trial_,Start,1687287164167,616d4433de6fc2ccc4d0df4a,616d4433de6fc2ccc4d0df4a,5,book,critical,D,50,book40.jpg,book60.jpg,high,NULL
1687287388,962760e4262f1ba69cbc0fac6bed0524,PennController,8,0,experiment,NULL,PennController,7,_Header_,Start,1687287164167,616d4433de6fc2ccc4d0df4a,616d4433de6fc2ccc4d0df4a,5,book,critical,D,50,book40.jpg,book60.jpg,high,NULL
1687287388,962760e4262f1ba69cbc0fac6bed0524,PennController,8,0,experiment,NULL,PennController,7,_Header_,End,1687287164167,616d4433de6fc2ccc4d0df4a,616d4433de6fc2ccc4d0df4a,5,book,critical,D,50,book40.jpg,book60.jpg,high,NULL
1687287388,962760e4262f1ba69cbc0fac6bed0524,PennController,8,0,experiment,NULL,Canvas,canvas6,Print,NA,1687287170871,616d4433de6fc2ccc4d0df4a,616d4433de6fc2ccc4d0df4a,5,book,critical,D,50,book40.jpg,book60.jpg,high,NULL
1687287388,962760e4262f1ba69cbc0fac6bed0524,PennController,8,0,experiment,NULL,Video,progression,buffer,0.004876,1687287167696,616d4433de6fc2ccc4d0df4a,616d4433de6fc2ccc4d0df4a,5,book,critical,D,50,book40.jpg,book60.jpg,high,NULL
1687287388,962760e4262f1ba69cbc0fac6bed0524,PennController,8,0,experiment,NULL,Selector,choice,Selection,option2,1687287172478,616d4433de6fc2ccc4d0df4a,616d4433de6fc2ccc4d0df4a,5,book,critical,D,50,book40.jpg,book60.jpg,high,option1;option2
1687287388,962760e4262f1ba69cbc0fac6bed0524,PennController,8,0,experiment,NULL,PennController,7,_Trial_,End,1687287172480,616d4433de6fc2ccc4d0df4a,616d4433de6fc2ccc4d0df4a,5,book,critical,D,50,book40.jpg,book60.jpg,high,NULL
1687287388,962760e4262f1ba69cbc0fac6bed0524,PennController,11,0,experiment,NULL,PennController,10,_Trial_,Start,1687287172482,616d4433de6fc2ccc4d0df4a,616d4433de6fc2ccc4d0df4a,8,cucumber,critical,D,50,cucumber42.jpg,cucumber60.jpg,high,NULL
1687287388,962760e4262f1ba69cbc0fac6bed0524,PennController,11,0,experiment,NULL,PennController,10,_Header_,Start,1687287172482,616d4433de6fc2ccc4d0df4a,616d4433de6fc2ccc4d0df4a,8,cucumber,critical,D,50,cucumber42.jpg,cucumber60.jpg,high,NULL
1687287388,962760e4262f1ba69cbc0fac6bed0524,PennController,11,0,experiment,NULL,PennController,10,_Header_,End,1687287172482,616d4433de6fc2ccc4d0df4a,616d4433de6fc2ccc4d0df4a,8,cucumber,critical,D,50,cucumber42.jpg,cucumber60.jpg,high,NULL
1687287388,962760e4262f1ba69cbc0fac6bed0524,PennController,11,0,experiment,NULL,Canvas,canvas6,Print,NA,1687287180586,616d4433de6fc2ccc4d0df4a,616d4433de6fc2ccc4d0df4a,8,cucumber,critical,D,50,cucumber42.jpg,cucumber60.jpg,high,NULL
1687287388,962760e4262f1ba69cbc0fac6bed0524,PennController,11,0,experiment,NULL,Video,progression,buffer,0.00122,1687287176019,616d4433de6fc2ccc4d0df4a,616d4433de6fc2ccc4d0df4a,8,cucumber,critical,D,50,cucumber42.jpg,cucumber60.jpg,high,NULL
1687287388,962760e4262f1ba69cbc0fac6bed0524,PennController,11,0,experiment,NULL,Selector,choice,Selection,option1,1687287181915,616d4433de6fc2ccc4d0df4a,616d4433de6fc2ccc4d0df4a,8,cucumber,critical,D,50,cucumber42.jpg,cucumber60.jpg,high,option2;option1
1687287388,962760e4262f1ba69cbc0fac6bed0524,PennController,11,0,experiment,NULL,PennController,10,_Trial_,End,1687287181917,616d4433de6fc2ccc4d0df4a,616d4433de6fc2ccc4d0df4a,8,cucumber,critical,D,50,cucumber42.jpg,cucumber60.jpg,high,NULL
1687287388,962760e4262f1ba69cbc0fac6bed0524,PennController,25,0,experiment,NULL,PennController,24,_Trial_,Start,1687287181918,616d4433de6fc2ccc4d0df4a,616d4433de6fc2ccc4d0df4a,22,wall,filler,D,25,wall15.jpg,wall35.jpg,GoalA,NULL
1687287388,962760e4262f1ba69cbc0fac6bed0524,PennController,25,0,experiment,NULL,PennController,24,_Header_,Start,1687287181918,616d4433de6fc2ccc4d0df4a,616d4433de6fc2ccc4d0df4a,22,wall,filler,D,25,wall15.jpg,wall35.jpg,GoalA,NULL
1687287388,962760e4262f1ba69cbc0fac6bed0524,PennController,25,0,experiment,NULL,PennController,24,_Header_,End,1687287181918,616d4433de6fc2ccc4d0df4a,616d4433de6fc2ccc4d0df4a,22,wall,filler,D,25,wall15.jpg,wall35.jpg,GoalA,NULL
1687287388,962760e4262f1ba69cbc0fac6bed0524,PennController,25,0,experiment,NULL,Canvas,canvas6,Print,NA,1687287187620,616d4433de6fc2ccc4d0df4a,616d4433de6fc2ccc4d0df4a,22,wall,filler,D,25,wall15.jpg,wall35.jpg,GoalA,NULL
1687287388,962760e4262f1ba69cbc0fac6bed0524,PennController,25,0,experiment,NULL,Video,progression,buffer,0.005043,1687287185446,616d4433de6fc2ccc4d0df4a,616d4433de6fc2ccc4d0df4a,22,wall,filler,D,25,wall15.jpg,wall35.jpg,GoalA,NULL
1687287388,962760e4262f1ba69cbc0fac6bed0524,PennController,25,0,experiment,NULL,Selector,choice,Selection,option2,1687287188747,616d4433de6fc2ccc4d0df4a,616d4433de6fc2ccc4d0df4a,22,wall,filler,D,25,wall15.jpg,wall35.jpg,GoalA,option1;option2
1687287388,962760e4262f1ba69cbc0fac6bed0524,PennController,25,0,experiment,NULL,PennController,24,_Trial_,End,1687287188749,616d4433de6fc2ccc4d0df4a,616d4433de6fc2ccc4d0df4a,22,wall,filler,D,25,wall15.jpg,wall35.jpg,GoalA,NULL
1687287388,962760e4262f1ba69cbc0fac6bed0524,PennController,18,0,experiment,NULL,PennController,17,_Trial_,Start,1687287188751,616d4433de6fc2ccc4d0df4a,616d4433de6fc2ccc4d0df4a,15,zip,critical,D,75,zip65.jpg,zip85.jpg,high,NULL
1687287388,962760e4262f1ba69cbc0fac6bed0524,PennController,18,0,experiment,NULL,PennController,17,_Header_,Start,1687287188751,616d4433de6fc2ccc4d0df4a,616d4433de6fc2ccc4d0df4a,15,zip,critical,D,75,zip65.jpg,zip85.jpg,high,NULL
1687287388,962760e4262f1ba69cbc0fac6bed0524,PennController,18,0,experiment,NULL,PennController,17,_Header_,End,1687287188751,616d4433de6fc2ccc4d0df4a,616d4433de6fc2ccc4d0df4a,15,zip,critical,D,75,zip65.jpg,zip85.jpg,high,NULL
1687287388,962760e4262f1ba69cbc0fac6bed0524,PennController,18,0,experiment,NULL,Canvas,canvas6,Print,NA,1687287195654,616d4433de6fc2ccc4d0df4a,616d4433de6fc2ccc4d0df4a,15,zip,critical,D,75,zip65.jpg,zip85.jpg,high,NULL
1687287388,962760e4262f1ba69cbc0fac6bed0524,PennController,18,0,experiment,NULL,Video,progression,buffer,0.006118,1687287192288,616d4433de6fc2ccc4d0df4a,616d4433de6fc2ccc4d0df4a,15,zip,critical,D,75,zip65.jpg,zip85.jpg,high,NULL
1687287388,962760e4262f1ba69cbc0fac6bed0524,PennController,18,0,experiment,NULL,Selector,choice,Selection,option2,1687287197064,616d4433de6fc2ccc4d0df4a,616d4433de6fc2ccc4d0df4a,15,zip,critical,D,75,zip65.jpg,zip85.jpg,high,option2;option1
1687287388,962760e4262f1ba69cbc0fac6bed0524,PennController,18,0,experiment,NULL,PennController,17,_Trial_,End,1687287197066,616d4433de6fc2ccc4d0df4a,616d4433de6fc2ccc4d0df4a,15,zip,critical,D,75,zip65.jpg,zip85.jpg,high,NULL
1687287388,962760e4262f1ba69cbc0fac6bed0524,PennController,24,0,experiment,NULL,PennController,23,_Trial_,Start,1687287197068,616d4433de6fc2ccc4d0df4a,616d4433de6fc2ccc4d0df4a,21,visit,filler,D,75,visit65.jpg,visit85.jpg,GoalB,NULL
1687287388,962760e4262f1ba69cbc0fac6bed0524,PennController,24,0,experiment,NULL,PennController,23,_Header_,Start,1687287197068,616d4433de6fc2ccc4d0df4a,616d4433de6fc2ccc4d0df4a,21,visit,filler,D,75,visit65.jpg,visit85.jpg,GoalB,NULL
1687287388,962760e4262f1ba69cbc0fac6bed0524,PennController,24,0,experiment,NULL,PennController,23,_Header_,End,1687287197068,616d4433de6fc2ccc4d0df4a,616d4433de6fc2ccc4d0df4a,21,visit,filler,D,75,visit65.jpg,visit85.jpg,GoalB,NULL
1687287388,962760e4262f1ba69cbc0fac6bed0524,PennController,24,0,experiment,NULL,Canvas,canvas6,Print,NA,1687287204755,616d4433de6fc2ccc4d0df4a,616d4433de6fc2ccc4d0df4a,21,visit,filler,D,75,visit65.jpg,visit85.jpg,GoalB,NULL
1687287388,962760e4262f1ba69cbc0fac6bed0524,PennController,24,0,experiment,NULL,Video,progression,buffer,0.004743,1687287200593,616d4433de6fc2ccc4d0df4a,616d4433de6fc2ccc4d0df4a,21,visit,filler,D,75,visit65.jpg,visit85.jpg,GoalB,NULL
1687287388,962760e4262f1ba69cbc0fac6bed0524,PennController,24,0,experiment,NULL,Selector,choice,Selection,option2,1687287206651,616d4433de6fc2ccc4d0df4a,616d4433de6fc2ccc4d0df4a,21,visit,filler,D,75,visit65.jpg,visit85.jpg,GoalB,option1;option2
1687287388,962760e4262f1ba69cbc0fac6bed0524,PennController,24,0,experiment,NULL,PennController,23,_Trial_,End,1687287206653,616d4433de6fc2ccc4d0df4a,616d4433de6fc2ccc4d0df4a,21,visit,filler,D,75,visit65.jpg,visit85.jpg,GoalB,NULL
1687287388,962760e4262f1ba69cbc0fac6bed0524,PennController,21,0,experiment,NULL,PennController,20,_Trial_,Start,1687287206655,616d4433de6fc2ccc4d0df4a,616d4433de6fc2ccc4d0df4a,18,ball,critical,D,75,ball65.jpg,ball85.jpg,high,NULL
1687287388,962760e4262f1ba69cbc0fac6bed0524,PennController,21,0,experiment,NULL,PennController,20,_Header_,Start,1687287206655,616d4433de6fc2ccc4d0df4a,616d4433de6fc2ccc4d0df4a,18,ball,critical,D,75,ball65.jpg,ball85.jpg,high,NULL
1687287388,962760e4262f1ba69cbc0fac6bed0524,PennController,21,0,experiment,NULL,PennController,20,_Header_,End,1687287206655,616d4433de6fc2ccc4d0df4a,616d4433de6fc2ccc4d0df4a,18,ball,critical,D,75,ball65.jpg,ball85.jpg,high,NULL
1687287388,962760e4262f1ba69cbc0fac6bed0524,PennController,21,0,experiment,NULL,Canvas,canvas6,Print,NA,1687287214360,616d4433de6fc2ccc4d0df4a,616d4433de6fc2ccc4d0df4a,18,ball,critical,D,75,ball65.jpg,ball85.jpg,high,NULL
1687287388,962760e4262f1ba69cbc0fac6bed0524,PennController,21,0,experiment,NULL,Video,progression,buffer,0.006139,1687287210186,616d4433de6fc2ccc4d0df4a,616d4433de6fc2ccc4d0df4a,18,ball,critical,D,75,ball65.jpg,ball85.jpg,high,NULL
1687287388,962760e4262f1ba69cbc0fac6bed0524,PennController,21,0,experiment,NULL,Selector,choice,Selection,option2,1687287216152,616d4433de6fc2ccc4d0df4a,616d4433de6fc2ccc4d0df4a,18,ball,critical,D,75,ball65.jpg,ball85.jpg,high,option1;option2
1687287388,962760e4262f1ba69cbc0fac6bed0524,PennController,21,0,experiment,NULL,PennController,20,_Trial_,End,1687287216154,616d4433de6fc2ccc4d0df4a,616d4433de6fc2ccc4d0df4a,18,ball,critical,D,75,ball65.jpg,ball85.jpg,high,NULL
1687287388,962760e4262f1ba69cbc0fac6bed0524,PennController,10,0,experiment,NULL,PennController,9,_Trial_,Start,1687287216156,616d4433de6fc2ccc4d0df4a,616d4433de6fc2ccc4d0df4a,7,stack,critical,D,25,stack15.jpg,stack35.jpg,high,NULL
1687287388,962760e4262f1ba69cbc0fac6bed0524,PennController,10,0,experiment,NULL,PennController,9,_Header_,Start,1687287216156,616d4433de6fc2ccc4d0df4a,616d4433de6fc2ccc4d0df4a,7,stack,critical,D,25,stack15.jpg,stack35.jpg,high,NULL
1687287388,962760e4262f1ba69cbc0fac6bed0524,PennController,10,0,experiment,NULL,PennController,9,_Header_,End,1687287216156,616d4433de6fc2ccc4d0df4a,616d4433de6fc2ccc4d0df4a,7,stack,critical,D,25,stack15.jpg,stack35.jpg,high,NULL
1687287388,962760e4262f1ba69cbc0fac6bed0524,PennController,10,0,experiment,NULL,Canvas,canvas6,Print,NA,1687287221858,616d4433de6fc2ccc4d0df4a,616d4433de6fc2ccc4d0df4a,7,stack,critical,D,25,stack15.jpg,stack35.jpg,high,NULL
1687287388,962760e4262f1ba69cbc0fac6bed0524,PennController,10,0,experiment,NULL,Video,progression,buffer,0.002222,1687287219689,616d4433de6fc2ccc4d0df4a,616d4433de6fc2ccc4d0df4a,7,stack,critical,D,25,stack15.jpg,stack35.jpg,high,NULL
1687287388,962760e4262f1ba69cbc0fac6bed0524,PennController,10,0,experiment,NULL,Selector,choice,Selection,option2,1687287224319,616d4433de6fc2ccc4d0df4a,616d4433de6fc2ccc4d0df4a,7,stack,critical,D,25,stack15.jpg,stack35.jpg,high,option2;option1
1687287388,962760e4262f1ba69cbc0fac6bed0524,PennController,10,0,experiment,NULL,PennController,9,_Trial_,End,1687287224321,616d4433de6fc2ccc4d0df4a,616d4433de6fc2ccc4d0df4a,7,stack,critical,D,25,stack15.jpg,stack35.jpg,high,NULL
1687287388,962760e4262f1ba69cbc0fac6bed0524,PennController,16,0,experiment,NULL,PennController,15,_Trial_,Start,1687287224322,616d4433de6fc2ccc4d0df4a,616d4433de6fc2ccc4d0df4a,13,mix,critical,D,25,mix15.jpg,mix35.jpg,high,NULL
1687287388,962760e4262f1ba69cbc0fac6bed0524,PennController,16,0,experiment,NULL,PennController,15,_Header_,Start,1687287224322,616d4433de6fc2ccc4d0df4a,616d4433de6fc2ccc4d0df4a,13,mix,critical,D,25,mix15.jpg,mix35.jpg,high,NULL
1687287388,962760e4262f1ba69cbc0fac6bed0524,PennController,16,0,experiment,NULL,PennController,15,_Header_,End,1687287224322,616d4433de6fc2ccc4d0df4a,616d4433de6fc2ccc4d0df4a,13,mix,critical,D,25,mix15.jpg,mix35.jpg,high,NULL
1687287388,962760e4262f1ba69cbc0fac6bed0524,PennController,16,0,experiment,NULL,Canvas,canvas6,Print,NA,1687287230027,616d4433de6fc2ccc4d0df4a,616d4433de6fc2ccc4d0df4a,13,mix,critical,D,25,mix15.jpg,mix35.jpg,high,NULL
1687287388,962760e4262f1ba69cbc0fac6bed0524,PennController,16,0,experiment,NULL,Video,progression,buffer,0.004689,1687287227852,616d4433de6fc2ccc4d0df4a,616d4433de6fc2ccc4d0df4a,13,mix,critical,D,25,mix15.jpg,mix35.jpg,high,NULL
1687287388,962760e4262f1ba69cbc0fac6bed0524,PennController,16,0,experiment,NULL,Selector,choice,Selection,option1,1687287231284,616d4433de6fc2ccc4d0df4a,616d4433de6fc2ccc4d0df4a,13,mix,critical,D,25,mix15.jpg,mix35.jpg,high,option2;option1
1687287388,962760e4262f1ba69cbc0fac6bed0524,PennController,16,0,experiment,NULL,PennController,15,_Trial_,End,1687287231286,616d4433de6fc2ccc4d0df4a,616d4433de6fc2ccc4d0df4a,13,mix,critical,D,25,mix15.jpg,mix35.jpg,high,NULL
1687287388,962760e4262f1ba69cbc0fac6bed0524,PennController,26,0,experiment,NULL,PennController,25,_Trial_,Start,1687287231288,616d4433de6fc2ccc4d0df4a,616d4433de6fc2ccc4d0df4a,23,color,filler,D,50,color40.jpg,color60.jpg,GoalB,NULL
1687287388,962760e4262f1ba69cbc0fac6bed0524,PennController,26,0,experiment,NULL,PennController,25,_Header_,Start,1687287231288,616d4433de6fc2ccc4d0df4a,616d4433de6fc2ccc4d0df4a,23,color,filler,D,50,color40.jpg,color60.jpg,GoalB,NULL
1687287388,962760e4262f1ba69cbc0fac6bed0524,PennController,26,0,experiment,NULL,PennController,25,_Header_,End,1687287231288,616d4433de6fc2ccc4d0df4a,616d4433de6fc2ccc4d0df4a,23,color,filler,D,50,color40.jpg,color60.jpg,GoalB,NULL
1687287388,962760e4262f1ba69cbc0fac6bed0524,PennController,26,0,experiment,NULL,Canvas,canvas6,Print,NA,1687287237976,616d4433de6fc2ccc4d0df4a,616d4433de6fc2ccc4d0df4a,23,color,filler,D,50,color40.jpg,color60.jpg,GoalB,NULL
1687287388,962760e4262f1ba69cbc0fac6bed0524,PennController,26,0,experiment,NULL,Video,progression,buffer,0.003315,1687287234812,616d4433de6fc2ccc4d0df4a,616d4433de6fc2ccc4d0df4a,23,color,filler,D,50,color40.jpg,color60.jpg,GoalB,NULL
1687287388,962760e4262f1ba69cbc0fac6bed0524,PennController,26,0,experiment,NULL,Selector,choice,Selection,option2,1687287240685,616d4433de6fc2ccc4d0df4a,616d4433de6fc2ccc4d0df4a,23,color,filler,D,50,color40.jpg,color60.jpg,GoalB,option1;option2
1687287388,962760e4262f1ba69cbc0fac6bed0524,PennController,26,0,experiment,NULL,PennController,25,_Trial_,End,1687287240687,616d4433de6fc2ccc4d0df4a,616d4433de6fc2ccc4d0df4a,23,color,filler,D,50,color40.jpg,color60.jpg,GoalB,NULL
1687287388,962760e4262f1ba69cbc0fac6bed0524,PennController,4,0,experiment,NULL,PennController,3,_Trial_,Start,1687287240689,616d4433de6fc2ccc4d0df4a,616d4433de6fc2ccc4d0df4a,1,vase,critical,D,25,vase15.jpg,vase35.jpg,high,NULL
1687287388,962760e4262f1ba69cbc0fac6bed0524,PennController,4,0,experiment,NULL,PennController,3,_Header_,Start,1687287240689,616d4433de6fc2ccc4d0df4a,616d4433de6fc2ccc4d0df4a,1,vase,critical,D,25,vase15.jpg,vase35.jpg,high,NULL
1687287388,962760e4262f1ba69cbc0fac6bed0524,PennController,4,0,experiment,NULL,PennController,3,_Header_,End,1687287240689,616d4433de6fc2ccc4d0df4a,616d4433de6fc2ccc4d0df4a,1,vase,critical,D,25,vase15.jpg,vase35.jpg,high,NULL
1687287388,962760e4262f1ba69cbc0fac6bed0524,PennController,4,0,experiment,NULL,Canvas,canvas6,Print,NA,1687287246395,616d4433de6fc2ccc4d0df4a,616d4433de6fc2ccc4d0df4a,1,vase,critical,D,25,vase15.jpg,vase35.jpg,high,NULL
1687287388,962760e4262f1ba69cbc0fac6bed0524,PennController,4,0,experiment,NULL,Video,progression,buffer,0.004689,1687287244219,616d4433de6fc2ccc4d0df4a,616d4433de6fc2ccc4d0df4a,1,vase,critical,D,25,vase15.jpg,vase35.jpg,high,NULL
1687287388,962760e4262f1ba69cbc0fac6bed0524,PennController,4,0,experiment,NULL,Selector,choice,Selection,option2,1687287247655,616d4433de6fc2ccc4d0df4a,616d4433de6fc2ccc4d0df4a,1,vase,critical,D,25,vase15.jpg,vase35.jpg,high,option1;option2
1687287388,962760e4262f1ba69cbc0fac6bed0524,PennController,4,0,experiment,NULL,PennController,3,_Trial_,End,1687287247657,616d4433de6fc2ccc4d0df4a,616d4433de6fc2ccc4d0df4a,1,vase,critical,D,25,vase15.jpg,vase35.jpg,high,NULL
1687287388,962760e4262f1ba69cbc0fac6bed0524,PennController,30,0,experiment,NULL,PennController,29,_Trial_,Start,1687287247659,616d4433de6fc2ccc4d0df4a,616d4433de6fc2ccc4d0df4a,27,square,filler,D,75,square65.jpg,square85.jpg,GoalB,NULL
1687287388,962760e4262f1ba69cbc0fac6bed0524,PennController,30,0,experiment,NULL,PennController,29,_Header_,Start,1687287247659,616d4433de6fc2ccc4d0df4a,616d4433de6fc2ccc4d0df4a,27,square,filler,D,75,square65.jpg,square85.jpg,GoalB,NULL
1687287388,962760e4262f1ba69cbc0fac6bed0524,PennController,30,0,experiment,NULL,PennController,29,_Header_,End,1687287247659,616d4433de6fc2ccc4d0df4a,616d4433de6fc2ccc4d0df4a,27,square,filler,D,75,square65.jpg,square85.jpg,GoalB,NULL
1687287388,962760e4262f1ba69cbc0fac6bed0524,PennController,30,0,experiment,NULL,Canvas,canvas6,Print,NA,1687287255364,616d4433de6fc2ccc4d0df4a,616d4433de6fc2ccc4d0df4a,27,square,filler,D,75,square65.jpg,square85.jpg,GoalB,NULL
1687287388,962760e4262f1ba69cbc0fac6bed0524,PennController,30,0,experiment,NULL,Video,progression,buffer,0.006251,1687287251189,616d4433de6fc2ccc4d0df4a,616d4433de6fc2ccc4d0df4a,27,square,filler,D,75,square65.jpg,square85.jpg,GoalB,NULL
1687287388,962760e4262f1ba69cbc0fac6bed0524,PennController,30,0,experiment,NULL,Selector,choice,Selection,option1,1687287257506,616d4433de6fc2ccc4d0df4a,616d4433de6fc2ccc4d0df4a,27,square,filler,D,75,square65.jpg,square85.jpg,GoalB,option1;option2
1687287388,962760e4262f1ba69cbc0fac6bed0524,PennController,30,0,experiment,NULL,PennController,29,_Trial_,End,1687287257508,616d4433de6fc2ccc4d0df4a,616d4433de6fc2ccc4d0df4a,27,square,filler,D,75,square65.jpg,square85.jpg,GoalB,NULL
1687287388,962760e4262f1ba69cbc0fac6bed0524,PennController,14,0,experiment,NULL,PennController,13,_Trial_,Start,1687287257510,616d4433de6fc2ccc4d0df4a,616d4433de6fc2ccc4d0df4a,11,beads,critical,D,50,beads40.jpg,beads60.jpg,high,NULL
1687287388,962760e4262f1ba69cbc0fac6bed0524,PennController,14,0,experiment,NULL,PennController,13,_Header_,Start,1687287257510,616d4433de6fc2ccc4d0df4a,616d4433de6fc2ccc4d0df4a,11,beads,critical,D,50,beads40.jpg,beads60.jpg,high,NULL
1687287388,962760e4262f1ba69cbc0fac6bed0524,PennController,14,0,experiment,NULL,PennController,13,_Header_,End,1687287257510,616d4433de6fc2ccc4d0df4a,616d4433de6fc2ccc4d0df4a,11,beads,critical,D,50,beads40.jpg,beads60.jpg,high,NULL
1687287388,962760e4262f1ba69cbc0fac6bed0524,PennController,14,0,experiment,NULL,Canvas,canvas6,Print,NA,1687287264213,616d4433de6fc2ccc4d0df4a,616d4433de6fc2ccc4d0df4a,11,beads,critical,D,50,beads40.jpg,beads60.jpg,high,NULL
1687287388,962760e4262f1ba69cbc0fac6bed0524,PennController,14,0,experiment,NULL,Video,progression,buffer,0.004093,1687287261036,616d4433de6fc2ccc4d0df4a,616d4433de6fc2ccc4d0df4a,11,beads,critical,D,50,beads40.jpg,beads60.jpg,high,NULL
1687287388,962760e4262f1ba69cbc0fac6bed0524,PennController,14,0,experiment,NULL,Selector,choice,Selection,option2,1687287266823,616d4433de6fc2ccc4d0df4a,616d4433de6fc2ccc4d0df4a,11,beads,critical,D,50,beads40.jpg,beads60.jpg,high,option2;option1
1687287388,962760e4262f1ba69cbc0fac6bed0524,PennController,14,0,experiment,NULL,PennController,13,_Trial_,End,1687287266825,616d4433de6fc2ccc4d0df4a,616d4433de6fc2ccc4d0df4a,11,beads,critical,D,50,beads40.jpg,beads60.jpg,high,NULL
1687287388,962760e4262f1ba69cbc0fac6bed0524,PennController,32,0,experiment,NULL,PennController,31,_Trial_,Start,1687287266826,616d4433de6fc2ccc4d0df4a,616d4433de6fc2ccc4d0df4a,29,frog,filler,D,50,frog40.jpg,frog60.jpg,GoalB,NULL
1687287388,962760e4262f1ba69cbc0fac6bed0524,PennController,32,0,experiment,NULL,PennController,31,_Header_,Start,1687287266826,616d4433de6fc2ccc4d0df4a,616d4433de6fc2ccc4d0df4a,29,frog,filler,D,50,frog40.jpg,frog60.jpg,GoalB,NULL
1687287388,962760e4262f1ba69cbc0fac6bed0524,PennController,32,0,experiment,NULL,PennController,31,_Header_,End,1687287266826,616d4433de6fc2ccc4d0df4a,616d4433de6fc2ccc4d0df4a,29,frog,filler,D,50,frog40.jpg,frog60.jpg,GoalB,NULL
1687287388,962760e4262f1ba69cbc0fac6bed0524,PennController,32,0,experiment,NULL,Canvas,canvas6,Print,NA,1687287273512,616d4433de6fc2ccc4d0df4a,616d4433de6fc2ccc4d0df4a,29,frog,filler,D,50,frog40.jpg,frog60.jpg,GoalB,NULL
1687287388,962760e4262f1ba69cbc0fac6bed0524,PennController,32,0,experiment,NULL,Video,progression,buffer,0.004005,1687287270349,616d4433de6fc2ccc4d0df4a,616d4433de6fc2ccc4d0df4a,29,frog,filler,D,50,frog40.jpg,frog60.jpg,GoalB,NULL
1687287388,962760e4262f1ba69cbc0fac6bed0524,PennController,32,0,experiment,NULL,Selector,choice,Selection,option2,1687287274555,616d4433de6fc2ccc4d0df4a,616d4433de6fc2ccc4d0df4a,29,frog,filler,D,50,frog40.jpg,frog60.jpg,GoalB,option1;option2
1687287388,962760e4262f1ba69cbc0fac6bed0524,PennController,32,0,experiment,NULL,PennController,31,_Trial_,End,1687287274557,616d4433de6fc2ccc4d0df4a,616d4433de6fc2ccc4d0df4a,29,frog,filler,D,50,frog40.jpg,frog60.jpg,GoalB,NULL
1687287388,962760e4262f1ba69cbc0fac6bed0524,PennController,9,0,experiment,NULL,PennController,8,_Trial_,Start,1687287274558,616d4433de6fc2ccc4d0df4a,616d4433de6fc2ccc4d0df4a,6,flower,critical,D,75,flower65.jpg,flower85.jpg,high,NULL
1687287388,962760e4262f1ba69cbc0fac6bed0524,PennController,9,0,experiment,NULL,PennController,8,_Header_,Start,1687287274558,616d4433de6fc2ccc4d0df4a,616d4433de6fc2ccc4d0df4a,6,flower,critical,D,75,flower65.jpg,flower85.jpg,high,NULL
1687287388,962760e4262f1ba69cbc0fac6bed0524,PennController,9,0,experiment,NULL,PennController,8,_Header_,End,1687287274558,616d4433de6fc2ccc4d0df4a,616d4433de6fc2ccc4d0df4a,6,flower,critical,D,75,flower65.jpg,flower85.jpg,high,NULL
1687287388,962760e4262f1ba69cbc0fac6bed0524,PennController,9,0,experiment,NULL,Canvas,canvas6,Print,NA,1687287282267,616d4433de6fc2ccc4d0df4a,616d4433de6fc2ccc4d0df4a,6,flower,critical,D,75,flower65.jpg,flower85.jpg,high,NULL
1687287388,962760e4262f1ba69cbc0fac6bed0524,PennController,9,0,experiment,NULL,Video,progression,buffer,0.004473,1687287278090,616d4433de6fc2ccc4d0df4a,616d4433de6fc2ccc4d0df4a,6,flower,critical,D,75,flower65.jpg,flower85.jpg,high,NULL
1687287388,962760e4262f1ba69cbc0fac6bed0524,PennController,9,0,experiment,NULL,Selector,choice,Selection,option2,1687287283556,616d4433de6fc2ccc4d0df4a,616d4433de6fc2ccc4d0df4a,6,flower,critical,D,75,flower65.jpg,flower85.jpg,high,option1;option2
1687287388,962760e4262f1ba69cbc0fac6bed0524,PennController,9,0,experiment,NULL,PennController,8,_Trial_,End,1687287283558,616d4433de6fc2ccc4d0df4a,616d4433de6fc2ccc4d0df4a,6,flower,critical,D,75,flower65.jpg,flower85.jpg,high,NULL
1687287388,962760e4262f1ba69cbc0fac6bed0524,PennController,29,0,experiment,NULL,PennController,28,_Trial_,Start,1687287283560,616d4433de6fc2ccc4d0df4a,616d4433de6fc2ccc4d0df4a,26,sandwich,filler,D,50,sandwich40.jpg,sandwich60.jpg,GoalA,NULL
1687287388,962760e4262f1ba69cbc0fac6bed0524,PennController,29,0,experiment,NULL,PennController,28,_Header_,Start,1687287283560,616d4433de6fc2ccc4d0df4a,616d4433de6fc2ccc4d0df4a,26,sandwich,filler,D,50,sandwich40.jpg,sandwich60.jpg,GoalA,NULL
1687287388,962760e4262f1ba69cbc0fac6bed0524,PennController,29,0,experiment,NULL,PennController,28,_Header_,End,1687287283560,616d4433de6fc2ccc4d0df4a,616d4433de6fc2ccc4d0df4a,26,sandwich,filler,D,50,sandwich40.jpg,sandwich60.jpg,GoalA,NULL
1687287388,962760e4262f1ba69cbc0fac6bed0524,PennController,29,0,experiment,NULL,Canvas,canvas6,Print,NA,1687287290249,616d4433de6fc2ccc4d0df4a,616d4433de6fc2ccc4d0df4a,26,sandwich,filler,D,50,sandwich40.jpg,sandwich60.jpg,GoalA,NULL
1687287388,962760e4262f1ba69cbc0fac6bed0524,PennController,29,0,experiment,NULL,Video,progression,buffer,0.004878,1687287287082,616d4433de6fc2ccc4d0df4a,616d4433de6fc2ccc4d0df4a,26,sandwich,filler,D,50,sandwich40.jpg,sandwich60.jpg,GoalA,NULL
1687287388,962760e4262f1ba69cbc0fac6bed0524,PennController,29,0,experiment,NULL,Selector,choice,Selection,option1,1687287291207,616d4433de6fc2ccc4d0df4a,616d4433de6fc2ccc4d0df4a,26,sandwich,filler,D,50,sandwich40.jpg,sandwich60.jpg,GoalA,option2;option1
1687287388,962760e4262f1ba69cbc0fac6bed0524,PennController,29,0,experiment,NULL,PennController,28,_Trial_,End,1687287291208,616d4433de6fc2ccc4d0df4a,616d4433de6fc2ccc4d0df4a,26,sandwich,filler,D,50,sandwich40.jpg,sandwich60.jpg,GoalA,NULL
1687287388,962760e4262f1ba69cbc0fac6bed0524,PennController,22,0,experiment,NULL,PennController,21,_Trial_,Start,1687287291210,616d4433de6fc2ccc4d0df4a,616d4433de6fc2ccc4d0df4a,19,cup,filler,D,25,cup15.jpg,cup35.jpg,GoalB,NULL
1687287388,962760e4262f1ba69cbc0fac6bed0524,PennController,22,0,experiment,NULL,PennController,21,_Header_,Start,1687287291210,616d4433de6fc2ccc4d0df4a,616d4433de6fc2ccc4d0df4a,19,cup,filler,D,25,cup15.jpg,cup35.jpg,GoalB,NULL
1687287388,962760e4262f1ba69cbc0fac6bed0524,PennController,22,0,experiment,NULL,PennController,21,_Header_,End,1687287291210,616d4433de6fc2ccc4d0df4a,616d4433de6fc2ccc4d0df4a,19,cup,filler,D,25,cup15.jpg,cup35.jpg,GoalB,NULL
1687287388,962760e4262f1ba69cbc0fac6bed0524,PennController,22,0,experiment,NULL,Canvas,canvas6,Print,NA,1687287296899,616d4433de6fc2ccc4d0df4a,616d4433de6fc2ccc4d0df4a,19,cup,filler,D,25,cup15.jpg,cup35.jpg,GoalB,NULL
1687287388,962760e4262f1ba69cbc0fac6bed0524,PennController,22,0,experiment,NULL,Video,progression,buffer,0.003136,1687287294733,616d4433de6fc2ccc4d0df4a,616d4433de6fc2ccc4d0df4a,19,cup,filler,D,25,cup15.jpg,cup35.jpg,GoalB,NULL
1687287388,962760e4262f1ba69cbc0fac6bed0524,PennController,22,0,experiment,NULL,Selector,choice,Selection,option2,1687287297757,616d4433de6fc2ccc4d0df4a,616d4433de6fc2ccc4d0df4a,19,cup,filler,D,25,cup15.jpg,cup35.jpg,GoalB,option2;option1
1687287388,962760e4262f1ba69cbc0fac6bed0524,PennController,22,0,experiment,NULL,PennController,21,_Trial_,End,1687287297759,616d4433de6fc2ccc4d0df4a,616d4433de6fc2ccc4d0df4a,19,cup,filler,D,25,cup15.jpg,cup35.jpg,GoalB,NULL
1687287388,962760e4262f1ba69cbc0fac6bed0524,PennController,31,0,experiment,NULL,PennController,30,_Trial_,Start,1687287297761,616d4433de6fc2ccc4d0df4a,616d4433de6fc2ccc4d0df4a,28,sort,filler,D,25,sort15.jpg,sort35.jpg,GoalA,NULL
1687287388,962760e4262f1ba69cbc0fac6bed0524,PennController,31,0,experiment,NULL,PennController,30,_Header_,Start,1687287297761,616d4433de6fc2ccc4d0df4a,616d4433de6fc2ccc4d0df4a,28,sort,filler,D,25,sort15.jpg,sort35.jpg,GoalA,NULL
1687287388,962760e4262f1ba69cbc0fac6bed0524,PennController,31,0,experiment,NULL,PennController,30,_Header_,End,1687287297761,616d4433de6fc2ccc4d0df4a,616d4433de6fc2ccc4d0df4a,28,sort,filler,D,25,sort15.jpg,sort35.jpg,GoalA,NULL
1687287388,962760e4262f1ba69cbc0fac6bed0524,PennController,31,0,experiment,NULL,Canvas,canvas6,Print,NA,1687287303467,616d4433de6fc2ccc4d0df4a,616d4433de6fc2ccc4d0df4a,28,sort,filler,D,25,sort15.jpg,sort35.jpg,GoalA,NULL
1687287388,962760e4262f1ba69cbc0fac6bed0524,PennController,31,0,experiment,NULL,Video,progression,buffer,0.003839,1687287301286,616d4433de6fc2ccc4d0df4a,616d4433de6fc2ccc4d0df4a,28,sort,filler,D,25,sort15.jpg,sort35.jpg,GoalA,NULL
1687287388,962760e4262f1ba69cbc0fac6bed0524,PennController,31,0,experiment,NULL,Selector,choice,Selection,option1,1687287305760,616d4433de6fc2ccc4d0df4a,616d4433de6fc2ccc4d0df4a,28,sort,filler,D,25,sort15.jpg,sort35.jpg,GoalA,option2;option1
1687287388,962760e4262f1ba69cbc0fac6bed0524,PennController,31,0,experiment,NULL,PennController,30,_Trial_,End,1687287305762,616d4433de6fc2ccc4d0df4a,616d4433de6fc2ccc4d0df4a,28,sort,filler,D,25,sort15.jpg,sort35.jpg,GoalA,NULL
1687287388,962760e4262f1ba69cbc0fac6bed0524,PennController,6,0,experiment,NULL,PennController,5,_Trial_,Start,1687287305764,616d4433de6fc2ccc4d0df4a,616d4433de6fc2ccc4d0df4a,3,clean,critical,D,75,clean65.jpg,clean85.jpg,high,NULL
1687287388,962760e4262f1ba69cbc0fac6bed0524,PennController,6,0,experiment,NULL,PennController,5,_Header_,Start,1687287305764,616d4433de6fc2ccc4d0df4a,616d4433de6fc2ccc4d0df4a,3,clean,critical,D,75,clean65.jpg,clean85.jpg,high,NULL
1687287388,962760e4262f1ba69cbc0fac6bed0524,PennController,6,0,experiment,NULL,PennController,5,_Header_,End,1687287305764,616d4433de6fc2ccc4d0df4a,616d4433de6fc2ccc4d0df4a,3,clean,critical,D,75,clean65.jpg,clean85.jpg,high,NULL
1687287388,962760e4262f1ba69cbc0fac6bed0524,PennController,6,0,experiment,NULL,Canvas,canvas6,Print,NA,1687287313468,616d4433de6fc2ccc4d0df4a,616d4433de6fc2ccc4d0df4a,3,clean,critical,D,75,clean65.jpg,clean85.jpg,high,NULL
1687287388,962760e4262f1ba69cbc0fac6bed0524,PennController,6,0,experiment,NULL,Video,progression,buffer,0.004593,1687287309292,616d4433de6fc2ccc4d0df4a,616d4433de6fc2ccc4d0df4a,3,clean,critical,D,75,clean65.jpg,clean85.jpg,high,NULL
1687287388,962760e4262f1ba69cbc0fac6bed0524,PennController,6,0,experiment,NULL,Selector,choice,Selection,option1,1687287316395,616d4433de6fc2ccc4d0df4a,616d4433de6fc2ccc4d0df4a,3,clean,critical,D,75,clean65.jpg,clean85.jpg,high,option2;option1
1687287388,962760e4262f1ba69cbc0fac6bed0524,PennController,6,0,experiment,NULL,PennController,5,_Trial_,End,1687287316396,616d4433de6fc2ccc4d0df4a,616d4433de6fc2ccc4d0df4a,3,clean,critical,D,75,clean65.jpg,clean85.jpg,high,NULL
1687287388,962760e4262f1ba69cbc0fac6bed0524,PennController,20,0,experiment,NULL,PennController,19,_Trial_,Start,1687287316398,616d4433de6fc2ccc4d0df4a,616d4433de6fc2ccc4d0df4a,17,roll,critical,D,50,roll40.jpg,roll60.jpg,high,NULL
1687287388,962760e4262f1ba69cbc0fac6bed0524,PennController,20,0,experiment,NULL,PennController,19,_Header_,Start,1687287316398,616d4433de6fc2ccc4d0df4a,616d4433de6fc2ccc4d0df4a,17,roll,critical,D,50,roll40.jpg,roll60.jpg,high,NULL
1687287388,962760e4262f1ba69cbc0fac6bed0524,PennController,20,0,experiment,NULL,PennController,19,_Header_,End,1687287316398,616d4433de6fc2ccc4d0df4a,616d4433de6fc2ccc4d0df4a,17,roll,critical,D,50,roll40.jpg,roll60.jpg,high,NULL
1687287388,962760e4262f1ba69cbc0fac6bed0524,PennController,20,0,experiment,NULL,Canvas,canvas6,Print,NA,1687287323101,616d4433de6fc2ccc4d0df4a,616d4433de6fc2ccc4d0df4a,17,roll,critical,D,50,roll40.jpg,roll60.jpg,high,NULL
1687287388,962760e4262f1ba69cbc0fac6bed0524,PennController,20,0,experiment,NULL,Video,progression,buffer,0.004676,1687287319931,616d4433de6fc2ccc4d0df4a,616d4433de6fc2ccc4d0df4a,17,roll,critical,D,50,roll40.jpg,roll60.jpg,high,NULL
1687287388,962760e4262f1ba69cbc0fac6bed0524,PennController,20,0,experiment,NULL,Selector,choice,Selection,option2,1687287324310,616d4433de6fc2ccc4d0df4a,616d4433de6fc2ccc4d0df4a,17,roll,critical,D,50,roll40.jpg,roll60.jpg,high,option1;option2
1687287388,962760e4262f1ba69cbc0fac6bed0524,PennController,20,0,experiment,NULL,PennController,19,_Trial_,End,1687287324312,616d4433de6fc2ccc4d0df4a,616d4433de6fc2ccc4d0df4a,17,roll,critical,D,50,roll40.jpg,roll60.jpg,high,NULL
1687287388,962760e4262f1ba69cbc0fac6bed0524,PennController,28,0,experiment,NULL,PennController,27,_Trial_,Start,1687287324314,616d4433de6fc2ccc4d0df4a,616d4433de6fc2ccc4d0df4a,25,house,filler,D,25,house15.jpg,house35.jpg,GoalB,NULL
1687287388,962760e4262f1ba69cbc0fac6bed0524,PennController,28,0,experiment,NULL,PennController,27,_Header_,Start,1687287324314,616d4433de6fc2ccc4d0df4a,616d4433de6fc2ccc4d0df4a,25,house,filler,D,25,house15.jpg,house35.jpg,GoalB,NULL
1687287388,962760e4262f1ba69cbc0fac6bed0524,PennController,28,0,experiment,NULL,PennController,27,_Header_,End,1687287324314,616d4433de6fc2ccc4d0df4a,616d4433de6fc2ccc4d0df4a,25,house,filler,D,25,house15.jpg,house35.jpg,GoalB,NULL
1687287388,962760e4262f1ba69cbc0fac6bed0524,PennController,28,0,experiment,NULL,Canvas,canvas6,Print,NA,1687287330003,616d4433de6fc2ccc4d0df4a,616d4433de6fc2ccc4d0df4a,25,house,filler,D,25,house15.jpg,house35.jpg,GoalB,NULL
1687287388,962760e4262f1ba69cbc0fac6bed0524,PennController,28,0,experiment,NULL,Video,progression,buffer,0.003311,1687287327838,616d4433de6fc2ccc4d0df4a,616d4433de6fc2ccc4d0df4a,25,house,filler,D,25,house15.jpg,house35.jpg,GoalB,NULL
1687287388,962760e4262f1ba69cbc0fac6bed0524,PennController,28,0,experiment,NULL,Selector,choice,Selection,option2,1687287330894,616d4433de6fc2ccc4d0df4a,616d4433de6fc2ccc4d0df4a,25,house,filler,D,25,house15.jpg,house35.jpg,GoalB,option1;option2
1687287388,962760e4262f1ba69cbc0fac6bed0524,PennController,28,0,experiment,NULL,PennController,27,_Trial_,End,1687287330896,616d4433de6fc2ccc4d0df4a,616d4433de6fc2ccc4d0df4a,25,house,filler,D,25,house15.jpg,house35.jpg,GoalB,NULL
1687287388,962760e4262f1ba69cbc0fac6bed0524,PennController,15,0,experiment,NULL,PennController,14,_Trial_,Start,1687287330897,616d4433de6fc2ccc4d0df4a,616d4433de6fc2ccc4d0df4a,12,erase,critical,D,75,erase66.jpg,erase84.jpg,high,NULL
1687287388,962760e4262f1ba69cbc0fac6bed0524,PennController,15,0,experiment,NULL,PennController,14,_Header_,Start,1687287330897,616d4433de6fc2ccc4d0df4a,616d4433de6fc2ccc4d0df4a,12,erase,critical,D,75,erase66.jpg,erase84.jpg,high,NULL
1687287388,962760e4262f1ba69cbc0fac6bed0524,PennController,15,0,experiment,NULL,PennController,14,_Header_,End,1687287330897,616d4433de6fc2ccc4d0df4a,616d4433de6fc2ccc4d0df4a,12,erase,critical,D,75,erase66.jpg,erase84.jpg,high,NULL
1687287388,962760e4262f1ba69cbc0fac6bed0524,PennController,15,0,experiment,NULL,Canvas,canvas6,Print,NA,1687287340589,616d4433de6fc2ccc4d0df4a,616d4433de6fc2ccc4d0df4a,12,erase,critical,D,75,erase66.jpg,erase84.jpg,high,NULL
1687287388,962760e4262f1ba69cbc0fac6bed0524,PennController,15,0,experiment,NULL,Video,progression,buffer,0.003736,1687287334420,616d4433de6fc2ccc4d0df4a,616d4433de6fc2ccc4d0df4a,12,erase,critical,D,75,erase66.jpg,erase84.jpg,high,NULL
1687287388,962760e4262f1ba69cbc0fac6bed0524,PennController,15,0,experiment,NULL,Selector,choice,Selection,option2,1687287341245,616d4433de6fc2ccc4d0df4a,616d4433de6fc2ccc4d0df4a,12,erase,critical,D,75,erase66.jpg,erase84.jpg,high,option2;option1
1687287388,962760e4262f1ba69cbc0fac6bed0524,PennController,15,0,experiment,NULL,PennController,14,_Trial_,End,1687287341247,616d4433de6fc2ccc4d0df4a,616d4433de6fc2ccc4d0df4a,12,erase,critical,D,75,erase66.jpg,erase84.jpg,high,NULL
1687287388,962760e4262f1ba69cbc0fac6bed0524,PennController,13,0,experiment,NULL,PennController,12,_Trial_,Start,1687287341248,616d4433de6fc2ccc4d0df4a,616d4433de6fc2ccc4d0df4a,10,train,critical,D,25,train15.jpg,train35.jpg,high,NULL
1687287388,962760e4262f1ba69cbc0fac6bed0524,PennController,13,0,experiment,NULL,PennController,12,_Header_,Start,1687287341248,616d4433de6fc2ccc4d0df4a,616d4433de6fc2ccc4d0df4a,10,train,critical,D,25,train15.jpg,train35.jpg,high,NULL
1687287388,962760e4262f1ba69cbc0fac6bed0524,PennController,13,0,experiment,NULL,PennController,12,_Header_,End,1687287341248,616d4433de6fc2ccc4d0df4a,616d4433de6fc2ccc4d0df4a,10,train,critical,D,25,train15.jpg,train35.jpg,high,NULL
1687287388,962760e4262f1ba69cbc0fac6bed0524,PennController,13,0,experiment,NULL,Canvas,canvas6,Print,NA,1687287346937,616d4433de6fc2ccc4d0df4a,616d4433de6fc2ccc4d0df4a,10,train,critical,D,25,train15.jpg,train35.jpg,high,NULL
1687287388,962760e4262f1ba69cbc0fac6bed0524,PennController,13,0,experiment,NULL,Video,progression,buffer,0.003808,1687287344769,616d4433de6fc2ccc4d0df4a,616d4433de6fc2ccc4d0df4a,10,train,critical,D,25,train15.jpg,train35.jpg,high,NULL
1687287388,962760e4262f1ba69cbc0fac6bed0524,PennController,13,0,experiment,NULL,Selector,choice,Selection,option2,1687287348479,616d4433de6fc2ccc4d0df4a,616d4433de6fc2ccc4d0df4a,10,train,critical,D,25,train15.jpg,train35.jpg,high,option1;option2
1687287388,962760e4262f1ba69cbc0fac6bed0524,PennController,13,0,experiment,NULL,PennController,12,_Trial_,End,1687287348481,616d4433de6fc2ccc4d0df4a,616d4433de6fc2ccc4d0df4a,10,train,critical,D,25,train15.jpg,train35.jpg,high,NULL
1687287388,962760e4262f1ba69cbc0fac6bed0524,PennController,27,0,experiment,NULL,PennController,26,_Trial_,Start,1687287348483,616d4433de6fc2ccc4d0df4a,616d4433de6fc2ccc4d0df4a,24,match,filler,D,75,match65.jpg,match85.jpg,GoalA,NULL
1687287388,962760e4262f1ba69cbc0fac6bed0524,PennController,27,0,experiment,NULL,PennController,26,_Header_,Start,1687287348483,616d4433de6fc2ccc4d0df4a,616d4433de6fc2ccc4d0df4a,24,match,filler,D,75,match65.jpg,match85.jpg,GoalA,NULL
1687287388,962760e4262f1ba69cbc0fac6bed0524,PennController,27,0,experiment,NULL,PennController,26,_Header_,End,1687287348483,616d4433de6fc2ccc4d0df4a,616d4433de6fc2ccc4d0df4a,24,match,filler,D,75,match65.jpg,match85.jpg,GoalA,NULL
1687287388,962760e4262f1ba69cbc0fac6bed0524,PennController,27,0,experiment,NULL,Canvas,canvas6,Print,NA,1687287356187,616d4433de6fc2ccc4d0df4a,616d4433de6fc2ccc4d0df4a,24,match,filler,D,75,match65.jpg,match85.jpg,GoalA,NULL
1687287388,962760e4262f1ba69cbc0fac6bed0524,PennController,27,0,experiment,NULL,Video,progression,buffer,0.004756,1687287352015,616d4433de6fc2ccc4d0df4a,616d4433de6fc2ccc4d0df4a,24,match,filler,D,75,match65.jpg,match85.jpg,GoalA,NULL
1687287388,962760e4262f1ba69cbc0fac6bed0524,PennController,27,0,experiment,NULL,Selector,choice,Selection,option2,1687287358447,616d4433de6fc2ccc4d0df4a,616d4433de6fc2ccc4d0df4a,24,match,filler,D,75,match65.jpg,match85.jpg,GoalA,option2;option1
1687287388,962760e4262f1ba69cbc0fac6bed0524,PennController,27,0,experiment,NULL,PennController,26,_Trial_,End,1687287358449,616d4433de6fc2ccc4d0df4a,616d4433de6fc2ccc4d0df4a,24,match,filler,D,75,match65.jpg,match85.jpg,GoalA,NULL
1687287388,962760e4262f1ba69cbc0fac6bed0524,PennController,12,0,experiment,NULL,PennController,11,_Trial_,Start,1687287358450,616d4433de6fc2ccc4d0df4a,616d4433de6fc2ccc4d0df4a,9,cake,critical,D,75,cake66.jpg,cake84.jpg,high,NULL
1687287388,962760e4262f1ba69cbc0fac6bed0524,PennController,12,0,experiment,NULL,PennController,11,_Header_,Start,1687287358450,616d4433de6fc2ccc4d0df4a,616d4433de6fc2ccc4d0df4a,9,cake,critical,D,75,cake66.jpg,cake84.jpg,high,NULL
1687287388,962760e4262f1ba69cbc0fac6bed0524,PennController,12,0,experiment,NULL,PennController,11,_Header_,End,1687287358451,616d4433de6fc2ccc4d0df4a,616d4433de6fc2ccc4d0df4a,9,cake,critical,D,75,cake66.jpg,cake84.jpg,high,NULL
1687287388,962760e4262f1ba69cbc0fac6bed0524,PennController,12,0,experiment,NULL,Canvas,canvas6,Print,NA,1687287368162,616d4433de6fc2ccc4d0df4a,616d4433de6fc2ccc4d0df4a,9,cake,critical,D,75,cake66.jpg,cake84.jpg,high,NULL
1687287388,962760e4262f1ba69cbc0fac6bed0524,PennController,12,0,experiment,NULL,Video,progression,buffer,0.005383,1687287361984,616d4433de6fc2ccc4d0df4a,616d4433de6fc2ccc4d0df4a,9,cake,critical,D,75,cake66.jpg,cake84.jpg,high,NULL
1687287388,962760e4262f1ba69cbc0fac6bed0524,PennController,12,0,experiment,NULL,Selector,choice,Selection,option2,1687287369014,616d4433de6fc2ccc4d0df4a,616d4433de6fc2ccc4d0df4a,9,cake,critical,D,75,cake66.jpg,cake84.jpg,high,option2;option1
1687287388,962760e4262f1ba69cbc0fac6bed0524,PennController,12,0,experiment,NULL,PennController,11,_Trial_,End,1687287369016,616d4433de6fc2ccc4d0df4a,616d4433de6fc2ccc4d0df4a,9,cake,critical,D,75,cake66.jpg,cake84.jpg,high,NULL
1687287388,962760e4262f1ba69cbc0fac6bed0524,PennController,17,0,experiment,NULL,PennController,16,_Trial_,Start,1687287369017,616d4433de6fc2ccc4d0df4a,616d4433de6fc2ccc4d0df4a,14,cover,critical,D,50,cover42.jpg,cover60.jpg,high,NULL
1687287388,962760e4262f1ba69cbc0fac6bed0524,PennController,17,0,experiment,NULL,PennController,16,_Header_,Start,1687287369017,616d4433de6fc2ccc4d0df4a,616d4433de6fc2ccc4d0df4a,14,cover,critical,D,50,cover42.jpg,cover60.jpg,high,NULL
1687287388,962760e4262f1ba69cbc0fac6bed0524,PennController,17,0,experiment,NULL,PennController,16,_Header_,End,1687287369017,616d4433de6fc2ccc4d0df4a,616d4433de6fc2ccc4d0df4a,14,cover,critical,D,50,cover42.jpg,cover60.jpg,high,NULL
1687287388,962760e4262f1ba69cbc0fac6bed0524,PennController,17,0,experiment,NULL,Canvas,canvas6,Print,NA,1687287377125,616d4433de6fc2ccc4d0df4a,616d4433de6fc2ccc4d0df4a,14,cover,critical,D,50,cover42.jpg,cover60.jpg,high,NULL
1687287388,962760e4262f1ba69cbc0fac6bed0524,PennController,17,0,experiment,NULL,Video,progression,buffer,0.00348,1687287372548,616d4433de6fc2ccc4d0df4a,616d4433de6fc2ccc4d0df4a,14,cover,critical,D,50,cover42.jpg,cover60.jpg,high,NULL
1687287388,962760e4262f1ba69cbc0fac6bed0524,PennController,17,0,experiment,NULL,Selector,choice,Selection,option2,1687287379799,616d4433de6fc2ccc4d0df4a,616d4433de6fc2ccc4d0df4a,14,cover,critical,D,50,cover42.jpg,cover60.jpg,high,option2;option1
1687287388,962760e4262f1ba69cbc0fac6bed0524,PennController,17,0,experiment,NULL,PennController,16,_Trial_,End,1687287379801,616d4433de6fc2ccc4d0df4a,616d4433de6fc2ccc4d0df4a,14,cover,critical,D,50,cover42.jpg,cover60.jpg,high,NULL
1687287388,962760e4262f1ba69cbc0fac6bed0524,PennController,5,0,experiment,NULL,PennController,4,_Trial_,Start,1687287379803,616d4433de6fc2ccc4d0df4a,616d4433de6fc2ccc4d0df4a,2,door,critical,D,50,door40.jpg,door60.jpg,high,NULL
1687287388,962760e4262f1ba69cbc0fac6bed0524,PennController,5,0,experiment,NULL,PennController,4,_Header_,Start,1687287379803,616d4433de6fc2ccc4d0df4a,616d4433de6fc2ccc4d0df4a,2,door,critical,D,50,door40.jpg,door60.jpg,high,NULL
1687287388,962760e4262f1ba69cbc0fac6bed0524,PennController,5,0,experiment,NULL,PennController,4,_Header_,End,1687287379803,616d4433de6fc2ccc4d0df4a,616d4433de6fc2ccc4d0df4a,2,door,critical,D,50,door40.jpg,door60.jpg,high,NULL
1687287388,962760e4262f1ba69cbc0fac6bed0524,PennController,5,0,experiment,NULL,Canvas,canvas6,Print,NA,1687287386509,616d4433de6fc2ccc4d0df4a,616d4433de6fc2ccc4d0df4a,2,door,critical,D,50,door40.jpg,door60.jpg,high,NULL
1687287388,962760e4262f1ba69cbc0fac6bed0524,PennController,5,0,experiment,NULL,Video,progression,buffer,0.001389,1687287383326,616d4433de6fc2ccc4d0df4a,616d4433de6fc2ccc4d0df4a,2,door,critical,D,50,door40.jpg,door60.jpg,high,NULL
1687287388,962760e4262f1ba69cbc0fac6bed0524,PennController,5,0,experiment,NULL,Selector,choice,Selection,option2,1687287388319,616d4433de6fc2ccc4d0df4a,616d4433de6fc2ccc4d0df4a,2,door,critical,D,50,door40.jpg,door60.jpg,high,option2;option1
1687287388,962760e4262f1ba69cbc0fac6bed0524,PennController,5,0,experiment,NULL,PennController,4,_Trial_,End,1687287388320,616d4433de6fc2ccc4d0df4a,616d4433de6fc2ccc4d0df4a,2,door,critical,D,50,door40.jpg,door60.jpg,high,NULL
