#
# Results on Thursday June 22 2023 05:50:25 UTC
# USER AGENT: Mozilla/5.0 (Windows NT 10.0; Win64; x64; rv:109.0) Gecko/20100101 Firefox/114.0
# Design number was non-random = 87
#
# Columns below this comment are as follows:
# 1. Results reception time.
# 2. MD5 hash of participant's IP address.
# 3. Controller name.
# 4. Order number of item.
# 5. Inner element number.
# 6. Label.
# 7. Latin Square Group.
# 8. PennElementType.
# 9. PennElementName.
# 10. Parameter.
# 11. Value.
# 12. EventTime.
# 13. PROLIFIC_ID.
# 14. Comments.
1687413025,693077bde61ef11f941f104154475de6,PennController,3,0,consent,NULL,PennController,0,_Trial_,Start,1687412750034,612742541c10c193688cea34,NULL
1687413025,693077bde61ef11f941f104154475de6,PennController,3,0,consent,NULL,PennController,0,_Header_,Start,1687412750034,612742541c10c193688cea34,NULL
1687413025,693077bde61ef11f941f104154475de6,PennController,3,0,consent,NULL,PennController,0,_Header_,End,1687412750035,612742541c10c193688cea34,NULL
1687413025,693077bde61ef11f941f104154475de6,PennController,3,0,consent,NULL,PennController,0,_Trial_,End,1687412756581,612742541c10c193688cea34,NULL
# Columns below this comment are as follows:
# 14. ID.
# 15. Comments.
1687413025,693077bde61ef11f941f104154475de6,PennController,4,0,intro,NULL,PennController,1,_Trial_,Start,1687412756583,612742541c10c193688cea34,612742541c10c193688cea34,NULL
1687413025,693077bde61ef11f941f104154475de6,PennController,4,0,intro,NULL,PennController,1,_Header_,Start,1687412756583,612742541c10c193688cea34,612742541c10c193688cea34,NULL
1687413025,693077bde61ef11f941f104154475de6,PennController,4,0,intro,NULL,PennController,1,_Header_,End,1687412756583,612742541c10c193688cea34,612742541c10c193688cea34,NULL
1687413025,693077bde61ef11f941f104154475de6,PennController,4,0,intro,NULL,PennController,1,_Trial_,End,1687412766993,612742541c10c193688cea34,612742541c10c193688cea34,NULL
# Columns below this comment are as follows:
# 15. item_number.
# 16. item.
# 17. type.
# 18. Group.
# 19. prog.
# 20. prev_image.
# 21. next_image.
# 22. height.
# 23. Comments.
1687413025,693077bde61ef11f941f104154475de6,PennController,33,0,experiment,NULL,PennController,31,_Trial_,Start,1687412766994,612742541c10c193688cea34,612742541c10c193688cea34,29,frog,filler,B,75,frog65.jpg,frog85.jpg,GoalA,NULL
1687413025,693077bde61ef11f941f104154475de6,PennController,33,0,experiment,NULL,PennController,31,_Header_,Start,1687412766994,612742541c10c193688cea34,612742541c10c193688cea34,29,frog,filler,B,75,frog65.jpg,frog85.jpg,GoalA,NULL
1687413025,693077bde61ef11f941f104154475de6,PennController,33,0,experiment,NULL,PennController,31,_Header_,End,1687412766995,612742541c10c193688cea34,612742541c10c193688cea34,29,frog,filler,B,75,frog65.jpg,frog85.jpg,GoalA,NULL
1687413025,693077bde61ef11f941f104154475de6,PennController,33,0,experiment,NULL,Video,progression,buffer,0,1687412770547,612742541c10c193688cea34,612742541c10c193688cea34,29,frog,filler,B,75,frog65.jpg,frog85.jpg,GoalA,NULL
1687413025,693077bde61ef11f941f104154475de6,PennController,33,0,experiment,NULL,Canvas,canvas6,Print,NA,1687412774776,612742541c10c193688cea34,612742541c10c193688cea34,29,frog,filler,B,75,frog65.jpg,frog85.jpg,GoalA,NULL
1687413025,693077bde61ef11f941f104154475de6,PennController,33,0,experiment,NULL,Selector,choice,Selection,option2,1687412776721,612742541c10c193688cea34,612742541c10c193688cea34,29,frog,filler,B,75,frog65.jpg,frog85.jpg,GoalA,option2;option1
1687413025,693077bde61ef11f941f104154475de6,PennController,33,0,experiment,NULL,PennController,31,_Trial_,End,1687412776722,612742541c10c193688cea34,612742541c10c193688cea34,29,frog,filler,B,75,frog65.jpg,frog85.jpg,GoalA,NULL
1687413025,693077bde61ef11f941f104154475de6,PennController,28,0,experiment,NULL,PennController,26,_Trial_,Start,1687412776723,612742541c10c193688cea34,612742541c10c193688cea34,24,match,filler,B,25,match15.jpg,match35.jpg,GoalB,NULL
1687413025,693077bde61ef11f941f104154475de6,PennController,28,0,experiment,NULL,PennController,26,_Header_,Start,1687412776723,612742541c10c193688cea34,612742541c10c193688cea34,24,match,filler,B,25,match15.jpg,match35.jpg,GoalB,NULL
1687413025,693077bde61ef11f941f104154475de6,PennController,28,0,experiment,NULL,PennController,26,_Header_,End,1687412776723,612742541c10c193688cea34,612742541c10c193688cea34,24,match,filler,B,25,match15.jpg,match35.jpg,GoalB,NULL
1687413025,693077bde61ef11f941f104154475de6,PennController,28,0,experiment,NULL,Video,progression,buffer,0,1687412780251,612742541c10c193688cea34,612742541c10c193688cea34,24,match,filler,B,25,match15.jpg,match35.jpg,GoalB,NULL
1687413025,693077bde61ef11f941f104154475de6,PennController,28,0,experiment,NULL,Canvas,canvas6,Print,NA,1687412782469,612742541c10c193688cea34,612742541c10c193688cea34,24,match,filler,B,25,match15.jpg,match35.jpg,GoalB,NULL
1687413025,693077bde61ef11f941f104154475de6,PennController,28,0,experiment,NULL,Selector,choice,Selection,option1,1687412785088,612742541c10c193688cea34,612742541c10c193688cea34,24,match,filler,B,25,match15.jpg,match35.jpg,GoalB,option1;option2
1687413025,693077bde61ef11f941f104154475de6,PennController,28,0,experiment,NULL,PennController,26,_Trial_,End,1687412785089,612742541c10c193688cea34,612742541c10c193688cea34,24,match,filler,B,25,match15.jpg,match35.jpg,GoalB,NULL
1687413025,693077bde61ef11f941f104154475de6,PennController,18,0,experiment,NULL,PennController,16,_Trial_,Start,1687412785090,612742541c10c193688cea34,612742541c10c193688cea34,14,cover,critical,B,75,cover66.jpg,cover84.jpg,low,NULL
1687413025,693077bde61ef11f941f104154475de6,PennController,18,0,experiment,NULL,PennController,16,_Header_,Start,1687412785090,612742541c10c193688cea34,612742541c10c193688cea34,14,cover,critical,B,75,cover66.jpg,cover84.jpg,low,NULL
1687413025,693077bde61ef11f941f104154475de6,PennController,18,0,experiment,NULL,PennController,16,_Header_,End,1687412785090,612742541c10c193688cea34,612742541c10c193688cea34,14,cover,critical,B,75,cover66.jpg,cover84.jpg,low,NULL
1687413025,693077bde61ef11f941f104154475de6,PennController,18,0,experiment,NULL,Video,progression,buffer,0,1687412788625,612742541c10c193688cea34,612742541c10c193688cea34,14,cover,critical,B,75,cover66.jpg,cover84.jpg,low,NULL
1687413025,693077bde61ef11f941f104154475de6,PennController,18,0,experiment,NULL,Canvas,canvas6,Print,NA,1687412794864,612742541c10c193688cea34,612742541c10c193688cea34,14,cover,critical,B,75,cover66.jpg,cover84.jpg,low,NULL
1687413025,693077bde61ef11f941f104154475de6,PennController,18,0,experiment,NULL,Selector,choice,Selection,option2,1687412796359,612742541c10c193688cea34,612742541c10c193688cea34,14,cover,critical,B,75,cover66.jpg,cover84.jpg,low,option2;option1
1687413025,693077bde61ef11f941f104154475de6,PennController,18,0,experiment,NULL,PennController,16,_Trial_,End,1687412796361,612742541c10c193688cea34,612742541c10c193688cea34,14,cover,critical,B,75,cover66.jpg,cover84.jpg,low,NULL
1687413025,693077bde61ef11f941f104154475de6,PennController,29,0,experiment,NULL,PennController,27,_Trial_,Start,1687412796361,612742541c10c193688cea34,612742541c10c193688cea34,25,house,filler,B,50,house40.jpg,house60.jpg,GoalA,NULL
1687413025,693077bde61ef11f941f104154475de6,PennController,29,0,experiment,NULL,PennController,27,_Header_,Start,1687412796361,612742541c10c193688cea34,612742541c10c193688cea34,25,house,filler,B,50,house40.jpg,house60.jpg,GoalA,NULL
1687413025,693077bde61ef11f941f104154475de6,PennController,29,0,experiment,NULL,PennController,27,_Header_,End,1687412796362,612742541c10c193688cea34,612742541c10c193688cea34,25,house,filler,B,50,house40.jpg,house60.jpg,GoalA,NULL
1687413025,693077bde61ef11f941f104154475de6,PennController,29,0,experiment,NULL,Video,progression,buffer,0,1687412799899,612742541c10c193688cea34,612742541c10c193688cea34,25,house,filler,B,50,house40.jpg,house60.jpg,GoalA,NULL
1687413025,693077bde61ef11f941f104154475de6,PennController,29,0,experiment,NULL,Canvas,canvas6,Print,NA,1687412803127,612742541c10c193688cea34,612742541c10c193688cea34,25,house,filler,B,50,house40.jpg,house60.jpg,GoalA,NULL
1687413025,693077bde61ef11f941f104154475de6,PennController,29,0,experiment,NULL,Selector,choice,Selection,option1,1687412805435,612742541c10c193688cea34,612742541c10c193688cea34,25,house,filler,B,50,house40.jpg,house60.jpg,GoalA,option2;option1
1687413025,693077bde61ef11f941f104154475de6,PennController,29,0,experiment,NULL,PennController,27,_Trial_,End,1687412805436,612742541c10c193688cea34,612742541c10c193688cea34,25,house,filler,B,50,house40.jpg,house60.jpg,GoalA,NULL
1687413025,693077bde61ef11f941f104154475de6,PennController,27,0,experiment,NULL,PennController,25,_Trial_,Start,1687412805437,612742541c10c193688cea34,612742541c10c193688cea34,23,color,filler,B,75,color65.jpg,color85.jpg,GoalA,NULL
1687413025,693077bde61ef11f941f104154475de6,PennController,27,0,experiment,NULL,PennController,25,_Header_,Start,1687412805437,612742541c10c193688cea34,612742541c10c193688cea34,23,color,filler,B,75,color65.jpg,color85.jpg,GoalA,NULL
1687413025,693077bde61ef11f941f104154475de6,PennController,27,0,experiment,NULL,PennController,25,_Header_,End,1687412805437,612742541c10c193688cea34,612742541c10c193688cea34,23,color,filler,B,75,color65.jpg,color85.jpg,GoalA,NULL
1687413025,693077bde61ef11f941f104154475de6,PennController,27,0,experiment,NULL,Video,progression,buffer,0,1687412808969,612742541c10c193688cea34,612742541c10c193688cea34,23,color,filler,B,75,color65.jpg,color85.jpg,GoalA,NULL
1687413025,693077bde61ef11f941f104154475de6,PennController,27,0,experiment,NULL,Canvas,canvas6,Print,NA,1687412813202,612742541c10c193688cea34,612742541c10c193688cea34,23,color,filler,B,75,color65.jpg,color85.jpg,GoalA,NULL
1687413025,693077bde61ef11f941f104154475de6,PennController,27,0,experiment,NULL,Selector,choice,Selection,option2,1687412815427,612742541c10c193688cea34,612742541c10c193688cea34,23,color,filler,B,75,color65.jpg,color85.jpg,GoalA,option1;option2
1687413025,693077bde61ef11f941f104154475de6,PennController,27,0,experiment,NULL,PennController,25,_Trial_,End,1687412815428,612742541c10c193688cea34,612742541c10c193688cea34,23,color,filler,B,75,color65.jpg,color85.jpg,GoalA,NULL
1687413025,693077bde61ef11f941f104154475de6,PennController,20,0,experiment,NULL,PennController,18,_Trial_,Start,1687412815429,612742541c10c193688cea34,612742541c10c193688cea34,16,blinds,critical,B,50,blinds42.jpg,blinds60.jpg,low,NULL
1687413025,693077bde61ef11f941f104154475de6,PennController,20,0,experiment,NULL,PennController,18,_Header_,Start,1687412815429,612742541c10c193688cea34,612742541c10c193688cea34,16,blinds,critical,B,50,blinds42.jpg,blinds60.jpg,low,NULL
1687413025,693077bde61ef11f941f104154475de6,PennController,20,0,experiment,NULL,PennController,18,_Header_,End,1687412815429,612742541c10c193688cea34,612742541c10c193688cea34,16,blinds,critical,B,50,blinds42.jpg,blinds60.jpg,low,NULL
1687413025,693077bde61ef11f941f104154475de6,PennController,20,0,experiment,NULL,Video,progression,buffer,0,1687412818963,612742541c10c193688cea34,612742541c10c193688cea34,16,blinds,critical,B,50,blinds42.jpg,blinds60.jpg,low,NULL
1687413025,693077bde61ef11f941f104154475de6,PennController,20,0,experiment,NULL,Canvas,canvas6,Print,NA,1687412823585,612742541c10c193688cea34,612742541c10c193688cea34,16,blinds,critical,B,50,blinds42.jpg,blinds60.jpg,low,NULL
1687413025,693077bde61ef11f941f104154475de6,PennController,20,0,experiment,NULL,Selector,choice,Selection,option2,1687412825808,612742541c10c193688cea34,612742541c10c193688cea34,16,blinds,critical,B,50,blinds42.jpg,blinds60.jpg,low,option1;option2
1687413025,693077bde61ef11f941f104154475de6,PennController,20,0,experiment,NULL,PennController,18,_Trial_,End,1687412825809,612742541c10c193688cea34,612742541c10c193688cea34,16,blinds,critical,B,50,blinds42.jpg,blinds60.jpg,low,NULL
1687413025,693077bde61ef11f941f104154475de6,PennController,8,0,experiment,NULL,PennController,6,_Trial_,Start,1687412825811,612742541c10c193688cea34,612742541c10c193688cea34,4,candy,critical,B,50,candy40.jpg,candy60.jpg,low,NULL
1687413025,693077bde61ef11f941f104154475de6,PennController,8,0,experiment,NULL,PennController,6,_Header_,Start,1687412825811,612742541c10c193688cea34,612742541c10c193688cea34,4,candy,critical,B,50,candy40.jpg,candy60.jpg,low,NULL
1687413025,693077bde61ef11f941f104154475de6,PennController,8,0,experiment,NULL,PennController,6,_Header_,End,1687412825811,612742541c10c193688cea34,612742541c10c193688cea34,4,candy,critical,B,50,candy40.jpg,candy60.jpg,low,NULL
1687413025,693077bde61ef11f941f104154475de6,PennController,8,0,experiment,NULL,Video,progression,buffer,0,1687412829351,612742541c10c193688cea34,612742541c10c193688cea34,4,candy,critical,B,50,candy40.jpg,candy60.jpg,low,NULL
1687413025,693077bde61ef11f941f104154475de6,PennController,8,0,experiment,NULL,Canvas,canvas6,Print,NA,1687412832590,612742541c10c193688cea34,612742541c10c193688cea34,4,candy,critical,B,50,candy40.jpg,candy60.jpg,low,NULL
1687413025,693077bde61ef11f941f104154475de6,PennController,8,0,experiment,NULL,Selector,choice,Selection,option2,1687412835145,612742541c10c193688cea34,612742541c10c193688cea34,4,candy,critical,B,50,candy40.jpg,candy60.jpg,low,option1;option2
1687413025,693077bde61ef11f941f104154475de6,PennController,8,0,experiment,NULL,PennController,6,_Trial_,End,1687412835147,612742541c10c193688cea34,612742541c10c193688cea34,4,candy,critical,B,50,candy40.jpg,candy60.jpg,low,NULL
1687413025,693077bde61ef11f941f104154475de6,PennController,21,0,experiment,NULL,PennController,19,_Trial_,Start,1687412835148,612742541c10c193688cea34,612742541c10c193688cea34,17,roll,critical,B,75,roll65.jpg,roll85.jpg,low,NULL
1687413025,693077bde61ef11f941f104154475de6,PennController,21,0,experiment,NULL,PennController,19,_Header_,Start,1687412835148,612742541c10c193688cea34,612742541c10c193688cea34,17,roll,critical,B,75,roll65.jpg,roll85.jpg,low,NULL
1687413025,693077bde61ef11f941f104154475de6,PennController,21,0,experiment,NULL,PennController,19,_Header_,End,1687412835149,612742541c10c193688cea34,612742541c10c193688cea34,17,roll,critical,B,75,roll65.jpg,roll85.jpg,low,NULL
1687413025,693077bde61ef11f941f104154475de6,PennController,21,0,experiment,NULL,Video,progression,buffer,0,1687412838675,612742541c10c193688cea34,612742541c10c193688cea34,17,roll,critical,B,75,roll65.jpg,roll85.jpg,low,NULL
1687413025,693077bde61ef11f941f104154475de6,PennController,21,0,experiment,NULL,Canvas,canvas6,Print,NA,1687412842906,612742541c10c193688cea34,612742541c10c193688cea34,17,roll,critical,B,75,roll65.jpg,roll85.jpg,low,NULL
1687413025,693077bde61ef11f941f104154475de6,PennController,21,0,experiment,NULL,Selector,choice,Selection,option2,1687412844545,612742541c10c193688cea34,612742541c10c193688cea34,17,roll,critical,B,75,roll65.jpg,roll85.jpg,low,option1;option2
1687413025,693077bde61ef11f941f104154475de6,PennController,21,0,experiment,NULL,PennController,19,_Trial_,End,1687412844546,612742541c10c193688cea34,612742541c10c193688cea34,17,roll,critical,B,75,roll65.jpg,roll85.jpg,low,NULL
1687413025,693077bde61ef11f941f104154475de6,PennController,30,0,experiment,NULL,PennController,28,_Trial_,Start,1687412844546,612742541c10c193688cea34,612742541c10c193688cea34,26,sandwich,filler,B,75,sandwich65.jpg,sandwich85.jpg,GoalB,NULL
1687413025,693077bde61ef11f941f104154475de6,PennController,30,0,experiment,NULL,PennController,28,_Header_,Start,1687412844546,612742541c10c193688cea34,612742541c10c193688cea34,26,sandwich,filler,B,75,sandwich65.jpg,sandwich85.jpg,GoalB,NULL
1687413025,693077bde61ef11f941f104154475de6,PennController,30,0,experiment,NULL,PennController,28,_Header_,End,1687412844547,612742541c10c193688cea34,612742541c10c193688cea34,26,sandwich,filler,B,75,sandwich65.jpg,sandwich85.jpg,GoalB,NULL
1687413025,693077bde61ef11f941f104154475de6,PennController,30,0,experiment,NULL,Video,progression,buffer,0,1687412848083,612742541c10c193688cea34,612742541c10c193688cea34,26,sandwich,filler,B,75,sandwich65.jpg,sandwich85.jpg,GoalB,NULL
1687413025,693077bde61ef11f941f104154475de6,PennController,30,0,experiment,NULL,Canvas,canvas6,Print,NA,1687412852321,612742541c10c193688cea34,612742541c10c193688cea34,26,sandwich,filler,B,75,sandwich65.jpg,sandwich85.jpg,GoalB,NULL
1687413025,693077bde61ef11f941f104154475de6,PennController,30,0,experiment,NULL,Selector,choice,Selection,option1,1687412853884,612742541c10c193688cea34,612742541c10c193688cea34,26,sandwich,filler,B,75,sandwich65.jpg,sandwich85.jpg,GoalB,option2;option1
1687413025,693077bde61ef11f941f104154475de6,PennController,30,0,experiment,NULL,PennController,28,_Trial_,End,1687412853884,612742541c10c193688cea34,612742541c10c193688cea34,26,sandwich,filler,B,75,sandwich65.jpg,sandwich85.jpg,GoalB,NULL
1687413025,693077bde61ef11f941f104154475de6,PennController,14,0,experiment,NULL,PennController,12,_Trial_,Start,1687412853886,612742541c10c193688cea34,612742541c10c193688cea34,10,train,critical,B,50,train40.jpg,train60.jpg,low,NULL
1687413025,693077bde61ef11f941f104154475de6,PennController,14,0,experiment,NULL,PennController,12,_Header_,Start,1687412853886,612742541c10c193688cea34,612742541c10c193688cea34,10,train,critical,B,50,train40.jpg,train60.jpg,low,NULL
1687413025,693077bde61ef11f941f104154475de6,PennController,14,0,experiment,NULL,PennController,12,_Header_,End,1687412853886,612742541c10c193688cea34,612742541c10c193688cea34,10,train,critical,B,50,train40.jpg,train60.jpg,low,NULL
1687413025,693077bde61ef11f941f104154475de6,PennController,14,0,experiment,NULL,Video,progression,buffer,0,1687412857405,612742541c10c193688cea34,612742541c10c193688cea34,10,train,critical,B,50,train40.jpg,train60.jpg,low,NULL
1687413025,693077bde61ef11f941f104154475de6,PennController,14,0,experiment,NULL,Canvas,canvas6,Print,NA,1687412860648,612742541c10c193688cea34,612742541c10c193688cea34,10,train,critical,B,50,train40.jpg,train60.jpg,low,NULL
1687413025,693077bde61ef11f941f104154475de6,PennController,14,0,experiment,NULL,Selector,choice,Selection,option2,1687412862133,612742541c10c193688cea34,612742541c10c193688cea34,10,train,critical,B,50,train40.jpg,train60.jpg,low,option2;option1
1687413025,693077bde61ef11f941f104154475de6,PennController,14,0,experiment,NULL,PennController,12,_Trial_,End,1687412862133,612742541c10c193688cea34,612742541c10c193688cea34,10,train,critical,B,50,train40.jpg,train60.jpg,low,NULL
1687413025,693077bde61ef11f941f104154475de6,PennController,24,0,experiment,NULL,PennController,22,_Trial_,Start,1687412862134,612742541c10c193688cea34,612742541c10c193688cea34,20,cat,filler,B,75,cat65.jpg,cat85.jpg,GoalB,NULL
1687413025,693077bde61ef11f941f104154475de6,PennController,24,0,experiment,NULL,PennController,22,_Header_,Start,1687412862134,612742541c10c193688cea34,612742541c10c193688cea34,20,cat,filler,B,75,cat65.jpg,cat85.jpg,GoalB,NULL
1687413025,693077bde61ef11f941f104154475de6,PennController,24,0,experiment,NULL,PennController,22,_Header_,End,1687412862134,612742541c10c193688cea34,612742541c10c193688cea34,20,cat,filler,B,75,cat65.jpg,cat85.jpg,GoalB,NULL
1687413025,693077bde61ef11f941f104154475de6,PennController,24,0,experiment,NULL,Video,progression,buffer,0,1687412865661,612742541c10c193688cea34,612742541c10c193688cea34,20,cat,filler,B,75,cat65.jpg,cat85.jpg,GoalB,NULL
1687413025,693077bde61ef11f941f104154475de6,PennController,24,0,experiment,NULL,Canvas,canvas6,Print,NA,1687412869890,612742541c10c193688cea34,612742541c10c193688cea34,20,cat,filler,B,75,cat65.jpg,cat85.jpg,GoalB,NULL
1687413025,693077bde61ef11f941f104154475de6,PennController,24,0,experiment,NULL,Selector,choice,Selection,option2,1687412871651,612742541c10c193688cea34,612742541c10c193688cea34,20,cat,filler,B,75,cat65.jpg,cat85.jpg,GoalB,option1;option2
1687413025,693077bde61ef11f941f104154475de6,PennController,24,0,experiment,NULL,PennController,22,_Trial_,End,1687412871652,612742541c10c193688cea34,612742541c10c193688cea34,20,cat,filler,B,75,cat65.jpg,cat85.jpg,GoalB,NULL
1687413025,693077bde61ef11f941f104154475de6,PennController,5,0,experiment,NULL,PennController,3,_Trial_,Start,1687412871653,612742541c10c193688cea34,612742541c10c193688cea34,1,vase,critical,B,50,vase40.jpg,vase60.jpg,low,NULL
1687413025,693077bde61ef11f941f104154475de6,PennController,5,0,experiment,NULL,PennController,3,_Header_,Start,1687412871653,612742541c10c193688cea34,612742541c10c193688cea34,1,vase,critical,B,50,vase40.jpg,vase60.jpg,low,NULL
1687413025,693077bde61ef11f941f104154475de6,PennController,5,0,experiment,NULL,PennController,3,_Header_,End,1687412871653,612742541c10c193688cea34,612742541c10c193688cea34,1,vase,critical,B,50,vase40.jpg,vase60.jpg,low,NULL
1687413025,693077bde61ef11f941f104154475de6,PennController,5,0,experiment,NULL,Video,progression,buffer,0,1687412875185,612742541c10c193688cea34,612742541c10c193688cea34,1,vase,critical,B,50,vase40.jpg,vase60.jpg,low,NULL
1687413025,693077bde61ef11f941f104154475de6,PennController,5,0,experiment,NULL,Canvas,canvas6,Print,NA,1687412878412,612742541c10c193688cea34,612742541c10c193688cea34,1,vase,critical,B,50,vase40.jpg,vase60.jpg,low,NULL
1687413025,693077bde61ef11f941f104154475de6,PennController,5,0,experiment,NULL,Selector,choice,Selection,option2,1687412880244,612742541c10c193688cea34,612742541c10c193688cea34,1,vase,critical,B,50,vase40.jpg,vase60.jpg,low,option1;option2
1687413025,693077bde61ef11f941f104154475de6,PennController,5,0,experiment,NULL,PennController,3,_Trial_,End,1687412880244,612742541c10c193688cea34,612742541c10c193688cea34,1,vase,critical,B,50,vase40.jpg,vase60.jpg,low,NULL
1687413025,693077bde61ef11f941f104154475de6,PennController,9,0,experiment,NULL,PennController,7,_Trial_,Start,1687412880245,612742541c10c193688cea34,612742541c10c193688cea34,5,book,critical,B,75,book65.jpg,book85.jpg,low,NULL
1687413025,693077bde61ef11f941f104154475de6,PennController,9,0,experiment,NULL,PennController,7,_Header_,Start,1687412880245,612742541c10c193688cea34,612742541c10c193688cea34,5,book,critical,B,75,book65.jpg,book85.jpg,low,NULL
1687413025,693077bde61ef11f941f104154475de6,PennController,9,0,experiment,NULL,PennController,7,_Header_,End,1687412880245,612742541c10c193688cea34,612742541c10c193688cea34,5,book,critical,B,75,book65.jpg,book85.jpg,low,NULL
1687413025,693077bde61ef11f941f104154475de6,PennController,9,0,experiment,NULL,Video,progression,buffer,0,1687412883770,612742541c10c193688cea34,612742541c10c193688cea34,5,book,critical,B,75,book65.jpg,book85.jpg,low,NULL
1687413025,693077bde61ef11f941f104154475de6,PennController,9,0,experiment,NULL,Canvas,canvas6,Print,NA,1687412887990,612742541c10c193688cea34,612742541c10c193688cea34,5,book,critical,B,75,book65.jpg,book85.jpg,low,NULL
1687413025,693077bde61ef11f941f104154475de6,PennController,9,0,experiment,NULL,Selector,choice,Selection,option2,1687412889892,612742541c10c193688cea34,612742541c10c193688cea34,5,book,critical,B,75,book65.jpg,book85.jpg,low,option2;option1
1687413025,693077bde61ef11f941f104154475de6,PennController,9,0,experiment,NULL,PennController,7,_Trial_,End,1687412889893,612742541c10c193688cea34,612742541c10c193688cea34,5,book,critical,B,75,book65.jpg,book85.jpg,low,NULL
1687413025,693077bde61ef11f941f104154475de6,PennController,7,0,experiment,NULL,PennController,5,_Trial_,Start,1687412889894,612742541c10c193688cea34,612742541c10c193688cea34,3,clean,critical,B,25,clean15.jpg,clean35.jpg,low,NULL
1687413025,693077bde61ef11f941f104154475de6,PennController,7,0,experiment,NULL,PennController,5,_Header_,Start,1687412889894,612742541c10c193688cea34,612742541c10c193688cea34,3,clean,critical,B,25,clean15.jpg,clean35.jpg,low,NULL
1687413025,693077bde61ef11f941f104154475de6,PennController,7,0,experiment,NULL,PennController,5,_Header_,End,1687412889894,612742541c10c193688cea34,612742541c10c193688cea34,3,clean,critical,B,25,clean15.jpg,clean35.jpg,low,NULL
1687413025,693077bde61ef11f941f104154475de6,PennController,7,0,experiment,NULL,Video,progression,buffer,0,1687412893417,612742541c10c193688cea34,612742541c10c193688cea34,3,clean,critical,B,25,clean15.jpg,clean35.jpg,low,NULL
1687413025,693077bde61ef11f941f104154475de6,PennController,7,0,experiment,NULL,Canvas,canvas6,Print,NA,1687412895654,612742541c10c193688cea34,612742541c10c193688cea34,3,clean,critical,B,25,clean15.jpg,clean35.jpg,low,NULL
1687413025,693077bde61ef11f941f104154475de6,PennController,7,0,experiment,NULL,Selector,choice,Selection,option2,1687412896852,612742541c10c193688cea34,612742541c10c193688cea34,3,clean,critical,B,25,clean15.jpg,clean35.jpg,low,option1;option2
1687413025,693077bde61ef11f941f104154475de6,PennController,7,0,experiment,NULL,PennController,5,_Trial_,End,1687412896852,612742541c10c193688cea34,612742541c10c193688cea34,3,clean,critical,B,25,clean15.jpg,clean35.jpg,low,NULL
1687413025,693077bde61ef11f941f104154475de6,PennController,19,0,experiment,NULL,PennController,17,_Trial_,Start,1687412896853,612742541c10c193688cea34,612742541c10c193688cea34,15,zip,critical,B,25,zip15.jpg,zip35.jpg,low,NULL
1687413025,693077bde61ef11f941f104154475de6,PennController,19,0,experiment,NULL,PennController,17,_Header_,Start,1687412896853,612742541c10c193688cea34,612742541c10c193688cea34,15,zip,critical,B,25,zip15.jpg,zip35.jpg,low,NULL
1687413025,693077bde61ef11f941f104154475de6,PennController,19,0,experiment,NULL,PennController,17,_Header_,End,1687412896853,612742541c10c193688cea34,612742541c10c193688cea34,15,zip,critical,B,25,zip15.jpg,zip35.jpg,low,NULL
1687413025,693077bde61ef11f941f104154475de6,PennController,19,0,experiment,NULL,Video,progression,buffer,0,1687412900383,612742541c10c193688cea34,612742541c10c193688cea34,15,zip,critical,B,25,zip15.jpg,zip35.jpg,low,NULL
1687413025,693077bde61ef11f941f104154475de6,PennController,19,0,experiment,NULL,Canvas,canvas6,Print,NA,1687412902607,612742541c10c193688cea34,612742541c10c193688cea34,15,zip,critical,B,25,zip15.jpg,zip35.jpg,low,NULL
1687413025,693077bde61ef11f941f104154475de6,PennController,19,0,experiment,NULL,Selector,choice,Selection,option2,1687412904088,612742541c10c193688cea34,612742541c10c193688cea34,15,zip,critical,B,25,zip15.jpg,zip35.jpg,low,option2;option1
1687413025,693077bde61ef11f941f104154475de6,PennController,19,0,experiment,NULL,PennController,17,_Trial_,End,1687412904089,612742541c10c193688cea34,612742541c10c193688cea34,15,zip,critical,B,25,zip15.jpg,zip35.jpg,low,NULL
1687413025,693077bde61ef11f941f104154475de6,PennController,17,0,experiment,NULL,PennController,15,_Trial_,Start,1687412904090,612742541c10c193688cea34,612742541c10c193688cea34,13,mix,critical,B,50,mix40.jpg,mix60.jpg,low,NULL
1687413025,693077bde61ef11f941f104154475de6,PennController,17,0,experiment,NULL,PennController,15,_Header_,Start,1687412904090,612742541c10c193688cea34,612742541c10c193688cea34,13,mix,critical,B,50,mix40.jpg,mix60.jpg,low,NULL
1687413025,693077bde61ef11f941f104154475de6,PennController,17,0,experiment,NULL,PennController,15,_Header_,End,1687412904090,612742541c10c193688cea34,612742541c10c193688cea34,13,mix,critical,B,50,mix40.jpg,mix60.jpg,low,NULL
1687413025,693077bde61ef11f941f104154475de6,PennController,17,0,experiment,NULL,Video,progression,buffer,0,1687412907615,612742541c10c193688cea34,612742541c10c193688cea34,13,mix,critical,B,50,mix40.jpg,mix60.jpg,low,NULL
1687413025,693077bde61ef11f941f104154475de6,PennController,17,0,experiment,NULL,Canvas,canvas6,Print,NA,1687412910853,612742541c10c193688cea34,612742541c10c193688cea34,13,mix,critical,B,50,mix40.jpg,mix60.jpg,low,NULL
1687413025,693077bde61ef11f941f104154475de6,PennController,17,0,experiment,NULL,Selector,choice,Selection,option2,1687412912128,612742541c10c193688cea34,612742541c10c193688cea34,13,mix,critical,B,50,mix40.jpg,mix60.jpg,low,option2;option1
1687413025,693077bde61ef11f941f104154475de6,PennController,17,0,experiment,NULL,PennController,15,_Trial_,End,1687412912128,612742541c10c193688cea34,612742541c10c193688cea34,13,mix,critical,B,50,mix40.jpg,mix60.jpg,low,NULL
1687413025,693077bde61ef11f941f104154475de6,PennController,23,0,experiment,NULL,PennController,21,_Trial_,Start,1687412912130,612742541c10c193688cea34,612742541c10c193688cea34,19,cup,filler,B,50,cup40.jpg,cup60.jpg,GoalA,NULL
1687413025,693077bde61ef11f941f104154475de6,PennController,23,0,experiment,NULL,PennController,21,_Header_,Start,1687412912130,612742541c10c193688cea34,612742541c10c193688cea34,19,cup,filler,B,50,cup40.jpg,cup60.jpg,GoalA,NULL
1687413025,693077bde61ef11f941f104154475de6,PennController,23,0,experiment,NULL,PennController,21,_Header_,End,1687412912130,612742541c10c193688cea34,612742541c10c193688cea34,19,cup,filler,B,50,cup40.jpg,cup60.jpg,GoalA,NULL
1687413025,693077bde61ef11f941f104154475de6,PennController,23,0,experiment,NULL,Video,progression,buffer,0,1687412915651,612742541c10c193688cea34,612742541c10c193688cea34,19,cup,filler,B,50,cup40.jpg,cup60.jpg,GoalA,NULL
1687413025,693077bde61ef11f941f104154475de6,PennController,23,0,experiment,NULL,Canvas,canvas6,Print,NA,1687412918882,612742541c10c193688cea34,612742541c10c193688cea34,19,cup,filler,B,50,cup40.jpg,cup60.jpg,GoalA,NULL
1687413025,693077bde61ef11f941f104154475de6,PennController,23,0,experiment,NULL,Selector,choice,Selection,option2,1687412920976,612742541c10c193688cea34,612742541c10c193688cea34,19,cup,filler,B,50,cup40.jpg,cup60.jpg,GoalA,option2;option1
1687413025,693077bde61ef11f941f104154475de6,PennController,23,0,experiment,NULL,PennController,21,_Trial_,End,1687412920977,612742541c10c193688cea34,612742541c10c193688cea34,19,cup,filler,B,50,cup40.jpg,cup60.jpg,GoalA,NULL
1687413025,693077bde61ef11f941f104154475de6,PennController,10,0,experiment,NULL,PennController,8,_Trial_,Start,1687412920978,612742541c10c193688cea34,612742541c10c193688cea34,6,flower,critical,B,25,flower15.jpg,flower35.jpg,low,NULL
1687413025,693077bde61ef11f941f104154475de6,PennController,10,0,experiment,NULL,PennController,8,_Header_,Start,1687412920978,612742541c10c193688cea34,612742541c10c193688cea34,6,flower,critical,B,25,flower15.jpg,flower35.jpg,low,NULL
1687413025,693077bde61ef11f941f104154475de6,PennController,10,0,experiment,NULL,PennController,8,_Header_,End,1687412920978,612742541c10c193688cea34,612742541c10c193688cea34,6,flower,critical,B,25,flower15.jpg,flower35.jpg,low,NULL
1687413025,693077bde61ef11f941f104154475de6,PennController,10,0,experiment,NULL,Video,progression,buffer,0,1687412924510,612742541c10c193688cea34,612742541c10c193688cea34,6,flower,critical,B,25,flower15.jpg,flower35.jpg,low,NULL
1687413025,693077bde61ef11f941f104154475de6,PennController,10,0,experiment,NULL,Canvas,canvas6,Print,NA,1687412926743,612742541c10c193688cea34,612742541c10c193688cea34,6,flower,critical,B,25,flower15.jpg,flower35.jpg,low,NULL
1687413025,693077bde61ef11f941f104154475de6,PennController,10,0,experiment,NULL,Selector,choice,Selection,option2,1687412927835,612742541c10c193688cea34,612742541c10c193688cea34,6,flower,critical,B,25,flower15.jpg,flower35.jpg,low,option2;option1
1687413025,693077bde61ef11f941f104154475de6,PennController,10,0,experiment,NULL,PennController,8,_Trial_,End,1687412927836,612742541c10c193688cea34,612742541c10c193688cea34,6,flower,critical,B,25,flower15.jpg,flower35.jpg,low,NULL
1687413025,693077bde61ef11f941f104154475de6,PennController,22,0,experiment,NULL,PennController,20,_Trial_,Start,1687412927837,612742541c10c193688cea34,612742541c10c193688cea34,18,ball,critical,B,25,ball15.jpg,ball35.jpg,low,NULL
1687413025,693077bde61ef11f941f104154475de6,PennController,22,0,experiment,NULL,PennController,20,_Header_,Start,1687412927837,612742541c10c193688cea34,612742541c10c193688cea34,18,ball,critical,B,25,ball15.jpg,ball35.jpg,low,NULL
1687413025,693077bde61ef11f941f104154475de6,PennController,22,0,experiment,NULL,PennController,20,_Header_,End,1687412927837,612742541c10c193688cea34,612742541c10c193688cea34,18,ball,critical,B,25,ball15.jpg,ball35.jpg,low,NULL
1687413025,693077bde61ef11f941f104154475de6,PennController,22,0,experiment,NULL,Video,progression,buffer,0,1687412931359,612742541c10c193688cea34,612742541c10c193688cea34,18,ball,critical,B,25,ball15.jpg,ball35.jpg,low,NULL
1687413025,693077bde61ef11f941f104154475de6,PennController,22,0,experiment,NULL,Canvas,canvas6,Print,NA,1687412933586,612742541c10c193688cea34,612742541c10c193688cea34,18,ball,critical,B,25,ball15.jpg,ball35.jpg,low,NULL
1687413025,693077bde61ef11f941f104154475de6,PennController,22,0,experiment,NULL,Selector,choice,Selection,option1,1687412936562,612742541c10c193688cea34,612742541c10c193688cea34,18,ball,critical,B,25,ball15.jpg,ball35.jpg,low,option2;option1
1687413025,693077bde61ef11f941f104154475de6,PennController,22,0,experiment,NULL,PennController,20,_Trial_,End,1687412936562,612742541c10c193688cea34,612742541c10c193688cea34,18,ball,critical,B,25,ball15.jpg,ball35.jpg,low,NULL
1687413025,693077bde61ef11f941f104154475de6,PennController,15,0,experiment,NULL,PennController,13,_Trial_,Start,1687412936564,612742541c10c193688cea34,612742541c10c193688cea34,11,beads,critical,B,75,beads65.jpg,beads85.jpg,low,NULL
1687413025,693077bde61ef11f941f104154475de6,PennController,15,0,experiment,NULL,PennController,13,_Header_,Start,1687412936564,612742541c10c193688cea34,612742541c10c193688cea34,11,beads,critical,B,75,beads65.jpg,beads85.jpg,low,NULL
1687413025,693077bde61ef11f941f104154475de6,PennController,15,0,experiment,NULL,PennController,13,_Header_,End,1687412936564,612742541c10c193688cea34,612742541c10c193688cea34,11,beads,critical,B,75,beads65.jpg,beads85.jpg,low,NULL
1687413025,693077bde61ef11f941f104154475de6,PennController,15,0,experiment,NULL,Video,progression,buffer,0,1687412940092,612742541c10c193688cea34,612742541c10c193688cea34,11,beads,critical,B,75,beads65.jpg,beads85.jpg,low,NULL
1687413025,693077bde61ef11f941f104154475de6,PennController,15,0,experiment,NULL,Canvas,canvas6,Print,NA,1687412944320,612742541c10c193688cea34,612742541c10c193688cea34,11,beads,critical,B,75,beads65.jpg,beads85.jpg,low,NULL
1687413025,693077bde61ef11f941f104154475de6,PennController,15,0,experiment,NULL,Selector,choice,Selection,option1,1687412947438,612742541c10c193688cea34,612742541c10c193688cea34,11,beads,critical,B,75,beads65.jpg,beads85.jpg,low,option2;option1
1687413025,693077bde61ef11f941f104154475de6,PennController,15,0,experiment,NULL,PennController,13,_Trial_,End,1687412947439,612742541c10c193688cea34,612742541c10c193688cea34,11,beads,critical,B,75,beads65.jpg,beads85.jpg,low,NULL
1687413025,693077bde61ef11f941f104154475de6,PennController,11,0,experiment,NULL,PennController,9,_Trial_,Start,1687412947439,612742541c10c193688cea34,612742541c10c193688cea34,7,stack,critical,B,50,stack40.jpg,stack60.jpg,low,NULL
1687413025,693077bde61ef11f941f104154475de6,PennController,11,0,experiment,NULL,PennController,9,_Header_,Start,1687412947439,612742541c10c193688cea34,612742541c10c193688cea34,7,stack,critical,B,50,stack40.jpg,stack60.jpg,low,NULL
1687413025,693077bde61ef11f941f104154475de6,PennController,11,0,experiment,NULL,PennController,9,_Header_,End,1687412947439,612742541c10c193688cea34,612742541c10c193688cea34,7,stack,critical,B,50,stack40.jpg,stack60.jpg,low,NULL
1687413025,693077bde61ef11f941f104154475de6,PennController,11,0,experiment,NULL,Video,progression,buffer,0,1687412950977,612742541c10c193688cea34,612742541c10c193688cea34,7,stack,critical,B,50,stack40.jpg,stack60.jpg,low,NULL
1687413025,693077bde61ef11f941f104154475de6,PennController,11,0,experiment,NULL,Canvas,canvas6,Print,NA,1687412954201,612742541c10c193688cea34,612742541c10c193688cea34,7,stack,critical,B,50,stack40.jpg,stack60.jpg,low,NULL
1687413025,693077bde61ef11f941f104154475de6,PennController,11,0,experiment,NULL,Selector,choice,Selection,option2,1687412955808,612742541c10c193688cea34,612742541c10c193688cea34,7,stack,critical,B,50,stack40.jpg,stack60.jpg,low,option2;option1
1687413025,693077bde61ef11f941f104154475de6,PennController,11,0,experiment,NULL,PennController,9,_Trial_,End,1687412955808,612742541c10c193688cea34,612742541c10c193688cea34,7,stack,critical,B,50,stack40.jpg,stack60.jpg,low,NULL
1687413025,693077bde61ef11f941f104154475de6,PennController,12,0,experiment,NULL,PennController,10,_Trial_,Start,1687412955809,612742541c10c193688cea34,612742541c10c193688cea34,8,cucumber,critical,B,75,cucumber66.jpg,cucumber84.jpg,low,NULL
1687413025,693077bde61ef11f941f104154475de6,PennController,12,0,experiment,NULL,PennController,10,_Header_,Start,1687412955809,612742541c10c193688cea34,612742541c10c193688cea34,8,cucumber,critical,B,75,cucumber66.jpg,cucumber84.jpg,low,NULL
1687413025,693077bde61ef11f941f104154475de6,PennController,12,0,experiment,NULL,PennController,10,_Header_,End,1687412955809,612742541c10c193688cea34,612742541c10c193688cea34,8,cucumber,critical,B,75,cucumber66.jpg,cucumber84.jpg,low,NULL
1687413025,693077bde61ef11f941f104154475de6,PennController,12,0,experiment,NULL,Video,progression,buffer,0,1687412959333,612742541c10c193688cea34,612742541c10c193688cea34,8,cucumber,critical,B,75,cucumber66.jpg,cucumber84.jpg,low,NULL
1687413025,693077bde61ef11f941f104154475de6,PennController,12,0,experiment,NULL,Canvas,canvas6,Print,NA,1687412965571,612742541c10c193688cea34,612742541c10c193688cea34,8,cucumber,critical,B,75,cucumber66.jpg,cucumber84.jpg,low,NULL
1687413025,693077bde61ef11f941f104154475de6,PennController,12,0,experiment,NULL,Selector,choice,Selection,option1,1687412968164,612742541c10c193688cea34,612742541c10c193688cea34,8,cucumber,critical,B,75,cucumber66.jpg,cucumber84.jpg,low,option1;option2
1687413025,693077bde61ef11f941f104154475de6,PennController,12,0,experiment,NULL,PennController,10,_Trial_,End,1687412968165,612742541c10c193688cea34,612742541c10c193688cea34,8,cucumber,critical,B,75,cucumber66.jpg,cucumber84.jpg,low,NULL
1687413025,693077bde61ef11f941f104154475de6,PennController,32,0,experiment,NULL,PennController,30,_Trial_,Start,1687412968166,612742541c10c193688cea34,612742541c10c193688cea34,28,sort,filler,B,50,sort40.jpg,sort60.jpg,GoalB,NULL
1687413025,693077bde61ef11f941f104154475de6,PennController,32,0,experiment,NULL,PennController,30,_Header_,Start,1687412968166,612742541c10c193688cea34,612742541c10c193688cea34,28,sort,filler,B,50,sort40.jpg,sort60.jpg,GoalB,NULL
1687413025,693077bde61ef11f941f104154475de6,PennController,32,0,experiment,NULL,PennController,30,_Header_,End,1687412968166,612742541c10c193688cea34,612742541c10c193688cea34,28,sort,filler,B,50,sort40.jpg,sort60.jpg,GoalB,NULL
1687413025,693077bde61ef11f941f104154475de6,PennController,32,0,experiment,NULL,Video,progression,buffer,0,1687412971708,612742541c10c193688cea34,612742541c10c193688cea34,28,sort,filler,B,50,sort40.jpg,sort60.jpg,GoalB,NULL
1687413025,693077bde61ef11f941f104154475de6,PennController,32,0,experiment,NULL,Canvas,canvas6,Print,NA,1687412974946,612742541c10c193688cea34,612742541c10c193688cea34,28,sort,filler,B,50,sort40.jpg,sort60.jpg,GoalB,NULL
1687413025,693077bde61ef11f941f104154475de6,PennController,32,0,experiment,NULL,Selector,choice,Selection,option1,1687412976838,612742541c10c193688cea34,612742541c10c193688cea34,28,sort,filler,B,50,sort40.jpg,sort60.jpg,GoalB,option1;option2
1687413025,693077bde61ef11f941f104154475de6,PennController,32,0,experiment,NULL,PennController,30,_Trial_,End,1687412976839,612742541c10c193688cea34,612742541c10c193688cea34,28,sort,filler,B,50,sort40.jpg,sort60.jpg,GoalB,NULL
1687413025,693077bde61ef11f941f104154475de6,PennController,13,0,experiment,NULL,PennController,11,_Trial_,Start,1687412976839,612742541c10c193688cea34,612742541c10c193688cea34,9,cake,critical,B,25,cake15.jpg,cake33.jpg,low,NULL
1687413025,693077bde61ef11f941f104154475de6,PennController,13,0,experiment,NULL,PennController,11,_Header_,Start,1687412976839,612742541c10c193688cea34,612742541c10c193688cea34,9,cake,critical,B,25,cake15.jpg,cake33.jpg,low,NULL
1687413025,693077bde61ef11f941f104154475de6,PennController,13,0,experiment,NULL,PennController,11,_Header_,End,1687412976839,612742541c10c193688cea34,612742541c10c193688cea34,9,cake,critical,B,25,cake15.jpg,cake33.jpg,low,NULL
1687413025,693077bde61ef11f941f104154475de6,PennController,13,0,experiment,NULL,Video,progression,buffer,0,1687412980363,612742541c10c193688cea34,612742541c10c193688cea34,9,cake,critical,B,25,cake15.jpg,cake33.jpg,low,NULL
1687413025,693077bde61ef11f941f104154475de6,PennController,13,0,experiment,NULL,Canvas,canvas6,Print,NA,1687412983207,612742541c10c193688cea34,612742541c10c193688cea34,9,cake,critical,B,25,cake15.jpg,cake33.jpg,low,NULL
1687413025,693077bde61ef11f941f104154475de6,PennController,13,0,experiment,NULL,Selector,choice,Selection,option1,1687412985088,612742541c10c193688cea34,612742541c10c193688cea34,9,cake,critical,B,25,cake15.jpg,cake33.jpg,low,option2;option1
1687413025,693077bde61ef11f941f104154475de6,PennController,13,0,experiment,NULL,PennController,11,_Trial_,End,1687412985089,612742541c10c193688cea34,612742541c10c193688cea34,9,cake,critical,B,25,cake15.jpg,cake33.jpg,low,NULL
1687413025,693077bde61ef11f941f104154475de6,PennController,31,0,experiment,NULL,PennController,29,_Trial_,Start,1687412985089,612742541c10c193688cea34,612742541c10c193688cea34,27,square,filler,B,25,square15.jpg,square35.jpg,GoalA,NULL
1687413025,693077bde61ef11f941f104154475de6,PennController,31,0,experiment,NULL,PennController,29,_Header_,Start,1687412985089,612742541c10c193688cea34,612742541c10c193688cea34,27,square,filler,B,25,square15.jpg,square35.jpg,GoalA,NULL
1687413025,693077bde61ef11f941f104154475de6,PennController,31,0,experiment,NULL,PennController,29,_Header_,End,1687412985090,612742541c10c193688cea34,612742541c10c193688cea34,27,square,filler,B,25,square15.jpg,square35.jpg,GoalA,NULL
1687413025,693077bde61ef11f941f104154475de6,PennController,31,0,experiment,NULL,Video,progression,buffer,0,1687412988612,612742541c10c193688cea34,612742541c10c193688cea34,27,square,filler,B,25,square15.jpg,square35.jpg,GoalA,NULL
1687413025,693077bde61ef11f941f104154475de6,PennController,31,0,experiment,NULL,Canvas,canvas6,Print,NA,1687412990842,612742541c10c193688cea34,612742541c10c193688cea34,27,square,filler,B,25,square15.jpg,square35.jpg,GoalA,NULL
1687413025,693077bde61ef11f941f104154475de6,PennController,31,0,experiment,NULL,Selector,choice,Selection,option2,1687412991981,612742541c10c193688cea34,612742541c10c193688cea34,27,square,filler,B,25,square15.jpg,square35.jpg,GoalA,option1;option2
1687413025,693077bde61ef11f941f104154475de6,PennController,31,0,experiment,NULL,PennController,29,_Trial_,End,1687412991981,612742541c10c193688cea34,612742541c10c193688cea34,27,square,filler,B,25,square15.jpg,square35.jpg,GoalA,NULL
1687413025,693077bde61ef11f941f104154475de6,PennController,25,0,experiment,NULL,PennController,23,_Trial_,Start,1687412991983,612742541c10c193688cea34,612742541c10c193688cea34,21,visit,filler,B,25,visit15.jpg,visit35.jpg,GoalA,NULL
1687413025,693077bde61ef11f941f104154475de6,PennController,25,0,experiment,NULL,PennController,23,_Header_,Start,1687412991983,612742541c10c193688cea34,612742541c10c193688cea34,21,visit,filler,B,25,visit15.jpg,visit35.jpg,GoalA,NULL
1687413025,693077bde61ef11f941f104154475de6,PennController,25,0,experiment,NULL,PennController,23,_Header_,End,1687412991983,612742541c10c193688cea34,612742541c10c193688cea34,21,visit,filler,B,25,visit15.jpg,visit35.jpg,GoalA,NULL
1687413025,693077bde61ef11f941f104154475de6,PennController,25,0,experiment,NULL,Video,progression,buffer,0,1687412995515,612742541c10c193688cea34,612742541c10c193688cea34,21,visit,filler,B,25,visit15.jpg,visit35.jpg,GoalA,NULL
1687413025,693077bde61ef11f941f104154475de6,PennController,25,0,experiment,NULL,Canvas,canvas6,Print,NA,1687412997756,612742541c10c193688cea34,612742541c10c193688cea34,21,visit,filler,B,25,visit15.jpg,visit35.jpg,GoalA,NULL
1687413025,693077bde61ef11f941f104154475de6,PennController,25,0,experiment,NULL,Selector,choice,Selection,option2,1687412999221,612742541c10c193688cea34,612742541c10c193688cea34,21,visit,filler,B,25,visit15.jpg,visit35.jpg,GoalA,option1;option2
1687413025,693077bde61ef11f941f104154475de6,PennController,25,0,experiment,NULL,PennController,23,_Trial_,End,1687412999222,612742541c10c193688cea34,612742541c10c193688cea34,21,visit,filler,B,25,visit15.jpg,visit35.jpg,GoalA,NULL
1687413025,693077bde61ef11f941f104154475de6,PennController,16,0,experiment,NULL,PennController,14,_Trial_,Start,1687412999222,612742541c10c193688cea34,612742541c10c193688cea34,12,erase,critical,B,25,erase15.jpg,erase33.jpg,low,NULL
1687413025,693077bde61ef11f941f104154475de6,PennController,16,0,experiment,NULL,PennController,14,_Header_,Start,1687412999222,612742541c10c193688cea34,612742541c10c193688cea34,12,erase,critical,B,25,erase15.jpg,erase33.jpg,low,NULL
1687413025,693077bde61ef11f941f104154475de6,PennController,16,0,experiment,NULL,PennController,14,_Header_,End,1687412999222,612742541c10c193688cea34,612742541c10c193688cea34,12,erase,critical,B,25,erase15.jpg,erase33.jpg,low,NULL
1687413025,693077bde61ef11f941f104154475de6,PennController,16,0,experiment,NULL,Video,progression,buffer,0,1687413002742,612742541c10c193688cea34,612742541c10c193688cea34,12,erase,critical,B,25,erase15.jpg,erase33.jpg,low,NULL
1687413025,693077bde61ef11f941f104154475de6,PennController,16,0,experiment,NULL,Canvas,canvas6,Print,NA,1687413005568,612742541c10c193688cea34,612742541c10c193688cea34,12,erase,critical,B,25,erase15.jpg,erase33.jpg,low,NULL
1687413025,693077bde61ef11f941f104154475de6,PennController,16,0,experiment,NULL,Selector,choice,Selection,option2,1687413006759,612742541c10c193688cea34,612742541c10c193688cea34,12,erase,critical,B,25,erase15.jpg,erase33.jpg,low,option1;option2
1687413025,693077bde61ef11f941f104154475de6,PennController,16,0,experiment,NULL,PennController,14,_Trial_,End,1687413006760,612742541c10c193688cea34,612742541c10c193688cea34,12,erase,critical,B,25,erase15.jpg,erase33.jpg,low,NULL
1687413025,693077bde61ef11f941f104154475de6,PennController,26,0,experiment,NULL,PennController,24,_Trial_,Start,1687413006760,612742541c10c193688cea34,612742541c10c193688cea34,22,wall,filler,B,50,wall40.jpg,wall60.jpg,GoalB,NULL
1687413025,693077bde61ef11f941f104154475de6,PennController,26,0,experiment,NULL,PennController,24,_Header_,Start,1687413006760,612742541c10c193688cea34,612742541c10c193688cea34,22,wall,filler,B,50,wall40.jpg,wall60.jpg,GoalB,NULL
1687413025,693077bde61ef11f941f104154475de6,PennController,26,0,experiment,NULL,PennController,24,_Header_,End,1687413006760,612742541c10c193688cea34,612742541c10c193688cea34,22,wall,filler,B,50,wall40.jpg,wall60.jpg,GoalB,NULL
1687413025,693077bde61ef11f941f104154475de6,PennController,26,0,experiment,NULL,Video,progression,buffer,0,1687413010304,612742541c10c193688cea34,612742541c10c193688cea34,22,wall,filler,B,50,wall40.jpg,wall60.jpg,GoalB,NULL
1687413025,693077bde61ef11f941f104154475de6,PennController,26,0,experiment,NULL,Canvas,canvas6,Print,NA,1687413013527,612742541c10c193688cea34,612742541c10c193688cea34,22,wall,filler,B,50,wall40.jpg,wall60.jpg,GoalB,NULL
1687413025,693077bde61ef11f941f104154475de6,PennController,26,0,experiment,NULL,Selector,choice,Selection,option2,1687413014428,612742541c10c193688cea34,612742541c10c193688cea34,22,wall,filler,B,50,wall40.jpg,wall60.jpg,GoalB,option1;option2
1687413025,693077bde61ef11f941f104154475de6,PennController,26,0,experiment,NULL,PennController,24,_Trial_,End,1687413014429,612742541c10c193688cea34,612742541c10c193688cea34,22,wall,filler,B,50,wall40.jpg,wall60.jpg,GoalB,NULL
1687413025,693077bde61ef11f941f104154475de6,PennController,6,0,experiment,NULL,PennController,4,_Trial_,Start,1687413014430,612742541c10c193688cea34,612742541c10c193688cea34,2,door,critical,B,75,door65.jpg,door85.jpg,low,NULL
1687413025,693077bde61ef11f941f104154475de6,PennController,6,0,experiment,NULL,PennController,4,_Header_,Start,1687413014430,612742541c10c193688cea34,612742541c10c193688cea34,2,door,critical,B,75,door65.jpg,door85.jpg,low,NULL
1687413025,693077bde61ef11f941f104154475de6,PennController,6,0,experiment,NULL,PennController,4,_Header_,End,1687413014430,612742541c10c193688cea34,612742541c10c193688cea34,2,door,critical,B,75,door65.jpg,door85.jpg,low,NULL
1687413025,693077bde61ef11f941f104154475de6,PennController,6,0,experiment,NULL,Video,progression,buffer,0,1687413017963,612742541c10c193688cea34,612742541c10c193688cea34,2,door,critical,B,75,door65.jpg,door85.jpg,low,NULL
1687413025,693077bde61ef11f941f104154475de6,PennController,6,0,experiment,NULL,Canvas,canvas6,Print,NA,1687413022198,612742541c10c193688cea34,612742541c10c193688cea34,2,door,critical,B,75,door65.jpg,door85.jpg,low,NULL
1687413025,693077bde61ef11f941f104154475de6,PennController,6,0,experiment,NULL,Selector,choice,Selection,option2,1687413023753,612742541c10c193688cea34,612742541c10c193688cea34,2,door,critical,B,75,door65.jpg,door85.jpg,low,option1;option2
1687413025,693077bde61ef11f941f104154475de6,PennController,6,0,experiment,NULL,PennController,4,_Trial_,End,1687413023754,612742541c10c193688cea34,612742541c10c193688cea34,2,door,critical,B,75,door65.jpg,door85.jpg,low,NULL
