#
# Results on Tuesday June 20 2023 18:55:38 UTC
# USER AGENT: Mozilla/5.0 (Windows NT 10.0; Win64; x64) AppleWebKit/537.36 (KHTML, like Gecko) Chrome/114.0.0.0 Safari/537.36
# Design number was non-random = 3
#
# Columns below this comment are as follows:
# 1. Results reception time.
# 2. MD5 hash of participant's IP address.
# 3. Controller name.
# 4. Order number of item.
# 5. Inner element number.
# 6. Label.
# 7. Latin Square Group.
# 8. PennElementType.
# 9. PennElementName.
# 10. Parameter.
# 11. Value.
# 12. EventTime.
# 13. PROLIFIC_ID.
# 14. Comments.
1687287338,f187e1c5592525e9e94d36a50ff4f67f,PennController,2,0,consent,NULL,PennController,0,_Trial_,Start,1687287064387,6075ac7666751e00c4812c35,NULL
1687287338,f187e1c5592525e9e94d36a50ff4f67f,PennController,2,0,consent,NULL,PennController,0,_Header_,Start,1687287064387,6075ac7666751e00c4812c35,NULL
1687287338,f187e1c5592525e9e94d36a50ff4f67f,PennController,2,0,consent,NULL,PennController,0,_Header_,End,1687287064388,6075ac7666751e00c4812c35,NULL
1687287338,f187e1c5592525e9e94d36a50ff4f67f,PennController,2,0,consent,NULL,PennController,0,_Trial_,End,1687287067661,6075ac7666751e00c4812c35,NULL
# Columns below this comment are as follows:
# 14. ID.
# 15. Comments.
1687287338,f187e1c5592525e9e94d36a50ff4f67f,PennController,3,0,intro,NULL,PennController,1,_Trial_,Start,1687287067663,6075ac7666751e00c4812c35,6075ac7666751e00c4812c35,NULL
1687287338,f187e1c5592525e9e94d36a50ff4f67f,PennController,3,0,intro,NULL,PennController,1,_Header_,Start,1687287067663,6075ac7666751e00c4812c35,6075ac7666751e00c4812c35,NULL
1687287338,f187e1c5592525e9e94d36a50ff4f67f,PennController,3,0,intro,NULL,PennController,1,_Header_,End,1687287067663,6075ac7666751e00c4812c35,6075ac7666751e00c4812c35,NULL
1687287338,f187e1c5592525e9e94d36a50ff4f67f,PennController,3,0,intro,NULL,PennController,1,_Trial_,End,1687287072540,6075ac7666751e00c4812c35,6075ac7666751e00c4812c35,NULL
# Columns below this comment are as follows:
# 15. item_number.
# 16. item.
# 17. type.
# 18. Group.
# 19. prog.
# 20. prev_image.
# 21. next_image.
# 22. height.
# 23. Comments.
1687287338,f187e1c5592525e9e94d36a50ff4f67f,PennController,10,0,experiment,NULL,PennController,9,_Trial_,Start,1687287072541,6075ac7666751e00c4812c35,6075ac7666751e00c4812c35,7,stack,critical,D,25,stack15.jpg,stack35.jpg,high,NULL
1687287338,f187e1c5592525e9e94d36a50ff4f67f,PennController,10,0,experiment,NULL,PennController,9,_Header_,Start,1687287072541,6075ac7666751e00c4812c35,6075ac7666751e00c4812c35,7,stack,critical,D,25,stack15.jpg,stack35.jpg,high,NULL
1687287338,f187e1c5592525e9e94d36a50ff4f67f,PennController,10,0,experiment,NULL,PennController,9,_Header_,End,1687287072541,6075ac7666751e00c4812c35,6075ac7666751e00c4812c35,7,stack,critical,D,25,stack15.jpg,stack35.jpg,high,NULL
1687287338,f187e1c5592525e9e94d36a50ff4f67f,PennController,10,0,experiment,NULL,Canvas,canvas6,Print,NA,1687287078232,6075ac7666751e00c4812c35,6075ac7666751e00c4812c35,7,stack,critical,D,25,stack15.jpg,stack35.jpg,high,NULL
1687287338,f187e1c5592525e9e94d36a50ff4f67f,PennController,10,0,experiment,NULL,Video,progression,buffer,0.002614,1687287076070,6075ac7666751e00c4812c35,6075ac7666751e00c4812c35,7,stack,critical,D,25,stack15.jpg,stack35.jpg,high,NULL
1687287338,f187e1c5592525e9e94d36a50ff4f67f,PennController,10,0,experiment,NULL,Selector,choice,Selection,option2,1687287080849,6075ac7666751e00c4812c35,6075ac7666751e00c4812c35,7,stack,critical,D,25,stack15.jpg,stack35.jpg,high,option2;option1
1687287338,f187e1c5592525e9e94d36a50ff4f67f,PennController,10,0,experiment,NULL,PennController,9,_Trial_,End,1687287080851,6075ac7666751e00c4812c35,6075ac7666751e00c4812c35,7,stack,critical,D,25,stack15.jpg,stack35.jpg,high,NULL
1687287338,f187e1c5592525e9e94d36a50ff4f67f,PennController,16,0,experiment,NULL,PennController,15,_Trial_,Start,1687287080852,6075ac7666751e00c4812c35,6075ac7666751e00c4812c35,13,mix,critical,D,25,mix15.jpg,mix35.jpg,high,NULL
1687287338,f187e1c5592525e9e94d36a50ff4f67f,PennController,16,0,experiment,NULL,PennController,15,_Header_,Start,1687287080852,6075ac7666751e00c4812c35,6075ac7666751e00c4812c35,13,mix,critical,D,25,mix15.jpg,mix35.jpg,high,NULL
1687287338,f187e1c5592525e9e94d36a50ff4f67f,PennController,16,0,experiment,NULL,PennController,15,_Header_,End,1687287080852,6075ac7666751e00c4812c35,6075ac7666751e00c4812c35,13,mix,critical,D,25,mix15.jpg,mix35.jpg,high,NULL
1687287338,f187e1c5592525e9e94d36a50ff4f67f,PennController,16,0,experiment,NULL,Canvas,canvas6,Print,NA,1687287086549,6075ac7666751e00c4812c35,6075ac7666751e00c4812c35,13,mix,critical,D,25,mix15.jpg,mix35.jpg,high,NULL
1687287338,f187e1c5592525e9e94d36a50ff4f67f,PennController,16,0,experiment,NULL,Video,progression,buffer,0.002957,1687287084379,6075ac7666751e00c4812c35,6075ac7666751e00c4812c35,13,mix,critical,D,25,mix15.jpg,mix35.jpg,high,NULL
1687287338,f187e1c5592525e9e94d36a50ff4f67f,PennController,16,0,experiment,NULL,Selector,choice,Selection,option1,1687287088793,6075ac7666751e00c4812c35,6075ac7666751e00c4812c35,13,mix,critical,D,25,mix15.jpg,mix35.jpg,high,option1;option2
1687287338,f187e1c5592525e9e94d36a50ff4f67f,PennController,16,0,experiment,NULL,PennController,15,_Trial_,End,1687287088795,6075ac7666751e00c4812c35,6075ac7666751e00c4812c35,13,mix,critical,D,25,mix15.jpg,mix35.jpg,high,NULL
1687287338,f187e1c5592525e9e94d36a50ff4f67f,PennController,27,0,experiment,NULL,PennController,26,_Trial_,Start,1687287088797,6075ac7666751e00c4812c35,6075ac7666751e00c4812c35,24,match,filler,D,75,match65.jpg,match85.jpg,GoalA,NULL
1687287338,f187e1c5592525e9e94d36a50ff4f67f,PennController,27,0,experiment,NULL,PennController,26,_Header_,Start,1687287088797,6075ac7666751e00c4812c35,6075ac7666751e00c4812c35,24,match,filler,D,75,match65.jpg,match85.jpg,GoalA,NULL
1687287338,f187e1c5592525e9e94d36a50ff4f67f,PennController,27,0,experiment,NULL,PennController,26,_Header_,End,1687287088797,6075ac7666751e00c4812c35,6075ac7666751e00c4812c35,24,match,filler,D,75,match65.jpg,match85.jpg,GoalA,NULL
1687287338,f187e1c5592525e9e94d36a50ff4f67f,PennController,27,0,experiment,NULL,Canvas,canvas6,Print,NA,1687287096479,6075ac7666751e00c4812c35,6075ac7666751e00c4812c35,24,match,filler,D,75,match65.jpg,match85.jpg,GoalA,NULL
1687287338,f187e1c5592525e9e94d36a50ff4f67f,PennController,27,0,experiment,NULL,Video,progression,buffer,0.002144,1687287092321,6075ac7666751e00c4812c35,6075ac7666751e00c4812c35,24,match,filler,D,75,match65.jpg,match85.jpg,GoalA,NULL
1687287338,f187e1c5592525e9e94d36a50ff4f67f,PennController,27,0,experiment,NULL,Selector,choice,Selection,option1,1687287102338,6075ac7666751e00c4812c35,6075ac7666751e00c4812c35,24,match,filler,D,75,match65.jpg,match85.jpg,GoalA,option2;option1
1687287338,f187e1c5592525e9e94d36a50ff4f67f,PennController,27,0,experiment,NULL,PennController,26,_Trial_,End,1687287102339,6075ac7666751e00c4812c35,6075ac7666751e00c4812c35,24,match,filler,D,75,match65.jpg,match85.jpg,GoalA,NULL
1687287338,f187e1c5592525e9e94d36a50ff4f67f,PennController,15,0,experiment,NULL,PennController,14,_Trial_,Start,1687287102341,6075ac7666751e00c4812c35,6075ac7666751e00c4812c35,12,erase,critical,D,75,erase66.jpg,erase84.jpg,high,NULL
1687287338,f187e1c5592525e9e94d36a50ff4f67f,PennController,15,0,experiment,NULL,PennController,14,_Header_,Start,1687287102341,6075ac7666751e00c4812c35,6075ac7666751e00c4812c35,12,erase,critical,D,75,erase66.jpg,erase84.jpg,high,NULL
1687287338,f187e1c5592525e9e94d36a50ff4f67f,PennController,15,0,experiment,NULL,PennController,14,_Header_,End,1687287102341,6075ac7666751e00c4812c35,6075ac7666751e00c4812c35,12,erase,critical,D,75,erase66.jpg,erase84.jpg,high,NULL
1687287338,f187e1c5592525e9e94d36a50ff4f67f,PennController,15,0,experiment,NULL,Canvas,canvas6,Print,NA,1687287112025,6075ac7666751e00c4812c35,6075ac7666751e00c4812c35,12,erase,critical,D,75,erase66.jpg,erase84.jpg,high,NULL
1687287338,f187e1c5592525e9e94d36a50ff4f67f,PennController,15,0,experiment,NULL,Video,progression,buffer,0.00543,1687287105873,6075ac7666751e00c4812c35,6075ac7666751e00c4812c35,12,erase,critical,D,75,erase66.jpg,erase84.jpg,high,NULL
1687287338,f187e1c5592525e9e94d36a50ff4f67f,PennController,15,0,experiment,NULL,Selector,choice,Selection,option1,1687287114041,6075ac7666751e00c4812c35,6075ac7666751e00c4812c35,12,erase,critical,D,75,erase66.jpg,erase84.jpg,high,option2;option1
1687287338,f187e1c5592525e9e94d36a50ff4f67f,PennController,15,0,experiment,NULL,PennController,14,_Trial_,End,1687287114042,6075ac7666751e00c4812c35,6075ac7666751e00c4812c35,12,erase,critical,D,75,erase66.jpg,erase84.jpg,high,NULL
1687287338,f187e1c5592525e9e94d36a50ff4f67f,PennController,30,0,experiment,NULL,PennController,29,_Trial_,Start,1687287114044,6075ac7666751e00c4812c35,6075ac7666751e00c4812c35,27,square,filler,D,75,square65.jpg,square85.jpg,GoalB,NULL
1687287338,f187e1c5592525e9e94d36a50ff4f67f,PennController,30,0,experiment,NULL,PennController,29,_Header_,Start,1687287114044,6075ac7666751e00c4812c35,6075ac7666751e00c4812c35,27,square,filler,D,75,square65.jpg,square85.jpg,GoalB,NULL
1687287338,f187e1c5592525e9e94d36a50ff4f67f,PennController,30,0,experiment,NULL,PennController,29,_Header_,End,1687287114044,6075ac7666751e00c4812c35,6075ac7666751e00c4812c35,27,square,filler,D,75,square65.jpg,square85.jpg,GoalB,NULL
1687287338,f187e1c5592525e9e94d36a50ff4f67f,PennController,30,0,experiment,NULL,Canvas,canvas6,Print,NA,1687287121746,6075ac7666751e00c4812c35,6075ac7666751e00c4812c35,27,square,filler,D,75,square65.jpg,square85.jpg,GoalB,NULL
1687287338,f187e1c5592525e9e94d36a50ff4f67f,PennController,30,0,experiment,NULL,Video,progression,buffer,0.003412,1687287117577,6075ac7666751e00c4812c35,6075ac7666751e00c4812c35,27,square,filler,D,75,square65.jpg,square85.jpg,GoalB,NULL
1687287338,f187e1c5592525e9e94d36a50ff4f67f,PennController,30,0,experiment,NULL,Selector,choice,Selection,option2,1687287124833,6075ac7666751e00c4812c35,6075ac7666751e00c4812c35,27,square,filler,D,75,square65.jpg,square85.jpg,GoalB,option1;option2
1687287338,f187e1c5592525e9e94d36a50ff4f67f,PennController,30,0,experiment,NULL,PennController,29,_Trial_,End,1687287124835,6075ac7666751e00c4812c35,6075ac7666751e00c4812c35,27,square,filler,D,75,square65.jpg,square85.jpg,GoalB,NULL
1687287338,f187e1c5592525e9e94d36a50ff4f67f,PennController,9,0,experiment,NULL,PennController,8,_Trial_,Start,1687287124836,6075ac7666751e00c4812c35,6075ac7666751e00c4812c35,6,flower,critical,D,75,flower65.jpg,flower85.jpg,high,NULL
1687287338,f187e1c5592525e9e94d36a50ff4f67f,PennController,9,0,experiment,NULL,PennController,8,_Header_,Start,1687287124836,6075ac7666751e00c4812c35,6075ac7666751e00c4812c35,6,flower,critical,D,75,flower65.jpg,flower85.jpg,high,NULL
1687287338,f187e1c5592525e9e94d36a50ff4f67f,PennController,9,0,experiment,NULL,PennController,8,_Header_,End,1687287124836,6075ac7666751e00c4812c35,6075ac7666751e00c4812c35,6,flower,critical,D,75,flower65.jpg,flower85.jpg,high,NULL
1687287338,f187e1c5592525e9e94d36a50ff4f67f,PennController,9,0,experiment,NULL,Canvas,canvas6,Print,NA,1687287132527,6075ac7666751e00c4812c35,6075ac7666751e00c4812c35,6,flower,critical,D,75,flower65.jpg,flower85.jpg,high,NULL
1687287338,f187e1c5592525e9e94d36a50ff4f67f,PennController,9,0,experiment,NULL,Video,progression,buffer,0.003948,1687287128360,6075ac7666751e00c4812c35,6075ac7666751e00c4812c35,6,flower,critical,D,75,flower65.jpg,flower85.jpg,high,NULL
1687287338,f187e1c5592525e9e94d36a50ff4f67f,PennController,9,0,experiment,NULL,Selector,choice,Selection,option2,1687287134698,6075ac7666751e00c4812c35,6075ac7666751e00c4812c35,6,flower,critical,D,75,flower65.jpg,flower85.jpg,high,option1;option2
1687287338,f187e1c5592525e9e94d36a50ff4f67f,PennController,9,0,experiment,NULL,PennController,8,_Trial_,End,1687287134699,6075ac7666751e00c4812c35,6075ac7666751e00c4812c35,6,flower,critical,D,75,flower65.jpg,flower85.jpg,high,NULL
1687287338,f187e1c5592525e9e94d36a50ff4f67f,PennController,25,0,experiment,NULL,PennController,24,_Trial_,Start,1687287134701,6075ac7666751e00c4812c35,6075ac7666751e00c4812c35,22,wall,filler,D,25,wall15.jpg,wall35.jpg,GoalA,NULL
1687287338,f187e1c5592525e9e94d36a50ff4f67f,PennController,25,0,experiment,NULL,PennController,24,_Header_,Start,1687287134701,6075ac7666751e00c4812c35,6075ac7666751e00c4812c35,22,wall,filler,D,25,wall15.jpg,wall35.jpg,GoalA,NULL
1687287338,f187e1c5592525e9e94d36a50ff4f67f,PennController,25,0,experiment,NULL,PennController,24,_Header_,End,1687287134701,6075ac7666751e00c4812c35,6075ac7666751e00c4812c35,22,wall,filler,D,25,wall15.jpg,wall35.jpg,GoalA,NULL
1687287338,f187e1c5592525e9e94d36a50ff4f67f,PennController,25,0,experiment,NULL,Canvas,canvas6,Print,NA,1687287140390,6075ac7666751e00c4812c35,6075ac7666751e00c4812c35,22,wall,filler,D,25,wall15.jpg,wall35.jpg,GoalA,NULL
1687287338,f187e1c5592525e9e94d36a50ff4f67f,PennController,25,0,experiment,NULL,Video,progression,buffer,0.00394,1687287138222,6075ac7666751e00c4812c35,6075ac7666751e00c4812c35,22,wall,filler,D,25,wall15.jpg,wall35.jpg,GoalA,NULL
1687287338,f187e1c5592525e9e94d36a50ff4f67f,PennController,25,0,experiment,NULL,Selector,choice,Selection,option2,1687287143241,6075ac7666751e00c4812c35,6075ac7666751e00c4812c35,22,wall,filler,D,25,wall15.jpg,wall35.jpg,GoalA,option2;option1
1687287338,f187e1c5592525e9e94d36a50ff4f67f,PennController,25,0,experiment,NULL,PennController,24,_Trial_,End,1687287143243,6075ac7666751e00c4812c35,6075ac7666751e00c4812c35,22,wall,filler,D,25,wall15.jpg,wall35.jpg,GoalA,NULL
1687287338,f187e1c5592525e9e94d36a50ff4f67f,PennController,6,0,experiment,NULL,PennController,5,_Trial_,Start,1687287143244,6075ac7666751e00c4812c35,6075ac7666751e00c4812c35,3,clean,critical,D,75,clean65.jpg,clean85.jpg,high,NULL
1687287338,f187e1c5592525e9e94d36a50ff4f67f,PennController,6,0,experiment,NULL,PennController,5,_Header_,Start,1687287143244,6075ac7666751e00c4812c35,6075ac7666751e00c4812c35,3,clean,critical,D,75,clean65.jpg,clean85.jpg,high,NULL
1687287338,f187e1c5592525e9e94d36a50ff4f67f,PennController,6,0,experiment,NULL,PennController,5,_Header_,End,1687287143244,6075ac7666751e00c4812c35,6075ac7666751e00c4812c35,3,clean,critical,D,75,clean65.jpg,clean85.jpg,high,NULL
1687287338,f187e1c5592525e9e94d36a50ff4f67f,PennController,6,0,experiment,NULL,Canvas,canvas6,Print,NA,1687287150947,6075ac7666751e00c4812c35,6075ac7666751e00c4812c35,3,clean,critical,D,75,clean65.jpg,clean85.jpg,high,NULL
1687287338,f187e1c5592525e9e94d36a50ff4f67f,PennController,6,0,experiment,NULL,Video,progression,buffer,0.005241,1687287146772,6075ac7666751e00c4812c35,6075ac7666751e00c4812c35,3,clean,critical,D,75,clean65.jpg,clean85.jpg,high,NULL
1687287338,f187e1c5592525e9e94d36a50ff4f67f,PennController,6,0,experiment,NULL,Selector,choice,Selection,option1,1687287153553,6075ac7666751e00c4812c35,6075ac7666751e00c4812c35,3,clean,critical,D,75,clean65.jpg,clean85.jpg,high,option1;option2
1687287338,f187e1c5592525e9e94d36a50ff4f67f,PennController,6,0,experiment,NULL,PennController,5,_Trial_,End,1687287153555,6075ac7666751e00c4812c35,6075ac7666751e00c4812c35,3,clean,critical,D,75,clean65.jpg,clean85.jpg,high,NULL
1687287338,f187e1c5592525e9e94d36a50ff4f67f,PennController,31,0,experiment,NULL,PennController,30,_Trial_,Start,1687287153556,6075ac7666751e00c4812c35,6075ac7666751e00c4812c35,28,sort,filler,D,25,sort15.jpg,sort35.jpg,GoalA,NULL
1687287338,f187e1c5592525e9e94d36a50ff4f67f,PennController,31,0,experiment,NULL,PennController,30,_Header_,Start,1687287153556,6075ac7666751e00c4812c35,6075ac7666751e00c4812c35,28,sort,filler,D,25,sort15.jpg,sort35.jpg,GoalA,NULL
1687287338,f187e1c5592525e9e94d36a50ff4f67f,PennController,31,0,experiment,NULL,PennController,30,_Header_,End,1687287153557,6075ac7666751e00c4812c35,6075ac7666751e00c4812c35,28,sort,filler,D,25,sort15.jpg,sort35.jpg,GoalA,NULL
1687287338,f187e1c5592525e9e94d36a50ff4f67f,PennController,31,0,experiment,NULL,Canvas,canvas6,Print,NA,1687287159255,6075ac7666751e00c4812c35,6075ac7666751e00c4812c35,28,sort,filler,D,25,sort15.jpg,sort35.jpg,GoalA,NULL
1687287338,f187e1c5592525e9e94d36a50ff4f67f,PennController,31,0,experiment,NULL,Video,progression,buffer,0.005256,1687287157088,6075ac7666751e00c4812c35,6075ac7666751e00c4812c35,28,sort,filler,D,25,sort15.jpg,sort35.jpg,GoalA,NULL
1687287338,f187e1c5592525e9e94d36a50ff4f67f,PennController,31,0,experiment,NULL,Selector,choice,Selection,option1,1687287160993,6075ac7666751e00c4812c35,6075ac7666751e00c4812c35,28,sort,filler,D,25,sort15.jpg,sort35.jpg,GoalA,option1;option2
1687287338,f187e1c5592525e9e94d36a50ff4f67f,PennController,31,0,experiment,NULL,PennController,30,_Trial_,End,1687287160994,6075ac7666751e00c4812c35,6075ac7666751e00c4812c35,28,sort,filler,D,25,sort15.jpg,sort35.jpg,GoalA,NULL
1687287338,f187e1c5592525e9e94d36a50ff4f67f,PennController,28,0,experiment,NULL,PennController,27,_Trial_,Start,1687287160995,6075ac7666751e00c4812c35,6075ac7666751e00c4812c35,25,house,filler,D,25,house15.jpg,house35.jpg,GoalB,NULL
1687287338,f187e1c5592525e9e94d36a50ff4f67f,PennController,28,0,experiment,NULL,PennController,27,_Header_,Start,1687287160995,6075ac7666751e00c4812c35,6075ac7666751e00c4812c35,25,house,filler,D,25,house15.jpg,house35.jpg,GoalB,NULL
1687287338,f187e1c5592525e9e94d36a50ff4f67f,PennController,28,0,experiment,NULL,PennController,27,_Header_,End,1687287160995,6075ac7666751e00c4812c35,6075ac7666751e00c4812c35,25,house,filler,D,25,house15.jpg,house35.jpg,GoalB,NULL
1687287338,f187e1c5592525e9e94d36a50ff4f67f,PennController,28,0,experiment,NULL,Canvas,canvas6,Print,NA,1687287166685,6075ac7666751e00c4812c35,6075ac7666751e00c4812c35,25,house,filler,D,25,house15.jpg,house35.jpg,GoalB,NULL
1687287338,f187e1c5592525e9e94d36a50ff4f67f,PennController,28,0,experiment,NULL,Video,progression,buffer,0.006311,1687287164523,6075ac7666751e00c4812c35,6075ac7666751e00c4812c35,25,house,filler,D,25,house15.jpg,house35.jpg,GoalB,NULL
1687287338,f187e1c5592525e9e94d36a50ff4f67f,PennController,28,0,experiment,NULL,Selector,choice,Selection,option1,1687287167937,6075ac7666751e00c4812c35,6075ac7666751e00c4812c35,25,house,filler,D,25,house15.jpg,house35.jpg,GoalB,option2;option1
1687287338,f187e1c5592525e9e94d36a50ff4f67f,PennController,28,0,experiment,NULL,PennController,27,_Trial_,End,1687287167939,6075ac7666751e00c4812c35,6075ac7666751e00c4812c35,25,house,filler,D,25,house15.jpg,house35.jpg,GoalB,NULL
1687287338,f187e1c5592525e9e94d36a50ff4f67f,PennController,21,0,experiment,NULL,PennController,20,_Trial_,Start,1687287167940,6075ac7666751e00c4812c35,6075ac7666751e00c4812c35,18,ball,critical,D,75,ball65.jpg,ball85.jpg,high,NULL
1687287338,f187e1c5592525e9e94d36a50ff4f67f,PennController,21,0,experiment,NULL,PennController,20,_Header_,Start,1687287167940,6075ac7666751e00c4812c35,6075ac7666751e00c4812c35,18,ball,critical,D,75,ball65.jpg,ball85.jpg,high,NULL
1687287338,f187e1c5592525e9e94d36a50ff4f67f,PennController,21,0,experiment,NULL,PennController,20,_Header_,End,1687287167940,6075ac7666751e00c4812c35,6075ac7666751e00c4812c35,18,ball,critical,D,75,ball65.jpg,ball85.jpg,high,NULL
1687287338,f187e1c5592525e9e94d36a50ff4f67f,PennController,21,0,experiment,NULL,Canvas,canvas6,Print,NA,1687287175642,6075ac7666751e00c4812c35,6075ac7666751e00c4812c35,18,ball,critical,D,75,ball65.jpg,ball85.jpg,high,NULL
1687287338,f187e1c5592525e9e94d36a50ff4f67f,PennController,21,0,experiment,NULL,Video,progression,buffer,0.002555,1687287171471,6075ac7666751e00c4812c35,6075ac7666751e00c4812c35,18,ball,critical,D,75,ball65.jpg,ball85.jpg,high,NULL
1687287338,f187e1c5592525e9e94d36a50ff4f67f,PennController,21,0,experiment,NULL,Selector,choice,Selection,option2,1687287180416,6075ac7666751e00c4812c35,6075ac7666751e00c4812c35,18,ball,critical,D,75,ball65.jpg,ball85.jpg,high,option1;option2
1687287338,f187e1c5592525e9e94d36a50ff4f67f,PennController,21,0,experiment,NULL,PennController,20,_Trial_,End,1687287180417,6075ac7666751e00c4812c35,6075ac7666751e00c4812c35,18,ball,critical,D,75,ball65.jpg,ball85.jpg,high,NULL
1687287338,f187e1c5592525e9e94d36a50ff4f67f,PennController,32,0,experiment,NULL,PennController,31,_Trial_,Start,1687287180419,6075ac7666751e00c4812c35,6075ac7666751e00c4812c35,29,frog,filler,D,50,frog40.jpg,frog60.jpg,GoalB,NULL
1687287338,f187e1c5592525e9e94d36a50ff4f67f,PennController,32,0,experiment,NULL,PennController,31,_Header_,Start,1687287180419,6075ac7666751e00c4812c35,6075ac7666751e00c4812c35,29,frog,filler,D,50,frog40.jpg,frog60.jpg,GoalB,NULL
1687287338,f187e1c5592525e9e94d36a50ff4f67f,PennController,32,0,experiment,NULL,PennController,31,_Header_,End,1687287180419,6075ac7666751e00c4812c35,6075ac7666751e00c4812c35,29,frog,filler,D,50,frog40.jpg,frog60.jpg,GoalB,NULL
1687287338,f187e1c5592525e9e94d36a50ff4f67f,PennController,32,0,experiment,NULL,Canvas,canvas6,Print,NA,1687287187125,6075ac7666751e00c4812c35,6075ac7666751e00c4812c35,29,frog,filler,D,50,frog40.jpg,frog60.jpg,GoalB,NULL
1687287338,f187e1c5592525e9e94d36a50ff4f67f,PennController,32,0,experiment,NULL,Video,progression,buffer,0.007091,1687287183956,6075ac7666751e00c4812c35,6075ac7666751e00c4812c35,29,frog,filler,D,50,frog40.jpg,frog60.jpg,GoalB,NULL
1687287338,f187e1c5592525e9e94d36a50ff4f67f,PennController,32,0,experiment,NULL,Selector,choice,Selection,option1,1687287190055,6075ac7666751e00c4812c35,6075ac7666751e00c4812c35,29,frog,filler,D,50,frog40.jpg,frog60.jpg,GoalB,option2;option1
1687287338,f187e1c5592525e9e94d36a50ff4f67f,PennController,32,0,experiment,NULL,PennController,31,_Trial_,End,1687287190057,6075ac7666751e00c4812c35,6075ac7666751e00c4812c35,29,frog,filler,D,50,frog40.jpg,frog60.jpg,GoalB,NULL
1687287338,f187e1c5592525e9e94d36a50ff4f67f,PennController,18,0,experiment,NULL,PennController,17,_Trial_,Start,1687287190058,6075ac7666751e00c4812c35,6075ac7666751e00c4812c35,15,zip,critical,D,75,zip65.jpg,zip85.jpg,high,NULL
1687287338,f187e1c5592525e9e94d36a50ff4f67f,PennController,18,0,experiment,NULL,PennController,17,_Header_,Start,1687287190058,6075ac7666751e00c4812c35,6075ac7666751e00c4812c35,15,zip,critical,D,75,zip65.jpg,zip85.jpg,high,NULL
1687287338,f187e1c5592525e9e94d36a50ff4f67f,PennController,18,0,experiment,NULL,PennController,17,_Header_,End,1687287190058,6075ac7666751e00c4812c35,6075ac7666751e00c4812c35,15,zip,critical,D,75,zip65.jpg,zip85.jpg,high,NULL
1687287338,f187e1c5592525e9e94d36a50ff4f67f,PennController,18,0,experiment,NULL,Canvas,canvas6,Print,NA,1687287196947,6075ac7666751e00c4812c35,6075ac7666751e00c4812c35,15,zip,critical,D,75,zip65.jpg,zip85.jpg,high,NULL
1687287338,f187e1c5592525e9e94d36a50ff4f67f,PennController,18,0,experiment,NULL,Video,progression,buffer,0.00322,1687287193584,6075ac7666751e00c4812c35,6075ac7666751e00c4812c35,15,zip,critical,D,75,zip65.jpg,zip85.jpg,high,NULL
1687287338,f187e1c5592525e9e94d36a50ff4f67f,PennController,18,0,experiment,NULL,Selector,choice,Selection,option2,1687287199935,6075ac7666751e00c4812c35,6075ac7666751e00c4812c35,15,zip,critical,D,75,zip65.jpg,zip85.jpg,high,option1;option2
1687287338,f187e1c5592525e9e94d36a50ff4f67f,PennController,18,0,experiment,NULL,PennController,17,_Trial_,End,1687287199937,6075ac7666751e00c4812c35,6075ac7666751e00c4812c35,15,zip,critical,D,75,zip65.jpg,zip85.jpg,high,NULL
1687287338,f187e1c5592525e9e94d36a50ff4f67f,PennController,13,0,experiment,NULL,PennController,12,_Trial_,Start,1687287199939,6075ac7666751e00c4812c35,6075ac7666751e00c4812c35,10,train,critical,D,25,train15.jpg,train35.jpg,high,NULL
1687287338,f187e1c5592525e9e94d36a50ff4f67f,PennController,13,0,experiment,NULL,PennController,12,_Header_,Start,1687287199939,6075ac7666751e00c4812c35,6075ac7666751e00c4812c35,10,train,critical,D,25,train15.jpg,train35.jpg,high,NULL
1687287338,f187e1c5592525e9e94d36a50ff4f67f,PennController,13,0,experiment,NULL,PennController,12,_Header_,End,1687287199939,6075ac7666751e00c4812c35,6075ac7666751e00c4812c35,10,train,critical,D,25,train15.jpg,train35.jpg,high,NULL
1687287338,f187e1c5592525e9e94d36a50ff4f67f,PennController,13,0,experiment,NULL,Canvas,canvas6,Print,NA,1687287205639,6075ac7666751e00c4812c35,6075ac7666751e00c4812c35,10,train,critical,D,25,train15.jpg,train35.jpg,high,NULL
1687287338,f187e1c5592525e9e94d36a50ff4f67f,PennController,13,0,experiment,NULL,Video,progression,buffer,0.002645,1687287203465,6075ac7666751e00c4812c35,6075ac7666751e00c4812c35,10,train,critical,D,25,train15.jpg,train35.jpg,high,NULL
1687287338,f187e1c5592525e9e94d36a50ff4f67f,PennController,13,0,experiment,NULL,Selector,choice,Selection,option1,1687287207575,6075ac7666751e00c4812c35,6075ac7666751e00c4812c35,10,train,critical,D,25,train15.jpg,train35.jpg,high,option2;option1
1687287338,f187e1c5592525e9e94d36a50ff4f67f,PennController,13,0,experiment,NULL,PennController,12,_Trial_,End,1687287207577,6075ac7666751e00c4812c35,6075ac7666751e00c4812c35,10,train,critical,D,25,train15.jpg,train35.jpg,high,NULL
1687287338,f187e1c5592525e9e94d36a50ff4f67f,PennController,26,0,experiment,NULL,PennController,25,_Trial_,Start,1687287207577,6075ac7666751e00c4812c35,6075ac7666751e00c4812c35,23,color,filler,D,50,color40.jpg,color60.jpg,GoalB,NULL
1687287338,f187e1c5592525e9e94d36a50ff4f67f,PennController,26,0,experiment,NULL,PennController,25,_Header_,Start,1687287207577,6075ac7666751e00c4812c35,6075ac7666751e00c4812c35,23,color,filler,D,50,color40.jpg,color60.jpg,GoalB,NULL
1687287338,f187e1c5592525e9e94d36a50ff4f67f,PennController,26,0,experiment,NULL,PennController,25,_Header_,End,1687287207577,6075ac7666751e00c4812c35,6075ac7666751e00c4812c35,23,color,filler,D,50,color40.jpg,color60.jpg,GoalB,NULL
1687287338,f187e1c5592525e9e94d36a50ff4f67f,PennController,26,0,experiment,NULL,Canvas,canvas6,Print,NA,1687287214265,6075ac7666751e00c4812c35,6075ac7666751e00c4812c35,23,color,filler,D,50,color40.jpg,color60.jpg,GoalB,NULL
1687287338,f187e1c5592525e9e94d36a50ff4f67f,PennController,26,0,experiment,NULL,Video,progression,buffer,0.00537,1687287211108,6075ac7666751e00c4812c35,6075ac7666751e00c4812c35,23,color,filler,D,50,color40.jpg,color60.jpg,GoalB,NULL
1687287338,f187e1c5592525e9e94d36a50ff4f67f,PennController,26,0,experiment,NULL,Selector,choice,Selection,option1,1687287215991,6075ac7666751e00c4812c35,6075ac7666751e00c4812c35,23,color,filler,D,50,color40.jpg,color60.jpg,GoalB,option1;option2
1687287338,f187e1c5592525e9e94d36a50ff4f67f,PennController,26,0,experiment,NULL,PennController,25,_Trial_,End,1687287215993,6075ac7666751e00c4812c35,6075ac7666751e00c4812c35,23,color,filler,D,50,color40.jpg,color60.jpg,GoalB,NULL
1687287338,f187e1c5592525e9e94d36a50ff4f67f,PennController,8,0,experiment,NULL,PennController,7,_Trial_,Start,1687287215994,6075ac7666751e00c4812c35,6075ac7666751e00c4812c35,5,book,critical,D,50,book40.jpg,book60.jpg,high,NULL
1687287338,f187e1c5592525e9e94d36a50ff4f67f,PennController,8,0,experiment,NULL,PennController,7,_Header_,Start,1687287215994,6075ac7666751e00c4812c35,6075ac7666751e00c4812c35,5,book,critical,D,50,book40.jpg,book60.jpg,high,NULL
1687287338,f187e1c5592525e9e94d36a50ff4f67f,PennController,8,0,experiment,NULL,PennController,7,_Header_,End,1687287215994,6075ac7666751e00c4812c35,6075ac7666751e00c4812c35,5,book,critical,D,50,book40.jpg,book60.jpg,high,NULL
1687287338,f187e1c5592525e9e94d36a50ff4f67f,PennController,8,0,experiment,NULL,Canvas,canvas6,Print,NA,1687287222681,6075ac7666751e00c4812c35,6075ac7666751e00c4812c35,5,book,critical,D,50,book40.jpg,book60.jpg,high,NULL
1687287338,f187e1c5592525e9e94d36a50ff4f67f,PennController,8,0,experiment,NULL,Video,progression,buffer,0.00343,1687287219521,6075ac7666751e00c4812c35,6075ac7666751e00c4812c35,5,book,critical,D,50,book40.jpg,book60.jpg,high,NULL
1687287338,f187e1c5592525e9e94d36a50ff4f67f,PennController,8,0,experiment,NULL,Selector,choice,Selection,option1,1687287224799,6075ac7666751e00c4812c35,6075ac7666751e00c4812c35,5,book,critical,D,50,book40.jpg,book60.jpg,high,option2;option1
1687287338,f187e1c5592525e9e94d36a50ff4f67f,PennController,8,0,experiment,NULL,PennController,7,_Trial_,End,1687287224801,6075ac7666751e00c4812c35,6075ac7666751e00c4812c35,5,book,critical,D,50,book40.jpg,book60.jpg,high,NULL
1687287338,f187e1c5592525e9e94d36a50ff4f67f,PennController,11,0,experiment,NULL,PennController,10,_Trial_,Start,1687287224801,6075ac7666751e00c4812c35,6075ac7666751e00c4812c35,8,cucumber,critical,D,50,cucumber42.jpg,cucumber60.jpg,high,NULL
1687287338,f187e1c5592525e9e94d36a50ff4f67f,PennController,11,0,experiment,NULL,PennController,10,_Header_,Start,1687287224802,6075ac7666751e00c4812c35,6075ac7666751e00c4812c35,8,cucumber,critical,D,50,cucumber42.jpg,cucumber60.jpg,high,NULL
1687287338,f187e1c5592525e9e94d36a50ff4f67f,PennController,11,0,experiment,NULL,PennController,10,_Header_,End,1687287224802,6075ac7666751e00c4812c35,6075ac7666751e00c4812c35,8,cucumber,critical,D,50,cucumber42.jpg,cucumber60.jpg,high,NULL
1687287338,f187e1c5592525e9e94d36a50ff4f67f,PennController,11,0,experiment,NULL,Canvas,canvas6,Print,NA,1687287232899,6075ac7666751e00c4812c35,6075ac7666751e00c4812c35,8,cucumber,critical,D,50,cucumber42.jpg,cucumber60.jpg,high,NULL
1687287338,f187e1c5592525e9e94d36a50ff4f67f,PennController,11,0,experiment,NULL,Video,progression,buffer,0.002346,1687287228332,6075ac7666751e00c4812c35,6075ac7666751e00c4812c35,8,cucumber,critical,D,50,cucumber42.jpg,cucumber60.jpg,high,NULL
1687287338,f187e1c5592525e9e94d36a50ff4f67f,PennController,11,0,experiment,NULL,Selector,choice,Selection,option1,1687287234503,6075ac7666751e00c4812c35,6075ac7666751e00c4812c35,8,cucumber,critical,D,50,cucumber42.jpg,cucumber60.jpg,high,option2;option1
1687287338,f187e1c5592525e9e94d36a50ff4f67f,PennController,11,0,experiment,NULL,PennController,10,_Trial_,End,1687287234505,6075ac7666751e00c4812c35,6075ac7666751e00c4812c35,8,cucumber,critical,D,50,cucumber42.jpg,cucumber60.jpg,high,NULL
1687287338,f187e1c5592525e9e94d36a50ff4f67f,PennController,20,0,experiment,NULL,PennController,19,_Trial_,Start,1687287234506,6075ac7666751e00c4812c35,6075ac7666751e00c4812c35,17,roll,critical,D,50,roll40.jpg,roll60.jpg,high,NULL
1687287338,f187e1c5592525e9e94d36a50ff4f67f,PennController,20,0,experiment,NULL,PennController,19,_Header_,Start,1687287234506,6075ac7666751e00c4812c35,6075ac7666751e00c4812c35,17,roll,critical,D,50,roll40.jpg,roll60.jpg,high,NULL
1687287338,f187e1c5592525e9e94d36a50ff4f67f,PennController,20,0,experiment,NULL,PennController,19,_Header_,End,1687287234507,6075ac7666751e00c4812c35,6075ac7666751e00c4812c35,17,roll,critical,D,50,roll40.jpg,roll60.jpg,high,NULL
1687287338,f187e1c5592525e9e94d36a50ff4f67f,PennController,20,0,experiment,NULL,Canvas,canvas6,Print,NA,1687287241232,6075ac7666751e00c4812c35,6075ac7666751e00c4812c35,17,roll,critical,D,50,roll40.jpg,roll60.jpg,high,NULL
1687287338,f187e1c5592525e9e94d36a50ff4f67f,PennController,20,0,experiment,NULL,Video,progression,buffer,0,1687287238038,6075ac7666751e00c4812c35,6075ac7666751e00c4812c35,17,roll,critical,D,50,roll40.jpg,roll60.jpg,high,NULL
1687287338,f187e1c5592525e9e94d36a50ff4f67f,PennController,20,0,experiment,NULL,Selector,choice,Selection,option1,1687287243145,6075ac7666751e00c4812c35,6075ac7666751e00c4812c35,17,roll,critical,D,50,roll40.jpg,roll60.jpg,high,option1;option2
1687287338,f187e1c5592525e9e94d36a50ff4f67f,PennController,20,0,experiment,NULL,PennController,19,_Trial_,End,1687287243146,6075ac7666751e00c4812c35,6075ac7666751e00c4812c35,17,roll,critical,D,50,roll40.jpg,roll60.jpg,high,NULL
1687287338,f187e1c5592525e9e94d36a50ff4f67f,PennController,29,0,experiment,NULL,PennController,28,_Trial_,Start,1687287243147,6075ac7666751e00c4812c35,6075ac7666751e00c4812c35,26,sandwich,filler,D,50,sandwich40.jpg,sandwich60.jpg,GoalA,NULL
1687287338,f187e1c5592525e9e94d36a50ff4f67f,PennController,29,0,experiment,NULL,PennController,28,_Header_,Start,1687287243147,6075ac7666751e00c4812c35,6075ac7666751e00c4812c35,26,sandwich,filler,D,50,sandwich40.jpg,sandwich60.jpg,GoalA,NULL
1687287338,f187e1c5592525e9e94d36a50ff4f67f,PennController,29,0,experiment,NULL,PennController,28,_Header_,End,1687287243147,6075ac7666751e00c4812c35,6075ac7666751e00c4812c35,26,sandwich,filler,D,50,sandwich40.jpg,sandwich60.jpg,GoalA,NULL
1687287338,f187e1c5592525e9e94d36a50ff4f67f,PennController,29,0,experiment,NULL,Canvas,canvas6,Print,NA,1687287249829,6075ac7666751e00c4812c35,6075ac7666751e00c4812c35,26,sandwich,filler,D,50,sandwich40.jpg,sandwich60.jpg,GoalA,NULL
1687287338,f187e1c5592525e9e94d36a50ff4f67f,PennController,29,0,experiment,NULL,Video,progression,buffer,0.003283,1687287246669,6075ac7666751e00c4812c35,6075ac7666751e00c4812c35,26,sandwich,filler,D,50,sandwich40.jpg,sandwich60.jpg,GoalA,NULL
1687287338,f187e1c5592525e9e94d36a50ff4f67f,PennController,29,0,experiment,NULL,Selector,choice,Selection,option1,1687287251779,6075ac7666751e00c4812c35,6075ac7666751e00c4812c35,26,sandwich,filler,D,50,sandwich40.jpg,sandwich60.jpg,GoalA,option1;option2
1687287338,f187e1c5592525e9e94d36a50ff4f67f,PennController,29,0,experiment,NULL,PennController,28,_Trial_,End,1687287251780,6075ac7666751e00c4812c35,6075ac7666751e00c4812c35,26,sandwich,filler,D,50,sandwich40.jpg,sandwich60.jpg,GoalA,NULL
1687287338,f187e1c5592525e9e94d36a50ff4f67f,PennController,5,0,experiment,NULL,PennController,4,_Trial_,Start,1687287251780,6075ac7666751e00c4812c35,6075ac7666751e00c4812c35,2,door,critical,D,50,door40.jpg,door60.jpg,high,NULL
1687287338,f187e1c5592525e9e94d36a50ff4f67f,PennController,5,0,experiment,NULL,PennController,4,_Header_,Start,1687287251780,6075ac7666751e00c4812c35,6075ac7666751e00c4812c35,2,door,critical,D,50,door40.jpg,door60.jpg,high,NULL
1687287338,f187e1c5592525e9e94d36a50ff4f67f,PennController,5,0,experiment,NULL,PennController,4,_Header_,End,1687287251780,6075ac7666751e00c4812c35,6075ac7666751e00c4812c35,2,door,critical,D,50,door40.jpg,door60.jpg,high,NULL
1687287338,f187e1c5592525e9e94d36a50ff4f67f,PennController,5,0,experiment,NULL,Canvas,canvas6,Print,NA,1687287258473,6075ac7666751e00c4812c35,6075ac7666751e00c4812c35,2,door,critical,D,50,door40.jpg,door60.jpg,high,NULL
1687287338,f187e1c5592525e9e94d36a50ff4f67f,PennController,5,0,experiment,NULL,Video,progression,buffer,0.004805,1687287255312,6075ac7666751e00c4812c35,6075ac7666751e00c4812c35,2,door,critical,D,50,door40.jpg,door60.jpg,high,NULL
1687287338,f187e1c5592525e9e94d36a50ff4f67f,PennController,5,0,experiment,NULL,Selector,choice,Selection,option2,1687287260753,6075ac7666751e00c4812c35,6075ac7666751e00c4812c35,2,door,critical,D,50,door40.jpg,door60.jpg,high,option1;option2
1687287338,f187e1c5592525e9e94d36a50ff4f67f,PennController,5,0,experiment,NULL,PennController,4,_Trial_,End,1687287260754,6075ac7666751e00c4812c35,6075ac7666751e00c4812c35,2,door,critical,D,50,door40.jpg,door60.jpg,high,NULL
1687287338,f187e1c5592525e9e94d36a50ff4f67f,PennController,22,0,experiment,NULL,PennController,21,_Trial_,Start,1687287260756,6075ac7666751e00c4812c35,6075ac7666751e00c4812c35,19,cup,filler,D,25,cup15.jpg,cup35.jpg,GoalB,NULL
1687287338,f187e1c5592525e9e94d36a50ff4f67f,PennController,22,0,experiment,NULL,PennController,21,_Header_,Start,1687287260756,6075ac7666751e00c4812c35,6075ac7666751e00c4812c35,19,cup,filler,D,25,cup15.jpg,cup35.jpg,GoalB,NULL
1687287338,f187e1c5592525e9e94d36a50ff4f67f,PennController,22,0,experiment,NULL,PennController,21,_Header_,End,1687287260756,6075ac7666751e00c4812c35,6075ac7666751e00c4812c35,19,cup,filler,D,25,cup15.jpg,cup35.jpg,GoalB,NULL
1687287338,f187e1c5592525e9e94d36a50ff4f67f,PennController,22,0,experiment,NULL,Canvas,canvas6,Print,NA,1687287266441,6075ac7666751e00c4812c35,6075ac7666751e00c4812c35,19,cup,filler,D,25,cup15.jpg,cup35.jpg,GoalB,NULL
1687287338,f187e1c5592525e9e94d36a50ff4f67f,PennController,22,0,experiment,NULL,Video,progression,buffer,0.003247,1687287264283,6075ac7666751e00c4812c35,6075ac7666751e00c4812c35,19,cup,filler,D,25,cup15.jpg,cup35.jpg,GoalB,NULL
1687287338,f187e1c5592525e9e94d36a50ff4f67f,PennController,22,0,experiment,NULL,Selector,choice,Selection,option2,1687287268152,6075ac7666751e00c4812c35,6075ac7666751e00c4812c35,19,cup,filler,D,25,cup15.jpg,cup35.jpg,GoalB,option2;option1
1687287338,f187e1c5592525e9e94d36a50ff4f67f,PennController,22,0,experiment,NULL,PennController,21,_Trial_,End,1687287268154,6075ac7666751e00c4812c35,6075ac7666751e00c4812c35,19,cup,filler,D,25,cup15.jpg,cup35.jpg,GoalB,NULL
1687287338,f187e1c5592525e9e94d36a50ff4f67f,PennController,17,0,experiment,NULL,PennController,16,_Trial_,Start,1687287268155,6075ac7666751e00c4812c35,6075ac7666751e00c4812c35,14,cover,critical,D,50,cover42.jpg,cover60.jpg,high,NULL
1687287338,f187e1c5592525e9e94d36a50ff4f67f,PennController,17,0,experiment,NULL,PennController,16,_Header_,Start,1687287268155,6075ac7666751e00c4812c35,6075ac7666751e00c4812c35,14,cover,critical,D,50,cover42.jpg,cover60.jpg,high,NULL
1687287338,f187e1c5592525e9e94d36a50ff4f67f,PennController,17,0,experiment,NULL,PennController,16,_Header_,End,1687287268155,6075ac7666751e00c4812c35,6075ac7666751e00c4812c35,14,cover,critical,D,50,cover42.jpg,cover60.jpg,high,NULL
1687287338,f187e1c5592525e9e94d36a50ff4f67f,PennController,17,0,experiment,NULL,Canvas,canvas6,Print,NA,1687287276241,6075ac7666751e00c4812c35,6075ac7666751e00c4812c35,14,cover,critical,D,50,cover42.jpg,cover60.jpg,high,NULL
1687287338,f187e1c5592525e9e94d36a50ff4f67f,PennController,17,0,experiment,NULL,Video,progression,buffer,0.001881,1687287271672,6075ac7666751e00c4812c35,6075ac7666751e00c4812c35,14,cover,critical,D,50,cover42.jpg,cover60.jpg,high,NULL
1687287338,f187e1c5592525e9e94d36a50ff4f67f,PennController,17,0,experiment,NULL,Selector,choice,Selection,option1,1687287277289,6075ac7666751e00c4812c35,6075ac7666751e00c4812c35,14,cover,critical,D,50,cover42.jpg,cover60.jpg,high,option1;option2
1687287338,f187e1c5592525e9e94d36a50ff4f67f,PennController,17,0,experiment,NULL,PennController,16,_Trial_,End,1687287277290,6075ac7666751e00c4812c35,6075ac7666751e00c4812c35,14,cover,critical,D,50,cover42.jpg,cover60.jpg,high,NULL
1687287338,f187e1c5592525e9e94d36a50ff4f67f,PennController,4,0,experiment,NULL,PennController,3,_Trial_,Start,1687287277292,6075ac7666751e00c4812c35,6075ac7666751e00c4812c35,1,vase,critical,D,25,vase15.jpg,vase35.jpg,high,NULL
1687287338,f187e1c5592525e9e94d36a50ff4f67f,PennController,4,0,experiment,NULL,PennController,3,_Header_,Start,1687287277292,6075ac7666751e00c4812c35,6075ac7666751e00c4812c35,1,vase,critical,D,25,vase15.jpg,vase35.jpg,high,NULL
1687287338,f187e1c5592525e9e94d36a50ff4f67f,PennController,4,0,experiment,NULL,PennController,3,_Header_,End,1687287277292,6075ac7666751e00c4812c35,6075ac7666751e00c4812c35,1,vase,critical,D,25,vase15.jpg,vase35.jpg,high,NULL
1687287338,f187e1c5592525e9e94d36a50ff4f67f,PennController,4,0,experiment,NULL,Canvas,canvas6,Print,NA,1687287282973,6075ac7666751e00c4812c35,6075ac7666751e00c4812c35,1,vase,critical,D,25,vase15.jpg,vase35.jpg,high,NULL
1687287338,f187e1c5592525e9e94d36a50ff4f67f,PennController,4,0,experiment,NULL,Video,progression,buffer,0.002172,1687287280814,6075ac7666751e00c4812c35,6075ac7666751e00c4812c35,1,vase,critical,D,25,vase15.jpg,vase35.jpg,high,NULL
1687287338,f187e1c5592525e9e94d36a50ff4f67f,PennController,4,0,experiment,NULL,Selector,choice,Selection,option2,1687287284464,6075ac7666751e00c4812c35,6075ac7666751e00c4812c35,1,vase,critical,D,25,vase15.jpg,vase35.jpg,high,option1;option2
1687287338,f187e1c5592525e9e94d36a50ff4f67f,PennController,4,0,experiment,NULL,PennController,3,_Trial_,End,1687287284466,6075ac7666751e00c4812c35,6075ac7666751e00c4812c35,1,vase,critical,D,25,vase15.jpg,vase35.jpg,high,NULL
1687287338,f187e1c5592525e9e94d36a50ff4f67f,PennController,12,0,experiment,NULL,PennController,11,_Trial_,Start,1687287284467,6075ac7666751e00c4812c35,6075ac7666751e00c4812c35,9,cake,critical,D,75,cake66.jpg,cake84.jpg,high,NULL
1687287338,f187e1c5592525e9e94d36a50ff4f67f,PennController,12,0,experiment,NULL,PennController,11,_Header_,Start,1687287284467,6075ac7666751e00c4812c35,6075ac7666751e00c4812c35,9,cake,critical,D,75,cake66.jpg,cake84.jpg,high,NULL
1687287338,f187e1c5592525e9e94d36a50ff4f67f,PennController,12,0,experiment,NULL,PennController,11,_Header_,End,1687287284467,6075ac7666751e00c4812c35,6075ac7666751e00c4812c35,9,cake,critical,D,75,cake66.jpg,cake84.jpg,high,NULL
1687287338,f187e1c5592525e9e94d36a50ff4f67f,PennController,12,0,experiment,NULL,Canvas,canvas6,Print,NA,1687287294153,6075ac7666751e00c4812c35,6075ac7666751e00c4812c35,9,cake,critical,D,75,cake66.jpg,cake84.jpg,high,NULL
1687287338,f187e1c5592525e9e94d36a50ff4f67f,PennController,12,0,experiment,NULL,Video,progression,buffer,0.00428,1687287287993,6075ac7666751e00c4812c35,6075ac7666751e00c4812c35,9,cake,critical,D,75,cake66.jpg,cake84.jpg,high,NULL
1687287338,f187e1c5592525e9e94d36a50ff4f67f,PennController,12,0,experiment,NULL,Selector,choice,Selection,option1,1687287295290,6075ac7666751e00c4812c35,6075ac7666751e00c4812c35,9,cake,critical,D,75,cake66.jpg,cake84.jpg,high,option1;option2
1687287338,f187e1c5592525e9e94d36a50ff4f67f,PennController,12,0,experiment,NULL,PennController,11,_Trial_,End,1687287295291,6075ac7666751e00c4812c35,6075ac7666751e00c4812c35,9,cake,critical,D,75,cake66.jpg,cake84.jpg,high,NULL
1687287338,f187e1c5592525e9e94d36a50ff4f67f,PennController,24,0,experiment,NULL,PennController,23,_Trial_,Start,1687287295292,6075ac7666751e00c4812c35,6075ac7666751e00c4812c35,21,visit,filler,D,75,visit65.jpg,visit85.jpg,GoalB,NULL
1687287338,f187e1c5592525e9e94d36a50ff4f67f,PennController,24,0,experiment,NULL,PennController,23,_Header_,Start,1687287295292,6075ac7666751e00c4812c35,6075ac7666751e00c4812c35,21,visit,filler,D,75,visit65.jpg,visit85.jpg,GoalB,NULL
1687287338,f187e1c5592525e9e94d36a50ff4f67f,PennController,24,0,experiment,NULL,PennController,23,_Header_,End,1687287295293,6075ac7666751e00c4812c35,6075ac7666751e00c4812c35,21,visit,filler,D,75,visit65.jpg,visit85.jpg,GoalB,NULL
1687287338,f187e1c5592525e9e94d36a50ff4f67f,PennController,24,0,experiment,NULL,Canvas,canvas6,Print,NA,1687287302989,6075ac7666751e00c4812c35,6075ac7666751e00c4812c35,21,visit,filler,D,75,visit65.jpg,visit85.jpg,GoalB,NULL
1687287338,f187e1c5592525e9e94d36a50ff4f67f,PennController,24,0,experiment,NULL,Video,progression,buffer,0.004856,1687287298818,6075ac7666751e00c4812c35,6075ac7666751e00c4812c35,21,visit,filler,D,75,visit65.jpg,visit85.jpg,GoalB,NULL
1687287338,f187e1c5592525e9e94d36a50ff4f67f,PennController,24,0,experiment,NULL,Selector,choice,Selection,option2,1687287304800,6075ac7666751e00c4812c35,6075ac7666751e00c4812c35,21,visit,filler,D,75,visit65.jpg,visit85.jpg,GoalB,option1;option2
1687287338,f187e1c5592525e9e94d36a50ff4f67f,PennController,24,0,experiment,NULL,PennController,23,_Trial_,End,1687287304801,6075ac7666751e00c4812c35,6075ac7666751e00c4812c35,21,visit,filler,D,75,visit65.jpg,visit85.jpg,GoalB,NULL
1687287338,f187e1c5592525e9e94d36a50ff4f67f,PennController,7,0,experiment,NULL,PennController,6,_Trial_,Start,1687287304803,6075ac7666751e00c4812c35,6075ac7666751e00c4812c35,4,candy,critical,D,25,candy15.jpg,candy35.jpg,high,NULL
1687287338,f187e1c5592525e9e94d36a50ff4f67f,PennController,7,0,experiment,NULL,PennController,6,_Header_,Start,1687287304803,6075ac7666751e00c4812c35,6075ac7666751e00c4812c35,4,candy,critical,D,25,candy15.jpg,candy35.jpg,high,NULL
1687287338,f187e1c5592525e9e94d36a50ff4f67f,PennController,7,0,experiment,NULL,PennController,6,_Header_,End,1687287304803,6075ac7666751e00c4812c35,6075ac7666751e00c4812c35,4,candy,critical,D,25,candy15.jpg,candy35.jpg,high,NULL
1687287338,f187e1c5592525e9e94d36a50ff4f67f,PennController,7,0,experiment,NULL,Canvas,canvas6,Print,NA,1687287310502,6075ac7666751e00c4812c35,6075ac7666751e00c4812c35,4,candy,critical,D,25,candy15.jpg,candy35.jpg,high,NULL
1687287338,f187e1c5592525e9e94d36a50ff4f67f,PennController,7,0,experiment,NULL,Video,progression,buffer,0.004323,1687287308333,6075ac7666751e00c4812c35,6075ac7666751e00c4812c35,4,candy,critical,D,25,candy15.jpg,candy35.jpg,high,NULL
1687287338,f187e1c5592525e9e94d36a50ff4f67f,PennController,7,0,experiment,NULL,Selector,choice,Selection,option2,1687287312264,6075ac7666751e00c4812c35,6075ac7666751e00c4812c35,4,candy,critical,D,25,candy15.jpg,candy35.jpg,high,option2;option1
1687287338,f187e1c5592525e9e94d36a50ff4f67f,PennController,7,0,experiment,NULL,PennController,6,_Trial_,End,1687287312266,6075ac7666751e00c4812c35,6075ac7666751e00c4812c35,4,candy,critical,D,25,candy15.jpg,candy35.jpg,high,NULL
1687287338,f187e1c5592525e9e94d36a50ff4f67f,PennController,23,0,experiment,NULL,PennController,22,_Trial_,Start,1687287312267,6075ac7666751e00c4812c35,6075ac7666751e00c4812c35,20,cat,filler,D,50,cat40.jpg,cat60.jpg,GoalA,NULL
1687287338,f187e1c5592525e9e94d36a50ff4f67f,PennController,23,0,experiment,NULL,PennController,22,_Header_,Start,1687287312267,6075ac7666751e00c4812c35,6075ac7666751e00c4812c35,20,cat,filler,D,50,cat40.jpg,cat60.jpg,GoalA,NULL
1687287338,f187e1c5592525e9e94d36a50ff4f67f,PennController,23,0,experiment,NULL,PennController,22,_Header_,End,1687287312267,6075ac7666751e00c4812c35,6075ac7666751e00c4812c35,20,cat,filler,D,50,cat40.jpg,cat60.jpg,GoalA,NULL
1687287338,f187e1c5592525e9e94d36a50ff4f67f,PennController,23,0,experiment,NULL,Canvas,canvas6,Print,NA,1687287318972,6075ac7666751e00c4812c35,6075ac7666751e00c4812c35,20,cat,filler,D,50,cat40.jpg,cat60.jpg,GoalA,NULL
1687287338,f187e1c5592525e9e94d36a50ff4f67f,PennController,23,0,experiment,NULL,Video,progression,buffer,0.004553,1687287315798,6075ac7666751e00c4812c35,6075ac7666751e00c4812c35,20,cat,filler,D,50,cat40.jpg,cat60.jpg,GoalA,NULL
1687287338,f187e1c5592525e9e94d36a50ff4f67f,PennController,23,0,experiment,NULL,Selector,choice,Selection,option2,1687287320744,6075ac7666751e00c4812c35,6075ac7666751e00c4812c35,20,cat,filler,D,50,cat40.jpg,cat60.jpg,GoalA,option2;option1
1687287338,f187e1c5592525e9e94d36a50ff4f67f,PennController,23,0,experiment,NULL,PennController,22,_Trial_,End,1687287320745,6075ac7666751e00c4812c35,6075ac7666751e00c4812c35,20,cat,filler,D,50,cat40.jpg,cat60.jpg,GoalA,NULL
1687287338,f187e1c5592525e9e94d36a50ff4f67f,PennController,19,0,experiment,NULL,PennController,18,_Trial_,Start,1687287320746,6075ac7666751e00c4812c35,6075ac7666751e00c4812c35,16,blinds,critical,D,25,blinds15.jpg,blinds33.jpg,high,NULL
1687287338,f187e1c5592525e9e94d36a50ff4f67f,PennController,19,0,experiment,NULL,PennController,18,_Header_,Start,1687287320746,6075ac7666751e00c4812c35,6075ac7666751e00c4812c35,16,blinds,critical,D,25,blinds15.jpg,blinds33.jpg,high,NULL
1687287338,f187e1c5592525e9e94d36a50ff4f67f,PennController,19,0,experiment,NULL,PennController,18,_Header_,End,1687287320746,6075ac7666751e00c4812c35,6075ac7666751e00c4812c35,16,blinds,critical,D,25,blinds15.jpg,blinds33.jpg,high,NULL
1687287338,f187e1c5592525e9e94d36a50ff4f67f,PennController,19,0,experiment,NULL,Canvas,canvas6,Print,NA,1687287327029,6075ac7666751e00c4812c35,6075ac7666751e00c4812c35,16,blinds,critical,D,25,blinds15.jpg,blinds33.jpg,high,NULL
1687287338,f187e1c5592525e9e94d36a50ff4f67f,PennController,19,0,experiment,NULL,Video,progression,buffer,0.004422,1687287324271,6075ac7666751e00c4812c35,6075ac7666751e00c4812c35,16,blinds,critical,D,25,blinds15.jpg,blinds33.jpg,high,NULL
1687287338,f187e1c5592525e9e94d36a50ff4f67f,PennController,19,0,experiment,NULL,Selector,choice,Selection,option1,1687287328976,6075ac7666751e00c4812c35,6075ac7666751e00c4812c35,16,blinds,critical,D,25,blinds15.jpg,blinds33.jpg,high,option2;option1
1687287338,f187e1c5592525e9e94d36a50ff4f67f,PennController,19,0,experiment,NULL,PennController,18,_Trial_,End,1687287328977,6075ac7666751e00c4812c35,6075ac7666751e00c4812c35,16,blinds,critical,D,25,blinds15.jpg,blinds33.jpg,high,NULL
1687287338,f187e1c5592525e9e94d36a50ff4f67f,PennController,14,0,experiment,NULL,PennController,13,_Trial_,Start,1687287328978,6075ac7666751e00c4812c35,6075ac7666751e00c4812c35,11,beads,critical,D,50,beads40.jpg,beads60.jpg,high,NULL
1687287338,f187e1c5592525e9e94d36a50ff4f67f,PennController,14,0,experiment,NULL,PennController,13,_Header_,Start,1687287328978,6075ac7666751e00c4812c35,6075ac7666751e00c4812c35,11,beads,critical,D,50,beads40.jpg,beads60.jpg,high,NULL
1687287338,f187e1c5592525e9e94d36a50ff4f67f,PennController,14,0,experiment,NULL,PennController,13,_Header_,End,1687287328978,6075ac7666751e00c4812c35,6075ac7666751e00c4812c35,11,beads,critical,D,50,beads40.jpg,beads60.jpg,high,NULL
1687287338,f187e1c5592525e9e94d36a50ff4f67f,PennController,14,0,experiment,NULL,Canvas,canvas6,Print,NA,1687287335669,6075ac7666751e00c4812c35,6075ac7666751e00c4812c35,11,beads,critical,D,50,beads40.jpg,beads60.jpg,high,NULL
1687287338,f187e1c5592525e9e94d36a50ff4f67f,PennController,14,0,experiment,NULL,Video,progression,buffer,0.004783,1687287332505,6075ac7666751e00c4812c35,6075ac7666751e00c4812c35,11,beads,critical,D,50,beads40.jpg,beads60.jpg,high,NULL
1687287338,f187e1c5592525e9e94d36a50ff4f67f,PennController,14,0,experiment,NULL,Selector,choice,Selection,option1,1687287336792,6075ac7666751e00c4812c35,6075ac7666751e00c4812c35,11,beads,critical,D,50,beads40.jpg,beads60.jpg,high,option2;option1
1687287338,f187e1c5592525e9e94d36a50ff4f67f,PennController,14,0,experiment,NULL,PennController,13,_Trial_,End,1687287336793,6075ac7666751e00c4812c35,6075ac7666751e00c4812c35,11,beads,critical,D,50,beads40.jpg,beads60.jpg,high,NULL
