#
# Results on Thursday June 22 2023 04:33:43 UTC
# USER AGENT: Mozilla/5.0 (Windows NT 10.0; Win64; x64; rv:109.0) Gecko/20100101 Firefox/114.0
# Design number was non-random = 75
#
# Columns below this comment are as follows:
# 1. Results reception time.
# 2. MD5 hash of participant's IP address.
# 3. Controller name.
# 4. Order number of item.
# 5. Inner element number.
# 6. Label.
# 7. Latin Square Group.
# 8. PennElementType.
# 9. PennElementName.
# 10. Parameter.
# 11. Value.
# 12. EventTime.
# 13. PROLIFIC_ID.
# 14. Comments.
1687408423,1af0a24e378ffcf7d6e5f0edb6eb8dda,PennController,3,0,consent,NULL,PennController,0,_Trial_,Start,1687408152177,600802c86848db33926d3914,NULL
1687408423,1af0a24e378ffcf7d6e5f0edb6eb8dda,PennController,3,0,consent,NULL,PennController,0,_Header_,Start,1687408152177,600802c86848db33926d3914,NULL
1687408423,1af0a24e378ffcf7d6e5f0edb6eb8dda,PennController,3,0,consent,NULL,PennController,0,_Header_,End,1687408152177,600802c86848db33926d3914,NULL
1687408423,1af0a24e378ffcf7d6e5f0edb6eb8dda,PennController,3,0,consent,NULL,PennController,0,_Trial_,End,1687408156530,600802c86848db33926d3914,NULL
# Columns below this comment are as follows:
# 14. ID.
# 15. Comments.
1687408423,1af0a24e378ffcf7d6e5f0edb6eb8dda,PennController,4,0,intro,NULL,PennController,1,_Trial_,Start,1687408156532,600802c86848db33926d3914,600802c86848db33926d3914,NULL
1687408423,1af0a24e378ffcf7d6e5f0edb6eb8dda,PennController,4,0,intro,NULL,PennController,1,_Header_,Start,1687408156532,600802c86848db33926d3914,600802c86848db33926d3914,NULL
1687408423,1af0a24e378ffcf7d6e5f0edb6eb8dda,PennController,4,0,intro,NULL,PennController,1,_Header_,End,1687408156532,600802c86848db33926d3914,600802c86848db33926d3914,NULL
1687408423,1af0a24e378ffcf7d6e5f0edb6eb8dda,PennController,4,0,intro,NULL,PennController,1,_Trial_,End,1687408159864,600802c86848db33926d3914,600802c86848db33926d3914,NULL
# Columns below this comment are as follows:
# 15. item_number.
# 16. item.
# 17. type.
# 18. Group.
# 19. prog.
# 20. prev_image.
# 21. next_image.
# 22. height.
# 23. Comments.
1687408423,1af0a24e378ffcf7d6e5f0edb6eb8dda,PennController,32,0,experiment,NULL,PennController,30,_Trial_,Start,1687408159868,600802c86848db33926d3914,600802c86848db33926d3914,28,sort,filler,F,75,sort65.jpg,sort85.jpg,GoalA,NULL
1687408423,1af0a24e378ffcf7d6e5f0edb6eb8dda,PennController,32,0,experiment,NULL,PennController,30,_Header_,Start,1687408159868,600802c86848db33926d3914,600802c86848db33926d3914,28,sort,filler,F,75,sort65.jpg,sort85.jpg,GoalA,NULL
1687408423,1af0a24e378ffcf7d6e5f0edb6eb8dda,PennController,32,0,experiment,NULL,PennController,30,_Header_,End,1687408159868,600802c86848db33926d3914,600802c86848db33926d3914,28,sort,filler,F,75,sort65.jpg,sort85.jpg,GoalA,NULL
1687408423,1af0a24e378ffcf7d6e5f0edb6eb8dda,PennController,32,0,experiment,NULL,Video,progression,buffer,0,1687408163462,600802c86848db33926d3914,600802c86848db33926d3914,28,sort,filler,F,75,sort65.jpg,sort85.jpg,GoalA,NULL
1687408423,1af0a24e378ffcf7d6e5f0edb6eb8dda,PennController,32,0,experiment,NULL,Canvas,canvas6,Print,NA,1687408167721,600802c86848db33926d3914,600802c86848db33926d3914,28,sort,filler,F,75,sort65.jpg,sort85.jpg,GoalA,NULL
1687408423,1af0a24e378ffcf7d6e5f0edb6eb8dda,PennController,32,0,experiment,NULL,Selector,choice,Selection,option2,1687408171838,600802c86848db33926d3914,600802c86848db33926d3914,28,sort,filler,F,75,sort65.jpg,sort85.jpg,GoalA,option2;option1
1687408423,1af0a24e378ffcf7d6e5f0edb6eb8dda,PennController,32,0,experiment,NULL,PennController,30,_Trial_,End,1687408171839,600802c86848db33926d3914,600802c86848db33926d3914,28,sort,filler,F,75,sort65.jpg,sort85.jpg,GoalA,NULL
1687408423,1af0a24e378ffcf7d6e5f0edb6eb8dda,PennController,16,0,experiment,NULL,PennController,14,_Trial_,Start,1687408171841,600802c86848db33926d3914,600802c86848db33926d3914,12,erase,critical,F,50,erase42.jpg,erase60.jpg,high,NULL
1687408423,1af0a24e378ffcf7d6e5f0edb6eb8dda,PennController,16,0,experiment,NULL,PennController,14,_Header_,Start,1687408171841,600802c86848db33926d3914,600802c86848db33926d3914,12,erase,critical,F,50,erase42.jpg,erase60.jpg,high,NULL
1687408423,1af0a24e378ffcf7d6e5f0edb6eb8dda,PennController,16,0,experiment,NULL,PennController,14,_Header_,End,1687408171841,600802c86848db33926d3914,600802c86848db33926d3914,12,erase,critical,F,50,erase42.jpg,erase60.jpg,high,NULL
1687408423,1af0a24e378ffcf7d6e5f0edb6eb8dda,PennController,16,0,experiment,NULL,Video,progression,buffer,0,1687408175384,600802c86848db33926d3914,600802c86848db33926d3914,12,erase,critical,F,50,erase42.jpg,erase60.jpg,high,NULL
1687408423,1af0a24e378ffcf7d6e5f0edb6eb8dda,PennController,16,0,experiment,NULL,Canvas,canvas6,Print,NA,1687408180024,600802c86848db33926d3914,600802c86848db33926d3914,12,erase,critical,F,50,erase42.jpg,erase60.jpg,high,NULL
1687408423,1af0a24e378ffcf7d6e5f0edb6eb8dda,PennController,16,0,experiment,NULL,Selector,choice,Selection,option1,1687408183791,600802c86848db33926d3914,600802c86848db33926d3914,12,erase,critical,F,50,erase42.jpg,erase60.jpg,high,option2;option1
1687408423,1af0a24e378ffcf7d6e5f0edb6eb8dda,PennController,16,0,experiment,NULL,PennController,14,_Trial_,End,1687408183792,600802c86848db33926d3914,600802c86848db33926d3914,12,erase,critical,F,50,erase42.jpg,erase60.jpg,high,NULL
1687408423,1af0a24e378ffcf7d6e5f0edb6eb8dda,PennController,33,0,experiment,NULL,PennController,31,_Trial_,Start,1687408183793,600802c86848db33926d3914,600802c86848db33926d3914,29,frog,filler,F,25,frog15.jpg,frog35.jpg,GoalB,NULL
1687408423,1af0a24e378ffcf7d6e5f0edb6eb8dda,PennController,33,0,experiment,NULL,PennController,31,_Header_,Start,1687408183793,600802c86848db33926d3914,600802c86848db33926d3914,29,frog,filler,F,25,frog15.jpg,frog35.jpg,GoalB,NULL
1687408423,1af0a24e378ffcf7d6e5f0edb6eb8dda,PennController,33,0,experiment,NULL,PennController,31,_Header_,End,1687408183793,600802c86848db33926d3914,600802c86848db33926d3914,29,frog,filler,F,25,frog15.jpg,frog35.jpg,GoalB,NULL
1687408423,1af0a24e378ffcf7d6e5f0edb6eb8dda,PennController,33,0,experiment,NULL,Video,progression,buffer,0,1687408187329,600802c86848db33926d3914,600802c86848db33926d3914,29,frog,filler,F,25,frog15.jpg,frog35.jpg,GoalB,NULL
1687408423,1af0a24e378ffcf7d6e5f0edb6eb8dda,PennController,33,0,experiment,NULL,Canvas,canvas6,Print,NA,1687408189561,600802c86848db33926d3914,600802c86848db33926d3914,29,frog,filler,F,25,frog15.jpg,frog35.jpg,GoalB,NULL
1687408423,1af0a24e378ffcf7d6e5f0edb6eb8dda,PennController,33,0,experiment,NULL,Selector,choice,Selection,option2,1687408190670,600802c86848db33926d3914,600802c86848db33926d3914,29,frog,filler,F,25,frog15.jpg,frog35.jpg,GoalB,option2;option1
1687408423,1af0a24e378ffcf7d6e5f0edb6eb8dda,PennController,33,0,experiment,NULL,PennController,31,_Trial_,End,1687408190671,600802c86848db33926d3914,600802c86848db33926d3914,29,frog,filler,F,25,frog15.jpg,frog35.jpg,GoalB,NULL
1687408423,1af0a24e378ffcf7d6e5f0edb6eb8dda,PennController,24,0,experiment,NULL,PennController,22,_Trial_,Start,1687408190672,600802c86848db33926d3914,600802c86848db33926d3914,20,cat,filler,F,25,cat15.jpg,cat35.jpg,GoalA,NULL
1687408423,1af0a24e378ffcf7d6e5f0edb6eb8dda,PennController,24,0,experiment,NULL,PennController,22,_Header_,Start,1687408190672,600802c86848db33926d3914,600802c86848db33926d3914,20,cat,filler,F,25,cat15.jpg,cat35.jpg,GoalA,NULL
1687408423,1af0a24e378ffcf7d6e5f0edb6eb8dda,PennController,24,0,experiment,NULL,PennController,22,_Header_,End,1687408190672,600802c86848db33926d3914,600802c86848db33926d3914,20,cat,filler,F,25,cat15.jpg,cat35.jpg,GoalA,NULL
1687408423,1af0a24e378ffcf7d6e5f0edb6eb8dda,PennController,24,0,experiment,NULL,Video,progression,buffer,0,1687408194220,600802c86848db33926d3914,600802c86848db33926d3914,20,cat,filler,F,25,cat15.jpg,cat35.jpg,GoalA,NULL
1687408423,1af0a24e378ffcf7d6e5f0edb6eb8dda,PennController,24,0,experiment,NULL,Canvas,canvas6,Print,NA,1687408196470,600802c86848db33926d3914,600802c86848db33926d3914,20,cat,filler,F,25,cat15.jpg,cat35.jpg,GoalA,NULL
1687408423,1af0a24e378ffcf7d6e5f0edb6eb8dda,PennController,24,0,experiment,NULL,Selector,choice,Selection,option2,1687408197479,600802c86848db33926d3914,600802c86848db33926d3914,20,cat,filler,F,25,cat15.jpg,cat35.jpg,GoalA,option2;option1
1687408423,1af0a24e378ffcf7d6e5f0edb6eb8dda,PennController,24,0,experiment,NULL,PennController,22,_Trial_,End,1687408197480,600802c86848db33926d3914,600802c86848db33926d3914,20,cat,filler,F,25,cat15.jpg,cat35.jpg,GoalA,NULL
1687408423,1af0a24e378ffcf7d6e5f0edb6eb8dda,PennController,5,0,experiment,NULL,PennController,3,_Trial_,Start,1687408197481,600802c86848db33926d3914,600802c86848db33926d3914,1,vase,critical,F,75,vase65.jpg,vase85.jpg,high,NULL
1687408423,1af0a24e378ffcf7d6e5f0edb6eb8dda,PennController,5,0,experiment,NULL,PennController,3,_Header_,Start,1687408197481,600802c86848db33926d3914,600802c86848db33926d3914,1,vase,critical,F,75,vase65.jpg,vase85.jpg,high,NULL
1687408423,1af0a24e378ffcf7d6e5f0edb6eb8dda,PennController,5,0,experiment,NULL,PennController,3,_Header_,End,1687408197481,600802c86848db33926d3914,600802c86848db33926d3914,1,vase,critical,F,75,vase65.jpg,vase85.jpg,high,NULL
1687408423,1af0a24e378ffcf7d6e5f0edb6eb8dda,PennController,5,0,experiment,NULL,Video,progression,buffer,0,1687408201021,600802c86848db33926d3914,600802c86848db33926d3914,1,vase,critical,F,75,vase65.jpg,vase85.jpg,high,NULL
1687408423,1af0a24e378ffcf7d6e5f0edb6eb8dda,PennController,5,0,experiment,NULL,Canvas,canvas6,Print,NA,1687408205258,600802c86848db33926d3914,600802c86848db33926d3914,1,vase,critical,F,75,vase65.jpg,vase85.jpg,high,NULL
1687408423,1af0a24e378ffcf7d6e5f0edb6eb8dda,PennController,5,0,experiment,NULL,Selector,choice,Selection,option1,1687408207015,600802c86848db33926d3914,600802c86848db33926d3914,1,vase,critical,F,75,vase65.jpg,vase85.jpg,high,option2;option1
1687408423,1af0a24e378ffcf7d6e5f0edb6eb8dda,PennController,5,0,experiment,NULL,PennController,3,_Trial_,End,1687408207016,600802c86848db33926d3914,600802c86848db33926d3914,1,vase,critical,F,75,vase65.jpg,vase85.jpg,high,NULL
1687408423,1af0a24e378ffcf7d6e5f0edb6eb8dda,PennController,11,0,experiment,NULL,PennController,9,_Trial_,Start,1687408207016,600802c86848db33926d3914,600802c86848db33926d3914,7,stack,critical,F,75,stack65.jpg,stack85.jpg,high,NULL
1687408423,1af0a24e378ffcf7d6e5f0edb6eb8dda,PennController,11,0,experiment,NULL,PennController,9,_Header_,Start,1687408207016,600802c86848db33926d3914,600802c86848db33926d3914,7,stack,critical,F,75,stack65.jpg,stack85.jpg,high,NULL
1687408423,1af0a24e378ffcf7d6e5f0edb6eb8dda,PennController,11,0,experiment,NULL,PennController,9,_Header_,End,1687408207016,600802c86848db33926d3914,600802c86848db33926d3914,7,stack,critical,F,75,stack65.jpg,stack85.jpg,high,NULL
1687408423,1af0a24e378ffcf7d6e5f0edb6eb8dda,PennController,11,0,experiment,NULL,Video,progression,buffer,0,1687408210554,600802c86848db33926d3914,600802c86848db33926d3914,7,stack,critical,F,75,stack65.jpg,stack85.jpg,high,NULL
1687408423,1af0a24e378ffcf7d6e5f0edb6eb8dda,PennController,11,0,experiment,NULL,Canvas,canvas6,Print,NA,1687408214796,600802c86848db33926d3914,600802c86848db33926d3914,7,stack,critical,F,75,stack65.jpg,stack85.jpg,high,NULL
1687408423,1af0a24e378ffcf7d6e5f0edb6eb8dda,PennController,11,0,experiment,NULL,Selector,choice,Selection,option2,1687408218415,600802c86848db33926d3914,600802c86848db33926d3914,7,stack,critical,F,75,stack65.jpg,stack85.jpg,high,option1;option2
1687408423,1af0a24e378ffcf7d6e5f0edb6eb8dda,PennController,11,0,experiment,NULL,PennController,9,_Trial_,End,1687408218416,600802c86848db33926d3914,600802c86848db33926d3914,7,stack,critical,F,75,stack65.jpg,stack85.jpg,high,NULL
1687408423,1af0a24e378ffcf7d6e5f0edb6eb8dda,PennController,25,0,experiment,NULL,PennController,23,_Trial_,Start,1687408218416,600802c86848db33926d3914,600802c86848db33926d3914,21,visit,filler,F,50,visit40.jpg,visit60.jpg,GoalB,NULL
1687408423,1af0a24e378ffcf7d6e5f0edb6eb8dda,PennController,25,0,experiment,NULL,PennController,23,_Header_,Start,1687408218416,600802c86848db33926d3914,600802c86848db33926d3914,21,visit,filler,F,50,visit40.jpg,visit60.jpg,GoalB,NULL
1687408423,1af0a24e378ffcf7d6e5f0edb6eb8dda,PennController,25,0,experiment,NULL,PennController,23,_Header_,End,1687408218416,600802c86848db33926d3914,600802c86848db33926d3914,21,visit,filler,F,50,visit40.jpg,visit60.jpg,GoalB,NULL
1687408423,1af0a24e378ffcf7d6e5f0edb6eb8dda,PennController,25,0,experiment,NULL,Video,progression,buffer,0,1687408221946,600802c86848db33926d3914,600802c86848db33926d3914,21,visit,filler,F,50,visit40.jpg,visit60.jpg,GoalB,NULL
1687408423,1af0a24e378ffcf7d6e5f0edb6eb8dda,PennController,25,0,experiment,NULL,Canvas,canvas6,Print,NA,1687408225180,600802c86848db33926d3914,600802c86848db33926d3914,21,visit,filler,F,50,visit40.jpg,visit60.jpg,GoalB,NULL
1687408423,1af0a24e378ffcf7d6e5f0edb6eb8dda,PennController,25,0,experiment,NULL,Selector,choice,Selection,option2,1687408226294,600802c86848db33926d3914,600802c86848db33926d3914,21,visit,filler,F,50,visit40.jpg,visit60.jpg,GoalB,option2;option1
1687408423,1af0a24e378ffcf7d6e5f0edb6eb8dda,PennController,25,0,experiment,NULL,PennController,23,_Trial_,End,1687408226296,600802c86848db33926d3914,600802c86848db33926d3914,21,visit,filler,F,50,visit40.jpg,visit60.jpg,GoalB,NULL
1687408423,1af0a24e378ffcf7d6e5f0edb6eb8dda,PennController,12,0,experiment,NULL,PennController,10,_Trial_,Start,1687408226298,600802c86848db33926d3914,600802c86848db33926d3914,8,cucumber,critical,F,25,cucumber15.jpg,cucumber33.jpg,high,NULL
1687408423,1af0a24e378ffcf7d6e5f0edb6eb8dda,PennController,12,0,experiment,NULL,PennController,10,_Header_,Start,1687408226298,600802c86848db33926d3914,600802c86848db33926d3914,8,cucumber,critical,F,25,cucumber15.jpg,cucumber33.jpg,high,NULL
1687408423,1af0a24e378ffcf7d6e5f0edb6eb8dda,PennController,12,0,experiment,NULL,PennController,10,_Header_,End,1687408226298,600802c86848db33926d3914,600802c86848db33926d3914,8,cucumber,critical,F,25,cucumber15.jpg,cucumber33.jpg,high,NULL
1687408423,1af0a24e378ffcf7d6e5f0edb6eb8dda,PennController,12,0,experiment,NULL,Video,progression,buffer,0,1687408229833,600802c86848db33926d3914,600802c86848db33926d3914,8,cucumber,critical,F,25,cucumber15.jpg,cucumber33.jpg,high,NULL
1687408423,1af0a24e378ffcf7d6e5f0edb6eb8dda,PennController,12,0,experiment,NULL,Canvas,canvas6,Print,NA,1687408232655,600802c86848db33926d3914,600802c86848db33926d3914,8,cucumber,critical,F,25,cucumber15.jpg,cucumber33.jpg,high,NULL
1687408423,1af0a24e378ffcf7d6e5f0edb6eb8dda,PennController,12,0,experiment,NULL,Selector,choice,Selection,option1,1687408235006,600802c86848db33926d3914,600802c86848db33926d3914,8,cucumber,critical,F,25,cucumber15.jpg,cucumber33.jpg,high,option2;option1
1687408423,1af0a24e378ffcf7d6e5f0edb6eb8dda,PennController,12,0,experiment,NULL,PennController,10,_Trial_,End,1687408235007,600802c86848db33926d3914,600802c86848db33926d3914,8,cucumber,critical,F,25,cucumber15.jpg,cucumber33.jpg,high,NULL
1687408423,1af0a24e378ffcf7d6e5f0edb6eb8dda,PennController,31,0,experiment,NULL,PennController,29,_Trial_,Start,1687408235009,600802c86848db33926d3914,600802c86848db33926d3914,27,square,filler,F,50,square40.jpg,square60.jpg,GoalB,NULL
1687408423,1af0a24e378ffcf7d6e5f0edb6eb8dda,PennController,31,0,experiment,NULL,PennController,29,_Header_,Start,1687408235009,600802c86848db33926d3914,600802c86848db33926d3914,27,square,filler,F,50,square40.jpg,square60.jpg,GoalB,NULL
1687408423,1af0a24e378ffcf7d6e5f0edb6eb8dda,PennController,31,0,experiment,NULL,PennController,29,_Header_,End,1687408235009,600802c86848db33926d3914,600802c86848db33926d3914,27,square,filler,F,50,square40.jpg,square60.jpg,GoalB,NULL
1687408423,1af0a24e378ffcf7d6e5f0edb6eb8dda,PennController,31,0,experiment,NULL,Video,progression,buffer,0,1687408238545,600802c86848db33926d3914,600802c86848db33926d3914,27,square,filler,F,50,square40.jpg,square60.jpg,GoalB,NULL
1687408423,1af0a24e378ffcf7d6e5f0edb6eb8dda,PennController,31,0,experiment,NULL,Canvas,canvas6,Print,NA,1687408241796,600802c86848db33926d3914,600802c86848db33926d3914,27,square,filler,F,50,square40.jpg,square60.jpg,GoalB,NULL
1687408423,1af0a24e378ffcf7d6e5f0edb6eb8dda,PennController,31,0,experiment,NULL,Selector,choice,Selection,option1,1687408243046,600802c86848db33926d3914,600802c86848db33926d3914,27,square,filler,F,50,square40.jpg,square60.jpg,GoalB,option2;option1
1687408423,1af0a24e378ffcf7d6e5f0edb6eb8dda,PennController,31,0,experiment,NULL,PennController,29,_Trial_,End,1687408243047,600802c86848db33926d3914,600802c86848db33926d3914,27,square,filler,F,50,square40.jpg,square60.jpg,GoalB,NULL
1687408423,1af0a24e378ffcf7d6e5f0edb6eb8dda,PennController,27,0,experiment,NULL,PennController,25,_Trial_,Start,1687408243049,600802c86848db33926d3914,600802c86848db33926d3914,23,color,filler,F,25,color15.jpg,color35.jpg,GoalB,NULL
1687408423,1af0a24e378ffcf7d6e5f0edb6eb8dda,PennController,27,0,experiment,NULL,PennController,25,_Header_,Start,1687408243049,600802c86848db33926d3914,600802c86848db33926d3914,23,color,filler,F,25,color15.jpg,color35.jpg,GoalB,NULL
1687408423,1af0a24e378ffcf7d6e5f0edb6eb8dda,PennController,27,0,experiment,NULL,PennController,25,_Header_,End,1687408243049,600802c86848db33926d3914,600802c86848db33926d3914,23,color,filler,F,25,color15.jpg,color35.jpg,GoalB,NULL
1687408423,1af0a24e378ffcf7d6e5f0edb6eb8dda,PennController,27,0,experiment,NULL,Video,progression,buffer,0,1687408246605,600802c86848db33926d3914,600802c86848db33926d3914,23,color,filler,F,25,color15.jpg,color35.jpg,GoalB,NULL
1687408423,1af0a24e378ffcf7d6e5f0edb6eb8dda,PennController,27,0,experiment,NULL,Canvas,canvas6,Print,NA,1687408248842,600802c86848db33926d3914,600802c86848db33926d3914,23,color,filler,F,25,color15.jpg,color35.jpg,GoalB,NULL
1687408423,1af0a24e378ffcf7d6e5f0edb6eb8dda,PennController,27,0,experiment,NULL,Selector,choice,Selection,option2,1687408250926,600802c86848db33926d3914,600802c86848db33926d3914,23,color,filler,F,25,color15.jpg,color35.jpg,GoalB,option2;option1
1687408423,1af0a24e378ffcf7d6e5f0edb6eb8dda,PennController,27,0,experiment,NULL,PennController,25,_Trial_,End,1687408250927,600802c86848db33926d3914,600802c86848db33926d3914,23,color,filler,F,25,color15.jpg,color35.jpg,GoalB,NULL
1687408423,1af0a24e378ffcf7d6e5f0edb6eb8dda,PennController,14,0,experiment,NULL,PennController,12,_Trial_,Start,1687408250928,600802c86848db33926d3914,600802c86848db33926d3914,10,train,critical,F,75,train65.jpg,train85.jpg,high,NULL
1687408423,1af0a24e378ffcf7d6e5f0edb6eb8dda,PennController,14,0,experiment,NULL,PennController,12,_Header_,Start,1687408250928,600802c86848db33926d3914,600802c86848db33926d3914,10,train,critical,F,75,train65.jpg,train85.jpg,high,NULL
1687408423,1af0a24e378ffcf7d6e5f0edb6eb8dda,PennController,14,0,experiment,NULL,PennController,12,_Header_,End,1687408250928,600802c86848db33926d3914,600802c86848db33926d3914,10,train,critical,F,75,train65.jpg,train85.jpg,high,NULL
1687408423,1af0a24e378ffcf7d6e5f0edb6eb8dda,PennController,14,0,experiment,NULL,Video,progression,buffer,0,1687408254475,600802c86848db33926d3914,600802c86848db33926d3914,10,train,critical,F,75,train65.jpg,train85.jpg,high,NULL
1687408423,1af0a24e378ffcf7d6e5f0edb6eb8dda,PennController,14,0,experiment,NULL,Canvas,canvas6,Print,NA,1687408258714,600802c86848db33926d3914,600802c86848db33926d3914,10,train,critical,F,75,train65.jpg,train85.jpg,high,NULL
1687408423,1af0a24e378ffcf7d6e5f0edb6eb8dda,PennController,14,0,experiment,NULL,Selector,choice,Selection,option2,1687408262023,600802c86848db33926d3914,600802c86848db33926d3914,10,train,critical,F,75,train65.jpg,train85.jpg,high,option2;option1
1687408423,1af0a24e378ffcf7d6e5f0edb6eb8dda,PennController,14,0,experiment,NULL,PennController,12,_Trial_,End,1687408262024,600802c86848db33926d3914,600802c86848db33926d3914,10,train,critical,F,75,train65.jpg,train85.jpg,high,NULL
1687408423,1af0a24e378ffcf7d6e5f0edb6eb8dda,PennController,29,0,experiment,NULL,PennController,27,_Trial_,Start,1687408262025,600802c86848db33926d3914,600802c86848db33926d3914,25,house,filler,F,75,house65.jpg,house85.jpg,GoalB,NULL
1687408423,1af0a24e378ffcf7d6e5f0edb6eb8dda,PennController,29,0,experiment,NULL,PennController,27,_Header_,Start,1687408262025,600802c86848db33926d3914,600802c86848db33926d3914,25,house,filler,F,75,house65.jpg,house85.jpg,GoalB,NULL
1687408423,1af0a24e378ffcf7d6e5f0edb6eb8dda,PennController,29,0,experiment,NULL,PennController,27,_Header_,End,1687408262025,600802c86848db33926d3914,600802c86848db33926d3914,25,house,filler,F,75,house65.jpg,house85.jpg,GoalB,NULL
1687408423,1af0a24e378ffcf7d6e5f0edb6eb8dda,PennController,29,0,experiment,NULL,Video,progression,buffer,0,1687408265578,600802c86848db33926d3914,600802c86848db33926d3914,25,house,filler,F,75,house65.jpg,house85.jpg,GoalB,NULL
1687408423,1af0a24e378ffcf7d6e5f0edb6eb8dda,PennController,29,0,experiment,NULL,Canvas,canvas6,Print,NA,1687408269829,600802c86848db33926d3914,600802c86848db33926d3914,25,house,filler,F,75,house65.jpg,house85.jpg,GoalB,NULL
1687408423,1af0a24e378ffcf7d6e5f0edb6eb8dda,PennController,29,0,experiment,NULL,Selector,choice,Selection,option1,1687408273327,600802c86848db33926d3914,600802c86848db33926d3914,25,house,filler,F,75,house65.jpg,house85.jpg,GoalB,option1;option2
1687408423,1af0a24e378ffcf7d6e5f0edb6eb8dda,PennController,29,0,experiment,NULL,PennController,27,_Trial_,End,1687408273327,600802c86848db33926d3914,600802c86848db33926d3914,25,house,filler,F,75,house65.jpg,house85.jpg,GoalB,NULL
1687408423,1af0a24e378ffcf7d6e5f0edb6eb8dda,PennController,22,0,experiment,NULL,PennController,20,_Trial_,Start,1687408273328,600802c86848db33926d3914,600802c86848db33926d3914,18,ball,critical,F,50,ball40.jpg,ball60.jpg,high,NULL
1687408423,1af0a24e378ffcf7d6e5f0edb6eb8dda,PennController,22,0,experiment,NULL,PennController,20,_Header_,Start,1687408273328,600802c86848db33926d3914,600802c86848db33926d3914,18,ball,critical,F,50,ball40.jpg,ball60.jpg,high,NULL
1687408423,1af0a24e378ffcf7d6e5f0edb6eb8dda,PennController,22,0,experiment,NULL,PennController,20,_Header_,End,1687408273328,600802c86848db33926d3914,600802c86848db33926d3914,18,ball,critical,F,50,ball40.jpg,ball60.jpg,high,NULL
1687408423,1af0a24e378ffcf7d6e5f0edb6eb8dda,PennController,22,0,experiment,NULL,Video,progression,buffer,0,1687408276875,600802c86848db33926d3914,600802c86848db33926d3914,18,ball,critical,F,50,ball40.jpg,ball60.jpg,high,NULL
1687408423,1af0a24e378ffcf7d6e5f0edb6eb8dda,PennController,22,0,experiment,NULL,Canvas,canvas6,Print,NA,1687408280103,600802c86848db33926d3914,600802c86848db33926d3914,18,ball,critical,F,50,ball40.jpg,ball60.jpg,high,NULL
1687408423,1af0a24e378ffcf7d6e5f0edb6eb8dda,PennController,22,0,experiment,NULL,Selector,choice,Selection,option1,1687408284762,600802c86848db33926d3914,600802c86848db33926d3914,18,ball,critical,F,50,ball40.jpg,ball60.jpg,high,option1;option2
1687408423,1af0a24e378ffcf7d6e5f0edb6eb8dda,PennController,22,0,experiment,NULL,PennController,20,_Trial_,End,1687408284763,600802c86848db33926d3914,600802c86848db33926d3914,18,ball,critical,F,50,ball40.jpg,ball60.jpg,high,NULL
1687408423,1af0a24e378ffcf7d6e5f0edb6eb8dda,PennController,10,0,experiment,NULL,PennController,8,_Trial_,Start,1687408284764,600802c86848db33926d3914,600802c86848db33926d3914,6,flower,critical,F,50,flower40.jpg,flower60.jpg,high,NULL
1687408423,1af0a24e378ffcf7d6e5f0edb6eb8dda,PennController,10,0,experiment,NULL,PennController,8,_Header_,Start,1687408284764,600802c86848db33926d3914,600802c86848db33926d3914,6,flower,critical,F,50,flower40.jpg,flower60.jpg,high,NULL
1687408423,1af0a24e378ffcf7d6e5f0edb6eb8dda,PennController,10,0,experiment,NULL,PennController,8,_Header_,End,1687408284764,600802c86848db33926d3914,600802c86848db33926d3914,6,flower,critical,F,50,flower40.jpg,flower60.jpg,high,NULL
1687408423,1af0a24e378ffcf7d6e5f0edb6eb8dda,PennController,10,0,experiment,NULL,Video,progression,buffer,0,1687408288302,600802c86848db33926d3914,600802c86848db33926d3914,6,flower,critical,F,50,flower40.jpg,flower60.jpg,high,NULL
1687408423,1af0a24e378ffcf7d6e5f0edb6eb8dda,PennController,10,0,experiment,NULL,Canvas,canvas6,Print,NA,1687408291531,600802c86848db33926d3914,600802c86848db33926d3914,6,flower,critical,F,50,flower40.jpg,flower60.jpg,high,NULL
1687408423,1af0a24e378ffcf7d6e5f0edb6eb8dda,PennController,10,0,experiment,NULL,Selector,choice,Selection,option1,1687408294312,600802c86848db33926d3914,600802c86848db33926d3914,6,flower,critical,F,50,flower40.jpg,flower60.jpg,high,option2;option1
1687408423,1af0a24e378ffcf7d6e5f0edb6eb8dda,PennController,10,0,experiment,NULL,PennController,8,_Trial_,End,1687408294313,600802c86848db33926d3914,600802c86848db33926d3914,6,flower,critical,F,50,flower40.jpg,flower60.jpg,high,NULL
1687408423,1af0a24e378ffcf7d6e5f0edb6eb8dda,PennController,9,0,experiment,NULL,PennController,7,_Trial_,Start,1687408294313,600802c86848db33926d3914,600802c86848db33926d3914,5,book,critical,F,25,book15.jpg,book35.jpg,high,NULL
1687408423,1af0a24e378ffcf7d6e5f0edb6eb8dda,PennController,9,0,experiment,NULL,PennController,7,_Header_,Start,1687408294313,600802c86848db33926d3914,600802c86848db33926d3914,5,book,critical,F,25,book15.jpg,book35.jpg,high,NULL
1687408423,1af0a24e378ffcf7d6e5f0edb6eb8dda,PennController,9,0,experiment,NULL,PennController,7,_Header_,End,1687408294313,600802c86848db33926d3914,600802c86848db33926d3914,5,book,critical,F,25,book15.jpg,book35.jpg,high,NULL
1687408423,1af0a24e378ffcf7d6e5f0edb6eb8dda,PennController,9,0,experiment,NULL,Video,progression,buffer,0,1687408297849,600802c86848db33926d3914,600802c86848db33926d3914,5,book,critical,F,25,book15.jpg,book35.jpg,high,NULL
1687408423,1af0a24e378ffcf7d6e5f0edb6eb8dda,PennController,9,0,experiment,NULL,Canvas,canvas6,Print,NA,1687408300081,600802c86848db33926d3914,600802c86848db33926d3914,5,book,critical,F,25,book15.jpg,book35.jpg,high,NULL
1687408423,1af0a24e378ffcf7d6e5f0edb6eb8dda,PennController,9,0,experiment,NULL,Selector,choice,Selection,option1,1687408301221,600802c86848db33926d3914,600802c86848db33926d3914,5,book,critical,F,25,book15.jpg,book35.jpg,high,option2;option1
1687408423,1af0a24e378ffcf7d6e5f0edb6eb8dda,PennController,9,0,experiment,NULL,PennController,7,_Trial_,End,1687408301222,600802c86848db33926d3914,600802c86848db33926d3914,5,book,critical,F,25,book15.jpg,book35.jpg,high,NULL
1687408423,1af0a24e378ffcf7d6e5f0edb6eb8dda,PennController,13,0,experiment,NULL,PennController,11,_Trial_,Start,1687408301222,600802c86848db33926d3914,600802c86848db33926d3914,9,cake,critical,F,50,cake42.jpg,cake60.jpg,high,NULL
1687408423,1af0a24e378ffcf7d6e5f0edb6eb8dda,PennController,13,0,experiment,NULL,PennController,11,_Header_,Start,1687408301222,600802c86848db33926d3914,600802c86848db33926d3914,9,cake,critical,F,50,cake42.jpg,cake60.jpg,high,NULL
1687408423,1af0a24e378ffcf7d6e5f0edb6eb8dda,PennController,13,0,experiment,NULL,PennController,11,_Header_,End,1687408301222,600802c86848db33926d3914,600802c86848db33926d3914,9,cake,critical,F,50,cake42.jpg,cake60.jpg,high,NULL
1687408423,1af0a24e378ffcf7d6e5f0edb6eb8dda,PennController,13,0,experiment,NULL,Video,progression,buffer,0,1687408304772,600802c86848db33926d3914,600802c86848db33926d3914,9,cake,critical,F,50,cake42.jpg,cake60.jpg,high,NULL
1687408423,1af0a24e378ffcf7d6e5f0edb6eb8dda,PennController,13,0,experiment,NULL,Canvas,canvas6,Print,NA,1687408309424,600802c86848db33926d3914,600802c86848db33926d3914,9,cake,critical,F,50,cake42.jpg,cake60.jpg,high,NULL
1687408423,1af0a24e378ffcf7d6e5f0edb6eb8dda,PennController,13,0,experiment,NULL,Selector,choice,Selection,option2,1687408310426,600802c86848db33926d3914,600802c86848db33926d3914,9,cake,critical,F,50,cake42.jpg,cake60.jpg,high,option1;option2
1687408423,1af0a24e378ffcf7d6e5f0edb6eb8dda,PennController,13,0,experiment,NULL,PennController,11,_Trial_,End,1687408310427,600802c86848db33926d3914,600802c86848db33926d3914,9,cake,critical,F,50,cake42.jpg,cake60.jpg,high,NULL
1687408423,1af0a24e378ffcf7d6e5f0edb6eb8dda,PennController,15,0,experiment,NULL,PennController,13,_Trial_,Start,1687408310427,600802c86848db33926d3914,600802c86848db33926d3914,11,beads,critical,F,25,beads15.jpg,beads35.jpg,high,NULL
1687408423,1af0a24e378ffcf7d6e5f0edb6eb8dda,PennController,15,0,experiment,NULL,PennController,13,_Header_,Start,1687408310427,600802c86848db33926d3914,600802c86848db33926d3914,11,beads,critical,F,25,beads15.jpg,beads35.jpg,high,NULL
1687408423,1af0a24e378ffcf7d6e5f0edb6eb8dda,PennController,15,0,experiment,NULL,PennController,13,_Header_,End,1687408310427,600802c86848db33926d3914,600802c86848db33926d3914,11,beads,critical,F,25,beads15.jpg,beads35.jpg,high,NULL
1687408423,1af0a24e378ffcf7d6e5f0edb6eb8dda,PennController,15,0,experiment,NULL,Video,progression,buffer,0,1687408313980,600802c86848db33926d3914,600802c86848db33926d3914,11,beads,critical,F,25,beads15.jpg,beads35.jpg,high,NULL
1687408423,1af0a24e378ffcf7d6e5f0edb6eb8dda,PennController,15,0,experiment,NULL,Canvas,canvas6,Print,NA,1687408316227,600802c86848db33926d3914,600802c86848db33926d3914,11,beads,critical,F,25,beads15.jpg,beads35.jpg,high,NULL
1687408423,1af0a24e378ffcf7d6e5f0edb6eb8dda,PennController,15,0,experiment,NULL,Selector,choice,Selection,option2,1687408317734,600802c86848db33926d3914,600802c86848db33926d3914,11,beads,critical,F,25,beads15.jpg,beads35.jpg,high,option2;option1
1687408423,1af0a24e378ffcf7d6e5f0edb6eb8dda,PennController,15,0,experiment,NULL,PennController,13,_Trial_,End,1687408317735,600802c86848db33926d3914,600802c86848db33926d3914,11,beads,critical,F,25,beads15.jpg,beads35.jpg,high,NULL
1687408423,1af0a24e378ffcf7d6e5f0edb6eb8dda,PennController,18,0,experiment,NULL,PennController,16,_Trial_,Start,1687408317736,600802c86848db33926d3914,600802c86848db33926d3914,14,cover,critical,F,25,cover15.jpg,cover33.jpg,high,NULL
1687408423,1af0a24e378ffcf7d6e5f0edb6eb8dda,PennController,18,0,experiment,NULL,PennController,16,_Header_,Start,1687408317736,600802c86848db33926d3914,600802c86848db33926d3914,14,cover,critical,F,25,cover15.jpg,cover33.jpg,high,NULL
1687408423,1af0a24e378ffcf7d6e5f0edb6eb8dda,PennController,18,0,experiment,NULL,PennController,16,_Header_,End,1687408317736,600802c86848db33926d3914,600802c86848db33926d3914,14,cover,critical,F,25,cover15.jpg,cover33.jpg,high,NULL
1687408423,1af0a24e378ffcf7d6e5f0edb6eb8dda,PennController,18,0,experiment,NULL,Video,progression,buffer,0,1687408321270,600802c86848db33926d3914,600802c86848db33926d3914,14,cover,critical,F,25,cover15.jpg,cover33.jpg,high,NULL
1687408423,1af0a24e378ffcf7d6e5f0edb6eb8dda,PennController,18,0,experiment,NULL,Canvas,canvas6,Print,NA,1687408324116,600802c86848db33926d3914,600802c86848db33926d3914,14,cover,critical,F,25,cover15.jpg,cover33.jpg,high,NULL
1687408423,1af0a24e378ffcf7d6e5f0edb6eb8dda,PennController,18,0,experiment,NULL,Selector,choice,Selection,option1,1687408325811,600802c86848db33926d3914,600802c86848db33926d3914,14,cover,critical,F,25,cover15.jpg,cover33.jpg,high,option1;option2
1687408423,1af0a24e378ffcf7d6e5f0edb6eb8dda,PennController,18,0,experiment,NULL,PennController,16,_Trial_,End,1687408325812,600802c86848db33926d3914,600802c86848db33926d3914,14,cover,critical,F,25,cover15.jpg,cover33.jpg,high,NULL
1687408423,1af0a24e378ffcf7d6e5f0edb6eb8dda,PennController,20,0,experiment,NULL,PennController,18,_Trial_,Start,1687408325812,600802c86848db33926d3914,600802c86848db33926d3914,16,blinds,critical,F,75,blinds66.jpg,blinds84.jpg,high,NULL
1687408423,1af0a24e378ffcf7d6e5f0edb6eb8dda,PennController,20,0,experiment,NULL,PennController,18,_Header_,Start,1687408325812,600802c86848db33926d3914,600802c86848db33926d3914,16,blinds,critical,F,75,blinds66.jpg,blinds84.jpg,high,NULL
1687408423,1af0a24e378ffcf7d6e5f0edb6eb8dda,PennController,20,0,experiment,NULL,PennController,18,_Header_,End,1687408325812,600802c86848db33926d3914,600802c86848db33926d3914,16,blinds,critical,F,75,blinds66.jpg,blinds84.jpg,high,NULL
1687408423,1af0a24e378ffcf7d6e5f0edb6eb8dda,PennController,20,0,experiment,NULL,Video,progression,buffer,0,1687408329353,600802c86848db33926d3914,600802c86848db33926d3914,16,blinds,critical,F,75,blinds66.jpg,blinds84.jpg,high,NULL
1687408423,1af0a24e378ffcf7d6e5f0edb6eb8dda,PennController,20,0,experiment,NULL,Canvas,canvas6,Print,NA,1687408335585,600802c86848db33926d3914,600802c86848db33926d3914,16,blinds,critical,F,75,blinds66.jpg,blinds84.jpg,high,NULL
1687408423,1af0a24e378ffcf7d6e5f0edb6eb8dda,PennController,20,0,experiment,NULL,Selector,choice,Selection,option2,1687408336833,600802c86848db33926d3914,600802c86848db33926d3914,16,blinds,critical,F,75,blinds66.jpg,blinds84.jpg,high,option1;option2
1687408423,1af0a24e378ffcf7d6e5f0edb6eb8dda,PennController,20,0,experiment,NULL,PennController,18,_Trial_,End,1687408336834,600802c86848db33926d3914,600802c86848db33926d3914,16,blinds,critical,F,75,blinds66.jpg,blinds84.jpg,high,NULL
1687408423,1af0a24e378ffcf7d6e5f0edb6eb8dda,PennController,30,0,experiment,NULL,PennController,28,_Trial_,Start,1687408336835,600802c86848db33926d3914,600802c86848db33926d3914,26,sandwich,filler,F,25,sandwich15.jpg,sandwich35.jpg,GoalA,NULL
1687408423,1af0a24e378ffcf7d6e5f0edb6eb8dda,PennController,30,0,experiment,NULL,PennController,28,_Header_,Start,1687408336835,600802c86848db33926d3914,600802c86848db33926d3914,26,sandwich,filler,F,25,sandwich15.jpg,sandwich35.jpg,GoalA,NULL
1687408423,1af0a24e378ffcf7d6e5f0edb6eb8dda,PennController,30,0,experiment,NULL,PennController,28,_Header_,End,1687408336835,600802c86848db33926d3914,600802c86848db33926d3914,26,sandwich,filler,F,25,sandwich15.jpg,sandwich35.jpg,GoalA,NULL
1687408423,1af0a24e378ffcf7d6e5f0edb6eb8dda,PennController,30,0,experiment,NULL,Video,progression,buffer,0,1687408340362,600802c86848db33926d3914,600802c86848db33926d3914,26,sandwich,filler,F,25,sandwich15.jpg,sandwich35.jpg,GoalA,NULL
1687408423,1af0a24e378ffcf7d6e5f0edb6eb8dda,PennController,30,0,experiment,NULL,Canvas,canvas6,Print,NA,1687408342584,600802c86848db33926d3914,600802c86848db33926d3914,26,sandwich,filler,F,25,sandwich15.jpg,sandwich35.jpg,GoalA,NULL
1687408423,1af0a24e378ffcf7d6e5f0edb6eb8dda,PennController,30,0,experiment,NULL,Selector,choice,Selection,option1,1687408344038,600802c86848db33926d3914,600802c86848db33926d3914,26,sandwich,filler,F,25,sandwich15.jpg,sandwich35.jpg,GoalA,option1;option2
1687408423,1af0a24e378ffcf7d6e5f0edb6eb8dda,PennController,30,0,experiment,NULL,PennController,28,_Trial_,End,1687408344039,600802c86848db33926d3914,600802c86848db33926d3914,26,sandwich,filler,F,25,sandwich15.jpg,sandwich35.jpg,GoalA,NULL
1687408423,1af0a24e378ffcf7d6e5f0edb6eb8dda,PennController,6,0,experiment,NULL,PennController,4,_Trial_,Start,1687408344040,600802c86848db33926d3914,600802c86848db33926d3914,2,door,critical,F,25,door15.jpg,door35.jpg,high,NULL
1687408423,1af0a24e378ffcf7d6e5f0edb6eb8dda,PennController,6,0,experiment,NULL,PennController,4,_Header_,Start,1687408344040,600802c86848db33926d3914,600802c86848db33926d3914,2,door,critical,F,25,door15.jpg,door35.jpg,high,NULL
1687408423,1af0a24e378ffcf7d6e5f0edb6eb8dda,PennController,6,0,experiment,NULL,PennController,4,_Header_,End,1687408344040,600802c86848db33926d3914,600802c86848db33926d3914,2,door,critical,F,25,door15.jpg,door35.jpg,high,NULL
1687408423,1af0a24e378ffcf7d6e5f0edb6eb8dda,PennController,6,0,experiment,NULL,Video,progression,buffer,0,1687408347580,600802c86848db33926d3914,600802c86848db33926d3914,2,door,critical,F,25,door15.jpg,door35.jpg,high,NULL
1687408423,1af0a24e378ffcf7d6e5f0edb6eb8dda,PennController,6,0,experiment,NULL,Canvas,canvas6,Print,NA,1687408349818,600802c86848db33926d3914,600802c86848db33926d3914,2,door,critical,F,25,door15.jpg,door35.jpg,high,NULL
1687408423,1af0a24e378ffcf7d6e5f0edb6eb8dda,PennController,6,0,experiment,NULL,Selector,choice,Selection,option2,1687408351882,600802c86848db33926d3914,600802c86848db33926d3914,2,door,critical,F,25,door15.jpg,door35.jpg,high,option1;option2
1687408423,1af0a24e378ffcf7d6e5f0edb6eb8dda,PennController,6,0,experiment,NULL,PennController,4,_Trial_,End,1687408351884,600802c86848db33926d3914,600802c86848db33926d3914,2,door,critical,F,25,door15.jpg,door35.jpg,high,NULL
1687408423,1af0a24e378ffcf7d6e5f0edb6eb8dda,PennController,19,0,experiment,NULL,PennController,17,_Trial_,Start,1687408351884,600802c86848db33926d3914,600802c86848db33926d3914,15,zip,critical,F,50,zip40.jpg,zip60.jpg,high,NULL
1687408423,1af0a24e378ffcf7d6e5f0edb6eb8dda,PennController,19,0,experiment,NULL,PennController,17,_Header_,Start,1687408351884,600802c86848db33926d3914,600802c86848db33926d3914,15,zip,critical,F,50,zip40.jpg,zip60.jpg,high,NULL
1687408423,1af0a24e378ffcf7d6e5f0edb6eb8dda,PennController,19,0,experiment,NULL,PennController,17,_Header_,End,1687408351884,600802c86848db33926d3914,600802c86848db33926d3914,15,zip,critical,F,50,zip40.jpg,zip60.jpg,high,NULL
1687408423,1af0a24e378ffcf7d6e5f0edb6eb8dda,PennController,19,0,experiment,NULL,Video,progression,buffer,0,1687408355436,600802c86848db33926d3914,600802c86848db33926d3914,15,zip,critical,F,50,zip40.jpg,zip60.jpg,high,NULL
1687408423,1af0a24e378ffcf7d6e5f0edb6eb8dda,PennController,19,0,experiment,NULL,Canvas,canvas6,Print,NA,1687408358673,600802c86848db33926d3914,600802c86848db33926d3914,15,zip,critical,F,50,zip40.jpg,zip60.jpg,high,NULL
1687408423,1af0a24e378ffcf7d6e5f0edb6eb8dda,PennController,19,0,experiment,NULL,Selector,choice,Selection,option2,1687408360072,600802c86848db33926d3914,600802c86848db33926d3914,15,zip,critical,F,50,zip40.jpg,zip60.jpg,high,option1;option2
1687408423,1af0a24e378ffcf7d6e5f0edb6eb8dda,PennController,19,0,experiment,NULL,PennController,17,_Trial_,End,1687408360072,600802c86848db33926d3914,600802c86848db33926d3914,15,zip,critical,F,50,zip40.jpg,zip60.jpg,high,NULL
1687408423,1af0a24e378ffcf7d6e5f0edb6eb8dda,PennController,8,0,experiment,NULL,PennController,6,_Trial_,Start,1687408360073,600802c86848db33926d3914,600802c86848db33926d3914,4,candy,critical,F,75,candy65.jpg,candy85.jpg,high,NULL
1687408423,1af0a24e378ffcf7d6e5f0edb6eb8dda,PennController,8,0,experiment,NULL,PennController,6,_Header_,Start,1687408360073,600802c86848db33926d3914,600802c86848db33926d3914,4,candy,critical,F,75,candy65.jpg,candy85.jpg,high,NULL
1687408423,1af0a24e378ffcf7d6e5f0edb6eb8dda,PennController,8,0,experiment,NULL,PennController,6,_Header_,End,1687408360073,600802c86848db33926d3914,600802c86848db33926d3914,4,candy,critical,F,75,candy65.jpg,candy85.jpg,high,NULL
1687408423,1af0a24e378ffcf7d6e5f0edb6eb8dda,PennController,8,0,experiment,NULL,Video,progression,buffer,0,1687408363607,600802c86848db33926d3914,600802c86848db33926d3914,4,candy,critical,F,75,candy65.jpg,candy85.jpg,high,NULL
1687408423,1af0a24e378ffcf7d6e5f0edb6eb8dda,PennController,8,0,experiment,NULL,Canvas,canvas6,Print,NA,1687408367869,600802c86848db33926d3914,600802c86848db33926d3914,4,candy,critical,F,75,candy65.jpg,candy85.jpg,high,NULL
1687408423,1af0a24e378ffcf7d6e5f0edb6eb8dda,PennController,8,0,experiment,NULL,Selector,choice,Selection,option1,1687408370902,600802c86848db33926d3914,600802c86848db33926d3914,4,candy,critical,F,75,candy65.jpg,candy85.jpg,high,option1;option2
1687408423,1af0a24e378ffcf7d6e5f0edb6eb8dda,PennController,8,0,experiment,NULL,PennController,6,_Trial_,End,1687408370902,600802c86848db33926d3914,600802c86848db33926d3914,4,candy,critical,F,75,candy65.jpg,candy85.jpg,high,NULL
1687408423,1af0a24e378ffcf7d6e5f0edb6eb8dda,PennController,17,0,experiment,NULL,PennController,15,_Trial_,Start,1687408370903,600802c86848db33926d3914,600802c86848db33926d3914,13,mix,critical,F,75,mix65.jpg,mix85.jpg,high,NULL
1687408423,1af0a24e378ffcf7d6e5f0edb6eb8dda,PennController,17,0,experiment,NULL,PennController,15,_Header_,Start,1687408370903,600802c86848db33926d3914,600802c86848db33926d3914,13,mix,critical,F,75,mix65.jpg,mix85.jpg,high,NULL
1687408423,1af0a24e378ffcf7d6e5f0edb6eb8dda,PennController,17,0,experiment,NULL,PennController,15,_Header_,End,1687408370903,600802c86848db33926d3914,600802c86848db33926d3914,13,mix,critical,F,75,mix65.jpg,mix85.jpg,high,NULL
1687408423,1af0a24e378ffcf7d6e5f0edb6eb8dda,PennController,17,0,experiment,NULL,Video,progression,buffer,0,1687408374461,600802c86848db33926d3914,600802c86848db33926d3914,13,mix,critical,F,75,mix65.jpg,mix85.jpg,high,NULL
1687408423,1af0a24e378ffcf7d6e5f0edb6eb8dda,PennController,17,0,experiment,NULL,Canvas,canvas6,Print,NA,1687408378693,600802c86848db33926d3914,600802c86848db33926d3914,13,mix,critical,F,75,mix65.jpg,mix85.jpg,high,NULL
1687408423,1af0a24e378ffcf7d6e5f0edb6eb8dda,PennController,17,0,experiment,NULL,Selector,choice,Selection,option1,1687408380091,600802c86848db33926d3914,600802c86848db33926d3914,13,mix,critical,F,75,mix65.jpg,mix85.jpg,high,option1;option2
1687408423,1af0a24e378ffcf7d6e5f0edb6eb8dda,PennController,17,0,experiment,NULL,PennController,15,_Trial_,End,1687408380092,600802c86848db33926d3914,600802c86848db33926d3914,13,mix,critical,F,75,mix65.jpg,mix85.jpg,high,NULL
1687408423,1af0a24e378ffcf7d6e5f0edb6eb8dda,PennController,21,0,experiment,NULL,PennController,19,_Trial_,Start,1687408380092,600802c86848db33926d3914,600802c86848db33926d3914,17,roll,critical,F,25,roll15.jpg,roll35.jpg,high,NULL
1687408423,1af0a24e378ffcf7d6e5f0edb6eb8dda,PennController,21,0,experiment,NULL,PennController,19,_Header_,Start,1687408380092,600802c86848db33926d3914,600802c86848db33926d3914,17,roll,critical,F,25,roll15.jpg,roll35.jpg,high,NULL
1687408423,1af0a24e378ffcf7d6e5f0edb6eb8dda,PennController,21,0,experiment,NULL,PennController,19,_Header_,End,1687408380092,600802c86848db33926d3914,600802c86848db33926d3914,17,roll,critical,F,25,roll15.jpg,roll35.jpg,high,NULL
1687408423,1af0a24e378ffcf7d6e5f0edb6eb8dda,PennController,21,0,experiment,NULL,Video,progression,buffer,0,1687408383665,600802c86848db33926d3914,600802c86848db33926d3914,17,roll,critical,F,25,roll15.jpg,roll35.jpg,high,NULL
1687408423,1af0a24e378ffcf7d6e5f0edb6eb8dda,PennController,21,0,experiment,NULL,Canvas,canvas6,Print,NA,1687408385912,600802c86848db33926d3914,600802c86848db33926d3914,17,roll,critical,F,25,roll15.jpg,roll35.jpg,high,NULL
1687408423,1af0a24e378ffcf7d6e5f0edb6eb8dda,PennController,21,0,experiment,NULL,Selector,choice,Selection,option1,1687408387160,600802c86848db33926d3914,600802c86848db33926d3914,17,roll,critical,F,25,roll15.jpg,roll35.jpg,high,option2;option1
1687408423,1af0a24e378ffcf7d6e5f0edb6eb8dda,PennController,21,0,experiment,NULL,PennController,19,_Trial_,End,1687408387161,600802c86848db33926d3914,600802c86848db33926d3914,17,roll,critical,F,25,roll15.jpg,roll35.jpg,high,NULL
1687408423,1af0a24e378ffcf7d6e5f0edb6eb8dda,PennController,28,0,experiment,NULL,PennController,26,_Trial_,Start,1687408387161,600802c86848db33926d3914,600802c86848db33926d3914,24,match,filler,F,50,match40.jpg,match60.jpg,GoalA,NULL
1687408423,1af0a24e378ffcf7d6e5f0edb6eb8dda,PennController,28,0,experiment,NULL,PennController,26,_Header_,Start,1687408387161,600802c86848db33926d3914,600802c86848db33926d3914,24,match,filler,F,50,match40.jpg,match60.jpg,GoalA,NULL
1687408423,1af0a24e378ffcf7d6e5f0edb6eb8dda,PennController,28,0,experiment,NULL,PennController,26,_Header_,End,1687408387161,600802c86848db33926d3914,600802c86848db33926d3914,24,match,filler,F,50,match40.jpg,match60.jpg,GoalA,NULL
1687408423,1af0a24e378ffcf7d6e5f0edb6eb8dda,PennController,28,0,experiment,NULL,Video,progression,buffer,0,1687408390704,600802c86848db33926d3914,600802c86848db33926d3914,24,match,filler,F,50,match40.jpg,match60.jpg,GoalA,NULL
1687408423,1af0a24e378ffcf7d6e5f0edb6eb8dda,PennController,28,0,experiment,NULL,Canvas,canvas6,Print,NA,1687408393940,600802c86848db33926d3914,600802c86848db33926d3914,24,match,filler,F,50,match40.jpg,match60.jpg,GoalA,NULL
1687408423,1af0a24e378ffcf7d6e5f0edb6eb8dda,PennController,28,0,experiment,NULL,Selector,choice,Selection,option1,1687408396557,600802c86848db33926d3914,600802c86848db33926d3914,24,match,filler,F,50,match40.jpg,match60.jpg,GoalA,option2;option1
1687408423,1af0a24e378ffcf7d6e5f0edb6eb8dda,PennController,28,0,experiment,NULL,PennController,26,_Trial_,End,1687408396558,600802c86848db33926d3914,600802c86848db33926d3914,24,match,filler,F,50,match40.jpg,match60.jpg,GoalA,NULL
1687408423,1af0a24e378ffcf7d6e5f0edb6eb8dda,PennController,26,0,experiment,NULL,PennController,24,_Trial_,Start,1687408396558,600802c86848db33926d3914,600802c86848db33926d3914,22,wall,filler,F,75,wall65.jpg,wall85.jpg,GoalA,NULL
1687408423,1af0a24e378ffcf7d6e5f0edb6eb8dda,PennController,26,0,experiment,NULL,PennController,24,_Header_,Start,1687408396558,600802c86848db33926d3914,600802c86848db33926d3914,22,wall,filler,F,75,wall65.jpg,wall85.jpg,GoalA,NULL
1687408423,1af0a24e378ffcf7d6e5f0edb6eb8dda,PennController,26,0,experiment,NULL,PennController,24,_Header_,End,1687408396558,600802c86848db33926d3914,600802c86848db33926d3914,22,wall,filler,F,75,wall65.jpg,wall85.jpg,GoalA,NULL
1687408423,1af0a24e378ffcf7d6e5f0edb6eb8dda,PennController,26,0,experiment,NULL,Video,progression,buffer,0,1687408400100,600802c86848db33926d3914,600802c86848db33926d3914,22,wall,filler,F,75,wall65.jpg,wall85.jpg,GoalA,NULL
1687408423,1af0a24e378ffcf7d6e5f0edb6eb8dda,PennController,26,0,experiment,NULL,Canvas,canvas6,Print,NA,1687408404350,600802c86848db33926d3914,600802c86848db33926d3914,22,wall,filler,F,75,wall65.jpg,wall85.jpg,GoalA,NULL
1687408423,1af0a24e378ffcf7d6e5f0edb6eb8dda,PennController,26,0,experiment,NULL,Selector,choice,Selection,option2,1687408405274,600802c86848db33926d3914,600802c86848db33926d3914,22,wall,filler,F,75,wall65.jpg,wall85.jpg,GoalA,option1;option2
1687408423,1af0a24e378ffcf7d6e5f0edb6eb8dda,PennController,26,0,experiment,NULL,PennController,24,_Trial_,End,1687408405275,600802c86848db33926d3914,600802c86848db33926d3914,22,wall,filler,F,75,wall65.jpg,wall85.jpg,GoalA,NULL
1687408423,1af0a24e378ffcf7d6e5f0edb6eb8dda,PennController,7,0,experiment,NULL,PennController,5,_Trial_,Start,1687408405276,600802c86848db33926d3914,600802c86848db33926d3914,3,clean,critical,F,50,clean40.jpg,clean60.jpg,high,NULL
1687408423,1af0a24e378ffcf7d6e5f0edb6eb8dda,PennController,7,0,experiment,NULL,PennController,5,_Header_,Start,1687408405276,600802c86848db33926d3914,600802c86848db33926d3914,3,clean,critical,F,50,clean40.jpg,clean60.jpg,high,NULL
1687408423,1af0a24e378ffcf7d6e5f0edb6eb8dda,PennController,7,0,experiment,NULL,PennController,5,_Header_,End,1687408405276,600802c86848db33926d3914,600802c86848db33926d3914,3,clean,critical,F,50,clean40.jpg,clean60.jpg,high,NULL
1687408423,1af0a24e378ffcf7d6e5f0edb6eb8dda,PennController,7,0,experiment,NULL,Video,progression,buffer,0,1687408408814,600802c86848db33926d3914,600802c86848db33926d3914,3,clean,critical,F,50,clean40.jpg,clean60.jpg,high,NULL
1687408423,1af0a24e378ffcf7d6e5f0edb6eb8dda,PennController,7,0,experiment,NULL,Canvas,canvas6,Print,NA,1687408412042,600802c86848db33926d3914,600802c86848db33926d3914,3,clean,critical,F,50,clean40.jpg,clean60.jpg,high,NULL
1687408423,1af0a24e378ffcf7d6e5f0edb6eb8dda,PennController,7,0,experiment,NULL,Selector,choice,Selection,option2,1687408413183,600802c86848db33926d3914,600802c86848db33926d3914,3,clean,critical,F,50,clean40.jpg,clean60.jpg,high,option2;option1
1687408423,1af0a24e378ffcf7d6e5f0edb6eb8dda,PennController,7,0,experiment,NULL,PennController,5,_Trial_,End,1687408413184,600802c86848db33926d3914,600802c86848db33926d3914,3,clean,critical,F,50,clean40.jpg,clean60.jpg,high,NULL
1687408423,1af0a24e378ffcf7d6e5f0edb6eb8dda,PennController,23,0,experiment,NULL,PennController,21,_Trial_,Start,1687408413185,600802c86848db33926d3914,600802c86848db33926d3914,19,cup,filler,F,75,cup65.jpg,cup85.jpg,GoalB,NULL
1687408423,1af0a24e378ffcf7d6e5f0edb6eb8dda,PennController,23,0,experiment,NULL,PennController,21,_Header_,Start,1687408413185,600802c86848db33926d3914,600802c86848db33926d3914,19,cup,filler,F,75,cup65.jpg,cup85.jpg,GoalB,NULL
1687408423,1af0a24e378ffcf7d6e5f0edb6eb8dda,PennController,23,0,experiment,NULL,PennController,21,_Header_,End,1687408413185,600802c86848db33926d3914,600802c86848db33926d3914,19,cup,filler,F,75,cup65.jpg,cup85.jpg,GoalB,NULL
1687408423,1af0a24e378ffcf7d6e5f0edb6eb8dda,PennController,23,0,experiment,NULL,Video,progression,buffer,0,1687408416723,600802c86848db33926d3914,600802c86848db33926d3914,19,cup,filler,F,75,cup65.jpg,cup85.jpg,GoalB,NULL
1687408423,1af0a24e378ffcf7d6e5f0edb6eb8dda,PennController,23,0,experiment,NULL,Canvas,canvas6,Print,NA,1687408420960,600802c86848db33926d3914,600802c86848db33926d3914,19,cup,filler,F,75,cup65.jpg,cup85.jpg,GoalB,NULL
1687408423,1af0a24e378ffcf7d6e5f0edb6eb8dda,PennController,23,0,experiment,NULL,Selector,choice,Selection,option1,1687408422837,600802c86848db33926d3914,600802c86848db33926d3914,19,cup,filler,F,75,cup65.jpg,cup85.jpg,GoalB,option1;option2
1687408423,1af0a24e378ffcf7d6e5f0edb6eb8dda,PennController,23,0,experiment,NULL,PennController,21,_Trial_,End,1687408422837,600802c86848db33926d3914,600802c86848db33926d3914,19,cup,filler,F,75,cup65.jpg,cup85.jpg,GoalB,NULL
