#
# Results on Tuesday June 20 2023 18:57:44 UTC
# USER AGENT: Mozilla/5.0 (Windows NT 10.0; Win64; x64; rv:109.0) Gecko/20100101 Firefox/114.0
# Design number was non-random = 3
#
# Columns below this comment are as follows:
# 1. Results reception time.
# 2. MD5 hash of participant's IP address.
# 3. Controller name.
# 4. Order number of item.
# 5. Inner element number.
# 6. Label.
# 7. Latin Square Group.
# 8. PennElementType.
# 9. PennElementName.
# 10. Parameter.
# 11. Value.
# 12. EventTime.
# 13. PROLIFIC_ID.
# 14. Comments.
1687287464,b581b52b9caa40d927a510926fe7ba5b,PennController,2,0,consent,NULL,PennController,0,_Trial_,Start,1687287112611,5ec3a1a6e0ceef2078de1799,NULL
1687287464,b581b52b9caa40d927a510926fe7ba5b,PennController,2,0,consent,NULL,PennController,0,_Header_,Start,1687287112611,5ec3a1a6e0ceef2078de1799,NULL
1687287464,b581b52b9caa40d927a510926fe7ba5b,PennController,2,0,consent,NULL,PennController,0,_Header_,End,1687287112615,5ec3a1a6e0ceef2078de1799,NULL
1687287464,b581b52b9caa40d927a510926fe7ba5b,PennController,2,0,consent,NULL,PennController,0,_Trial_,End,1687287177376,5ec3a1a6e0ceef2078de1799,NULL
# Columns below this comment are as follows:
# 14. ID.
# 15. Comments.
1687287464,b581b52b9caa40d927a510926fe7ba5b,PennController,3,0,intro,NULL,PennController,1,_Trial_,Start,1687287177385,5ec3a1a6e0ceef2078de1799,5ec3a1a6e0ceef2078de1799,NULL
1687287464,b581b52b9caa40d927a510926fe7ba5b,PennController,3,0,intro,NULL,PennController,1,_Header_,Start,1687287177385,5ec3a1a6e0ceef2078de1799,5ec3a1a6e0ceef2078de1799,NULL
1687287464,b581b52b9caa40d927a510926fe7ba5b,PennController,3,0,intro,NULL,PennController,1,_Header_,End,1687287177385,5ec3a1a6e0ceef2078de1799,5ec3a1a6e0ceef2078de1799,NULL
1687287464,b581b52b9caa40d927a510926fe7ba5b,PennController,3,0,intro,NULL,PennController,1,_Trial_,End,1687287199529,5ec3a1a6e0ceef2078de1799,5ec3a1a6e0ceef2078de1799,NULL
# Columns below this comment are as follows:
# 15. item_number.
# 16. item.
# 17. type.
# 18. Group.
# 19. prog.
# 20. prev_image.
# 21. next_image.
# 22. height.
# 23. Comments.
1687287464,b581b52b9caa40d927a510926fe7ba5b,PennController,29,0,experiment,NULL,PennController,28,_Trial_,Start,1687287199540,5ec3a1a6e0ceef2078de1799,5ec3a1a6e0ceef2078de1799,26,sandwich,filler,D,50,sandwich40.jpg,sandwich60.jpg,GoalA,NULL
1687287464,b581b52b9caa40d927a510926fe7ba5b,PennController,29,0,experiment,NULL,PennController,28,_Header_,Start,1687287199540,5ec3a1a6e0ceef2078de1799,5ec3a1a6e0ceef2078de1799,26,sandwich,filler,D,50,sandwich40.jpg,sandwich60.jpg,GoalA,NULL
1687287464,b581b52b9caa40d927a510926fe7ba5b,PennController,29,0,experiment,NULL,PennController,28,_Header_,End,1687287199541,5ec3a1a6e0ceef2078de1799,5ec3a1a6e0ceef2078de1799,26,sandwich,filler,D,50,sandwich40.jpg,sandwich60.jpg,GoalA,NULL
1687287464,b581b52b9caa40d927a510926fe7ba5b,PennController,29,0,experiment,NULL,Video,progression,buffer,0,1687287203114,5ec3a1a6e0ceef2078de1799,5ec3a1a6e0ceef2078de1799,26,sandwich,filler,D,50,sandwich40.jpg,sandwich60.jpg,GoalA,NULL
1687287464,b581b52b9caa40d927a510926fe7ba5b,PennController,29,0,experiment,NULL,Canvas,canvas6,Print,NA,1687287206367,5ec3a1a6e0ceef2078de1799,5ec3a1a6e0ceef2078de1799,26,sandwich,filler,D,50,sandwich40.jpg,sandwich60.jpg,GoalA,NULL
1687287464,b581b52b9caa40d927a510926fe7ba5b,PennController,29,0,experiment,NULL,Selector,choice,Selection,option1,1687287209461,5ec3a1a6e0ceef2078de1799,5ec3a1a6e0ceef2078de1799,26,sandwich,filler,D,50,sandwich40.jpg,sandwich60.jpg,GoalA,option2;option1
1687287464,b581b52b9caa40d927a510926fe7ba5b,PennController,29,0,experiment,NULL,PennController,28,_Trial_,End,1687287209483,5ec3a1a6e0ceef2078de1799,5ec3a1a6e0ceef2078de1799,26,sandwich,filler,D,50,sandwich40.jpg,sandwich60.jpg,GoalA,NULL
1687287464,b581b52b9caa40d927a510926fe7ba5b,PennController,24,0,experiment,NULL,PennController,23,_Trial_,Start,1687287209491,5ec3a1a6e0ceef2078de1799,5ec3a1a6e0ceef2078de1799,21,visit,filler,D,75,visit65.jpg,visit85.jpg,GoalB,NULL
1687287464,b581b52b9caa40d927a510926fe7ba5b,PennController,24,0,experiment,NULL,PennController,23,_Header_,Start,1687287209491,5ec3a1a6e0ceef2078de1799,5ec3a1a6e0ceef2078de1799,21,visit,filler,D,75,visit65.jpg,visit85.jpg,GoalB,NULL
1687287464,b581b52b9caa40d927a510926fe7ba5b,PennController,24,0,experiment,NULL,PennController,23,_Header_,End,1687287209491,5ec3a1a6e0ceef2078de1799,5ec3a1a6e0ceef2078de1799,21,visit,filler,D,75,visit65.jpg,visit85.jpg,GoalB,NULL
1687287464,b581b52b9caa40d927a510926fe7ba5b,PennController,24,0,experiment,NULL,Video,progression,buffer,0,1687287213034,5ec3a1a6e0ceef2078de1799,5ec3a1a6e0ceef2078de1799,21,visit,filler,D,75,visit65.jpg,visit85.jpg,GoalB,NULL
1687287464,b581b52b9caa40d927a510926fe7ba5b,PennController,24,0,experiment,NULL,Canvas,canvas6,Print,NA,1687287217278,5ec3a1a6e0ceef2078de1799,5ec3a1a6e0ceef2078de1799,21,visit,filler,D,75,visit65.jpg,visit85.jpg,GoalB,NULL
1687287464,b581b52b9caa40d927a510926fe7ba5b,PennController,24,0,experiment,NULL,Selector,choice,Selection,option2,1687287218609,5ec3a1a6e0ceef2078de1799,5ec3a1a6e0ceef2078de1799,21,visit,filler,D,75,visit65.jpg,visit85.jpg,GoalB,option1;option2
1687287464,b581b52b9caa40d927a510926fe7ba5b,PennController,24,0,experiment,NULL,PennController,23,_Trial_,End,1687287218628,5ec3a1a6e0ceef2078de1799,5ec3a1a6e0ceef2078de1799,21,visit,filler,D,75,visit65.jpg,visit85.jpg,GoalB,NULL
1687287464,b581b52b9caa40d927a510926fe7ba5b,PennController,10,0,experiment,NULL,PennController,9,_Trial_,Start,1687287218633,5ec3a1a6e0ceef2078de1799,5ec3a1a6e0ceef2078de1799,7,stack,critical,D,25,stack15.jpg,stack35.jpg,high,NULL
1687287464,b581b52b9caa40d927a510926fe7ba5b,PennController,10,0,experiment,NULL,PennController,9,_Header_,Start,1687287218633,5ec3a1a6e0ceef2078de1799,5ec3a1a6e0ceef2078de1799,7,stack,critical,D,25,stack15.jpg,stack35.jpg,high,NULL
1687287464,b581b52b9caa40d927a510926fe7ba5b,PennController,10,0,experiment,NULL,PennController,9,_Header_,End,1687287218633,5ec3a1a6e0ceef2078de1799,5ec3a1a6e0ceef2078de1799,7,stack,critical,D,25,stack15.jpg,stack35.jpg,high,NULL
1687287464,b581b52b9caa40d927a510926fe7ba5b,PennController,10,0,experiment,NULL,Video,progression,buffer,0,1687287222163,5ec3a1a6e0ceef2078de1799,5ec3a1a6e0ceef2078de1799,7,stack,critical,D,25,stack15.jpg,stack35.jpg,high,NULL
1687287464,b581b52b9caa40d927a510926fe7ba5b,PennController,10,0,experiment,NULL,Canvas,canvas6,Print,NA,1687287224408,5ec3a1a6e0ceef2078de1799,5ec3a1a6e0ceef2078de1799,7,stack,critical,D,25,stack15.jpg,stack35.jpg,high,NULL
1687287464,b581b52b9caa40d927a510926fe7ba5b,PennController,10,0,experiment,NULL,Selector,choice,Selection,option2,1687287229346,5ec3a1a6e0ceef2078de1799,5ec3a1a6e0ceef2078de1799,7,stack,critical,D,25,stack15.jpg,stack35.jpg,high,option1;option2
1687287464,b581b52b9caa40d927a510926fe7ba5b,PennController,10,0,experiment,NULL,PennController,9,_Trial_,End,1687287229371,5ec3a1a6e0ceef2078de1799,5ec3a1a6e0ceef2078de1799,7,stack,critical,D,25,stack15.jpg,stack35.jpg,high,NULL
1687287464,b581b52b9caa40d927a510926fe7ba5b,PennController,26,0,experiment,NULL,PennController,25,_Trial_,Start,1687287229376,5ec3a1a6e0ceef2078de1799,5ec3a1a6e0ceef2078de1799,23,color,filler,D,50,color40.jpg,color60.jpg,GoalB,NULL
1687287464,b581b52b9caa40d927a510926fe7ba5b,PennController,26,0,experiment,NULL,PennController,25,_Header_,Start,1687287229376,5ec3a1a6e0ceef2078de1799,5ec3a1a6e0ceef2078de1799,23,color,filler,D,50,color40.jpg,color60.jpg,GoalB,NULL
1687287464,b581b52b9caa40d927a510926fe7ba5b,PennController,26,0,experiment,NULL,PennController,25,_Header_,End,1687287229376,5ec3a1a6e0ceef2078de1799,5ec3a1a6e0ceef2078de1799,23,color,filler,D,50,color40.jpg,color60.jpg,GoalB,NULL
1687287464,b581b52b9caa40d927a510926fe7ba5b,PennController,26,0,experiment,NULL,Video,progression,buffer,0,1687287232914,5ec3a1a6e0ceef2078de1799,5ec3a1a6e0ceef2078de1799,23,color,filler,D,50,color40.jpg,color60.jpg,GoalB,NULL
1687287464,b581b52b9caa40d927a510926fe7ba5b,PennController,26,0,experiment,NULL,Canvas,canvas6,Print,NA,1687287236166,5ec3a1a6e0ceef2078de1799,5ec3a1a6e0ceef2078de1799,23,color,filler,D,50,color40.jpg,color60.jpg,GoalB,NULL
1687287464,b581b52b9caa40d927a510926fe7ba5b,PennController,26,0,experiment,NULL,Selector,choice,Selection,option2,1687287244872,5ec3a1a6e0ceef2078de1799,5ec3a1a6e0ceef2078de1799,23,color,filler,D,50,color40.jpg,color60.jpg,GoalB,option1;option2
1687287464,b581b52b9caa40d927a510926fe7ba5b,PennController,26,0,experiment,NULL,PennController,25,_Trial_,End,1687287244892,5ec3a1a6e0ceef2078de1799,5ec3a1a6e0ceef2078de1799,23,color,filler,D,50,color40.jpg,color60.jpg,GoalB,NULL
1687287464,b581b52b9caa40d927a510926fe7ba5b,PennController,22,0,experiment,NULL,PennController,21,_Trial_,Start,1687287244898,5ec3a1a6e0ceef2078de1799,5ec3a1a6e0ceef2078de1799,19,cup,filler,D,25,cup15.jpg,cup35.jpg,GoalB,NULL
1687287464,b581b52b9caa40d927a510926fe7ba5b,PennController,22,0,experiment,NULL,PennController,21,_Header_,Start,1687287244898,5ec3a1a6e0ceef2078de1799,5ec3a1a6e0ceef2078de1799,19,cup,filler,D,25,cup15.jpg,cup35.jpg,GoalB,NULL
1687287464,b581b52b9caa40d927a510926fe7ba5b,PennController,22,0,experiment,NULL,PennController,21,_Header_,End,1687287244898,5ec3a1a6e0ceef2078de1799,5ec3a1a6e0ceef2078de1799,19,cup,filler,D,25,cup15.jpg,cup35.jpg,GoalB,NULL
1687287464,b581b52b9caa40d927a510926fe7ba5b,PennController,22,0,experiment,NULL,Video,progression,buffer,0,1687287248456,5ec3a1a6e0ceef2078de1799,5ec3a1a6e0ceef2078de1799,19,cup,filler,D,25,cup15.jpg,cup35.jpg,GoalB,NULL
1687287464,b581b52b9caa40d927a510926fe7ba5b,PennController,22,0,experiment,NULL,Canvas,canvas6,Print,NA,1687287250701,5ec3a1a6e0ceef2078de1799,5ec3a1a6e0ceef2078de1799,19,cup,filler,D,25,cup15.jpg,cup35.jpg,GoalB,NULL
1687287464,b581b52b9caa40d927a510926fe7ba5b,PennController,22,0,experiment,NULL,Selector,choice,Selection,option2,1687287252221,5ec3a1a6e0ceef2078de1799,5ec3a1a6e0ceef2078de1799,19,cup,filler,D,25,cup15.jpg,cup35.jpg,GoalB,option2;option1
1687287464,b581b52b9caa40d927a510926fe7ba5b,PennController,22,0,experiment,NULL,PennController,21,_Trial_,End,1687287252247,5ec3a1a6e0ceef2078de1799,5ec3a1a6e0ceef2078de1799,19,cup,filler,D,25,cup15.jpg,cup35.jpg,GoalB,NULL
1687287464,b581b52b9caa40d927a510926fe7ba5b,PennController,27,0,experiment,NULL,PennController,26,_Trial_,Start,1687287252254,5ec3a1a6e0ceef2078de1799,5ec3a1a6e0ceef2078de1799,24,match,filler,D,75,match65.jpg,match85.jpg,GoalA,NULL
1687287464,b581b52b9caa40d927a510926fe7ba5b,PennController,27,0,experiment,NULL,PennController,26,_Header_,Start,1687287252254,5ec3a1a6e0ceef2078de1799,5ec3a1a6e0ceef2078de1799,24,match,filler,D,75,match65.jpg,match85.jpg,GoalA,NULL
1687287464,b581b52b9caa40d927a510926fe7ba5b,PennController,27,0,experiment,NULL,PennController,26,_Header_,End,1687287252254,5ec3a1a6e0ceef2078de1799,5ec3a1a6e0ceef2078de1799,24,match,filler,D,75,match65.jpg,match85.jpg,GoalA,NULL
1687287464,b581b52b9caa40d927a510926fe7ba5b,PennController,27,0,experiment,NULL,Video,progression,buffer,0,1687287255805,5ec3a1a6e0ceef2078de1799,5ec3a1a6e0ceef2078de1799,24,match,filler,D,75,match65.jpg,match85.jpg,GoalA,NULL
1687287464,b581b52b9caa40d927a510926fe7ba5b,PennController,27,0,experiment,NULL,Canvas,canvas6,Print,NA,1687287260055,5ec3a1a6e0ceef2078de1799,5ec3a1a6e0ceef2078de1799,24,match,filler,D,75,match65.jpg,match85.jpg,GoalA,NULL
1687287464,b581b52b9caa40d927a510926fe7ba5b,PennController,27,0,experiment,NULL,Selector,choice,Selection,option1,1687287261700,5ec3a1a6e0ceef2078de1799,5ec3a1a6e0ceef2078de1799,24,match,filler,D,75,match65.jpg,match85.jpg,GoalA,option1;option2
1687287464,b581b52b9caa40d927a510926fe7ba5b,PennController,27,0,experiment,NULL,PennController,26,_Trial_,End,1687287261720,5ec3a1a6e0ceef2078de1799,5ec3a1a6e0ceef2078de1799,24,match,filler,D,75,match65.jpg,match85.jpg,GoalA,NULL
1687287464,b581b52b9caa40d927a510926fe7ba5b,PennController,28,0,experiment,NULL,PennController,27,_Trial_,Start,1687287261724,5ec3a1a6e0ceef2078de1799,5ec3a1a6e0ceef2078de1799,25,house,filler,D,25,house15.jpg,house35.jpg,GoalB,NULL
1687287464,b581b52b9caa40d927a510926fe7ba5b,PennController,28,0,experiment,NULL,PennController,27,_Header_,Start,1687287261724,5ec3a1a6e0ceef2078de1799,5ec3a1a6e0ceef2078de1799,25,house,filler,D,25,house15.jpg,house35.jpg,GoalB,NULL
1687287464,b581b52b9caa40d927a510926fe7ba5b,PennController,28,0,experiment,NULL,PennController,27,_Header_,End,1687287261724,5ec3a1a6e0ceef2078de1799,5ec3a1a6e0ceef2078de1799,25,house,filler,D,25,house15.jpg,house35.jpg,GoalB,NULL
1687287464,b581b52b9caa40d927a510926fe7ba5b,PennController,28,0,experiment,NULL,Video,progression,buffer,0,1687287265268,5ec3a1a6e0ceef2078de1799,5ec3a1a6e0ceef2078de1799,25,house,filler,D,25,house15.jpg,house35.jpg,GoalB,NULL
1687287464,b581b52b9caa40d927a510926fe7ba5b,PennController,28,0,experiment,NULL,Canvas,canvas6,Print,NA,1687287267521,5ec3a1a6e0ceef2078de1799,5ec3a1a6e0ceef2078de1799,25,house,filler,D,25,house15.jpg,house35.jpg,GoalB,NULL
1687287464,b581b52b9caa40d927a510926fe7ba5b,PennController,28,0,experiment,NULL,Selector,choice,Selection,option2,1687287269301,5ec3a1a6e0ceef2078de1799,5ec3a1a6e0ceef2078de1799,25,house,filler,D,25,house15.jpg,house35.jpg,GoalB,option2;option1
1687287464,b581b52b9caa40d927a510926fe7ba5b,PennController,28,0,experiment,NULL,PennController,27,_Trial_,End,1687287269332,5ec3a1a6e0ceef2078de1799,5ec3a1a6e0ceef2078de1799,25,house,filler,D,25,house15.jpg,house35.jpg,GoalB,NULL
1687287464,b581b52b9caa40d927a510926fe7ba5b,PennController,18,0,experiment,NULL,PennController,17,_Trial_,Start,1687287269338,5ec3a1a6e0ceef2078de1799,5ec3a1a6e0ceef2078de1799,15,zip,critical,D,75,zip65.jpg,zip85.jpg,high,NULL
1687287464,b581b52b9caa40d927a510926fe7ba5b,PennController,18,0,experiment,NULL,PennController,17,_Header_,Start,1687287269338,5ec3a1a6e0ceef2078de1799,5ec3a1a6e0ceef2078de1799,15,zip,critical,D,75,zip65.jpg,zip85.jpg,high,NULL
1687287464,b581b52b9caa40d927a510926fe7ba5b,PennController,18,0,experiment,NULL,PennController,17,_Header_,End,1687287269338,5ec3a1a6e0ceef2078de1799,5ec3a1a6e0ceef2078de1799,15,zip,critical,D,75,zip65.jpg,zip85.jpg,high,NULL
1687287464,b581b52b9caa40d927a510926fe7ba5b,PennController,18,0,experiment,NULL,Video,progression,buffer,0,1687287272883,5ec3a1a6e0ceef2078de1799,5ec3a1a6e0ceef2078de1799,15,zip,critical,D,75,zip65.jpg,zip85.jpg,high,NULL
1687287464,b581b52b9caa40d927a510926fe7ba5b,PennController,18,0,experiment,NULL,Canvas,canvas6,Print,NA,1687287276339,5ec3a1a6e0ceef2078de1799,5ec3a1a6e0ceef2078de1799,15,zip,critical,D,75,zip65.jpg,zip85.jpg,high,NULL
1687287464,b581b52b9caa40d927a510926fe7ba5b,PennController,18,0,experiment,NULL,Selector,choice,Selection,option2,1687287278359,5ec3a1a6e0ceef2078de1799,5ec3a1a6e0ceef2078de1799,15,zip,critical,D,75,zip65.jpg,zip85.jpg,high,option1;option2
1687287464,b581b52b9caa40d927a510926fe7ba5b,PennController,18,0,experiment,NULL,PennController,17,_Trial_,End,1687287278382,5ec3a1a6e0ceef2078de1799,5ec3a1a6e0ceef2078de1799,15,zip,critical,D,75,zip65.jpg,zip85.jpg,high,NULL
1687287464,b581b52b9caa40d927a510926fe7ba5b,PennController,4,0,experiment,NULL,PennController,3,_Trial_,Start,1687287278387,5ec3a1a6e0ceef2078de1799,5ec3a1a6e0ceef2078de1799,1,vase,critical,D,25,vase15.jpg,vase35.jpg,high,NULL
1687287464,b581b52b9caa40d927a510926fe7ba5b,PennController,4,0,experiment,NULL,PennController,3,_Header_,Start,1687287278387,5ec3a1a6e0ceef2078de1799,5ec3a1a6e0ceef2078de1799,1,vase,critical,D,25,vase15.jpg,vase35.jpg,high,NULL
1687287464,b581b52b9caa40d927a510926fe7ba5b,PennController,4,0,experiment,NULL,PennController,3,_Header_,End,1687287278387,5ec3a1a6e0ceef2078de1799,5ec3a1a6e0ceef2078de1799,1,vase,critical,D,25,vase15.jpg,vase35.jpg,high,NULL
1687287464,b581b52b9caa40d927a510926fe7ba5b,PennController,4,0,experiment,NULL,Video,progression,buffer,0,1687287281927,5ec3a1a6e0ceef2078de1799,5ec3a1a6e0ceef2078de1799,1,vase,critical,D,25,vase15.jpg,vase35.jpg,high,NULL
1687287464,b581b52b9caa40d927a510926fe7ba5b,PennController,4,0,experiment,NULL,Canvas,canvas6,Print,NA,1687287284170,5ec3a1a6e0ceef2078de1799,5ec3a1a6e0ceef2078de1799,1,vase,critical,D,25,vase15.jpg,vase35.jpg,high,NULL
1687287464,b581b52b9caa40d927a510926fe7ba5b,PennController,4,0,experiment,NULL,Selector,choice,Selection,option2,1687287285287,5ec3a1a6e0ceef2078de1799,5ec3a1a6e0ceef2078de1799,1,vase,critical,D,25,vase15.jpg,vase35.jpg,high,option1;option2
1687287464,b581b52b9caa40d927a510926fe7ba5b,PennController,4,0,experiment,NULL,PennController,3,_Trial_,End,1687287285309,5ec3a1a6e0ceef2078de1799,5ec3a1a6e0ceef2078de1799,1,vase,critical,D,25,vase15.jpg,vase35.jpg,high,NULL
1687287464,b581b52b9caa40d927a510926fe7ba5b,PennController,23,0,experiment,NULL,PennController,22,_Trial_,Start,1687287285313,5ec3a1a6e0ceef2078de1799,5ec3a1a6e0ceef2078de1799,20,cat,filler,D,50,cat40.jpg,cat60.jpg,GoalA,NULL
1687287464,b581b52b9caa40d927a510926fe7ba5b,PennController,23,0,experiment,NULL,PennController,22,_Header_,Start,1687287285313,5ec3a1a6e0ceef2078de1799,5ec3a1a6e0ceef2078de1799,20,cat,filler,D,50,cat40.jpg,cat60.jpg,GoalA,NULL
1687287464,b581b52b9caa40d927a510926fe7ba5b,PennController,23,0,experiment,NULL,PennController,22,_Header_,End,1687287285313,5ec3a1a6e0ceef2078de1799,5ec3a1a6e0ceef2078de1799,20,cat,filler,D,50,cat40.jpg,cat60.jpg,GoalA,NULL
1687287464,b581b52b9caa40d927a510926fe7ba5b,PennController,23,0,experiment,NULL,Video,progression,buffer,0,1687287288868,5ec3a1a6e0ceef2078de1799,5ec3a1a6e0ceef2078de1799,20,cat,filler,D,50,cat40.jpg,cat60.jpg,GoalA,NULL
1687287464,b581b52b9caa40d927a510926fe7ba5b,PennController,23,0,experiment,NULL,Canvas,canvas6,Print,NA,1687287292109,5ec3a1a6e0ceef2078de1799,5ec3a1a6e0ceef2078de1799,20,cat,filler,D,50,cat40.jpg,cat60.jpg,GoalA,NULL
1687287464,b581b52b9caa40d927a510926fe7ba5b,PennController,23,0,experiment,NULL,Selector,choice,Selection,option2,1687287293302,5ec3a1a6e0ceef2078de1799,5ec3a1a6e0ceef2078de1799,20,cat,filler,D,50,cat40.jpg,cat60.jpg,GoalA,option2;option1
1687287464,b581b52b9caa40d927a510926fe7ba5b,PennController,23,0,experiment,NULL,PennController,22,_Trial_,End,1687287293325,5ec3a1a6e0ceef2078de1799,5ec3a1a6e0ceef2078de1799,20,cat,filler,D,50,cat40.jpg,cat60.jpg,GoalA,NULL
1687287464,b581b52b9caa40d927a510926fe7ba5b,PennController,20,0,experiment,NULL,PennController,19,_Trial_,Start,1687287293328,5ec3a1a6e0ceef2078de1799,5ec3a1a6e0ceef2078de1799,17,roll,critical,D,50,roll40.jpg,roll60.jpg,high,NULL
1687287464,b581b52b9caa40d927a510926fe7ba5b,PennController,20,0,experiment,NULL,PennController,19,_Header_,Start,1687287293328,5ec3a1a6e0ceef2078de1799,5ec3a1a6e0ceef2078de1799,17,roll,critical,D,50,roll40.jpg,roll60.jpg,high,NULL
1687287464,b581b52b9caa40d927a510926fe7ba5b,PennController,20,0,experiment,NULL,PennController,19,_Header_,End,1687287293328,5ec3a1a6e0ceef2078de1799,5ec3a1a6e0ceef2078de1799,17,roll,critical,D,50,roll40.jpg,roll60.jpg,high,NULL
1687287464,b581b52b9caa40d927a510926fe7ba5b,PennController,20,0,experiment,NULL,Video,progression,buffer,0,1687287296885,5ec3a1a6e0ceef2078de1799,5ec3a1a6e0ceef2078de1799,17,roll,critical,D,50,roll40.jpg,roll60.jpg,high,NULL
1687287464,b581b52b9caa40d927a510926fe7ba5b,PennController,20,0,experiment,NULL,Canvas,canvas6,Print,NA,1687287300158,5ec3a1a6e0ceef2078de1799,5ec3a1a6e0ceef2078de1799,17,roll,critical,D,50,roll40.jpg,roll60.jpg,high,NULL
1687287464,b581b52b9caa40d927a510926fe7ba5b,PennController,20,0,experiment,NULL,Selector,choice,Selection,option1,1687287301372,5ec3a1a6e0ceef2078de1799,5ec3a1a6e0ceef2078de1799,17,roll,critical,D,50,roll40.jpg,roll60.jpg,high,option2;option1
1687287464,b581b52b9caa40d927a510926fe7ba5b,PennController,20,0,experiment,NULL,PennController,19,_Trial_,End,1687287301397,5ec3a1a6e0ceef2078de1799,5ec3a1a6e0ceef2078de1799,17,roll,critical,D,50,roll40.jpg,roll60.jpg,high,NULL
1687287464,b581b52b9caa40d927a510926fe7ba5b,PennController,13,0,experiment,NULL,PennController,12,_Trial_,Start,1687287301403,5ec3a1a6e0ceef2078de1799,5ec3a1a6e0ceef2078de1799,10,train,critical,D,25,train15.jpg,train35.jpg,high,NULL
1687287464,b581b52b9caa40d927a510926fe7ba5b,PennController,13,0,experiment,NULL,PennController,12,_Header_,Start,1687287301403,5ec3a1a6e0ceef2078de1799,5ec3a1a6e0ceef2078de1799,10,train,critical,D,25,train15.jpg,train35.jpg,high,NULL
1687287464,b581b52b9caa40d927a510926fe7ba5b,PennController,13,0,experiment,NULL,PennController,12,_Header_,End,1687287301403,5ec3a1a6e0ceef2078de1799,5ec3a1a6e0ceef2078de1799,10,train,critical,D,25,train15.jpg,train35.jpg,high,NULL
1687287464,b581b52b9caa40d927a510926fe7ba5b,PennController,13,0,experiment,NULL,Video,progression,buffer,0,1687287304953,5ec3a1a6e0ceef2078de1799,5ec3a1a6e0ceef2078de1799,10,train,critical,D,25,train15.jpg,train35.jpg,high,NULL
1687287464,b581b52b9caa40d927a510926fe7ba5b,PennController,13,0,experiment,NULL,Canvas,canvas6,Print,NA,1687287307208,5ec3a1a6e0ceef2078de1799,5ec3a1a6e0ceef2078de1799,10,train,critical,D,25,train15.jpg,train35.jpg,high,NULL
1687287464,b581b52b9caa40d927a510926fe7ba5b,PennController,13,0,experiment,NULL,Selector,choice,Selection,option2,1687287308750,5ec3a1a6e0ceef2078de1799,5ec3a1a6e0ceef2078de1799,10,train,critical,D,25,train15.jpg,train35.jpg,high,option1;option2
1687287464,b581b52b9caa40d927a510926fe7ba5b,PennController,13,0,experiment,NULL,PennController,12,_Trial_,End,1687287308774,5ec3a1a6e0ceef2078de1799,5ec3a1a6e0ceef2078de1799,10,train,critical,D,25,train15.jpg,train35.jpg,high,NULL
1687287464,b581b52b9caa40d927a510926fe7ba5b,PennController,25,0,experiment,NULL,PennController,24,_Trial_,Start,1687287308781,5ec3a1a6e0ceef2078de1799,5ec3a1a6e0ceef2078de1799,22,wall,filler,D,25,wall15.jpg,wall35.jpg,GoalA,NULL
1687287464,b581b52b9caa40d927a510926fe7ba5b,PennController,25,0,experiment,NULL,PennController,24,_Header_,Start,1687287308781,5ec3a1a6e0ceef2078de1799,5ec3a1a6e0ceef2078de1799,22,wall,filler,D,25,wall15.jpg,wall35.jpg,GoalA,NULL
1687287464,b581b52b9caa40d927a510926fe7ba5b,PennController,25,0,experiment,NULL,PennController,24,_Header_,End,1687287308781,5ec3a1a6e0ceef2078de1799,5ec3a1a6e0ceef2078de1799,22,wall,filler,D,25,wall15.jpg,wall35.jpg,GoalA,NULL
1687287464,b581b52b9caa40d927a510926fe7ba5b,PennController,25,0,experiment,NULL,Video,progression,buffer,0,1687287312319,5ec3a1a6e0ceef2078de1799,5ec3a1a6e0ceef2078de1799,22,wall,filler,D,25,wall15.jpg,wall35.jpg,GoalA,NULL
1687287464,b581b52b9caa40d927a510926fe7ba5b,PennController,25,0,experiment,NULL,Canvas,canvas6,Print,NA,1687287314560,5ec3a1a6e0ceef2078de1799,5ec3a1a6e0ceef2078de1799,22,wall,filler,D,25,wall15.jpg,wall35.jpg,GoalA,NULL
1687287464,b581b52b9caa40d927a510926fe7ba5b,PennController,25,0,experiment,NULL,Selector,choice,Selection,option1,1687287315891,5ec3a1a6e0ceef2078de1799,5ec3a1a6e0ceef2078de1799,22,wall,filler,D,25,wall15.jpg,wall35.jpg,GoalA,option1;option2
1687287464,b581b52b9caa40d927a510926fe7ba5b,PennController,25,0,experiment,NULL,PennController,24,_Trial_,End,1687287315910,5ec3a1a6e0ceef2078de1799,5ec3a1a6e0ceef2078de1799,22,wall,filler,D,25,wall15.jpg,wall35.jpg,GoalA,NULL
1687287464,b581b52b9caa40d927a510926fe7ba5b,PennController,14,0,experiment,NULL,PennController,13,_Trial_,Start,1687287315914,5ec3a1a6e0ceef2078de1799,5ec3a1a6e0ceef2078de1799,11,beads,critical,D,50,beads40.jpg,beads60.jpg,high,NULL
1687287464,b581b52b9caa40d927a510926fe7ba5b,PennController,14,0,experiment,NULL,PennController,13,_Header_,Start,1687287315914,5ec3a1a6e0ceef2078de1799,5ec3a1a6e0ceef2078de1799,11,beads,critical,D,50,beads40.jpg,beads60.jpg,high,NULL
1687287464,b581b52b9caa40d927a510926fe7ba5b,PennController,14,0,experiment,NULL,PennController,13,_Header_,End,1687287315914,5ec3a1a6e0ceef2078de1799,5ec3a1a6e0ceef2078de1799,11,beads,critical,D,50,beads40.jpg,beads60.jpg,high,NULL
1687287464,b581b52b9caa40d927a510926fe7ba5b,PennController,14,0,experiment,NULL,Video,progression,buffer,0,1687287319449,5ec3a1a6e0ceef2078de1799,5ec3a1a6e0ceef2078de1799,11,beads,critical,D,50,beads40.jpg,beads60.jpg,high,NULL
1687287464,b581b52b9caa40d927a510926fe7ba5b,PennController,14,0,experiment,NULL,Canvas,canvas6,Print,NA,1687287322690,5ec3a1a6e0ceef2078de1799,5ec3a1a6e0ceef2078de1799,11,beads,critical,D,50,beads40.jpg,beads60.jpg,high,NULL
1687287464,b581b52b9caa40d927a510926fe7ba5b,PennController,14,0,experiment,NULL,Selector,choice,Selection,option2,1687287324814,5ec3a1a6e0ceef2078de1799,5ec3a1a6e0ceef2078de1799,11,beads,critical,D,50,beads40.jpg,beads60.jpg,high,option2;option1
1687287464,b581b52b9caa40d927a510926fe7ba5b,PennController,14,0,experiment,NULL,PennController,13,_Trial_,End,1687287324839,5ec3a1a6e0ceef2078de1799,5ec3a1a6e0ceef2078de1799,11,beads,critical,D,50,beads40.jpg,beads60.jpg,high,NULL
1687287464,b581b52b9caa40d927a510926fe7ba5b,PennController,21,0,experiment,NULL,PennController,20,_Trial_,Start,1687287324843,5ec3a1a6e0ceef2078de1799,5ec3a1a6e0ceef2078de1799,18,ball,critical,D,75,ball65.jpg,ball85.jpg,high,NULL
1687287464,b581b52b9caa40d927a510926fe7ba5b,PennController,21,0,experiment,NULL,PennController,20,_Header_,Start,1687287324843,5ec3a1a6e0ceef2078de1799,5ec3a1a6e0ceef2078de1799,18,ball,critical,D,75,ball65.jpg,ball85.jpg,high,NULL
1687287464,b581b52b9caa40d927a510926fe7ba5b,PennController,21,0,experiment,NULL,PennController,20,_Header_,End,1687287324843,5ec3a1a6e0ceef2078de1799,5ec3a1a6e0ceef2078de1799,18,ball,critical,D,75,ball65.jpg,ball85.jpg,high,NULL
1687287464,b581b52b9caa40d927a510926fe7ba5b,PennController,21,0,experiment,NULL,Video,progression,buffer,0,1687287328386,5ec3a1a6e0ceef2078de1799,5ec3a1a6e0ceef2078de1799,18,ball,critical,D,75,ball65.jpg,ball85.jpg,high,NULL
1687287464,b581b52b9caa40d927a510926fe7ba5b,PennController,21,0,experiment,NULL,Canvas,canvas6,Print,NA,1687287332630,5ec3a1a6e0ceef2078de1799,5ec3a1a6e0ceef2078de1799,18,ball,critical,D,75,ball65.jpg,ball85.jpg,high,NULL
1687287464,b581b52b9caa40d927a510926fe7ba5b,PennController,21,0,experiment,NULL,Selector,choice,Selection,option2,1687287334613,5ec3a1a6e0ceef2078de1799,5ec3a1a6e0ceef2078de1799,18,ball,critical,D,75,ball65.jpg,ball85.jpg,high,option1;option2
1687287464,b581b52b9caa40d927a510926fe7ba5b,PennController,21,0,experiment,NULL,PennController,20,_Trial_,End,1687287334633,5ec3a1a6e0ceef2078de1799,5ec3a1a6e0ceef2078de1799,18,ball,critical,D,75,ball65.jpg,ball85.jpg,high,NULL
1687287464,b581b52b9caa40d927a510926fe7ba5b,PennController,31,0,experiment,NULL,PennController,30,_Trial_,Start,1687287334637,5ec3a1a6e0ceef2078de1799,5ec3a1a6e0ceef2078de1799,28,sort,filler,D,25,sort15.jpg,sort35.jpg,GoalA,NULL
1687287464,b581b52b9caa40d927a510926fe7ba5b,PennController,31,0,experiment,NULL,PennController,30,_Header_,Start,1687287334637,5ec3a1a6e0ceef2078de1799,5ec3a1a6e0ceef2078de1799,28,sort,filler,D,25,sort15.jpg,sort35.jpg,GoalA,NULL
1687287464,b581b52b9caa40d927a510926fe7ba5b,PennController,31,0,experiment,NULL,PennController,30,_Header_,End,1687287334638,5ec3a1a6e0ceef2078de1799,5ec3a1a6e0ceef2078de1799,28,sort,filler,D,25,sort15.jpg,sort35.jpg,GoalA,NULL
1687287464,b581b52b9caa40d927a510926fe7ba5b,PennController,31,0,experiment,NULL,Video,progression,buffer,0,1687287338186,5ec3a1a6e0ceef2078de1799,5ec3a1a6e0ceef2078de1799,28,sort,filler,D,25,sort15.jpg,sort35.jpg,GoalA,NULL
1687287464,b581b52b9caa40d927a510926fe7ba5b,PennController,31,0,experiment,NULL,Canvas,canvas6,Print,NA,1687287340443,5ec3a1a6e0ceef2078de1799,5ec3a1a6e0ceef2078de1799,28,sort,filler,D,25,sort15.jpg,sort35.jpg,GoalA,NULL
1687287464,b581b52b9caa40d927a510926fe7ba5b,PennController,31,0,experiment,NULL,Selector,choice,Selection,option1,1687287341903,5ec3a1a6e0ceef2078de1799,5ec3a1a6e0ceef2078de1799,28,sort,filler,D,25,sort15.jpg,sort35.jpg,GoalA,option1;option2
1687287464,b581b52b9caa40d927a510926fe7ba5b,PennController,31,0,experiment,NULL,PennController,30,_Trial_,End,1687287341925,5ec3a1a6e0ceef2078de1799,5ec3a1a6e0ceef2078de1799,28,sort,filler,D,25,sort15.jpg,sort35.jpg,GoalA,NULL
1687287464,b581b52b9caa40d927a510926fe7ba5b,PennController,15,0,experiment,NULL,PennController,14,_Trial_,Start,1687287341931,5ec3a1a6e0ceef2078de1799,5ec3a1a6e0ceef2078de1799,12,erase,critical,D,75,erase66.jpg,erase84.jpg,high,NULL
1687287464,b581b52b9caa40d927a510926fe7ba5b,PennController,15,0,experiment,NULL,PennController,14,_Header_,Start,1687287341931,5ec3a1a6e0ceef2078de1799,5ec3a1a6e0ceef2078de1799,12,erase,critical,D,75,erase66.jpg,erase84.jpg,high,NULL
1687287464,b581b52b9caa40d927a510926fe7ba5b,PennController,15,0,experiment,NULL,PennController,14,_Header_,End,1687287341931,5ec3a1a6e0ceef2078de1799,5ec3a1a6e0ceef2078de1799,12,erase,critical,D,75,erase66.jpg,erase84.jpg,high,NULL
1687287464,b581b52b9caa40d927a510926fe7ba5b,PennController,15,0,experiment,NULL,Video,progression,buffer,0,1687287345470,5ec3a1a6e0ceef2078de1799,5ec3a1a6e0ceef2078de1799,12,erase,critical,D,75,erase66.jpg,erase84.jpg,high,NULL
1687287464,b581b52b9caa40d927a510926fe7ba5b,PennController,15,0,experiment,NULL,Canvas,canvas6,Print,NA,1687287351724,5ec3a1a6e0ceef2078de1799,5ec3a1a6e0ceef2078de1799,12,erase,critical,D,75,erase66.jpg,erase84.jpg,high,NULL
1687287464,b581b52b9caa40d927a510926fe7ba5b,PennController,15,0,experiment,NULL,Selector,choice,Selection,option2,1687287354099,5ec3a1a6e0ceef2078de1799,5ec3a1a6e0ceef2078de1799,12,erase,critical,D,75,erase66.jpg,erase84.jpg,high,option1;option2
1687287464,b581b52b9caa40d927a510926fe7ba5b,PennController,15,0,experiment,NULL,PennController,14,_Trial_,End,1687287354121,5ec3a1a6e0ceef2078de1799,5ec3a1a6e0ceef2078de1799,12,erase,critical,D,75,erase66.jpg,erase84.jpg,high,NULL
1687287464,b581b52b9caa40d927a510926fe7ba5b,PennController,17,0,experiment,NULL,PennController,16,_Trial_,Start,1687287354126,5ec3a1a6e0ceef2078de1799,5ec3a1a6e0ceef2078de1799,14,cover,critical,D,50,cover42.jpg,cover60.jpg,high,NULL
1687287464,b581b52b9caa40d927a510926fe7ba5b,PennController,17,0,experiment,NULL,PennController,16,_Header_,Start,1687287354126,5ec3a1a6e0ceef2078de1799,5ec3a1a6e0ceef2078de1799,14,cover,critical,D,50,cover42.jpg,cover60.jpg,high,NULL
1687287464,b581b52b9caa40d927a510926fe7ba5b,PennController,17,0,experiment,NULL,PennController,16,_Header_,End,1687287354127,5ec3a1a6e0ceef2078de1799,5ec3a1a6e0ceef2078de1799,14,cover,critical,D,50,cover42.jpg,cover60.jpg,high,NULL
1687287464,b581b52b9caa40d927a510926fe7ba5b,PennController,17,0,experiment,NULL,Video,progression,buffer,0,1687287357682,5ec3a1a6e0ceef2078de1799,5ec3a1a6e0ceef2078de1799,14,cover,critical,D,50,cover42.jpg,cover60.jpg,high,NULL
1687287464,b581b52b9caa40d927a510926fe7ba5b,PennController,17,0,experiment,NULL,Canvas,canvas6,Print,NA,1687287362333,5ec3a1a6e0ceef2078de1799,5ec3a1a6e0ceef2078de1799,14,cover,critical,D,50,cover42.jpg,cover60.jpg,high,NULL
1687287464,b581b52b9caa40d927a510926fe7ba5b,PennController,17,0,experiment,NULL,Selector,choice,Selection,option1,1687287363307,5ec3a1a6e0ceef2078de1799,5ec3a1a6e0ceef2078de1799,14,cover,critical,D,50,cover42.jpg,cover60.jpg,high,option2;option1
1687287464,b581b52b9caa40d927a510926fe7ba5b,PennController,17,0,experiment,NULL,PennController,16,_Trial_,End,1687287363333,5ec3a1a6e0ceef2078de1799,5ec3a1a6e0ceef2078de1799,14,cover,critical,D,50,cover42.jpg,cover60.jpg,high,NULL
1687287464,b581b52b9caa40d927a510926fe7ba5b,PennController,8,0,experiment,NULL,PennController,7,_Trial_,Start,1687287363338,5ec3a1a6e0ceef2078de1799,5ec3a1a6e0ceef2078de1799,5,book,critical,D,50,book40.jpg,book60.jpg,high,NULL
1687287464,b581b52b9caa40d927a510926fe7ba5b,PennController,8,0,experiment,NULL,PennController,7,_Header_,Start,1687287363338,5ec3a1a6e0ceef2078de1799,5ec3a1a6e0ceef2078de1799,5,book,critical,D,50,book40.jpg,book60.jpg,high,NULL
1687287464,b581b52b9caa40d927a510926fe7ba5b,PennController,8,0,experiment,NULL,PennController,7,_Header_,End,1687287363339,5ec3a1a6e0ceef2078de1799,5ec3a1a6e0ceef2078de1799,5,book,critical,D,50,book40.jpg,book60.jpg,high,NULL
1687287464,b581b52b9caa40d927a510926fe7ba5b,PennController,8,0,experiment,NULL,Video,progression,buffer,0,1687287366877,5ec3a1a6e0ceef2078de1799,5ec3a1a6e0ceef2078de1799,5,book,critical,D,50,book40.jpg,book60.jpg,high,NULL
1687287464,b581b52b9caa40d927a510926fe7ba5b,PennController,8,0,experiment,NULL,Canvas,canvas6,Print,NA,1687287370129,5ec3a1a6e0ceef2078de1799,5ec3a1a6e0ceef2078de1799,5,book,critical,D,50,book40.jpg,book60.jpg,high,NULL
1687287464,b581b52b9caa40d927a510926fe7ba5b,PennController,8,0,experiment,NULL,Selector,choice,Selection,option1,1687287374116,5ec3a1a6e0ceef2078de1799,5ec3a1a6e0ceef2078de1799,5,book,critical,D,50,book40.jpg,book60.jpg,high,option1;option2
1687287464,b581b52b9caa40d927a510926fe7ba5b,PennController,8,0,experiment,NULL,PennController,7,_Trial_,End,1687287374145,5ec3a1a6e0ceef2078de1799,5ec3a1a6e0ceef2078de1799,5,book,critical,D,50,book40.jpg,book60.jpg,high,NULL
1687287464,b581b52b9caa40d927a510926fe7ba5b,PennController,16,0,experiment,NULL,PennController,15,_Trial_,Start,1687287374150,5ec3a1a6e0ceef2078de1799,5ec3a1a6e0ceef2078de1799,13,mix,critical,D,25,mix15.jpg,mix35.jpg,high,NULL
1687287464,b581b52b9caa40d927a510926fe7ba5b,PennController,16,0,experiment,NULL,PennController,15,_Header_,Start,1687287374150,5ec3a1a6e0ceef2078de1799,5ec3a1a6e0ceef2078de1799,13,mix,critical,D,25,mix15.jpg,mix35.jpg,high,NULL
1687287464,b581b52b9caa40d927a510926fe7ba5b,PennController,16,0,experiment,NULL,PennController,15,_Header_,End,1687287374150,5ec3a1a6e0ceef2078de1799,5ec3a1a6e0ceef2078de1799,13,mix,critical,D,25,mix15.jpg,mix35.jpg,high,NULL
1687287464,b581b52b9caa40d927a510926fe7ba5b,PennController,16,0,experiment,NULL,Video,progression,buffer,0,1687287377687,5ec3a1a6e0ceef2078de1799,5ec3a1a6e0ceef2078de1799,13,mix,critical,D,25,mix15.jpg,mix35.jpg,high,NULL
1687287464,b581b52b9caa40d927a510926fe7ba5b,PennController,16,0,experiment,NULL,Canvas,canvas6,Print,NA,1687287379949,5ec3a1a6e0ceef2078de1799,5ec3a1a6e0ceef2078de1799,13,mix,critical,D,25,mix15.jpg,mix35.jpg,high,NULL
1687287464,b581b52b9caa40d927a510926fe7ba5b,PennController,16,0,experiment,NULL,Selector,choice,Selection,option2,1687287382610,5ec3a1a6e0ceef2078de1799,5ec3a1a6e0ceef2078de1799,13,mix,critical,D,25,mix15.jpg,mix35.jpg,high,option1;option2
1687287464,b581b52b9caa40d927a510926fe7ba5b,PennController,16,0,experiment,NULL,PennController,15,_Trial_,End,1687287382634,5ec3a1a6e0ceef2078de1799,5ec3a1a6e0ceef2078de1799,13,mix,critical,D,25,mix15.jpg,mix35.jpg,high,NULL
1687287464,b581b52b9caa40d927a510926fe7ba5b,PennController,19,0,experiment,NULL,PennController,18,_Trial_,Start,1687287382639,5ec3a1a6e0ceef2078de1799,5ec3a1a6e0ceef2078de1799,16,blinds,critical,D,25,blinds15.jpg,blinds33.jpg,high,NULL
1687287464,b581b52b9caa40d927a510926fe7ba5b,PennController,19,0,experiment,NULL,PennController,18,_Header_,Start,1687287382639,5ec3a1a6e0ceef2078de1799,5ec3a1a6e0ceef2078de1799,16,blinds,critical,D,25,blinds15.jpg,blinds33.jpg,high,NULL
1687287464,b581b52b9caa40d927a510926fe7ba5b,PennController,19,0,experiment,NULL,PennController,18,_Header_,End,1687287382639,5ec3a1a6e0ceef2078de1799,5ec3a1a6e0ceef2078de1799,16,blinds,critical,D,25,blinds15.jpg,blinds33.jpg,high,NULL
1687287464,b581b52b9caa40d927a510926fe7ba5b,PennController,19,0,experiment,NULL,Video,progression,buffer,0,1687287386179,5ec3a1a6e0ceef2078de1799,5ec3a1a6e0ceef2078de1799,16,blinds,critical,D,25,blinds15.jpg,blinds33.jpg,high,NULL
1687287464,b581b52b9caa40d927a510926fe7ba5b,PennController,19,0,experiment,NULL,Canvas,canvas6,Print,NA,1687287389025,5ec3a1a6e0ceef2078de1799,5ec3a1a6e0ceef2078de1799,16,blinds,critical,D,25,blinds15.jpg,blinds33.jpg,high,NULL
1687287464,b581b52b9caa40d927a510926fe7ba5b,PennController,19,0,experiment,NULL,Selector,choice,Selection,option1,1687287390485,5ec3a1a6e0ceef2078de1799,5ec3a1a6e0ceef2078de1799,16,blinds,critical,D,25,blinds15.jpg,blinds33.jpg,high,option2;option1
1687287464,b581b52b9caa40d927a510926fe7ba5b,PennController,19,0,experiment,NULL,PennController,18,_Trial_,End,1687287390507,5ec3a1a6e0ceef2078de1799,5ec3a1a6e0ceef2078de1799,16,blinds,critical,D,25,blinds15.jpg,blinds33.jpg,high,NULL
1687287464,b581b52b9caa40d927a510926fe7ba5b,PennController,11,0,experiment,NULL,PennController,10,_Trial_,Start,1687287390511,5ec3a1a6e0ceef2078de1799,5ec3a1a6e0ceef2078de1799,8,cucumber,critical,D,50,cucumber42.jpg,cucumber60.jpg,high,NULL
1687287464,b581b52b9caa40d927a510926fe7ba5b,PennController,11,0,experiment,NULL,PennController,10,_Header_,Start,1687287390511,5ec3a1a6e0ceef2078de1799,5ec3a1a6e0ceef2078de1799,8,cucumber,critical,D,50,cucumber42.jpg,cucumber60.jpg,high,NULL
1687287464,b581b52b9caa40d927a510926fe7ba5b,PennController,11,0,experiment,NULL,PennController,10,_Header_,End,1687287390511,5ec3a1a6e0ceef2078de1799,5ec3a1a6e0ceef2078de1799,8,cucumber,critical,D,50,cucumber42.jpg,cucumber60.jpg,high,NULL
1687287464,b581b52b9caa40d927a510926fe7ba5b,PennController,11,0,experiment,NULL,Video,progression,buffer,0,1687287394066,5ec3a1a6e0ceef2078de1799,5ec3a1a6e0ceef2078de1799,8,cucumber,critical,D,50,cucumber42.jpg,cucumber60.jpg,high,NULL
1687287464,b581b52b9caa40d927a510926fe7ba5b,PennController,11,0,experiment,NULL,Canvas,canvas6,Print,NA,1687287398718,5ec3a1a6e0ceef2078de1799,5ec3a1a6e0ceef2078de1799,8,cucumber,critical,D,50,cucumber42.jpg,cucumber60.jpg,high,NULL
1687287464,b581b52b9caa40d927a510926fe7ba5b,PennController,11,0,experiment,NULL,Selector,choice,Selection,option1,1687287401229,5ec3a1a6e0ceef2078de1799,5ec3a1a6e0ceef2078de1799,8,cucumber,critical,D,50,cucumber42.jpg,cucumber60.jpg,high,option1;option2
1687287464,b581b52b9caa40d927a510926fe7ba5b,PennController,11,0,experiment,NULL,PennController,10,_Trial_,End,1687287401260,5ec3a1a6e0ceef2078de1799,5ec3a1a6e0ceef2078de1799,8,cucumber,critical,D,50,cucumber42.jpg,cucumber60.jpg,high,NULL
1687287464,b581b52b9caa40d927a510926fe7ba5b,PennController,12,0,experiment,NULL,PennController,11,_Trial_,Start,1687287401265,5ec3a1a6e0ceef2078de1799,5ec3a1a6e0ceef2078de1799,9,cake,critical,D,75,cake66.jpg,cake84.jpg,high,NULL
1687287464,b581b52b9caa40d927a510926fe7ba5b,PennController,12,0,experiment,NULL,PennController,11,_Header_,Start,1687287401265,5ec3a1a6e0ceef2078de1799,5ec3a1a6e0ceef2078de1799,9,cake,critical,D,75,cake66.jpg,cake84.jpg,high,NULL
1687287464,b581b52b9caa40d927a510926fe7ba5b,PennController,12,0,experiment,NULL,PennController,11,_Header_,End,1687287401265,5ec3a1a6e0ceef2078de1799,5ec3a1a6e0ceef2078de1799,9,cake,critical,D,75,cake66.jpg,cake84.jpg,high,NULL
1687287464,b581b52b9caa40d927a510926fe7ba5b,PennController,12,0,experiment,NULL,Video,progression,buffer,0,1687287404814,5ec3a1a6e0ceef2078de1799,5ec3a1a6e0ceef2078de1799,9,cake,critical,D,75,cake66.jpg,cake84.jpg,high,NULL
1687287464,b581b52b9caa40d927a510926fe7ba5b,PennController,12,0,experiment,NULL,Canvas,canvas6,Print,NA,1687287411062,5ec3a1a6e0ceef2078de1799,5ec3a1a6e0ceef2078de1799,9,cake,critical,D,75,cake66.jpg,cake84.jpg,high,NULL
1687287464,b581b52b9caa40d927a510926fe7ba5b,PennController,12,0,experiment,NULL,Selector,choice,Selection,option1,1687287412448,5ec3a1a6e0ceef2078de1799,5ec3a1a6e0ceef2078de1799,9,cake,critical,D,75,cake66.jpg,cake84.jpg,high,option1;option2
1687287464,b581b52b9caa40d927a510926fe7ba5b,PennController,12,0,experiment,NULL,PennController,11,_Trial_,End,1687287412466,5ec3a1a6e0ceef2078de1799,5ec3a1a6e0ceef2078de1799,9,cake,critical,D,75,cake66.jpg,cake84.jpg,high,NULL
1687287464,b581b52b9caa40d927a510926fe7ba5b,PennController,7,0,experiment,NULL,PennController,6,_Trial_,Start,1687287412469,5ec3a1a6e0ceef2078de1799,5ec3a1a6e0ceef2078de1799,4,candy,critical,D,25,candy15.jpg,candy35.jpg,high,NULL
1687287464,b581b52b9caa40d927a510926fe7ba5b,PennController,7,0,experiment,NULL,PennController,6,_Header_,Start,1687287412469,5ec3a1a6e0ceef2078de1799,5ec3a1a6e0ceef2078de1799,4,candy,critical,D,25,candy15.jpg,candy35.jpg,high,NULL
1687287464,b581b52b9caa40d927a510926fe7ba5b,PennController,7,0,experiment,NULL,PennController,6,_Header_,End,1687287412470,5ec3a1a6e0ceef2078de1799,5ec3a1a6e0ceef2078de1799,4,candy,critical,D,25,candy15.jpg,candy35.jpg,high,NULL
1687287464,b581b52b9caa40d927a510926fe7ba5b,PennController,7,0,experiment,NULL,Video,progression,buffer,0,1687287416010,5ec3a1a6e0ceef2078de1799,5ec3a1a6e0ceef2078de1799,4,candy,critical,D,25,candy15.jpg,candy35.jpg,high,NULL
1687287464,b581b52b9caa40d927a510926fe7ba5b,PennController,7,0,experiment,NULL,Canvas,canvas6,Print,NA,1687287418255,5ec3a1a6e0ceef2078de1799,5ec3a1a6e0ceef2078de1799,4,candy,critical,D,25,candy15.jpg,candy35.jpg,high,NULL
1687287464,b581b52b9caa40d927a510926fe7ba5b,PennController,7,0,experiment,NULL,Selector,choice,Selection,option1,1687287421063,5ec3a1a6e0ceef2078de1799,5ec3a1a6e0ceef2078de1799,4,candy,critical,D,25,candy15.jpg,candy35.jpg,high,option2;option1
1687287464,b581b52b9caa40d927a510926fe7ba5b,PennController,7,0,experiment,NULL,PennController,6,_Trial_,End,1687287421083,5ec3a1a6e0ceef2078de1799,5ec3a1a6e0ceef2078de1799,4,candy,critical,D,25,candy15.jpg,candy35.jpg,high,NULL
1687287464,b581b52b9caa40d927a510926fe7ba5b,PennController,32,0,experiment,NULL,PennController,31,_Trial_,Start,1687287421088,5ec3a1a6e0ceef2078de1799,5ec3a1a6e0ceef2078de1799,29,frog,filler,D,50,frog40.jpg,frog60.jpg,GoalB,NULL
1687287464,b581b52b9caa40d927a510926fe7ba5b,PennController,32,0,experiment,NULL,PennController,31,_Header_,Start,1687287421088,5ec3a1a6e0ceef2078de1799,5ec3a1a6e0ceef2078de1799,29,frog,filler,D,50,frog40.jpg,frog60.jpg,GoalB,NULL
1687287464,b581b52b9caa40d927a510926fe7ba5b,PennController,32,0,experiment,NULL,PennController,31,_Header_,End,1687287421088,5ec3a1a6e0ceef2078de1799,5ec3a1a6e0ceef2078de1799,29,frog,filler,D,50,frog40.jpg,frog60.jpg,GoalB,NULL
1687287464,b581b52b9caa40d927a510926fe7ba5b,PennController,32,0,experiment,NULL,Video,progression,buffer,0,1687287424620,5ec3a1a6e0ceef2078de1799,5ec3a1a6e0ceef2078de1799,29,frog,filler,D,50,frog40.jpg,frog60.jpg,GoalB,NULL
1687287464,b581b52b9caa40d927a510926fe7ba5b,PennController,32,0,experiment,NULL,Canvas,canvas6,Print,NA,1687287427860,5ec3a1a6e0ceef2078de1799,5ec3a1a6e0ceef2078de1799,29,frog,filler,D,50,frog40.jpg,frog60.jpg,GoalB,NULL
1687287464,b581b52b9caa40d927a510926fe7ba5b,PennController,32,0,experiment,NULL,Selector,choice,Selection,option1,1687287429502,5ec3a1a6e0ceef2078de1799,5ec3a1a6e0ceef2078de1799,29,frog,filler,D,50,frog40.jpg,frog60.jpg,GoalB,option1;option2
1687287464,b581b52b9caa40d927a510926fe7ba5b,PennController,32,0,experiment,NULL,PennController,31,_Trial_,End,1687287429523,5ec3a1a6e0ceef2078de1799,5ec3a1a6e0ceef2078de1799,29,frog,filler,D,50,frog40.jpg,frog60.jpg,GoalB,NULL
1687287464,b581b52b9caa40d927a510926fe7ba5b,PennController,6,0,experiment,NULL,PennController,5,_Trial_,Start,1687287429527,5ec3a1a6e0ceef2078de1799,5ec3a1a6e0ceef2078de1799,3,clean,critical,D,75,clean65.jpg,clean85.jpg,high,NULL
1687287464,b581b52b9caa40d927a510926fe7ba5b,PennController,6,0,experiment,NULL,PennController,5,_Header_,Start,1687287429527,5ec3a1a6e0ceef2078de1799,5ec3a1a6e0ceef2078de1799,3,clean,critical,D,75,clean65.jpg,clean85.jpg,high,NULL
1687287464,b581b52b9caa40d927a510926fe7ba5b,PennController,6,0,experiment,NULL,PennController,5,_Header_,End,1687287429527,5ec3a1a6e0ceef2078de1799,5ec3a1a6e0ceef2078de1799,3,clean,critical,D,75,clean65.jpg,clean85.jpg,high,NULL
1687287464,b581b52b9caa40d927a510926fe7ba5b,PennController,6,0,experiment,NULL,Video,progression,buffer,0,1687287433057,5ec3a1a6e0ceef2078de1799,5ec3a1a6e0ceef2078de1799,3,clean,critical,D,75,clean65.jpg,clean85.jpg,high,NULL
1687287464,b581b52b9caa40d927a510926fe7ba5b,PennController,6,0,experiment,NULL,Canvas,canvas6,Print,NA,1687287437305,5ec3a1a6e0ceef2078de1799,5ec3a1a6e0ceef2078de1799,3,clean,critical,D,75,clean65.jpg,clean85.jpg,high,NULL
1687287464,b581b52b9caa40d927a510926fe7ba5b,PennController,6,0,experiment,NULL,Selector,choice,Selection,option1,1687287438284,5ec3a1a6e0ceef2078de1799,5ec3a1a6e0ceef2078de1799,3,clean,critical,D,75,clean65.jpg,clean85.jpg,high,option2;option1
1687287464,b581b52b9caa40d927a510926fe7ba5b,PennController,6,0,experiment,NULL,PennController,5,_Trial_,End,1687287438310,5ec3a1a6e0ceef2078de1799,5ec3a1a6e0ceef2078de1799,3,clean,critical,D,75,clean65.jpg,clean85.jpg,high,NULL
1687287464,b581b52b9caa40d927a510926fe7ba5b,PennController,5,0,experiment,NULL,PennController,4,_Trial_,Start,1687287438318,5ec3a1a6e0ceef2078de1799,5ec3a1a6e0ceef2078de1799,2,door,critical,D,50,door40.jpg,door60.jpg,high,NULL
1687287464,b581b52b9caa40d927a510926fe7ba5b,PennController,5,0,experiment,NULL,PennController,4,_Header_,Start,1687287438318,5ec3a1a6e0ceef2078de1799,5ec3a1a6e0ceef2078de1799,2,door,critical,D,50,door40.jpg,door60.jpg,high,NULL
1687287464,b581b52b9caa40d927a510926fe7ba5b,PennController,5,0,experiment,NULL,PennController,4,_Header_,End,1687287438318,5ec3a1a6e0ceef2078de1799,5ec3a1a6e0ceef2078de1799,2,door,critical,D,50,door40.jpg,door60.jpg,high,NULL
1687287464,b581b52b9caa40d927a510926fe7ba5b,PennController,5,0,experiment,NULL,Video,progression,buffer,0,1687287441849,5ec3a1a6e0ceef2078de1799,5ec3a1a6e0ceef2078de1799,2,door,critical,D,50,door40.jpg,door60.jpg,high,NULL
1687287464,b581b52b9caa40d927a510926fe7ba5b,PennController,5,0,experiment,NULL,Canvas,canvas6,Print,NA,1687287445090,5ec3a1a6e0ceef2078de1799,5ec3a1a6e0ceef2078de1799,2,door,critical,D,50,door40.jpg,door60.jpg,high,NULL
1687287464,b581b52b9caa40d927a510926fe7ba5b,PennController,5,0,experiment,NULL,Selector,choice,Selection,option1,1687287446781,5ec3a1a6e0ceef2078de1799,5ec3a1a6e0ceef2078de1799,2,door,critical,D,50,door40.jpg,door60.jpg,high,option2;option1
1687287464,b581b52b9caa40d927a510926fe7ba5b,PennController,5,0,experiment,NULL,PennController,4,_Trial_,End,1687287446804,5ec3a1a6e0ceef2078de1799,5ec3a1a6e0ceef2078de1799,2,door,critical,D,50,door40.jpg,door60.jpg,high,NULL
1687287464,b581b52b9caa40d927a510926fe7ba5b,PennController,30,0,experiment,NULL,PennController,29,_Trial_,Start,1687287446808,5ec3a1a6e0ceef2078de1799,5ec3a1a6e0ceef2078de1799,27,square,filler,D,75,square65.jpg,square85.jpg,GoalB,NULL
1687287464,b581b52b9caa40d927a510926fe7ba5b,PennController,30,0,experiment,NULL,PennController,29,_Header_,Start,1687287446808,5ec3a1a6e0ceef2078de1799,5ec3a1a6e0ceef2078de1799,27,square,filler,D,75,square65.jpg,square85.jpg,GoalB,NULL
1687287464,b581b52b9caa40d927a510926fe7ba5b,PennController,30,0,experiment,NULL,PennController,29,_Header_,End,1687287446808,5ec3a1a6e0ceef2078de1799,5ec3a1a6e0ceef2078de1799,27,square,filler,D,75,square65.jpg,square85.jpg,GoalB,NULL
1687287464,b581b52b9caa40d927a510926fe7ba5b,PennController,30,0,experiment,NULL,Video,progression,buffer,0,1687287450348,5ec3a1a6e0ceef2078de1799,5ec3a1a6e0ceef2078de1799,27,square,filler,D,75,square65.jpg,square85.jpg,GoalB,NULL
1687287464,b581b52b9caa40d927a510926fe7ba5b,PennController,30,0,experiment,NULL,Canvas,canvas6,Print,NA,1687287454615,5ec3a1a6e0ceef2078de1799,5ec3a1a6e0ceef2078de1799,27,square,filler,D,75,square65.jpg,square85.jpg,GoalB,NULL
1687287464,b581b52b9caa40d927a510926fe7ba5b,PennController,30,0,experiment,NULL,Selector,choice,Selection,option1,1687287455764,5ec3a1a6e0ceef2078de1799,5ec3a1a6e0ceef2078de1799,27,square,filler,D,75,square65.jpg,square85.jpg,GoalB,option2;option1
1687287464,b581b52b9caa40d927a510926fe7ba5b,PennController,30,0,experiment,NULL,PennController,29,_Trial_,End,1687287455793,5ec3a1a6e0ceef2078de1799,5ec3a1a6e0ceef2078de1799,27,square,filler,D,75,square65.jpg,square85.jpg,GoalB,NULL
1687287464,b581b52b9caa40d927a510926fe7ba5b,PennController,9,0,experiment,NULL,PennController,8,_Trial_,Start,1687287455799,5ec3a1a6e0ceef2078de1799,5ec3a1a6e0ceef2078de1799,6,flower,critical,D,75,flower65.jpg,flower85.jpg,high,NULL
1687287464,b581b52b9caa40d927a510926fe7ba5b,PennController,9,0,experiment,NULL,PennController,8,_Header_,Start,1687287455799,5ec3a1a6e0ceef2078de1799,5ec3a1a6e0ceef2078de1799,6,flower,critical,D,75,flower65.jpg,flower85.jpg,high,NULL
1687287464,b581b52b9caa40d927a510926fe7ba5b,PennController,9,0,experiment,NULL,PennController,8,_Header_,End,1687287455799,5ec3a1a6e0ceef2078de1799,5ec3a1a6e0ceef2078de1799,6,flower,critical,D,75,flower65.jpg,flower85.jpg,high,NULL
1687287464,b581b52b9caa40d927a510926fe7ba5b,PennController,9,0,experiment,NULL,Video,progression,buffer,0,1687287459340,5ec3a1a6e0ceef2078de1799,5ec3a1a6e0ceef2078de1799,6,flower,critical,D,75,flower65.jpg,flower85.jpg,high,NULL
1687287464,b581b52b9caa40d927a510926fe7ba5b,PennController,9,0,experiment,NULL,Canvas,canvas6,Print,NA,1687287463590,5ec3a1a6e0ceef2078de1799,5ec3a1a6e0ceef2078de1799,6,flower,critical,D,75,flower65.jpg,flower85.jpg,high,NULL
1687287464,b581b52b9caa40d927a510926fe7ba5b,PennController,9,0,experiment,NULL,Selector,choice,Selection,option2,1687287465297,5ec3a1a6e0ceef2078de1799,5ec3a1a6e0ceef2078de1799,6,flower,critical,D,75,flower65.jpg,flower85.jpg,high,option2;option1
1687287464,b581b52b9caa40d927a510926fe7ba5b,PennController,9,0,experiment,NULL,PennController,8,_Trial_,End,1687287465315,5ec3a1a6e0ceef2078de1799,5ec3a1a6e0ceef2078de1799,6,flower,critical,D,75,flower65.jpg,flower85.jpg,high,NULL
