#
# Results on Tuesday June 20 2023 19:00:05 UTC
# USER AGENT: Mozilla/5.0 (Windows NT 10.0; Win64; x64) AppleWebKit/537.36 (KHTML, like Gecko) Chrome/114.0.0.0 Safari/537.36 Edg/114.0.1823.43
# Design number was non-random = 9
#
# Columns below this comment are as follows:
# 1. Results reception time.
# 2. MD5 hash of participant's IP address.
# 3. Controller name.
# 4. Order number of item.
# 5. Inner element number.
# 6. Label.
# 7. Latin Square Group.
# 8. PennElementType.
# 9. PennElementName.
# 10. Parameter.
# 11. Value.
# 12. EventTime.
# 13. PROLIFIC_ID.
# 14. Comments.
1687287605,b734a05af68cbf8d9de6a4a2e809f3b6,PennController,2,0,consent,NULL,PennController,0,_Trial_,Start,1687287245747,61519430f27aba4a190edbc1,NULL
1687287605,b734a05af68cbf8d9de6a4a2e809f3b6,PennController,2,0,consent,NULL,PennController,0,_Header_,Start,1687287245747,61519430f27aba4a190edbc1,NULL
1687287605,b734a05af68cbf8d9de6a4a2e809f3b6,PennController,2,0,consent,NULL,PennController,0,_Header_,End,1687287245748,61519430f27aba4a190edbc1,NULL
1687287605,b734a05af68cbf8d9de6a4a2e809f3b6,PennController,2,0,consent,NULL,PennController,0,_Trial_,End,1687287303458,61519430f27aba4a190edbc1,NULL
# Columns below this comment are as follows:
# 14. ID.
# 15. Comments.
1687287605,b734a05af68cbf8d9de6a4a2e809f3b6,PennController,3,0,intro,NULL,PennController,1,_Trial_,Start,1687287303462,61519430f27aba4a190edbc1,61519430f27aba4a190edbc1,NULL
1687287605,b734a05af68cbf8d9de6a4a2e809f3b6,PennController,3,0,intro,NULL,PennController,1,_Header_,Start,1687287303462,61519430f27aba4a190edbc1,61519430f27aba4a190edbc1,NULL
1687287605,b734a05af68cbf8d9de6a4a2e809f3b6,PennController,3,0,intro,NULL,PennController,1,_Header_,End,1687287303462,61519430f27aba4a190edbc1,61519430f27aba4a190edbc1,NULL
1687287605,b734a05af68cbf8d9de6a4a2e809f3b6,PennController,3,0,intro,NULL,PennController,1,_Trial_,End,1687287339252,61519430f27aba4a190edbc1,61519430f27aba4a190edbc1,NULL
# Columns below this comment are as follows:
# 15. item_number.
# 16. item.
# 17. type.
# 18. Group.
# 19. prog.
# 20. prev_image.
# 21. next_image.
# 22. height.
# 23. Comments.
1687287605,b734a05af68cbf8d9de6a4a2e809f3b6,PennController,22,0,experiment,NULL,PennController,21,_Trial_,Start,1687287339257,61519430f27aba4a190edbc1,61519430f27aba4a190edbc1,19,cup,filler,D,25,cup15.jpg,cup35.jpg,GoalB,NULL
1687287605,b734a05af68cbf8d9de6a4a2e809f3b6,PennController,22,0,experiment,NULL,PennController,21,_Header_,Start,1687287339257,61519430f27aba4a190edbc1,61519430f27aba4a190edbc1,19,cup,filler,D,25,cup15.jpg,cup35.jpg,GoalB,NULL
1687287605,b734a05af68cbf8d9de6a4a2e809f3b6,PennController,22,0,experiment,NULL,PennController,21,_Header_,End,1687287339257,61519430f27aba4a190edbc1,61519430f27aba4a190edbc1,19,cup,filler,D,25,cup15.jpg,cup35.jpg,GoalB,NULL
1687287605,b734a05af68cbf8d9de6a4a2e809f3b6,PennController,22,0,experiment,NULL,Canvas,canvas6,Print,NA,1687287344979,61519430f27aba4a190edbc1,61519430f27aba4a190edbc1,19,cup,filler,D,25,cup15.jpg,cup35.jpg,GoalB,NULL
1687287605,b734a05af68cbf8d9de6a4a2e809f3b6,PennController,22,0,experiment,NULL,Video,progression,buffer,0.006906,1687287342814,61519430f27aba4a190edbc1,61519430f27aba4a190edbc1,19,cup,filler,D,25,cup15.jpg,cup35.jpg,GoalB,NULL
1687287605,b734a05af68cbf8d9de6a4a2e809f3b6,PennController,22,0,experiment,NULL,Selector,choice,Selection,option2,1687287347000,61519430f27aba4a190edbc1,61519430f27aba4a190edbc1,19,cup,filler,D,25,cup15.jpg,cup35.jpg,GoalB,option1;option2
1687287605,b734a05af68cbf8d9de6a4a2e809f3b6,PennController,22,0,experiment,NULL,PennController,21,_Trial_,End,1687287347004,61519430f27aba4a190edbc1,61519430f27aba4a190edbc1,19,cup,filler,D,25,cup15.jpg,cup35.jpg,GoalB,NULL
1687287605,b734a05af68cbf8d9de6a4a2e809f3b6,PennController,19,0,experiment,NULL,PennController,18,_Trial_,Start,1687287347006,61519430f27aba4a190edbc1,61519430f27aba4a190edbc1,16,blinds,critical,D,25,blinds15.jpg,blinds33.jpg,high,NULL
1687287605,b734a05af68cbf8d9de6a4a2e809f3b6,PennController,19,0,experiment,NULL,PennController,18,_Header_,Start,1687287347006,61519430f27aba4a190edbc1,61519430f27aba4a190edbc1,16,blinds,critical,D,25,blinds15.jpg,blinds33.jpg,high,NULL
1687287605,b734a05af68cbf8d9de6a4a2e809f3b6,PennController,19,0,experiment,NULL,PennController,18,_Header_,End,1687287347006,61519430f27aba4a190edbc1,61519430f27aba4a190edbc1,16,blinds,critical,D,25,blinds15.jpg,blinds33.jpg,high,NULL
1687287605,b734a05af68cbf8d9de6a4a2e809f3b6,PennController,19,0,experiment,NULL,Canvas,canvas6,Print,NA,1687287353304,61519430f27aba4a190edbc1,61519430f27aba4a190edbc1,16,blinds,critical,D,25,blinds15.jpg,blinds33.jpg,high,NULL
1687287605,b734a05af68cbf8d9de6a4a2e809f3b6,PennController,19,0,experiment,NULL,Video,progression,buffer,0.004943,1687287350538,61519430f27aba4a190edbc1,61519430f27aba4a190edbc1,16,blinds,critical,D,25,blinds15.jpg,blinds33.jpg,high,NULL
1687287605,b734a05af68cbf8d9de6a4a2e809f3b6,PennController,19,0,experiment,NULL,Selector,choice,Selection,option2,1687287354657,61519430f27aba4a190edbc1,61519430f27aba4a190edbc1,16,blinds,critical,D,25,blinds15.jpg,blinds33.jpg,high,option1;option2
1687287605,b734a05af68cbf8d9de6a4a2e809f3b6,PennController,19,0,experiment,NULL,PennController,18,_Trial_,End,1687287354659,61519430f27aba4a190edbc1,61519430f27aba4a190edbc1,16,blinds,critical,D,25,blinds15.jpg,blinds33.jpg,high,NULL
1687287605,b734a05af68cbf8d9de6a4a2e809f3b6,PennController,27,0,experiment,NULL,PennController,26,_Trial_,Start,1687287354662,61519430f27aba4a190edbc1,61519430f27aba4a190edbc1,24,match,filler,D,75,match65.jpg,match85.jpg,GoalA,NULL
1687287605,b734a05af68cbf8d9de6a4a2e809f3b6,PennController,27,0,experiment,NULL,PennController,26,_Header_,Start,1687287354662,61519430f27aba4a190edbc1,61519430f27aba4a190edbc1,24,match,filler,D,75,match65.jpg,match85.jpg,GoalA,NULL
1687287605,b734a05af68cbf8d9de6a4a2e809f3b6,PennController,27,0,experiment,NULL,PennController,26,_Header_,End,1687287354662,61519430f27aba4a190edbc1,61519430f27aba4a190edbc1,24,match,filler,D,75,match65.jpg,match85.jpg,GoalA,NULL
1687287605,b734a05af68cbf8d9de6a4a2e809f3b6,PennController,27,0,experiment,NULL,Canvas,canvas6,Print,NA,1687287362366,61519430f27aba4a190edbc1,61519430f27aba4a190edbc1,24,match,filler,D,75,match65.jpg,match85.jpg,GoalA,NULL
1687287605,b734a05af68cbf8d9de6a4a2e809f3b6,PennController,27,0,experiment,NULL,Video,progression,buffer,0.004506,1687287358189,61519430f27aba4a190edbc1,61519430f27aba4a190edbc1,24,match,filler,D,75,match65.jpg,match85.jpg,GoalA,NULL
1687287605,b734a05af68cbf8d9de6a4a2e809f3b6,PennController,27,0,experiment,NULL,Selector,choice,Selection,option1,1687287363888,61519430f27aba4a190edbc1,61519430f27aba4a190edbc1,24,match,filler,D,75,match65.jpg,match85.jpg,GoalA,option2;option1
1687287605,b734a05af68cbf8d9de6a4a2e809f3b6,PennController,27,0,experiment,NULL,PennController,26,_Trial_,End,1687287363891,61519430f27aba4a190edbc1,61519430f27aba4a190edbc1,24,match,filler,D,75,match65.jpg,match85.jpg,GoalA,NULL
1687287605,b734a05af68cbf8d9de6a4a2e809f3b6,PennController,25,0,experiment,NULL,PennController,24,_Trial_,Start,1687287363894,61519430f27aba4a190edbc1,61519430f27aba4a190edbc1,22,wall,filler,D,25,wall15.jpg,wall35.jpg,GoalA,NULL
1687287605,b734a05af68cbf8d9de6a4a2e809f3b6,PennController,25,0,experiment,NULL,PennController,24,_Header_,Start,1687287363894,61519430f27aba4a190edbc1,61519430f27aba4a190edbc1,22,wall,filler,D,25,wall15.jpg,wall35.jpg,GoalA,NULL
1687287605,b734a05af68cbf8d9de6a4a2e809f3b6,PennController,25,0,experiment,NULL,PennController,24,_Header_,End,1687287363894,61519430f27aba4a190edbc1,61519430f27aba4a190edbc1,22,wall,filler,D,25,wall15.jpg,wall35.jpg,GoalA,NULL
1687287605,b734a05af68cbf8d9de6a4a2e809f3b6,PennController,25,0,experiment,NULL,Canvas,canvas6,Print,NA,1687287369595,61519430f27aba4a190edbc1,61519430f27aba4a190edbc1,22,wall,filler,D,25,wall15.jpg,wall35.jpg,GoalA,NULL
1687287605,b734a05af68cbf8d9de6a4a2e809f3b6,PennController,25,0,experiment,NULL,Video,progression,buffer,0.007174,1687287367429,61519430f27aba4a190edbc1,61519430f27aba4a190edbc1,22,wall,filler,D,25,wall15.jpg,wall35.jpg,GoalA,NULL
1687287605,b734a05af68cbf8d9de6a4a2e809f3b6,PennController,25,0,experiment,NULL,Selector,choice,Selection,option2,1687287371248,61519430f27aba4a190edbc1,61519430f27aba4a190edbc1,22,wall,filler,D,25,wall15.jpg,wall35.jpg,GoalA,option1;option2
1687287605,b734a05af68cbf8d9de6a4a2e809f3b6,PennController,25,0,experiment,NULL,PennController,24,_Trial_,End,1687287371249,61519430f27aba4a190edbc1,61519430f27aba4a190edbc1,22,wall,filler,D,25,wall15.jpg,wall35.jpg,GoalA,NULL
1687287605,b734a05af68cbf8d9de6a4a2e809f3b6,PennController,20,0,experiment,NULL,PennController,19,_Trial_,Start,1687287371251,61519430f27aba4a190edbc1,61519430f27aba4a190edbc1,17,roll,critical,D,50,roll40.jpg,roll60.jpg,high,NULL
1687287605,b734a05af68cbf8d9de6a4a2e809f3b6,PennController,20,0,experiment,NULL,PennController,19,_Header_,Start,1687287371251,61519430f27aba4a190edbc1,61519430f27aba4a190edbc1,17,roll,critical,D,50,roll40.jpg,roll60.jpg,high,NULL
1687287605,b734a05af68cbf8d9de6a4a2e809f3b6,PennController,20,0,experiment,NULL,PennController,19,_Header_,End,1687287371251,61519430f27aba4a190edbc1,61519430f27aba4a190edbc1,17,roll,critical,D,50,roll40.jpg,roll60.jpg,high,NULL
1687287605,b734a05af68cbf8d9de6a4a2e809f3b6,PennController,20,0,experiment,NULL,Canvas,canvas6,Print,NA,1687287377944,61519430f27aba4a190edbc1,61519430f27aba4a190edbc1,17,roll,critical,D,50,roll40.jpg,roll60.jpg,high,NULL
1687287605,b734a05af68cbf8d9de6a4a2e809f3b6,PennController,20,0,experiment,NULL,Video,progression,buffer,0.005445,1687287374785,61519430f27aba4a190edbc1,61519430f27aba4a190edbc1,17,roll,critical,D,50,roll40.jpg,roll60.jpg,high,NULL
1687287605,b734a05af68cbf8d9de6a4a2e809f3b6,PennController,20,0,experiment,NULL,Selector,choice,Selection,option2,1687287380616,61519430f27aba4a190edbc1,61519430f27aba4a190edbc1,17,roll,critical,D,50,roll40.jpg,roll60.jpg,high,option1;option2
1687287605,b734a05af68cbf8d9de6a4a2e809f3b6,PennController,20,0,experiment,NULL,PennController,19,_Trial_,End,1687287380619,61519430f27aba4a190edbc1,61519430f27aba4a190edbc1,17,roll,critical,D,50,roll40.jpg,roll60.jpg,high,NULL
1687287605,b734a05af68cbf8d9de6a4a2e809f3b6,PennController,26,0,experiment,NULL,PennController,25,_Trial_,Start,1687287380622,61519430f27aba4a190edbc1,61519430f27aba4a190edbc1,23,color,filler,D,50,color40.jpg,color60.jpg,GoalB,NULL
1687287605,b734a05af68cbf8d9de6a4a2e809f3b6,PennController,26,0,experiment,NULL,PennController,25,_Header_,Start,1687287380622,61519430f27aba4a190edbc1,61519430f27aba4a190edbc1,23,color,filler,D,50,color40.jpg,color60.jpg,GoalB,NULL
1687287605,b734a05af68cbf8d9de6a4a2e809f3b6,PennController,26,0,experiment,NULL,PennController,25,_Header_,End,1687287380622,61519430f27aba4a190edbc1,61519430f27aba4a190edbc1,23,color,filler,D,50,color40.jpg,color60.jpg,GoalB,NULL
1687287605,b734a05af68cbf8d9de6a4a2e809f3b6,PennController,26,0,experiment,NULL,Canvas,canvas6,Print,NA,1687287387306,61519430f27aba4a190edbc1,61519430f27aba4a190edbc1,23,color,filler,D,50,color40.jpg,color60.jpg,GoalB,NULL
1687287605,b734a05af68cbf8d9de6a4a2e809f3b6,PennController,26,0,experiment,NULL,Video,progression,buffer,0.005414,1687287384153,61519430f27aba4a190edbc1,61519430f27aba4a190edbc1,23,color,filler,D,50,color40.jpg,color60.jpg,GoalB,NULL
1687287605,b734a05af68cbf8d9de6a4a2e809f3b6,PennController,26,0,experiment,NULL,Selector,choice,Selection,option2,1687287389024,61519430f27aba4a190edbc1,61519430f27aba4a190edbc1,23,color,filler,D,50,color40.jpg,color60.jpg,GoalB,option1;option2
1687287605,b734a05af68cbf8d9de6a4a2e809f3b6,PennController,26,0,experiment,NULL,PennController,25,_Trial_,End,1687287389026,61519430f27aba4a190edbc1,61519430f27aba4a190edbc1,23,color,filler,D,50,color40.jpg,color60.jpg,GoalB,NULL
1687287605,b734a05af68cbf8d9de6a4a2e809f3b6,PennController,5,0,experiment,NULL,PennController,4,_Trial_,Start,1687287389027,61519430f27aba4a190edbc1,61519430f27aba4a190edbc1,2,door,critical,D,50,door40.jpg,door60.jpg,high,NULL
1687287605,b734a05af68cbf8d9de6a4a2e809f3b6,PennController,5,0,experiment,NULL,PennController,4,_Header_,Start,1687287389027,61519430f27aba4a190edbc1,61519430f27aba4a190edbc1,2,door,critical,D,50,door40.jpg,door60.jpg,high,NULL
1687287605,b734a05af68cbf8d9de6a4a2e809f3b6,PennController,5,0,experiment,NULL,PennController,4,_Header_,End,1687287389027,61519430f27aba4a190edbc1,61519430f27aba4a190edbc1,2,door,critical,D,50,door40.jpg,door60.jpg,high,NULL
1687287605,b734a05af68cbf8d9de6a4a2e809f3b6,PennController,5,0,experiment,NULL,Canvas,canvas6,Print,NA,1687287395721,61519430f27aba4a190edbc1,61519430f27aba4a190edbc1,2,door,critical,D,50,door40.jpg,door60.jpg,high,NULL
1687287605,b734a05af68cbf8d9de6a4a2e809f3b6,PennController,5,0,experiment,NULL,Video,progression,buffer,0.004821,1687287392554,61519430f27aba4a190edbc1,61519430f27aba4a190edbc1,2,door,critical,D,50,door40.jpg,door60.jpg,high,NULL
1687287605,b734a05af68cbf8d9de6a4a2e809f3b6,PennController,5,0,experiment,NULL,Selector,choice,Selection,option1,1687287398272,61519430f27aba4a190edbc1,61519430f27aba4a190edbc1,2,door,critical,D,50,door40.jpg,door60.jpg,high,option2;option1
1687287605,b734a05af68cbf8d9de6a4a2e809f3b6,PennController,5,0,experiment,NULL,PennController,4,_Trial_,End,1687287398274,61519430f27aba4a190edbc1,61519430f27aba4a190edbc1,2,door,critical,D,50,door40.jpg,door60.jpg,high,NULL
1687287605,b734a05af68cbf8d9de6a4a2e809f3b6,PennController,21,0,experiment,NULL,PennController,20,_Trial_,Start,1687287398276,61519430f27aba4a190edbc1,61519430f27aba4a190edbc1,18,ball,critical,D,75,ball65.jpg,ball85.jpg,high,NULL
1687287605,b734a05af68cbf8d9de6a4a2e809f3b6,PennController,21,0,experiment,NULL,PennController,20,_Header_,Start,1687287398276,61519430f27aba4a190edbc1,61519430f27aba4a190edbc1,18,ball,critical,D,75,ball65.jpg,ball85.jpg,high,NULL
1687287605,b734a05af68cbf8d9de6a4a2e809f3b6,PennController,21,0,experiment,NULL,PennController,20,_Header_,End,1687287398276,61519430f27aba4a190edbc1,61519430f27aba4a190edbc1,18,ball,critical,D,75,ball65.jpg,ball85.jpg,high,NULL
1687287605,b734a05af68cbf8d9de6a4a2e809f3b6,PennController,21,0,experiment,NULL,Canvas,canvas6,Print,NA,1687287405949,61519430f27aba4a190edbc1,61519430f27aba4a190edbc1,18,ball,critical,D,75,ball65.jpg,ball85.jpg,high,NULL
1687287605,b734a05af68cbf8d9de6a4a2e809f3b6,PennController,21,0,experiment,NULL,Video,progression,buffer,0.006579,1687287401801,61519430f27aba4a190edbc1,61519430f27aba4a190edbc1,18,ball,critical,D,75,ball65.jpg,ball85.jpg,high,NULL
1687287605,b734a05af68cbf8d9de6a4a2e809f3b6,PennController,21,0,experiment,NULL,Selector,choice,Selection,option1,1687287407664,61519430f27aba4a190edbc1,61519430f27aba4a190edbc1,18,ball,critical,D,75,ball65.jpg,ball85.jpg,high,option2;option1
1687287605,b734a05af68cbf8d9de6a4a2e809f3b6,PennController,21,0,experiment,NULL,PennController,20,_Trial_,End,1687287407666,61519430f27aba4a190edbc1,61519430f27aba4a190edbc1,18,ball,critical,D,75,ball65.jpg,ball85.jpg,high,NULL
1687287605,b734a05af68cbf8d9de6a4a2e809f3b6,PennController,11,0,experiment,NULL,PennController,10,_Trial_,Start,1687287407667,61519430f27aba4a190edbc1,61519430f27aba4a190edbc1,8,cucumber,critical,D,50,cucumber42.jpg,cucumber60.jpg,high,NULL
1687287605,b734a05af68cbf8d9de6a4a2e809f3b6,PennController,11,0,experiment,NULL,PennController,10,_Header_,Start,1687287407667,61519430f27aba4a190edbc1,61519430f27aba4a190edbc1,8,cucumber,critical,D,50,cucumber42.jpg,cucumber60.jpg,high,NULL
1687287605,b734a05af68cbf8d9de6a4a2e809f3b6,PennController,11,0,experiment,NULL,PennController,10,_Header_,End,1687287407667,61519430f27aba4a190edbc1,61519430f27aba4a190edbc1,8,cucumber,critical,D,50,cucumber42.jpg,cucumber60.jpg,high,NULL
1687287605,b734a05af68cbf8d9de6a4a2e809f3b6,PennController,11,0,experiment,NULL,Canvas,canvas6,Print,NA,1687287415755,61519430f27aba4a190edbc1,61519430f27aba4a190edbc1,8,cucumber,critical,D,50,cucumber42.jpg,cucumber60.jpg,high,NULL
1687287605,b734a05af68cbf8d9de6a4a2e809f3b6,PennController,11,0,experiment,NULL,Video,progression,buffer,0.006727,1687287411204,61519430f27aba4a190edbc1,61519430f27aba4a190edbc1,8,cucumber,critical,D,50,cucumber42.jpg,cucumber60.jpg,high,NULL
1687287605,b734a05af68cbf8d9de6a4a2e809f3b6,PennController,11,0,experiment,NULL,Selector,choice,Selection,option1,1687287418288,61519430f27aba4a190edbc1,61519430f27aba4a190edbc1,8,cucumber,critical,D,50,cucumber42.jpg,cucumber60.jpg,high,option2;option1
1687287605,b734a05af68cbf8d9de6a4a2e809f3b6,PennController,11,0,experiment,NULL,PennController,10,_Trial_,End,1687287418290,61519430f27aba4a190edbc1,61519430f27aba4a190edbc1,8,cucumber,critical,D,50,cucumber42.jpg,cucumber60.jpg,high,NULL
1687287605,b734a05af68cbf8d9de6a4a2e809f3b6,PennController,23,0,experiment,NULL,PennController,22,_Trial_,Start,1687287418292,61519430f27aba4a190edbc1,61519430f27aba4a190edbc1,20,cat,filler,D,50,cat40.jpg,cat60.jpg,GoalA,NULL
1687287605,b734a05af68cbf8d9de6a4a2e809f3b6,PennController,23,0,experiment,NULL,PennController,22,_Header_,Start,1687287418292,61519430f27aba4a190edbc1,61519430f27aba4a190edbc1,20,cat,filler,D,50,cat40.jpg,cat60.jpg,GoalA,NULL
1687287605,b734a05af68cbf8d9de6a4a2e809f3b6,PennController,23,0,experiment,NULL,PennController,22,_Header_,End,1687287418292,61519430f27aba4a190edbc1,61519430f27aba4a190edbc1,20,cat,filler,D,50,cat40.jpg,cat60.jpg,GoalA,NULL
1687287605,b734a05af68cbf8d9de6a4a2e809f3b6,PennController,23,0,experiment,NULL,Canvas,canvas6,Print,NA,1687287424989,61519430f27aba4a190edbc1,61519430f27aba4a190edbc1,20,cat,filler,D,50,cat40.jpg,cat60.jpg,GoalA,NULL
1687287605,b734a05af68cbf8d9de6a4a2e809f3b6,PennController,23,0,experiment,NULL,Video,progression,buffer,0.008183,1687287421827,61519430f27aba4a190edbc1,61519430f27aba4a190edbc1,20,cat,filler,D,50,cat40.jpg,cat60.jpg,GoalA,NULL
1687287605,b734a05af68cbf8d9de6a4a2e809f3b6,PennController,23,0,experiment,NULL,Selector,choice,Selection,option2,1687287426320,61519430f27aba4a190edbc1,61519430f27aba4a190edbc1,20,cat,filler,D,50,cat40.jpg,cat60.jpg,GoalA,option2;option1
1687287605,b734a05af68cbf8d9de6a4a2e809f3b6,PennController,23,0,experiment,NULL,PennController,22,_Trial_,End,1687287426321,61519430f27aba4a190edbc1,61519430f27aba4a190edbc1,20,cat,filler,D,50,cat40.jpg,cat60.jpg,GoalA,NULL
1687287605,b734a05af68cbf8d9de6a4a2e809f3b6,PennController,13,0,experiment,NULL,PennController,12,_Trial_,Start,1687287426323,61519430f27aba4a190edbc1,61519430f27aba4a190edbc1,10,train,critical,D,25,train15.jpg,train35.jpg,high,NULL
1687287605,b734a05af68cbf8d9de6a4a2e809f3b6,PennController,13,0,experiment,NULL,PennController,12,_Header_,Start,1687287426323,61519430f27aba4a190edbc1,61519430f27aba4a190edbc1,10,train,critical,D,25,train15.jpg,train35.jpg,high,NULL
1687287605,b734a05af68cbf8d9de6a4a2e809f3b6,PennController,13,0,experiment,NULL,PennController,12,_Header_,End,1687287426323,61519430f27aba4a190edbc1,61519430f27aba4a190edbc1,10,train,critical,D,25,train15.jpg,train35.jpg,high,NULL
1687287605,b734a05af68cbf8d9de6a4a2e809f3b6,PennController,13,0,experiment,NULL,Canvas,canvas6,Print,NA,1687287432007,61519430f27aba4a190edbc1,61519430f27aba4a190edbc1,10,train,critical,D,25,train15.jpg,train35.jpg,high,NULL
1687287605,b734a05af68cbf8d9de6a4a2e809f3b6,PennController,13,0,experiment,NULL,Video,progression,buffer,0.004807,1687287429849,61519430f27aba4a190edbc1,61519430f27aba4a190edbc1,10,train,critical,D,25,train15.jpg,train35.jpg,high,NULL
1687287605,b734a05af68cbf8d9de6a4a2e809f3b6,PennController,13,0,experiment,NULL,Selector,choice,Selection,option1,1687287434288,61519430f27aba4a190edbc1,61519430f27aba4a190edbc1,10,train,critical,D,25,train15.jpg,train35.jpg,high,option2;option1
1687287605,b734a05af68cbf8d9de6a4a2e809f3b6,PennController,13,0,experiment,NULL,PennController,12,_Trial_,End,1687287434289,61519430f27aba4a190edbc1,61519430f27aba4a190edbc1,10,train,critical,D,25,train15.jpg,train35.jpg,high,NULL
1687287605,b734a05af68cbf8d9de6a4a2e809f3b6,PennController,17,0,experiment,NULL,PennController,16,_Trial_,Start,1687287434291,61519430f27aba4a190edbc1,61519430f27aba4a190edbc1,14,cover,critical,D,50,cover42.jpg,cover60.jpg,high,NULL
1687287605,b734a05af68cbf8d9de6a4a2e809f3b6,PennController,17,0,experiment,NULL,PennController,16,_Header_,Start,1687287434291,61519430f27aba4a190edbc1,61519430f27aba4a190edbc1,14,cover,critical,D,50,cover42.jpg,cover60.jpg,high,NULL
1687287605,b734a05af68cbf8d9de6a4a2e809f3b6,PennController,17,0,experiment,NULL,PennController,16,_Header_,End,1687287434291,61519430f27aba4a190edbc1,61519430f27aba4a190edbc1,14,cover,critical,D,50,cover42.jpg,cover60.jpg,high,NULL
1687287605,b734a05af68cbf8d9de6a4a2e809f3b6,PennController,17,0,experiment,NULL,Canvas,canvas6,Print,NA,1687287442370,61519430f27aba4a190edbc1,61519430f27aba4a190edbc1,14,cover,critical,D,50,cover42.jpg,cover60.jpg,high,NULL
1687287605,b734a05af68cbf8d9de6a4a2e809f3b6,PennController,17,0,experiment,NULL,Video,progression,buffer,0.004786,1687287437816,61519430f27aba4a190edbc1,61519430f27aba4a190edbc1,14,cover,critical,D,50,cover42.jpg,cover60.jpg,high,NULL
1687287605,b734a05af68cbf8d9de6a4a2e809f3b6,PennController,17,0,experiment,NULL,Selector,choice,Selection,option2,1687287445639,61519430f27aba4a190edbc1,61519430f27aba4a190edbc1,14,cover,critical,D,50,cover42.jpg,cover60.jpg,high,option1;option2
1687287605,b734a05af68cbf8d9de6a4a2e809f3b6,PennController,17,0,experiment,NULL,PennController,16,_Trial_,End,1687287445641,61519430f27aba4a190edbc1,61519430f27aba4a190edbc1,14,cover,critical,D,50,cover42.jpg,cover60.jpg,high,NULL
1687287605,b734a05af68cbf8d9de6a4a2e809f3b6,PennController,9,0,experiment,NULL,PennController,8,_Trial_,Start,1687287445643,61519430f27aba4a190edbc1,61519430f27aba4a190edbc1,6,flower,critical,D,75,flower65.jpg,flower85.jpg,high,NULL
1687287605,b734a05af68cbf8d9de6a4a2e809f3b6,PennController,9,0,experiment,NULL,PennController,8,_Header_,Start,1687287445643,61519430f27aba4a190edbc1,61519430f27aba4a190edbc1,6,flower,critical,D,75,flower65.jpg,flower85.jpg,high,NULL
1687287605,b734a05af68cbf8d9de6a4a2e809f3b6,PennController,9,0,experiment,NULL,PennController,8,_Header_,End,1687287445643,61519430f27aba4a190edbc1,61519430f27aba4a190edbc1,6,flower,critical,D,75,flower65.jpg,flower85.jpg,high,NULL
1687287605,b734a05af68cbf8d9de6a4a2e809f3b6,PennController,9,0,experiment,NULL,Canvas,canvas6,Print,NA,1687287453323,61519430f27aba4a190edbc1,61519430f27aba4a190edbc1,6,flower,critical,D,75,flower65.jpg,flower85.jpg,high,NULL
1687287605,b734a05af68cbf8d9de6a4a2e809f3b6,PennController,9,0,experiment,NULL,Video,progression,buffer,0.004811,1687287449172,61519430f27aba4a190edbc1,61519430f27aba4a190edbc1,6,flower,critical,D,75,flower65.jpg,flower85.jpg,high,NULL
1687287605,b734a05af68cbf8d9de6a4a2e809f3b6,PennController,9,0,experiment,NULL,Selector,choice,Selection,option2,1687287455599,61519430f27aba4a190edbc1,61519430f27aba4a190edbc1,6,flower,critical,D,75,flower65.jpg,flower85.jpg,high,option2;option1
1687287605,b734a05af68cbf8d9de6a4a2e809f3b6,PennController,9,0,experiment,NULL,PennController,8,_Trial_,End,1687287455601,61519430f27aba4a190edbc1,61519430f27aba4a190edbc1,6,flower,critical,D,75,flower65.jpg,flower85.jpg,high,NULL
1687287605,b734a05af68cbf8d9de6a4a2e809f3b6,PennController,12,0,experiment,NULL,PennController,11,_Trial_,Start,1687287455603,61519430f27aba4a190edbc1,61519430f27aba4a190edbc1,9,cake,critical,D,75,cake66.jpg,cake84.jpg,high,NULL
1687287605,b734a05af68cbf8d9de6a4a2e809f3b6,PennController,12,0,experiment,NULL,PennController,11,_Header_,Start,1687287455603,61519430f27aba4a190edbc1,61519430f27aba4a190edbc1,9,cake,critical,D,75,cake66.jpg,cake84.jpg,high,NULL
1687287605,b734a05af68cbf8d9de6a4a2e809f3b6,PennController,12,0,experiment,NULL,PennController,11,_Header_,End,1687287455603,61519430f27aba4a190edbc1,61519430f27aba4a190edbc1,9,cake,critical,D,75,cake66.jpg,cake84.jpg,high,NULL
1687287605,b734a05af68cbf8d9de6a4a2e809f3b6,PennController,12,0,experiment,NULL,Canvas,canvas6,Print,NA,1687287465338,61519430f27aba4a190edbc1,61519430f27aba4a190edbc1,9,cake,critical,D,75,cake66.jpg,cake84.jpg,high,NULL
1687287605,b734a05af68cbf8d9de6a4a2e809f3b6,PennController,12,0,experiment,NULL,Video,progression,buffer,0,1687287459135,61519430f27aba4a190edbc1,61519430f27aba4a190edbc1,9,cake,critical,D,75,cake66.jpg,cake84.jpg,high,NULL
1687287605,b734a05af68cbf8d9de6a4a2e809f3b6,PennController,12,0,experiment,NULL,Selector,choice,Selection,option2,1687287466920,61519430f27aba4a190edbc1,61519430f27aba4a190edbc1,9,cake,critical,D,75,cake66.jpg,cake84.jpg,high,option2;option1
1687287605,b734a05af68cbf8d9de6a4a2e809f3b6,PennController,12,0,experiment,NULL,PennController,11,_Trial_,End,1687287466921,61519430f27aba4a190edbc1,61519430f27aba4a190edbc1,9,cake,critical,D,75,cake66.jpg,cake84.jpg,high,NULL
1687287605,b734a05af68cbf8d9de6a4a2e809f3b6,PennController,29,0,experiment,NULL,PennController,28,_Trial_,Start,1687287466924,61519430f27aba4a190edbc1,61519430f27aba4a190edbc1,26,sandwich,filler,D,50,sandwich40.jpg,sandwich60.jpg,GoalA,NULL
1687287605,b734a05af68cbf8d9de6a4a2e809f3b6,PennController,29,0,experiment,NULL,PennController,28,_Header_,Start,1687287466924,61519430f27aba4a190edbc1,61519430f27aba4a190edbc1,26,sandwich,filler,D,50,sandwich40.jpg,sandwich60.jpg,GoalA,NULL
1687287605,b734a05af68cbf8d9de6a4a2e809f3b6,PennController,29,0,experiment,NULL,PennController,28,_Header_,End,1687287466924,61519430f27aba4a190edbc1,61519430f27aba4a190edbc1,26,sandwich,filler,D,50,sandwich40.jpg,sandwich60.jpg,GoalA,NULL
1687287605,b734a05af68cbf8d9de6a4a2e809f3b6,PennController,29,0,experiment,NULL,Canvas,canvas6,Print,NA,1687287473624,61519430f27aba4a190edbc1,61519430f27aba4a190edbc1,26,sandwich,filler,D,50,sandwich40.jpg,sandwich60.jpg,GoalA,NULL
1687287605,b734a05af68cbf8d9de6a4a2e809f3b6,PennController,29,0,experiment,NULL,Video,progression,buffer,0.010301,1687287470466,61519430f27aba4a190edbc1,61519430f27aba4a190edbc1,26,sandwich,filler,D,50,sandwich40.jpg,sandwich60.jpg,GoalA,NULL
1687287605,b734a05af68cbf8d9de6a4a2e809f3b6,PennController,29,0,experiment,NULL,Selector,choice,Selection,option1,1687287475535,61519430f27aba4a190edbc1,61519430f27aba4a190edbc1,26,sandwich,filler,D,50,sandwich40.jpg,sandwich60.jpg,GoalA,option2;option1
1687287605,b734a05af68cbf8d9de6a4a2e809f3b6,PennController,29,0,experiment,NULL,PennController,28,_Trial_,End,1687287475538,61519430f27aba4a190edbc1,61519430f27aba4a190edbc1,26,sandwich,filler,D,50,sandwich40.jpg,sandwich60.jpg,GoalA,NULL
1687287605,b734a05af68cbf8d9de6a4a2e809f3b6,PennController,14,0,experiment,NULL,PennController,13,_Trial_,Start,1687287475540,61519430f27aba4a190edbc1,61519430f27aba4a190edbc1,11,beads,critical,D,50,beads40.jpg,beads60.jpg,high,NULL
1687287605,b734a05af68cbf8d9de6a4a2e809f3b6,PennController,14,0,experiment,NULL,PennController,13,_Header_,Start,1687287475540,61519430f27aba4a190edbc1,61519430f27aba4a190edbc1,11,beads,critical,D,50,beads40.jpg,beads60.jpg,high,NULL
1687287605,b734a05af68cbf8d9de6a4a2e809f3b6,PennController,14,0,experiment,NULL,PennController,13,_Header_,End,1687287475540,61519430f27aba4a190edbc1,61519430f27aba4a190edbc1,11,beads,critical,D,50,beads40.jpg,beads60.jpg,high,NULL
1687287605,b734a05af68cbf8d9de6a4a2e809f3b6,PennController,14,0,experiment,NULL,Canvas,canvas6,Print,NA,1687287482239,61519430f27aba4a190edbc1,61519430f27aba4a190edbc1,11,beads,critical,D,50,beads40.jpg,beads60.jpg,high,NULL
1687287605,b734a05af68cbf8d9de6a4a2e809f3b6,PennController,14,0,experiment,NULL,Video,progression,buffer,0.006026,1687287479074,61519430f27aba4a190edbc1,61519430f27aba4a190edbc1,11,beads,critical,D,50,beads40.jpg,beads60.jpg,high,NULL
1687287605,b734a05af68cbf8d9de6a4a2e809f3b6,PennController,14,0,experiment,NULL,Selector,choice,Selection,option2,1687287485991,61519430f27aba4a190edbc1,61519430f27aba4a190edbc1,11,beads,critical,D,50,beads40.jpg,beads60.jpg,high,option1;option2
1687287605,b734a05af68cbf8d9de6a4a2e809f3b6,PennController,14,0,experiment,NULL,PennController,13,_Trial_,End,1687287485993,61519430f27aba4a190edbc1,61519430f27aba4a190edbc1,11,beads,critical,D,50,beads40.jpg,beads60.jpg,high,NULL
1687287605,b734a05af68cbf8d9de6a4a2e809f3b6,PennController,28,0,experiment,NULL,PennController,27,_Trial_,Start,1687287485995,61519430f27aba4a190edbc1,61519430f27aba4a190edbc1,25,house,filler,D,25,house15.jpg,house35.jpg,GoalB,NULL
1687287605,b734a05af68cbf8d9de6a4a2e809f3b6,PennController,28,0,experiment,NULL,PennController,27,_Header_,Start,1687287485995,61519430f27aba4a190edbc1,61519430f27aba4a190edbc1,25,house,filler,D,25,house15.jpg,house35.jpg,GoalB,NULL
1687287605,b734a05af68cbf8d9de6a4a2e809f3b6,PennController,28,0,experiment,NULL,PennController,27,_Header_,End,1687287485995,61519430f27aba4a190edbc1,61519430f27aba4a190edbc1,25,house,filler,D,25,house15.jpg,house35.jpg,GoalB,NULL
1687287605,b734a05af68cbf8d9de6a4a2e809f3b6,PennController,28,0,experiment,NULL,Canvas,canvas6,Print,NA,1687287491685,61519430f27aba4a190edbc1,61519430f27aba4a190edbc1,25,house,filler,D,25,house15.jpg,house35.jpg,GoalB,NULL
1687287605,b734a05af68cbf8d9de6a4a2e809f3b6,PennController,28,0,experiment,NULL,Video,progression,buffer,0.00456,1687287489522,61519430f27aba4a190edbc1,61519430f27aba4a190edbc1,25,house,filler,D,25,house15.jpg,house35.jpg,GoalB,NULL
1687287605,b734a05af68cbf8d9de6a4a2e809f3b6,PennController,28,0,experiment,NULL,Selector,choice,Selection,option2,1687287493071,61519430f27aba4a190edbc1,61519430f27aba4a190edbc1,25,house,filler,D,25,house15.jpg,house35.jpg,GoalB,option2;option1
1687287605,b734a05af68cbf8d9de6a4a2e809f3b6,PennController,28,0,experiment,NULL,PennController,27,_Trial_,End,1687287493073,61519430f27aba4a190edbc1,61519430f27aba4a190edbc1,25,house,filler,D,25,house15.jpg,house35.jpg,GoalB,NULL
1687287605,b734a05af68cbf8d9de6a4a2e809f3b6,PennController,10,0,experiment,NULL,PennController,9,_Trial_,Start,1687287493074,61519430f27aba4a190edbc1,61519430f27aba4a190edbc1,7,stack,critical,D,25,stack15.jpg,stack35.jpg,high,NULL
1687287605,b734a05af68cbf8d9de6a4a2e809f3b6,PennController,10,0,experiment,NULL,PennController,9,_Header_,Start,1687287493074,61519430f27aba4a190edbc1,61519430f27aba4a190edbc1,7,stack,critical,D,25,stack15.jpg,stack35.jpg,high,NULL
1687287605,b734a05af68cbf8d9de6a4a2e809f3b6,PennController,10,0,experiment,NULL,PennController,9,_Header_,End,1687287493074,61519430f27aba4a190edbc1,61519430f27aba4a190edbc1,7,stack,critical,D,25,stack15.jpg,stack35.jpg,high,NULL
1687287605,b734a05af68cbf8d9de6a4a2e809f3b6,PennController,10,0,experiment,NULL,Canvas,canvas6,Print,NA,1687287498768,61519430f27aba4a190edbc1,61519430f27aba4a190edbc1,7,stack,critical,D,25,stack15.jpg,stack35.jpg,high,NULL
1687287605,b734a05af68cbf8d9de6a4a2e809f3b6,PennController,10,0,experiment,NULL,Video,progression,buffer,0.006582,1687287496602,61519430f27aba4a190edbc1,61519430f27aba4a190edbc1,7,stack,critical,D,25,stack15.jpg,stack35.jpg,high,NULL
1687287605,b734a05af68cbf8d9de6a4a2e809f3b6,PennController,10,0,experiment,NULL,Selector,choice,Selection,option1,1687287506071,61519430f27aba4a190edbc1,61519430f27aba4a190edbc1,7,stack,critical,D,25,stack15.jpg,stack35.jpg,high,option2;option1
1687287605,b734a05af68cbf8d9de6a4a2e809f3b6,PennController,10,0,experiment,NULL,PennController,9,_Trial_,End,1687287506073,61519430f27aba4a190edbc1,61519430f27aba4a190edbc1,7,stack,critical,D,25,stack15.jpg,stack35.jpg,high,NULL
1687287605,b734a05af68cbf8d9de6a4a2e809f3b6,PennController,24,0,experiment,NULL,PennController,23,_Trial_,Start,1687287506076,61519430f27aba4a190edbc1,61519430f27aba4a190edbc1,21,visit,filler,D,75,visit65.jpg,visit85.jpg,GoalB,NULL
1687287605,b734a05af68cbf8d9de6a4a2e809f3b6,PennController,24,0,experiment,NULL,PennController,23,_Header_,Start,1687287506076,61519430f27aba4a190edbc1,61519430f27aba4a190edbc1,21,visit,filler,D,75,visit65.jpg,visit85.jpg,GoalB,NULL
1687287605,b734a05af68cbf8d9de6a4a2e809f3b6,PennController,24,0,experiment,NULL,PennController,23,_Header_,End,1687287506076,61519430f27aba4a190edbc1,61519430f27aba4a190edbc1,21,visit,filler,D,75,visit65.jpg,visit85.jpg,GoalB,NULL
1687287605,b734a05af68cbf8d9de6a4a2e809f3b6,PennController,24,0,experiment,NULL,Canvas,canvas6,Print,NA,1687287513758,61519430f27aba4a190edbc1,61519430f27aba4a190edbc1,21,visit,filler,D,75,visit65.jpg,visit85.jpg,GoalB,NULL
1687287605,b734a05af68cbf8d9de6a4a2e809f3b6,PennController,24,0,experiment,NULL,Video,progression,buffer,0.00468,1687287509607,61519430f27aba4a190edbc1,61519430f27aba4a190edbc1,21,visit,filler,D,75,visit65.jpg,visit85.jpg,GoalB,NULL
1687287605,b734a05af68cbf8d9de6a4a2e809f3b6,PennController,24,0,experiment,NULL,Selector,choice,Selection,option2,1687287515351,61519430f27aba4a190edbc1,61519430f27aba4a190edbc1,21,visit,filler,D,75,visit65.jpg,visit85.jpg,GoalB,option2;option1
1687287605,b734a05af68cbf8d9de6a4a2e809f3b6,PennController,24,0,experiment,NULL,PennController,23,_Trial_,End,1687287515353,61519430f27aba4a190edbc1,61519430f27aba4a190edbc1,21,visit,filler,D,75,visit65.jpg,visit85.jpg,GoalB,NULL
1687287605,b734a05af68cbf8d9de6a4a2e809f3b6,PennController,16,0,experiment,NULL,PennController,15,_Trial_,Start,1687287515355,61519430f27aba4a190edbc1,61519430f27aba4a190edbc1,13,mix,critical,D,25,mix15.jpg,mix35.jpg,high,NULL
1687287605,b734a05af68cbf8d9de6a4a2e809f3b6,PennController,16,0,experiment,NULL,PennController,15,_Header_,Start,1687287515355,61519430f27aba4a190edbc1,61519430f27aba4a190edbc1,13,mix,critical,D,25,mix15.jpg,mix35.jpg,high,NULL
1687287605,b734a05af68cbf8d9de6a4a2e809f3b6,PennController,16,0,experiment,NULL,PennController,15,_Header_,End,1687287515355,61519430f27aba4a190edbc1,61519430f27aba4a190edbc1,13,mix,critical,D,25,mix15.jpg,mix35.jpg,high,NULL
1687287605,b734a05af68cbf8d9de6a4a2e809f3b6,PennController,16,0,experiment,NULL,Canvas,canvas6,Print,NA,1687287521047,61519430f27aba4a190edbc1,61519430f27aba4a190edbc1,13,mix,critical,D,25,mix15.jpg,mix35.jpg,high,NULL
1687287605,b734a05af68cbf8d9de6a4a2e809f3b6,PennController,16,0,experiment,NULL,Video,progression,buffer,0.006225,1687287518882,61519430f27aba4a190edbc1,61519430f27aba4a190edbc1,13,mix,critical,D,25,mix15.jpg,mix35.jpg,high,NULL
1687287605,b734a05af68cbf8d9de6a4a2e809f3b6,PennController,16,0,experiment,NULL,Selector,choice,Selection,option1,1687287522695,61519430f27aba4a190edbc1,61519430f27aba4a190edbc1,13,mix,critical,D,25,mix15.jpg,mix35.jpg,high,option2;option1
1687287605,b734a05af68cbf8d9de6a4a2e809f3b6,PennController,16,0,experiment,NULL,PennController,15,_Trial_,End,1687287522697,61519430f27aba4a190edbc1,61519430f27aba4a190edbc1,13,mix,critical,D,25,mix15.jpg,mix35.jpg,high,NULL
1687287605,b734a05af68cbf8d9de6a4a2e809f3b6,PennController,15,0,experiment,NULL,PennController,14,_Trial_,Start,1687287522698,61519430f27aba4a190edbc1,61519430f27aba4a190edbc1,12,erase,critical,D,75,erase66.jpg,erase84.jpg,high,NULL
1687287605,b734a05af68cbf8d9de6a4a2e809f3b6,PennController,15,0,experiment,NULL,PennController,14,_Header_,Start,1687287522698,61519430f27aba4a190edbc1,61519430f27aba4a190edbc1,12,erase,critical,D,75,erase66.jpg,erase84.jpg,high,NULL
1687287605,b734a05af68cbf8d9de6a4a2e809f3b6,PennController,15,0,experiment,NULL,PennController,14,_Header_,End,1687287522698,61519430f27aba4a190edbc1,61519430f27aba4a190edbc1,12,erase,critical,D,75,erase66.jpg,erase84.jpg,high,NULL
1687287605,b734a05af68cbf8d9de6a4a2e809f3b6,PennController,15,0,experiment,NULL,Canvas,canvas6,Print,NA,1687287532368,61519430f27aba4a190edbc1,61519430f27aba4a190edbc1,12,erase,critical,D,75,erase66.jpg,erase84.jpg,high,NULL
1687287605,b734a05af68cbf8d9de6a4a2e809f3b6,PennController,15,0,experiment,NULL,Video,progression,buffer,0.004611,1687287526228,61519430f27aba4a190edbc1,61519430f27aba4a190edbc1,12,erase,critical,D,75,erase66.jpg,erase84.jpg,high,NULL
1687287605,b734a05af68cbf8d9de6a4a2e809f3b6,PennController,15,0,experiment,NULL,Selector,choice,Selection,option2,1687287534439,61519430f27aba4a190edbc1,61519430f27aba4a190edbc1,12,erase,critical,D,75,erase66.jpg,erase84.jpg,high,option1;option2
1687287605,b734a05af68cbf8d9de6a4a2e809f3b6,PennController,15,0,experiment,NULL,PennController,14,_Trial_,End,1687287534441,61519430f27aba4a190edbc1,61519430f27aba4a190edbc1,12,erase,critical,D,75,erase66.jpg,erase84.jpg,high,NULL
1687287605,b734a05af68cbf8d9de6a4a2e809f3b6,PennController,18,0,experiment,NULL,PennController,17,_Trial_,Start,1687287534443,61519430f27aba4a190edbc1,61519430f27aba4a190edbc1,15,zip,critical,D,75,zip65.jpg,zip85.jpg,high,NULL
1687287605,b734a05af68cbf8d9de6a4a2e809f3b6,PennController,18,0,experiment,NULL,PennController,17,_Header_,Start,1687287534443,61519430f27aba4a190edbc1,61519430f27aba4a190edbc1,15,zip,critical,D,75,zip65.jpg,zip85.jpg,high,NULL
1687287605,b734a05af68cbf8d9de6a4a2e809f3b6,PennController,18,0,experiment,NULL,PennController,17,_Header_,End,1687287534443,61519430f27aba4a190edbc1,61519430f27aba4a190edbc1,15,zip,critical,D,75,zip65.jpg,zip85.jpg,high,NULL
1687287605,b734a05af68cbf8d9de6a4a2e809f3b6,PennController,18,0,experiment,NULL,Canvas,canvas6,Print,NA,1687287541331,61519430f27aba4a190edbc1,61519430f27aba4a190edbc1,15,zip,critical,D,75,zip65.jpg,zip85.jpg,high,NULL
1687287605,b734a05af68cbf8d9de6a4a2e809f3b6,PennController,18,0,experiment,NULL,Video,progression,buffer,0.004677,1687287537974,61519430f27aba4a190edbc1,61519430f27aba4a190edbc1,15,zip,critical,D,75,zip65.jpg,zip85.jpg,high,NULL
1687287605,b734a05af68cbf8d9de6a4a2e809f3b6,PennController,18,0,experiment,NULL,Selector,choice,Selection,option2,1687287545887,61519430f27aba4a190edbc1,61519430f27aba4a190edbc1,15,zip,critical,D,75,zip65.jpg,zip85.jpg,high,option2;option1
1687287605,b734a05af68cbf8d9de6a4a2e809f3b6,PennController,18,0,experiment,NULL,PennController,17,_Trial_,End,1687287545888,61519430f27aba4a190edbc1,61519430f27aba4a190edbc1,15,zip,critical,D,75,zip65.jpg,zip85.jpg,high,NULL
1687287605,b734a05af68cbf8d9de6a4a2e809f3b6,PennController,32,0,experiment,NULL,PennController,31,_Trial_,Start,1687287545890,61519430f27aba4a190edbc1,61519430f27aba4a190edbc1,29,frog,filler,D,50,frog40.jpg,frog60.jpg,GoalB,NULL
1687287605,b734a05af68cbf8d9de6a4a2e809f3b6,PennController,32,0,experiment,NULL,PennController,31,_Header_,Start,1687287545890,61519430f27aba4a190edbc1,61519430f27aba4a190edbc1,29,frog,filler,D,50,frog40.jpg,frog60.jpg,GoalB,NULL
1687287605,b734a05af68cbf8d9de6a4a2e809f3b6,PennController,32,0,experiment,NULL,PennController,31,_Header_,End,1687287545890,61519430f27aba4a190edbc1,61519430f27aba4a190edbc1,29,frog,filler,D,50,frog40.jpg,frog60.jpg,GoalB,NULL
1687287605,b734a05af68cbf8d9de6a4a2e809f3b6,PennController,32,0,experiment,NULL,Canvas,canvas6,Print,NA,1687287552570,61519430f27aba4a190edbc1,61519430f27aba4a190edbc1,29,frog,filler,D,50,frog40.jpg,frog60.jpg,GoalB,NULL
1687287605,b734a05af68cbf8d9de6a4a2e809f3b6,PennController,32,0,experiment,NULL,Video,progression,buffer,0.004477,1687287549413,61519430f27aba4a190edbc1,61519430f27aba4a190edbc1,29,frog,filler,D,50,frog40.jpg,frog60.jpg,GoalB,NULL
1687287605,b734a05af68cbf8d9de6a4a2e809f3b6,PennController,32,0,experiment,NULL,Selector,choice,Selection,option2,1687287554199,61519430f27aba4a190edbc1,61519430f27aba4a190edbc1,29,frog,filler,D,50,frog40.jpg,frog60.jpg,GoalB,option2;option1
1687287605,b734a05af68cbf8d9de6a4a2e809f3b6,PennController,32,0,experiment,NULL,PennController,31,_Trial_,End,1687287554200,61519430f27aba4a190edbc1,61519430f27aba4a190edbc1,29,frog,filler,D,50,frog40.jpg,frog60.jpg,GoalB,NULL
1687287605,b734a05af68cbf8d9de6a4a2e809f3b6,PennController,7,0,experiment,NULL,PennController,6,_Trial_,Start,1687287554202,61519430f27aba4a190edbc1,61519430f27aba4a190edbc1,4,candy,critical,D,25,candy15.jpg,candy35.jpg,high,NULL
1687287605,b734a05af68cbf8d9de6a4a2e809f3b6,PennController,7,0,experiment,NULL,PennController,6,_Header_,Start,1687287554202,61519430f27aba4a190edbc1,61519430f27aba4a190edbc1,4,candy,critical,D,25,candy15.jpg,candy35.jpg,high,NULL
1687287605,b734a05af68cbf8d9de6a4a2e809f3b6,PennController,7,0,experiment,NULL,PennController,6,_Header_,End,1687287554202,61519430f27aba4a190edbc1,61519430f27aba4a190edbc1,4,candy,critical,D,25,candy15.jpg,candy35.jpg,high,NULL
1687287605,b734a05af68cbf8d9de6a4a2e809f3b6,PennController,7,0,experiment,NULL,Canvas,canvas6,Print,NA,1687287559909,61519430f27aba4a190edbc1,61519430f27aba4a190edbc1,4,candy,critical,D,25,candy15.jpg,candy35.jpg,high,NULL
1687287605,b734a05af68cbf8d9de6a4a2e809f3b6,PennController,7,0,experiment,NULL,Video,progression,buffer,0.004588,1687287557734,61519430f27aba4a190edbc1,61519430f27aba4a190edbc1,4,candy,critical,D,25,candy15.jpg,candy35.jpg,high,NULL
1687287605,b734a05af68cbf8d9de6a4a2e809f3b6,PennController,7,0,experiment,NULL,Selector,choice,Selection,option2,1687287561982,61519430f27aba4a190edbc1,61519430f27aba4a190edbc1,4,candy,critical,D,25,candy15.jpg,candy35.jpg,high,option2;option1
1687287605,b734a05af68cbf8d9de6a4a2e809f3b6,PennController,7,0,experiment,NULL,PennController,6,_Trial_,End,1687287561984,61519430f27aba4a190edbc1,61519430f27aba4a190edbc1,4,candy,critical,D,25,candy15.jpg,candy35.jpg,high,NULL
1687287605,b734a05af68cbf8d9de6a4a2e809f3b6,PennController,4,0,experiment,NULL,PennController,3,_Trial_,Start,1687287561985,61519430f27aba4a190edbc1,61519430f27aba4a190edbc1,1,vase,critical,D,25,vase15.jpg,vase35.jpg,high,NULL
1687287605,b734a05af68cbf8d9de6a4a2e809f3b6,PennController,4,0,experiment,NULL,PennController,3,_Header_,Start,1687287561985,61519430f27aba4a190edbc1,61519430f27aba4a190edbc1,1,vase,critical,D,25,vase15.jpg,vase35.jpg,high,NULL
1687287605,b734a05af68cbf8d9de6a4a2e809f3b6,PennController,4,0,experiment,NULL,PennController,3,_Header_,End,1687287561985,61519430f27aba4a190edbc1,61519430f27aba4a190edbc1,1,vase,critical,D,25,vase15.jpg,vase35.jpg,high,NULL
1687287605,b734a05af68cbf8d9de6a4a2e809f3b6,PennController,4,0,experiment,NULL,Canvas,canvas6,Print,NA,1687287567675,61519430f27aba4a190edbc1,61519430f27aba4a190edbc1,1,vase,critical,D,25,vase15.jpg,vase35.jpg,high,NULL
1687287605,b734a05af68cbf8d9de6a4a2e809f3b6,PennController,4,0,experiment,NULL,Video,progression,buffer,0.0063,1687287565510,61519430f27aba4a190edbc1,61519430f27aba4a190edbc1,1,vase,critical,D,25,vase15.jpg,vase35.jpg,high,NULL
1687287605,b734a05af68cbf8d9de6a4a2e809f3b6,PennController,4,0,experiment,NULL,Selector,choice,Selection,option2,1687287569431,61519430f27aba4a190edbc1,61519430f27aba4a190edbc1,1,vase,critical,D,25,vase15.jpg,vase35.jpg,high,option1;option2
1687287605,b734a05af68cbf8d9de6a4a2e809f3b6,PennController,4,0,experiment,NULL,PennController,3,_Trial_,End,1687287569433,61519430f27aba4a190edbc1,61519430f27aba4a190edbc1,1,vase,critical,D,25,vase15.jpg,vase35.jpg,high,NULL
1687287605,b734a05af68cbf8d9de6a4a2e809f3b6,PennController,6,0,experiment,NULL,PennController,5,_Trial_,Start,1687287569435,61519430f27aba4a190edbc1,61519430f27aba4a190edbc1,3,clean,critical,D,75,clean65.jpg,clean85.jpg,high,NULL
1687287605,b734a05af68cbf8d9de6a4a2e809f3b6,PennController,6,0,experiment,NULL,PennController,5,_Header_,Start,1687287569435,61519430f27aba4a190edbc1,61519430f27aba4a190edbc1,3,clean,critical,D,75,clean65.jpg,clean85.jpg,high,NULL
1687287605,b734a05af68cbf8d9de6a4a2e809f3b6,PennController,6,0,experiment,NULL,PennController,5,_Header_,End,1687287569435,61519430f27aba4a190edbc1,61519430f27aba4a190edbc1,3,clean,critical,D,75,clean65.jpg,clean85.jpg,high,NULL
1687287605,b734a05af68cbf8d9de6a4a2e809f3b6,PennController,6,0,experiment,NULL,Canvas,canvas6,Print,NA,1687287577122,61519430f27aba4a190edbc1,61519430f27aba4a190edbc1,3,clean,critical,D,75,clean65.jpg,clean85.jpg,high,NULL
1687287605,b734a05af68cbf8d9de6a4a2e809f3b6,PennController,6,0,experiment,NULL,Video,progression,buffer,0.004609,1687287572965,61519430f27aba4a190edbc1,61519430f27aba4a190edbc1,3,clean,critical,D,75,clean65.jpg,clean85.jpg,high,NULL
1687287605,b734a05af68cbf8d9de6a4a2e809f3b6,PennController,6,0,experiment,NULL,Selector,choice,Selection,option1,1687287578766,61519430f27aba4a190edbc1,61519430f27aba4a190edbc1,3,clean,critical,D,75,clean65.jpg,clean85.jpg,high,option1;option2
1687287605,b734a05af68cbf8d9de6a4a2e809f3b6,PennController,6,0,experiment,NULL,PennController,5,_Trial_,End,1687287578768,61519430f27aba4a190edbc1,61519430f27aba4a190edbc1,3,clean,critical,D,75,clean65.jpg,clean85.jpg,high,NULL
1687287605,b734a05af68cbf8d9de6a4a2e809f3b6,PennController,31,0,experiment,NULL,PennController,30,_Trial_,Start,1687287578769,61519430f27aba4a190edbc1,61519430f27aba4a190edbc1,28,sort,filler,D,25,sort15.jpg,sort35.jpg,GoalA,NULL
1687287605,b734a05af68cbf8d9de6a4a2e809f3b6,PennController,31,0,experiment,NULL,PennController,30,_Header_,Start,1687287578770,61519430f27aba4a190edbc1,61519430f27aba4a190edbc1,28,sort,filler,D,25,sort15.jpg,sort35.jpg,GoalA,NULL
1687287605,b734a05af68cbf8d9de6a4a2e809f3b6,PennController,31,0,experiment,NULL,PennController,30,_Header_,End,1687287578770,61519430f27aba4a190edbc1,61519430f27aba4a190edbc1,28,sort,filler,D,25,sort15.jpg,sort35.jpg,GoalA,NULL
1687287605,b734a05af68cbf8d9de6a4a2e809f3b6,PennController,31,0,experiment,NULL,Canvas,canvas6,Print,NA,1687287584459,61519430f27aba4a190edbc1,61519430f27aba4a190edbc1,28,sort,filler,D,25,sort15.jpg,sort35.jpg,GoalA,NULL
1687287605,b734a05af68cbf8d9de6a4a2e809f3b6,PennController,31,0,experiment,NULL,Video,progression,buffer,0.005178,1687287582298,61519430f27aba4a190edbc1,61519430f27aba4a190edbc1,28,sort,filler,D,25,sort15.jpg,sort35.jpg,GoalA,NULL
1687287605,b734a05af68cbf8d9de6a4a2e809f3b6,PennController,31,0,experiment,NULL,Selector,choice,Selection,option2,1687287587126,61519430f27aba4a190edbc1,61519430f27aba4a190edbc1,28,sort,filler,D,25,sort15.jpg,sort35.jpg,GoalA,option2;option1
1687287605,b734a05af68cbf8d9de6a4a2e809f3b6,PennController,31,0,experiment,NULL,PennController,30,_Trial_,End,1687287587128,61519430f27aba4a190edbc1,61519430f27aba4a190edbc1,28,sort,filler,D,25,sort15.jpg,sort35.jpg,GoalA,NULL
1687287605,b734a05af68cbf8d9de6a4a2e809f3b6,PennController,30,0,experiment,NULL,PennController,29,_Trial_,Start,1687287587130,61519430f27aba4a190edbc1,61519430f27aba4a190edbc1,27,square,filler,D,75,square65.jpg,square85.jpg,GoalB,NULL
1687287605,b734a05af68cbf8d9de6a4a2e809f3b6,PennController,30,0,experiment,NULL,PennController,29,_Header_,Start,1687287587130,61519430f27aba4a190edbc1,61519430f27aba4a190edbc1,27,square,filler,D,75,square65.jpg,square85.jpg,GoalB,NULL
1687287605,b734a05af68cbf8d9de6a4a2e809f3b6,PennController,30,0,experiment,NULL,PennController,29,_Header_,End,1687287587130,61519430f27aba4a190edbc1,61519430f27aba4a190edbc1,27,square,filler,D,75,square65.jpg,square85.jpg,GoalB,NULL
1687287605,b734a05af68cbf8d9de6a4a2e809f3b6,PennController,30,0,experiment,NULL,Canvas,canvas6,Print,NA,1687287594813,61519430f27aba4a190edbc1,61519430f27aba4a190edbc1,27,square,filler,D,75,square65.jpg,square85.jpg,GoalB,NULL
1687287605,b734a05af68cbf8d9de6a4a2e809f3b6,PennController,30,0,experiment,NULL,Video,progression,buffer,0.004459,1687287590662,61519430f27aba4a190edbc1,61519430f27aba4a190edbc1,27,square,filler,D,75,square65.jpg,square85.jpg,GoalB,NULL
1687287605,b734a05af68cbf8d9de6a4a2e809f3b6,PennController,30,0,experiment,NULL,Selector,choice,Selection,option1,1687287596503,61519430f27aba4a190edbc1,61519430f27aba4a190edbc1,27,square,filler,D,75,square65.jpg,square85.jpg,GoalB,option1;option2
1687287605,b734a05af68cbf8d9de6a4a2e809f3b6,PennController,30,0,experiment,NULL,PennController,29,_Trial_,End,1687287596506,61519430f27aba4a190edbc1,61519430f27aba4a190edbc1,27,square,filler,D,75,square65.jpg,square85.jpg,GoalB,NULL
1687287605,b734a05af68cbf8d9de6a4a2e809f3b6,PennController,8,0,experiment,NULL,PennController,7,_Trial_,Start,1687287596509,61519430f27aba4a190edbc1,61519430f27aba4a190edbc1,5,book,critical,D,50,book40.jpg,book60.jpg,high,NULL
1687287605,b734a05af68cbf8d9de6a4a2e809f3b6,PennController,8,0,experiment,NULL,PennController,7,_Header_,Start,1687287596509,61519430f27aba4a190edbc1,61519430f27aba4a190edbc1,5,book,critical,D,50,book40.jpg,book60.jpg,high,NULL
1687287605,b734a05af68cbf8d9de6a4a2e809f3b6,PennController,8,0,experiment,NULL,PennController,7,_Header_,End,1687287596509,61519430f27aba4a190edbc1,61519430f27aba4a190edbc1,5,book,critical,D,50,book40.jpg,book60.jpg,high,NULL
1687287605,b734a05af68cbf8d9de6a4a2e809f3b6,PennController,8,0,experiment,NULL,Canvas,canvas6,Print,NA,1687287603199,61519430f27aba4a190edbc1,61519430f27aba4a190edbc1,5,book,critical,D,50,book40.jpg,book60.jpg,high,NULL
1687287605,b734a05af68cbf8d9de6a4a2e809f3b6,PennController,8,0,experiment,NULL,Video,progression,buffer,0.007914,1687287600040,61519430f27aba4a190edbc1,61519430f27aba4a190edbc1,5,book,critical,D,50,book40.jpg,book60.jpg,high,NULL
1687287605,b734a05af68cbf8d9de6a4a2e809f3b6,PennController,8,0,experiment,NULL,Selector,choice,Selection,option2,1687287606039,61519430f27aba4a190edbc1,61519430f27aba4a190edbc1,5,book,critical,D,50,book40.jpg,book60.jpg,high,option1;option2
1687287605,b734a05af68cbf8d9de6a4a2e809f3b6,PennController,8,0,experiment,NULL,PennController,7,_Trial_,End,1687287606041,61519430f27aba4a190edbc1,61519430f27aba4a190edbc1,5,book,critical,D,50,book40.jpg,book60.jpg,high,NULL
