#
# Results on Tuesday June 20 2023 18:56:23 UTC
# USER AGENT: Mozilla/5.0 (Windows NT 10.0; Win64; x64) AppleWebKit/537.36 (KHTML, like Gecko) Chrome/113.0.0.0 Safari/537.36 OPR/99.0.0.0
# Design number was non-random = 3
#
# Columns below this comment are as follows:
# 1. Results reception time.
# 2. MD5 hash of participant's IP address.
# 3. Controller name.
# 4. Order number of item.
# 5. Inner element number.
# 6. Label.
# 7. Latin Square Group.
# 8. PennElementType.
# 9. PennElementName.
# 10. Parameter.
# 11. Value.
# 12. EventTime.
# 13. PROLIFIC_ID.
# 14. Comments.
1687287383,cad1113eafb7c33fb7f305d111d87d42,PennController,2,0,consent,NULL,PennController,0,_Trial_,Start,1687287102438,60609964bc97b252dfb09949,NULL
1687287383,cad1113eafb7c33fb7f305d111d87d42,PennController,2,0,consent,NULL,PennController,0,_Header_,Start,1687287102438,60609964bc97b252dfb09949,NULL
1687287383,cad1113eafb7c33fb7f305d111d87d42,PennController,2,0,consent,NULL,PennController,0,_Header_,End,1687287102438,60609964bc97b252dfb09949,NULL
1687287383,cad1113eafb7c33fb7f305d111d87d42,PennController,2,0,consent,NULL,PennController,0,_Trial_,End,1687287106553,60609964bc97b252dfb09949,NULL
# Columns below this comment are as follows:
# 14. ID.
# 15. Comments.
1687287383,cad1113eafb7c33fb7f305d111d87d42,PennController,3,0,intro,NULL,PennController,1,_Trial_,Start,1687287106555,60609964bc97b252dfb09949,60609964bc97b252dfb09949,NULL
1687287383,cad1113eafb7c33fb7f305d111d87d42,PennController,3,0,intro,NULL,PennController,1,_Header_,Start,1687287106555,60609964bc97b252dfb09949,60609964bc97b252dfb09949,NULL
1687287383,cad1113eafb7c33fb7f305d111d87d42,PennController,3,0,intro,NULL,PennController,1,_Header_,End,1687287106555,60609964bc97b252dfb09949,60609964bc97b252dfb09949,NULL
1687287383,cad1113eafb7c33fb7f305d111d87d42,PennController,3,0,intro,NULL,PennController,1,_Trial_,End,1687287114023,60609964bc97b252dfb09949,60609964bc97b252dfb09949,NULL
# Columns below this comment are as follows:
# 15. item_number.
# 16. item.
# 17. type.
# 18. Group.
# 19. prog.
# 20. prev_image.
# 21. next_image.
# 22. height.
# 23. Comments.
1687287383,cad1113eafb7c33fb7f305d111d87d42,PennController,29,0,experiment,NULL,PennController,28,_Trial_,Start,1687287114027,60609964bc97b252dfb09949,60609964bc97b252dfb09949,26,sandwich,filler,D,50,sandwich40.jpg,sandwich60.jpg,GoalA,NULL
1687287383,cad1113eafb7c33fb7f305d111d87d42,PennController,29,0,experiment,NULL,PennController,28,_Header_,Start,1687287114027,60609964bc97b252dfb09949,60609964bc97b252dfb09949,26,sandwich,filler,D,50,sandwich40.jpg,sandwich60.jpg,GoalA,NULL
1687287383,cad1113eafb7c33fb7f305d111d87d42,PennController,29,0,experiment,NULL,PennController,28,_Header_,End,1687287114027,60609964bc97b252dfb09949,60609964bc97b252dfb09949,26,sandwich,filler,D,50,sandwich40.jpg,sandwich60.jpg,GoalA,NULL
1687287383,cad1113eafb7c33fb7f305d111d87d42,PennController,29,0,experiment,NULL,Canvas,canvas6,Print,NA,1687287120738,60609964bc97b252dfb09949,60609964bc97b252dfb09949,26,sandwich,filler,D,50,sandwich40.jpg,sandwich60.jpg,GoalA,NULL
1687287383,cad1113eafb7c33fb7f305d111d87d42,PennController,29,0,experiment,NULL,Video,progression,buffer,0.008155,1687287117568,60609964bc97b252dfb09949,60609964bc97b252dfb09949,26,sandwich,filler,D,50,sandwich40.jpg,sandwich60.jpg,GoalA,NULL
1687287383,cad1113eafb7c33fb7f305d111d87d42,PennController,29,0,experiment,NULL,Selector,choice,Selection,option1,1687287124568,60609964bc97b252dfb09949,60609964bc97b252dfb09949,26,sandwich,filler,D,50,sandwich40.jpg,sandwich60.jpg,GoalA,option2;option1
1687287383,cad1113eafb7c33fb7f305d111d87d42,PennController,29,0,experiment,NULL,PennController,28,_Trial_,End,1687287124569,60609964bc97b252dfb09949,60609964bc97b252dfb09949,26,sandwich,filler,D,50,sandwich40.jpg,sandwich60.jpg,GoalA,NULL
1687287383,cad1113eafb7c33fb7f305d111d87d42,PennController,15,0,experiment,NULL,PennController,14,_Trial_,Start,1687287124571,60609964bc97b252dfb09949,60609964bc97b252dfb09949,12,erase,critical,D,75,erase66.jpg,erase84.jpg,high,NULL
1687287383,cad1113eafb7c33fb7f305d111d87d42,PennController,15,0,experiment,NULL,PennController,14,_Header_,Start,1687287124571,60609964bc97b252dfb09949,60609964bc97b252dfb09949,12,erase,critical,D,75,erase66.jpg,erase84.jpg,high,NULL
1687287383,cad1113eafb7c33fb7f305d111d87d42,PennController,15,0,experiment,NULL,PennController,14,_Header_,End,1687287124571,60609964bc97b252dfb09949,60609964bc97b252dfb09949,12,erase,critical,D,75,erase66.jpg,erase84.jpg,high,NULL
1687287383,cad1113eafb7c33fb7f305d111d87d42,PennController,15,0,experiment,NULL,Canvas,canvas6,Print,NA,1687287134267,60609964bc97b252dfb09949,60609964bc97b252dfb09949,12,erase,critical,D,75,erase66.jpg,erase84.jpg,high,NULL
1687287383,cad1113eafb7c33fb7f305d111d87d42,PennController,15,0,experiment,NULL,Video,progression,buffer,0.006982,1687287128097,60609964bc97b252dfb09949,60609964bc97b252dfb09949,12,erase,critical,D,75,erase66.jpg,erase84.jpg,high,NULL
1687287383,cad1113eafb7c33fb7f305d111d87d42,PennController,15,0,experiment,NULL,Selector,choice,Selection,option1,1687287140070,60609964bc97b252dfb09949,60609964bc97b252dfb09949,12,erase,critical,D,75,erase66.jpg,erase84.jpg,high,option2;option1
1687287383,cad1113eafb7c33fb7f305d111d87d42,PennController,15,0,experiment,NULL,PennController,14,_Trial_,End,1687287140071,60609964bc97b252dfb09949,60609964bc97b252dfb09949,12,erase,critical,D,75,erase66.jpg,erase84.jpg,high,NULL
1687287383,cad1113eafb7c33fb7f305d111d87d42,PennController,25,0,experiment,NULL,PennController,24,_Trial_,Start,1687287140073,60609964bc97b252dfb09949,60609964bc97b252dfb09949,22,wall,filler,D,25,wall15.jpg,wall35.jpg,GoalA,NULL
1687287383,cad1113eafb7c33fb7f305d111d87d42,PennController,25,0,experiment,NULL,PennController,24,_Header_,Start,1687287140073,60609964bc97b252dfb09949,60609964bc97b252dfb09949,22,wall,filler,D,25,wall15.jpg,wall35.jpg,GoalA,NULL
1687287383,cad1113eafb7c33fb7f305d111d87d42,PennController,25,0,experiment,NULL,PennController,24,_Header_,End,1687287140073,60609964bc97b252dfb09949,60609964bc97b252dfb09949,22,wall,filler,D,25,wall15.jpg,wall35.jpg,GoalA,NULL
1687287383,cad1113eafb7c33fb7f305d111d87d42,PennController,25,0,experiment,NULL,Canvas,canvas6,Print,NA,1687287145780,60609964bc97b252dfb09949,60609964bc97b252dfb09949,22,wall,filler,D,25,wall15.jpg,wall35.jpg,GoalA,NULL
1687287383,cad1113eafb7c33fb7f305d111d87d42,PennController,25,0,experiment,NULL,Video,progression,buffer,0,1687287143597,60609964bc97b252dfb09949,60609964bc97b252dfb09949,22,wall,filler,D,25,wall15.jpg,wall35.jpg,GoalA,NULL
1687287383,cad1113eafb7c33fb7f305d111d87d42,PennController,25,0,experiment,NULL,Selector,choice,Selection,option1,1687287148930,60609964bc97b252dfb09949,60609964bc97b252dfb09949,22,wall,filler,D,25,wall15.jpg,wall35.jpg,GoalA,option2;option1
1687287383,cad1113eafb7c33fb7f305d111d87d42,PennController,25,0,experiment,NULL,PennController,24,_Trial_,End,1687287148932,60609964bc97b252dfb09949,60609964bc97b252dfb09949,22,wall,filler,D,25,wall15.jpg,wall35.jpg,GoalA,NULL
1687287383,cad1113eafb7c33fb7f305d111d87d42,PennController,31,0,experiment,NULL,PennController,30,_Trial_,Start,1687287148934,60609964bc97b252dfb09949,60609964bc97b252dfb09949,28,sort,filler,D,25,sort15.jpg,sort35.jpg,GoalA,NULL
1687287383,cad1113eafb7c33fb7f305d111d87d42,PennController,31,0,experiment,NULL,PennController,30,_Header_,Start,1687287148934,60609964bc97b252dfb09949,60609964bc97b252dfb09949,28,sort,filler,D,25,sort15.jpg,sort35.jpg,GoalA,NULL
1687287383,cad1113eafb7c33fb7f305d111d87d42,PennController,31,0,experiment,NULL,PennController,30,_Header_,End,1687287148934,60609964bc97b252dfb09949,60609964bc97b252dfb09949,28,sort,filler,D,25,sort15.jpg,sort35.jpg,GoalA,NULL
1687287383,cad1113eafb7c33fb7f305d111d87d42,PennController,31,0,experiment,NULL,Canvas,canvas6,Print,NA,1687287154659,60609964bc97b252dfb09949,60609964bc97b252dfb09949,28,sort,filler,D,25,sort15.jpg,sort35.jpg,GoalA,NULL
1687287383,cad1113eafb7c33fb7f305d111d87d42,PennController,31,0,experiment,NULL,Video,progression,buffer,0.005692,1687287152459,60609964bc97b252dfb09949,60609964bc97b252dfb09949,28,sort,filler,D,25,sort15.jpg,sort35.jpg,GoalA,NULL
1687287383,cad1113eafb7c33fb7f305d111d87d42,PennController,31,0,experiment,NULL,Selector,choice,Selection,option2,1687287157354,60609964bc97b252dfb09949,60609964bc97b252dfb09949,28,sort,filler,D,25,sort15.jpg,sort35.jpg,GoalA,option2;option1
1687287383,cad1113eafb7c33fb7f305d111d87d42,PennController,31,0,experiment,NULL,PennController,30,_Trial_,End,1687287157355,60609964bc97b252dfb09949,60609964bc97b252dfb09949,28,sort,filler,D,25,sort15.jpg,sort35.jpg,GoalA,NULL
1687287383,cad1113eafb7c33fb7f305d111d87d42,PennController,7,0,experiment,NULL,PennController,6,_Trial_,Start,1687287157357,60609964bc97b252dfb09949,60609964bc97b252dfb09949,4,candy,critical,D,25,candy15.jpg,candy35.jpg,high,NULL
1687287383,cad1113eafb7c33fb7f305d111d87d42,PennController,7,0,experiment,NULL,PennController,6,_Header_,Start,1687287157357,60609964bc97b252dfb09949,60609964bc97b252dfb09949,4,candy,critical,D,25,candy15.jpg,candy35.jpg,high,NULL
1687287383,cad1113eafb7c33fb7f305d111d87d42,PennController,7,0,experiment,NULL,PennController,6,_Header_,End,1687287157357,60609964bc97b252dfb09949,60609964bc97b252dfb09949,4,candy,critical,D,25,candy15.jpg,candy35.jpg,high,NULL
1687287383,cad1113eafb7c33fb7f305d111d87d42,PennController,7,0,experiment,NULL,Canvas,canvas6,Print,NA,1687287163068,60609964bc97b252dfb09949,60609964bc97b252dfb09949,4,candy,critical,D,25,candy15.jpg,candy35.jpg,high,NULL
1687287383,cad1113eafb7c33fb7f305d111d87d42,PennController,7,0,experiment,NULL,Video,progression,buffer,0.004559,1687287160881,60609964bc97b252dfb09949,60609964bc97b252dfb09949,4,candy,critical,D,25,candy15.jpg,candy35.jpg,high,NULL
1687287383,cad1113eafb7c33fb7f305d111d87d42,PennController,7,0,experiment,NULL,Selector,choice,Selection,option1,1687287164461,60609964bc97b252dfb09949,60609964bc97b252dfb09949,4,candy,critical,D,25,candy15.jpg,candy35.jpg,high,option1;option2
1687287383,cad1113eafb7c33fb7f305d111d87d42,PennController,7,0,experiment,NULL,PennController,6,_Trial_,End,1687287164463,60609964bc97b252dfb09949,60609964bc97b252dfb09949,4,candy,critical,D,25,candy15.jpg,candy35.jpg,high,NULL
1687287383,cad1113eafb7c33fb7f305d111d87d42,PennController,9,0,experiment,NULL,PennController,8,_Trial_,Start,1687287164464,60609964bc97b252dfb09949,60609964bc97b252dfb09949,6,flower,critical,D,75,flower65.jpg,flower85.jpg,high,NULL
1687287383,cad1113eafb7c33fb7f305d111d87d42,PennController,9,0,experiment,NULL,PennController,8,_Header_,Start,1687287164464,60609964bc97b252dfb09949,60609964bc97b252dfb09949,6,flower,critical,D,75,flower65.jpg,flower85.jpg,high,NULL
1687287383,cad1113eafb7c33fb7f305d111d87d42,PennController,9,0,experiment,NULL,PennController,8,_Header_,End,1687287164464,60609964bc97b252dfb09949,60609964bc97b252dfb09949,6,flower,critical,D,75,flower65.jpg,flower85.jpg,high,NULL
1687287383,cad1113eafb7c33fb7f305d111d87d42,PennController,9,0,experiment,NULL,Canvas,canvas6,Print,NA,1687287172160,60609964bc97b252dfb09949,60609964bc97b252dfb09949,6,flower,critical,D,75,flower65.jpg,flower85.jpg,high,NULL
1687287383,cad1113eafb7c33fb7f305d111d87d42,PennController,9,0,experiment,NULL,Video,progression,buffer,0.003904,1687287167984,60609964bc97b252dfb09949,60609964bc97b252dfb09949,6,flower,critical,D,75,flower65.jpg,flower85.jpg,high,NULL
1687287383,cad1113eafb7c33fb7f305d111d87d42,PennController,9,0,experiment,NULL,Selector,choice,Selection,option1,1687287175734,60609964bc97b252dfb09949,60609964bc97b252dfb09949,6,flower,critical,D,75,flower65.jpg,flower85.jpg,high,option2;option1
1687287383,cad1113eafb7c33fb7f305d111d87d42,PennController,9,0,experiment,NULL,PennController,8,_Trial_,End,1687287175735,60609964bc97b252dfb09949,60609964bc97b252dfb09949,6,flower,critical,D,75,flower65.jpg,flower85.jpg,high,NULL
1687287383,cad1113eafb7c33fb7f305d111d87d42,PennController,27,0,experiment,NULL,PennController,26,_Trial_,Start,1687287175736,60609964bc97b252dfb09949,60609964bc97b252dfb09949,24,match,filler,D,75,match65.jpg,match85.jpg,GoalA,NULL
1687287383,cad1113eafb7c33fb7f305d111d87d42,PennController,27,0,experiment,NULL,PennController,26,_Header_,Start,1687287175736,60609964bc97b252dfb09949,60609964bc97b252dfb09949,24,match,filler,D,75,match65.jpg,match85.jpg,GoalA,NULL
1687287383,cad1113eafb7c33fb7f305d111d87d42,PennController,27,0,experiment,NULL,PennController,26,_Header_,End,1687287175736,60609964bc97b252dfb09949,60609964bc97b252dfb09949,24,match,filler,D,75,match65.jpg,match85.jpg,GoalA,NULL
1687287383,cad1113eafb7c33fb7f305d111d87d42,PennController,27,0,experiment,NULL,Canvas,canvas6,Print,NA,1687287183439,60609964bc97b252dfb09949,60609964bc97b252dfb09949,24,match,filler,D,75,match65.jpg,match85.jpg,GoalA,NULL
1687287383,cad1113eafb7c33fb7f305d111d87d42,PennController,27,0,experiment,NULL,Video,progression,buffer,0.004142,1687287179262,60609964bc97b252dfb09949,60609964bc97b252dfb09949,24,match,filler,D,75,match65.jpg,match85.jpg,GoalA,NULL
1687287383,cad1113eafb7c33fb7f305d111d87d42,PennController,27,0,experiment,NULL,Selector,choice,Selection,option2,1687287187053,60609964bc97b252dfb09949,60609964bc97b252dfb09949,24,match,filler,D,75,match65.jpg,match85.jpg,GoalA,option2;option1
1687287383,cad1113eafb7c33fb7f305d111d87d42,PennController,27,0,experiment,NULL,PennController,26,_Trial_,End,1687287187055,60609964bc97b252dfb09949,60609964bc97b252dfb09949,24,match,filler,D,75,match65.jpg,match85.jpg,GoalA,NULL
1687287383,cad1113eafb7c33fb7f305d111d87d42,PennController,17,0,experiment,NULL,PennController,16,_Trial_,Start,1687287187058,60609964bc97b252dfb09949,60609964bc97b252dfb09949,14,cover,critical,D,50,cover42.jpg,cover60.jpg,high,NULL
1687287383,cad1113eafb7c33fb7f305d111d87d42,PennController,17,0,experiment,NULL,PennController,16,_Header_,Start,1687287187058,60609964bc97b252dfb09949,60609964bc97b252dfb09949,14,cover,critical,D,50,cover42.jpg,cover60.jpg,high,NULL
1687287383,cad1113eafb7c33fb7f305d111d87d42,PennController,17,0,experiment,NULL,PennController,16,_Header_,End,1687287187058,60609964bc97b252dfb09949,60609964bc97b252dfb09949,14,cover,critical,D,50,cover42.jpg,cover60.jpg,high,NULL
1687287383,cad1113eafb7c33fb7f305d111d87d42,PennController,17,0,experiment,NULL,Canvas,canvas6,Print,NA,1687287195151,60609964bc97b252dfb09949,60609964bc97b252dfb09949,14,cover,critical,D,50,cover42.jpg,cover60.jpg,high,NULL
1687287383,cad1113eafb7c33fb7f305d111d87d42,PennController,17,0,experiment,NULL,Video,progression,buffer,0.003103,1687287190585,60609964bc97b252dfb09949,60609964bc97b252dfb09949,14,cover,critical,D,50,cover42.jpg,cover60.jpg,high,NULL
1687287383,cad1113eafb7c33fb7f305d111d87d42,PennController,17,0,experiment,NULL,Selector,choice,Selection,option1,1687287197455,60609964bc97b252dfb09949,60609964bc97b252dfb09949,14,cover,critical,D,50,cover42.jpg,cover60.jpg,high,option1;option2
1687287383,cad1113eafb7c33fb7f305d111d87d42,PennController,17,0,experiment,NULL,PennController,16,_Trial_,End,1687287197457,60609964bc97b252dfb09949,60609964bc97b252dfb09949,14,cover,critical,D,50,cover42.jpg,cover60.jpg,high,NULL
1687287383,cad1113eafb7c33fb7f305d111d87d42,PennController,20,0,experiment,NULL,PennController,19,_Trial_,Start,1687287197458,60609964bc97b252dfb09949,60609964bc97b252dfb09949,17,roll,critical,D,50,roll40.jpg,roll60.jpg,high,NULL
1687287383,cad1113eafb7c33fb7f305d111d87d42,PennController,20,0,experiment,NULL,PennController,19,_Header_,Start,1687287197458,60609964bc97b252dfb09949,60609964bc97b252dfb09949,17,roll,critical,D,50,roll40.jpg,roll60.jpg,high,NULL
1687287383,cad1113eafb7c33fb7f305d111d87d42,PennController,20,0,experiment,NULL,PennController,19,_Header_,End,1687287197458,60609964bc97b252dfb09949,60609964bc97b252dfb09949,17,roll,critical,D,50,roll40.jpg,roll60.jpg,high,NULL
1687287383,cad1113eafb7c33fb7f305d111d87d42,PennController,20,0,experiment,NULL,Canvas,canvas6,Print,NA,1687287204191,60609964bc97b252dfb09949,60609964bc97b252dfb09949,17,roll,critical,D,50,roll40.jpg,roll60.jpg,high,NULL
1687287383,cad1113eafb7c33fb7f305d111d87d42,PennController,20,0,experiment,NULL,Video,progression,buffer,0,1687287200980,60609964bc97b252dfb09949,60609964bc97b252dfb09949,17,roll,critical,D,50,roll40.jpg,roll60.jpg,high,NULL
1687287383,cad1113eafb7c33fb7f305d111d87d42,PennController,20,0,experiment,NULL,Selector,choice,Selection,option2,1687287205903,60609964bc97b252dfb09949,60609964bc97b252dfb09949,17,roll,critical,D,50,roll40.jpg,roll60.jpg,high,option2;option1
1687287383,cad1113eafb7c33fb7f305d111d87d42,PennController,20,0,experiment,NULL,PennController,19,_Trial_,End,1687287205904,60609964bc97b252dfb09949,60609964bc97b252dfb09949,17,roll,critical,D,50,roll40.jpg,roll60.jpg,high,NULL
1687287383,cad1113eafb7c33fb7f305d111d87d42,PennController,22,0,experiment,NULL,PennController,21,_Trial_,Start,1687287205905,60609964bc97b252dfb09949,60609964bc97b252dfb09949,19,cup,filler,D,25,cup15.jpg,cup35.jpg,GoalB,NULL
1687287383,cad1113eafb7c33fb7f305d111d87d42,PennController,22,0,experiment,NULL,PennController,21,_Header_,Start,1687287205905,60609964bc97b252dfb09949,60609964bc97b252dfb09949,19,cup,filler,D,25,cup15.jpg,cup35.jpg,GoalB,NULL
1687287383,cad1113eafb7c33fb7f305d111d87d42,PennController,22,0,experiment,NULL,PennController,21,_Header_,End,1687287205905,60609964bc97b252dfb09949,60609964bc97b252dfb09949,19,cup,filler,D,25,cup15.jpg,cup35.jpg,GoalB,NULL
1687287383,cad1113eafb7c33fb7f305d111d87d42,PennController,22,0,experiment,NULL,Canvas,canvas6,Print,NA,1687287211629,60609964bc97b252dfb09949,60609964bc97b252dfb09949,19,cup,filler,D,25,cup15.jpg,cup35.jpg,GoalB,NULL
1687287383,cad1113eafb7c33fb7f305d111d87d42,PennController,22,0,experiment,NULL,Video,progression,buffer,0,1687287209431,60609964bc97b252dfb09949,60609964bc97b252dfb09949,19,cup,filler,D,25,cup15.jpg,cup35.jpg,GoalB,NULL
1687287383,cad1113eafb7c33fb7f305d111d87d42,PennController,22,0,experiment,NULL,Selector,choice,Selection,option2,1687287213741,60609964bc97b252dfb09949,60609964bc97b252dfb09949,19,cup,filler,D,25,cup15.jpg,cup35.jpg,GoalB,option1;option2
1687287383,cad1113eafb7c33fb7f305d111d87d42,PennController,22,0,experiment,NULL,PennController,21,_Trial_,End,1687287213742,60609964bc97b252dfb09949,60609964bc97b252dfb09949,19,cup,filler,D,25,cup15.jpg,cup35.jpg,GoalB,NULL
1687287383,cad1113eafb7c33fb7f305d111d87d42,PennController,26,0,experiment,NULL,PennController,25,_Trial_,Start,1687287213744,60609964bc97b252dfb09949,60609964bc97b252dfb09949,23,color,filler,D,50,color40.jpg,color60.jpg,GoalB,NULL
1687287383,cad1113eafb7c33fb7f305d111d87d42,PennController,26,0,experiment,NULL,PennController,25,_Header_,Start,1687287213744,60609964bc97b252dfb09949,60609964bc97b252dfb09949,23,color,filler,D,50,color40.jpg,color60.jpg,GoalB,NULL
1687287383,cad1113eafb7c33fb7f305d111d87d42,PennController,26,0,experiment,NULL,PennController,25,_Header_,End,1687287213744,60609964bc97b252dfb09949,60609964bc97b252dfb09949,23,color,filler,D,50,color40.jpg,color60.jpg,GoalB,NULL
1687287383,cad1113eafb7c33fb7f305d111d87d42,PennController,26,0,experiment,NULL,Canvas,canvas6,Print,NA,1687287220438,60609964bc97b252dfb09949,60609964bc97b252dfb09949,23,color,filler,D,50,color40.jpg,color60.jpg,GoalB,NULL
1687287383,cad1113eafb7c33fb7f305d111d87d42,PennController,26,0,experiment,NULL,Video,progression,buffer,0.00341,1687287217267,60609964bc97b252dfb09949,60609964bc97b252dfb09949,23,color,filler,D,50,color40.jpg,color60.jpg,GoalB,NULL
1687287383,cad1113eafb7c33fb7f305d111d87d42,PennController,26,0,experiment,NULL,Selector,choice,Selection,option2,1687287223082,60609964bc97b252dfb09949,60609964bc97b252dfb09949,23,color,filler,D,50,color40.jpg,color60.jpg,GoalB,option2;option1
1687287383,cad1113eafb7c33fb7f305d111d87d42,PennController,26,0,experiment,NULL,PennController,25,_Trial_,End,1687287223084,60609964bc97b252dfb09949,60609964bc97b252dfb09949,23,color,filler,D,50,color40.jpg,color60.jpg,GoalB,NULL
1687287383,cad1113eafb7c33fb7f305d111d87d42,PennController,10,0,experiment,NULL,PennController,9,_Trial_,Start,1687287223084,60609964bc97b252dfb09949,60609964bc97b252dfb09949,7,stack,critical,D,25,stack15.jpg,stack35.jpg,high,NULL
1687287383,cad1113eafb7c33fb7f305d111d87d42,PennController,10,0,experiment,NULL,PennController,9,_Header_,Start,1687287223084,60609964bc97b252dfb09949,60609964bc97b252dfb09949,7,stack,critical,D,25,stack15.jpg,stack35.jpg,high,NULL
1687287383,cad1113eafb7c33fb7f305d111d87d42,PennController,10,0,experiment,NULL,PennController,9,_Header_,End,1687287223085,60609964bc97b252dfb09949,60609964bc97b252dfb09949,7,stack,critical,D,25,stack15.jpg,stack35.jpg,high,NULL
1687287383,cad1113eafb7c33fb7f305d111d87d42,PennController,10,0,experiment,NULL,Canvas,canvas6,Print,NA,1687287228781,60609964bc97b252dfb09949,60609964bc97b252dfb09949,7,stack,critical,D,25,stack15.jpg,stack35.jpg,high,NULL
1687287383,cad1113eafb7c33fb7f305d111d87d42,PennController,10,0,experiment,NULL,Video,progression,buffer,0.005776,1687287226609,60609964bc97b252dfb09949,60609964bc97b252dfb09949,7,stack,critical,D,25,stack15.jpg,stack35.jpg,high,NULL
1687287383,cad1113eafb7c33fb7f305d111d87d42,PennController,10,0,experiment,NULL,Selector,choice,Selection,option1,1687287231556,60609964bc97b252dfb09949,60609964bc97b252dfb09949,7,stack,critical,D,25,stack15.jpg,stack35.jpg,high,option1;option2
1687287383,cad1113eafb7c33fb7f305d111d87d42,PennController,10,0,experiment,NULL,PennController,9,_Trial_,End,1687287231557,60609964bc97b252dfb09949,60609964bc97b252dfb09949,7,stack,critical,D,25,stack15.jpg,stack35.jpg,high,NULL
1687287383,cad1113eafb7c33fb7f305d111d87d42,PennController,19,0,experiment,NULL,PennController,18,_Trial_,Start,1687287231558,60609964bc97b252dfb09949,60609964bc97b252dfb09949,16,blinds,critical,D,25,blinds15.jpg,blinds33.jpg,high,NULL
1687287383,cad1113eafb7c33fb7f305d111d87d42,PennController,19,0,experiment,NULL,PennController,18,_Header_,Start,1687287231559,60609964bc97b252dfb09949,60609964bc97b252dfb09949,16,blinds,critical,D,25,blinds15.jpg,blinds33.jpg,high,NULL
1687287383,cad1113eafb7c33fb7f305d111d87d42,PennController,19,0,experiment,NULL,PennController,18,_Header_,End,1687287231559,60609964bc97b252dfb09949,60609964bc97b252dfb09949,16,blinds,critical,D,25,blinds15.jpg,blinds33.jpg,high,NULL
1687287383,cad1113eafb7c33fb7f305d111d87d42,PennController,19,0,experiment,NULL,Canvas,canvas6,Print,NA,1687287237859,60609964bc97b252dfb09949,60609964bc97b252dfb09949,16,blinds,critical,D,25,blinds15.jpg,blinds33.jpg,high,NULL
1687287383,cad1113eafb7c33fb7f305d111d87d42,PennController,19,0,experiment,NULL,Video,progression,buffer,0.005496,1687287235085,60609964bc97b252dfb09949,60609964bc97b252dfb09949,16,blinds,critical,D,25,blinds15.jpg,blinds33.jpg,high,NULL
1687287383,cad1113eafb7c33fb7f305d111d87d42,PennController,19,0,experiment,NULL,Selector,choice,Selection,option1,1687287239704,60609964bc97b252dfb09949,60609964bc97b252dfb09949,16,blinds,critical,D,25,blinds15.jpg,blinds33.jpg,high,option1;option2
1687287383,cad1113eafb7c33fb7f305d111d87d42,PennController,19,0,experiment,NULL,PennController,18,_Trial_,End,1687287239706,60609964bc97b252dfb09949,60609964bc97b252dfb09949,16,blinds,critical,D,25,blinds15.jpg,blinds33.jpg,high,NULL
1687287383,cad1113eafb7c33fb7f305d111d87d42,PennController,4,0,experiment,NULL,PennController,3,_Trial_,Start,1687287239707,60609964bc97b252dfb09949,60609964bc97b252dfb09949,1,vase,critical,D,25,vase15.jpg,vase35.jpg,high,NULL
1687287383,cad1113eafb7c33fb7f305d111d87d42,PennController,4,0,experiment,NULL,PennController,3,_Header_,Start,1687287239707,60609964bc97b252dfb09949,60609964bc97b252dfb09949,1,vase,critical,D,25,vase15.jpg,vase35.jpg,high,NULL
1687287383,cad1113eafb7c33fb7f305d111d87d42,PennController,4,0,experiment,NULL,PennController,3,_Header_,End,1687287239707,60609964bc97b252dfb09949,60609964bc97b252dfb09949,1,vase,critical,D,25,vase15.jpg,vase35.jpg,high,NULL
1687287383,cad1113eafb7c33fb7f305d111d87d42,PennController,4,0,experiment,NULL,Canvas,canvas6,Print,NA,1687287245430,60609964bc97b252dfb09949,60609964bc97b252dfb09949,1,vase,critical,D,25,vase15.jpg,vase35.jpg,high,NULL
1687287383,cad1113eafb7c33fb7f305d111d87d42,PennController,4,0,experiment,NULL,Video,progression,buffer,0,1687287243231,60609964bc97b252dfb09949,60609964bc97b252dfb09949,1,vase,critical,D,25,vase15.jpg,vase35.jpg,high,NULL
1687287383,cad1113eafb7c33fb7f305d111d87d42,PennController,4,0,experiment,NULL,Selector,choice,Selection,option2,1687287246818,60609964bc97b252dfb09949,60609964bc97b252dfb09949,1,vase,critical,D,25,vase15.jpg,vase35.jpg,high,option1;option2
1687287383,cad1113eafb7c33fb7f305d111d87d42,PennController,4,0,experiment,NULL,PennController,3,_Trial_,End,1687287246819,60609964bc97b252dfb09949,60609964bc97b252dfb09949,1,vase,critical,D,25,vase15.jpg,vase35.jpg,high,NULL
1687287383,cad1113eafb7c33fb7f305d111d87d42,PennController,12,0,experiment,NULL,PennController,11,_Trial_,Start,1687287246820,60609964bc97b252dfb09949,60609964bc97b252dfb09949,9,cake,critical,D,75,cake66.jpg,cake84.jpg,high,NULL
1687287383,cad1113eafb7c33fb7f305d111d87d42,PennController,12,0,experiment,NULL,PennController,11,_Header_,Start,1687287246820,60609964bc97b252dfb09949,60609964bc97b252dfb09949,9,cake,critical,D,75,cake66.jpg,cake84.jpg,high,NULL
1687287383,cad1113eafb7c33fb7f305d111d87d42,PennController,12,0,experiment,NULL,PennController,11,_Header_,End,1687287246820,60609964bc97b252dfb09949,60609964bc97b252dfb09949,9,cake,critical,D,75,cake66.jpg,cake84.jpg,high,NULL
1687287383,cad1113eafb7c33fb7f305d111d87d42,PennController,12,0,experiment,NULL,Canvas,canvas6,Print,NA,1687287256507,60609964bc97b252dfb09949,60609964bc97b252dfb09949,9,cake,critical,D,75,cake66.jpg,cake84.jpg,high,NULL
1687287383,cad1113eafb7c33fb7f305d111d87d42,PennController,12,0,experiment,NULL,Video,progression,buffer,0.004363,1687287250339,60609964bc97b252dfb09949,60609964bc97b252dfb09949,9,cake,critical,D,75,cake66.jpg,cake84.jpg,high,NULL
1687287383,cad1113eafb7c33fb7f305d111d87d42,PennController,12,0,experiment,NULL,Selector,choice,Selection,option2,1687287258518,60609964bc97b252dfb09949,60609964bc97b252dfb09949,9,cake,critical,D,75,cake66.jpg,cake84.jpg,high,option1;option2
1687287383,cad1113eafb7c33fb7f305d111d87d42,PennController,12,0,experiment,NULL,PennController,11,_Trial_,End,1687287258519,60609964bc97b252dfb09949,60609964bc97b252dfb09949,9,cake,critical,D,75,cake66.jpg,cake84.jpg,high,NULL
1687287383,cad1113eafb7c33fb7f305d111d87d42,PennController,24,0,experiment,NULL,PennController,23,_Trial_,Start,1687287258520,60609964bc97b252dfb09949,60609964bc97b252dfb09949,21,visit,filler,D,75,visit65.jpg,visit85.jpg,GoalB,NULL
1687287383,cad1113eafb7c33fb7f305d111d87d42,PennController,24,0,experiment,NULL,PennController,23,_Header_,Start,1687287258520,60609964bc97b252dfb09949,60609964bc97b252dfb09949,21,visit,filler,D,75,visit65.jpg,visit85.jpg,GoalB,NULL
1687287383,cad1113eafb7c33fb7f305d111d87d42,PennController,24,0,experiment,NULL,PennController,23,_Header_,End,1687287258520,60609964bc97b252dfb09949,60609964bc97b252dfb09949,21,visit,filler,D,75,visit65.jpg,visit85.jpg,GoalB,NULL
1687287383,cad1113eafb7c33fb7f305d111d87d42,PennController,24,0,experiment,NULL,Canvas,canvas6,Print,NA,1687287266212,60609964bc97b252dfb09949,60609964bc97b252dfb09949,21,visit,filler,D,75,visit65.jpg,visit85.jpg,GoalB,NULL
1687287383,cad1113eafb7c33fb7f305d111d87d42,PennController,24,0,experiment,NULL,Video,progression,buffer,0.005905,1687287262043,60609964bc97b252dfb09949,60609964bc97b252dfb09949,21,visit,filler,D,75,visit65.jpg,visit85.jpg,GoalB,NULL
1687287383,cad1113eafb7c33fb7f305d111d87d42,PennController,24,0,experiment,NULL,Selector,choice,Selection,option2,1687287267470,60609964bc97b252dfb09949,60609964bc97b252dfb09949,21,visit,filler,D,75,visit65.jpg,visit85.jpg,GoalB,option1;option2
1687287383,cad1113eafb7c33fb7f305d111d87d42,PennController,24,0,experiment,NULL,PennController,23,_Trial_,End,1687287267471,60609964bc97b252dfb09949,60609964bc97b252dfb09949,21,visit,filler,D,75,visit65.jpg,visit85.jpg,GoalB,NULL
1687287383,cad1113eafb7c33fb7f305d111d87d42,PennController,30,0,experiment,NULL,PennController,29,_Trial_,Start,1687287267472,60609964bc97b252dfb09949,60609964bc97b252dfb09949,27,square,filler,D,75,square65.jpg,square85.jpg,GoalB,NULL
1687287383,cad1113eafb7c33fb7f305d111d87d42,PennController,30,0,experiment,NULL,PennController,29,_Header_,Start,1687287267472,60609964bc97b252dfb09949,60609964bc97b252dfb09949,27,square,filler,D,75,square65.jpg,square85.jpg,GoalB,NULL
1687287383,cad1113eafb7c33fb7f305d111d87d42,PennController,30,0,experiment,NULL,PennController,29,_Header_,End,1687287267472,60609964bc97b252dfb09949,60609964bc97b252dfb09949,27,square,filler,D,75,square65.jpg,square85.jpg,GoalB,NULL
1687287383,cad1113eafb7c33fb7f305d111d87d42,PennController,30,0,experiment,NULL,Canvas,canvas6,Print,NA,1687287275167,60609964bc97b252dfb09949,60609964bc97b252dfb09949,27,square,filler,D,75,square65.jpg,square85.jpg,GoalB,NULL
1687287383,cad1113eafb7c33fb7f305d111d87d42,PennController,30,0,experiment,NULL,Video,progression,buffer,0.006654,1687287270997,60609964bc97b252dfb09949,60609964bc97b252dfb09949,27,square,filler,D,75,square65.jpg,square85.jpg,GoalB,NULL
1687287383,cad1113eafb7c33fb7f305d111d87d42,PennController,30,0,experiment,NULL,Selector,choice,Selection,option1,1687287276504,60609964bc97b252dfb09949,60609964bc97b252dfb09949,27,square,filler,D,75,square65.jpg,square85.jpg,GoalB,option2;option1
1687287383,cad1113eafb7c33fb7f305d111d87d42,PennController,30,0,experiment,NULL,PennController,29,_Trial_,End,1687287276505,60609964bc97b252dfb09949,60609964bc97b252dfb09949,27,square,filler,D,75,square65.jpg,square85.jpg,GoalB,NULL
1687287383,cad1113eafb7c33fb7f305d111d87d42,PennController,28,0,experiment,NULL,PennController,27,_Trial_,Start,1687287276507,60609964bc97b252dfb09949,60609964bc97b252dfb09949,25,house,filler,D,25,house15.jpg,house35.jpg,GoalB,NULL
1687287383,cad1113eafb7c33fb7f305d111d87d42,PennController,28,0,experiment,NULL,PennController,27,_Header_,Start,1687287276507,60609964bc97b252dfb09949,60609964bc97b252dfb09949,25,house,filler,D,25,house15.jpg,house35.jpg,GoalB,NULL
1687287383,cad1113eafb7c33fb7f305d111d87d42,PennController,28,0,experiment,NULL,PennController,27,_Header_,End,1687287276507,60609964bc97b252dfb09949,60609964bc97b252dfb09949,25,house,filler,D,25,house15.jpg,house35.jpg,GoalB,NULL
1687287383,cad1113eafb7c33fb7f305d111d87d42,PennController,28,0,experiment,NULL,Canvas,canvas6,Print,NA,1687287282208,60609964bc97b252dfb09949,60609964bc97b252dfb09949,25,house,filler,D,25,house15.jpg,house35.jpg,GoalB,NULL
1687287383,cad1113eafb7c33fb7f305d111d87d42,PennController,28,0,experiment,NULL,Video,progression,buffer,0,1687287280024,60609964bc97b252dfb09949,60609964bc97b252dfb09949,25,house,filler,D,25,house15.jpg,house35.jpg,GoalB,NULL
1687287383,cad1113eafb7c33fb7f305d111d87d42,PennController,28,0,experiment,NULL,Selector,choice,Selection,option2,1687287283676,60609964bc97b252dfb09949,60609964bc97b252dfb09949,25,house,filler,D,25,house15.jpg,house35.jpg,GoalB,option1;option2
1687287383,cad1113eafb7c33fb7f305d111d87d42,PennController,28,0,experiment,NULL,PennController,27,_Trial_,End,1687287283677,60609964bc97b252dfb09949,60609964bc97b252dfb09949,25,house,filler,D,25,house15.jpg,house35.jpg,GoalB,NULL
1687287383,cad1113eafb7c33fb7f305d111d87d42,PennController,21,0,experiment,NULL,PennController,20,_Trial_,Start,1687287283678,60609964bc97b252dfb09949,60609964bc97b252dfb09949,18,ball,critical,D,75,ball65.jpg,ball85.jpg,high,NULL
1687287383,cad1113eafb7c33fb7f305d111d87d42,PennController,21,0,experiment,NULL,PennController,20,_Header_,Start,1687287283678,60609964bc97b252dfb09949,60609964bc97b252dfb09949,18,ball,critical,D,75,ball65.jpg,ball85.jpg,high,NULL
1687287383,cad1113eafb7c33fb7f305d111d87d42,PennController,21,0,experiment,NULL,PennController,20,_Header_,End,1687287283678,60609964bc97b252dfb09949,60609964bc97b252dfb09949,18,ball,critical,D,75,ball65.jpg,ball85.jpg,high,NULL
1687287383,cad1113eafb7c33fb7f305d111d87d42,PennController,21,0,experiment,NULL,Canvas,canvas6,Print,NA,1687287291428,60609964bc97b252dfb09949,60609964bc97b252dfb09949,18,ball,critical,D,75,ball65.jpg,ball85.jpg,high,NULL
1687287383,cad1113eafb7c33fb7f305d111d87d42,PennController,21,0,experiment,NULL,Video,progression,buffer,0.003418,1687287287258,60609964bc97b252dfb09949,60609964bc97b252dfb09949,18,ball,critical,D,75,ball65.jpg,ball85.jpg,high,NULL
1687287383,cad1113eafb7c33fb7f305d111d87d42,PennController,21,0,experiment,NULL,Selector,choice,Selection,option1,1687287293726,60609964bc97b252dfb09949,60609964bc97b252dfb09949,18,ball,critical,D,75,ball65.jpg,ball85.jpg,high,option2;option1
1687287383,cad1113eafb7c33fb7f305d111d87d42,PennController,21,0,experiment,NULL,PennController,20,_Trial_,End,1687287293727,60609964bc97b252dfb09949,60609964bc97b252dfb09949,18,ball,critical,D,75,ball65.jpg,ball85.jpg,high,NULL
1687287383,cad1113eafb7c33fb7f305d111d87d42,PennController,16,0,experiment,NULL,PennController,15,_Trial_,Start,1687287293728,60609964bc97b252dfb09949,60609964bc97b252dfb09949,13,mix,critical,D,25,mix15.jpg,mix35.jpg,high,NULL
1687287383,cad1113eafb7c33fb7f305d111d87d42,PennController,16,0,experiment,NULL,PennController,15,_Header_,Start,1687287293728,60609964bc97b252dfb09949,60609964bc97b252dfb09949,13,mix,critical,D,25,mix15.jpg,mix35.jpg,high,NULL
1687287383,cad1113eafb7c33fb7f305d111d87d42,PennController,16,0,experiment,NULL,PennController,15,_Header_,End,1687287293729,60609964bc97b252dfb09949,60609964bc97b252dfb09949,13,mix,critical,D,25,mix15.jpg,mix35.jpg,high,NULL
1687287383,cad1113eafb7c33fb7f305d111d87d42,PennController,16,0,experiment,NULL,Canvas,canvas6,Print,NA,1687287299443,60609964bc97b252dfb09949,60609964bc97b252dfb09949,13,mix,critical,D,25,mix15.jpg,mix35.jpg,high,NULL
1687287383,cad1113eafb7c33fb7f305d111d87d42,PennController,16,0,experiment,NULL,Video,progression,buffer,0,1687287297253,60609964bc97b252dfb09949,60609964bc97b252dfb09949,13,mix,critical,D,25,mix15.jpg,mix35.jpg,high,NULL
1687287383,cad1113eafb7c33fb7f305d111d87d42,PennController,16,0,experiment,NULL,Selector,choice,Selection,option1,1687287301139,60609964bc97b252dfb09949,60609964bc97b252dfb09949,13,mix,critical,D,25,mix15.jpg,mix35.jpg,high,option1;option2
1687287383,cad1113eafb7c33fb7f305d111d87d42,PennController,16,0,experiment,NULL,PennController,15,_Trial_,End,1687287301140,60609964bc97b252dfb09949,60609964bc97b252dfb09949,13,mix,critical,D,25,mix15.jpg,mix35.jpg,high,NULL
1687287383,cad1113eafb7c33fb7f305d111d87d42,PennController,32,0,experiment,NULL,PennController,31,_Trial_,Start,1687287301141,60609964bc97b252dfb09949,60609964bc97b252dfb09949,29,frog,filler,D,50,frog40.jpg,frog60.jpg,GoalB,NULL
1687287383,cad1113eafb7c33fb7f305d111d87d42,PennController,32,0,experiment,NULL,PennController,31,_Header_,Start,1687287301141,60609964bc97b252dfb09949,60609964bc97b252dfb09949,29,frog,filler,D,50,frog40.jpg,frog60.jpg,GoalB,NULL
1687287383,cad1113eafb7c33fb7f305d111d87d42,PennController,32,0,experiment,NULL,PennController,31,_Header_,End,1687287301141,60609964bc97b252dfb09949,60609964bc97b252dfb09949,29,frog,filler,D,50,frog40.jpg,frog60.jpg,GoalB,NULL
1687287383,cad1113eafb7c33fb7f305d111d87d42,PennController,32,0,experiment,NULL,Canvas,canvas6,Print,NA,1687287307839,60609964bc97b252dfb09949,60609964bc97b252dfb09949,29,frog,filler,D,50,frog40.jpg,frog60.jpg,GoalB,NULL
1687287383,cad1113eafb7c33fb7f305d111d87d42,PennController,32,0,experiment,NULL,Video,progression,buffer,0.003455,1687287304665,60609964bc97b252dfb09949,60609964bc97b252dfb09949,29,frog,filler,D,50,frog40.jpg,frog60.jpg,GoalB,NULL
1687287383,cad1113eafb7c33fb7f305d111d87d42,PennController,32,0,experiment,NULL,Selector,choice,Selection,option2,1687287310221,60609964bc97b252dfb09949,60609964bc97b252dfb09949,29,frog,filler,D,50,frog40.jpg,frog60.jpg,GoalB,option1;option2
1687287383,cad1113eafb7c33fb7f305d111d87d42,PennController,32,0,experiment,NULL,PennController,31,_Trial_,End,1687287310222,60609964bc97b252dfb09949,60609964bc97b252dfb09949,29,frog,filler,D,50,frog40.jpg,frog60.jpg,GoalB,NULL
1687287383,cad1113eafb7c33fb7f305d111d87d42,PennController,11,0,experiment,NULL,PennController,10,_Trial_,Start,1687287310223,60609964bc97b252dfb09949,60609964bc97b252dfb09949,8,cucumber,critical,D,50,cucumber42.jpg,cucumber60.jpg,high,NULL
1687287383,cad1113eafb7c33fb7f305d111d87d42,PennController,11,0,experiment,NULL,PennController,10,_Header_,Start,1687287310223,60609964bc97b252dfb09949,60609964bc97b252dfb09949,8,cucumber,critical,D,50,cucumber42.jpg,cucumber60.jpg,high,NULL
1687287383,cad1113eafb7c33fb7f305d111d87d42,PennController,11,0,experiment,NULL,PennController,10,_Header_,End,1687287310223,60609964bc97b252dfb09949,60609964bc97b252dfb09949,8,cucumber,critical,D,50,cucumber42.jpg,cucumber60.jpg,high,NULL
1687287383,cad1113eafb7c33fb7f305d111d87d42,PennController,11,0,experiment,NULL,Canvas,canvas6,Print,NA,1687287318316,60609964bc97b252dfb09949,60609964bc97b252dfb09949,8,cucumber,critical,D,50,cucumber42.jpg,cucumber60.jpg,high,NULL
1687287383,cad1113eafb7c33fb7f305d111d87d42,PennController,11,0,experiment,NULL,Video,progression,buffer,0.003064,1687287313741,60609964bc97b252dfb09949,60609964bc97b252dfb09949,8,cucumber,critical,D,50,cucumber42.jpg,cucumber60.jpg,high,NULL
1687287383,cad1113eafb7c33fb7f305d111d87d42,PennController,11,0,experiment,NULL,Selector,choice,Selection,option2,1687287320354,60609964bc97b252dfb09949,60609964bc97b252dfb09949,8,cucumber,critical,D,50,cucumber42.jpg,cucumber60.jpg,high,option1;option2
1687287383,cad1113eafb7c33fb7f305d111d87d42,PennController,11,0,experiment,NULL,PennController,10,_Trial_,End,1687287320356,60609964bc97b252dfb09949,60609964bc97b252dfb09949,8,cucumber,critical,D,50,cucumber42.jpg,cucumber60.jpg,high,NULL
1687287383,cad1113eafb7c33fb7f305d111d87d42,PennController,8,0,experiment,NULL,PennController,7,_Trial_,Start,1687287320357,60609964bc97b252dfb09949,60609964bc97b252dfb09949,5,book,critical,D,50,book40.jpg,book60.jpg,high,NULL
1687287383,cad1113eafb7c33fb7f305d111d87d42,PennController,8,0,experiment,NULL,PennController,7,_Header_,Start,1687287320357,60609964bc97b252dfb09949,60609964bc97b252dfb09949,5,book,critical,D,50,book40.jpg,book60.jpg,high,NULL
1687287383,cad1113eafb7c33fb7f305d111d87d42,PennController,8,0,experiment,NULL,PennController,7,_Header_,End,1687287320357,60609964bc97b252dfb09949,60609964bc97b252dfb09949,5,book,critical,D,50,book40.jpg,book60.jpg,high,NULL
1687287383,cad1113eafb7c33fb7f305d111d87d42,PennController,8,0,experiment,NULL,Canvas,canvas6,Print,NA,1687287327059,60609964bc97b252dfb09949,60609964bc97b252dfb09949,5,book,critical,D,50,book40.jpg,book60.jpg,high,NULL
1687287383,cad1113eafb7c33fb7f305d111d87d42,PennController,8,0,experiment,NULL,Video,progression,buffer,0.003171,1687287323882,60609964bc97b252dfb09949,60609964bc97b252dfb09949,5,book,critical,D,50,book40.jpg,book60.jpg,high,NULL
1687287383,cad1113eafb7c33fb7f305d111d87d42,PennController,8,0,experiment,NULL,Selector,choice,Selection,option2,1687287329755,60609964bc97b252dfb09949,60609964bc97b252dfb09949,5,book,critical,D,50,book40.jpg,book60.jpg,high,option1;option2
1687287383,cad1113eafb7c33fb7f305d111d87d42,PennController,8,0,experiment,NULL,PennController,7,_Trial_,End,1687287329757,60609964bc97b252dfb09949,60609964bc97b252dfb09949,5,book,critical,D,50,book40.jpg,book60.jpg,high,NULL
1687287383,cad1113eafb7c33fb7f305d111d87d42,PennController,13,0,experiment,NULL,PennController,12,_Trial_,Start,1687287329758,60609964bc97b252dfb09949,60609964bc97b252dfb09949,10,train,critical,D,25,train15.jpg,train35.jpg,high,NULL
1687287383,cad1113eafb7c33fb7f305d111d87d42,PennController,13,0,experiment,NULL,PennController,12,_Header_,Start,1687287329758,60609964bc97b252dfb09949,60609964bc97b252dfb09949,10,train,critical,D,25,train15.jpg,train35.jpg,high,NULL
1687287383,cad1113eafb7c33fb7f305d111d87d42,PennController,13,0,experiment,NULL,PennController,12,_Header_,End,1687287329758,60609964bc97b252dfb09949,60609964bc97b252dfb09949,10,train,critical,D,25,train15.jpg,train35.jpg,high,NULL
1687287383,cad1113eafb7c33fb7f305d111d87d42,PennController,13,0,experiment,NULL,Canvas,canvas6,Print,NA,1687287335442,60609964bc97b252dfb09949,60609964bc97b252dfb09949,10,train,critical,D,25,train15.jpg,train35.jpg,high,NULL
1687287383,cad1113eafb7c33fb7f305d111d87d42,PennController,13,0,experiment,NULL,Video,progression,buffer,0.004714,1687287333276,60609964bc97b252dfb09949,60609964bc97b252dfb09949,10,train,critical,D,25,train15.jpg,train35.jpg,high,NULL
1687287383,cad1113eafb7c33fb7f305d111d87d42,PennController,13,0,experiment,NULL,Selector,choice,Selection,option1,1687287337053,60609964bc97b252dfb09949,60609964bc97b252dfb09949,10,train,critical,D,25,train15.jpg,train35.jpg,high,option2;option1
1687287383,cad1113eafb7c33fb7f305d111d87d42,PennController,13,0,experiment,NULL,PennController,12,_Trial_,End,1687287337054,60609964bc97b252dfb09949,60609964bc97b252dfb09949,10,train,critical,D,25,train15.jpg,train35.jpg,high,NULL
1687287383,cad1113eafb7c33fb7f305d111d87d42,PennController,14,0,experiment,NULL,PennController,13,_Trial_,Start,1687287337056,60609964bc97b252dfb09949,60609964bc97b252dfb09949,11,beads,critical,D,50,beads40.jpg,beads60.jpg,high,NULL
1687287383,cad1113eafb7c33fb7f305d111d87d42,PennController,14,0,experiment,NULL,PennController,13,_Header_,Start,1687287337056,60609964bc97b252dfb09949,60609964bc97b252dfb09949,11,beads,critical,D,50,beads40.jpg,beads60.jpg,high,NULL
1687287383,cad1113eafb7c33fb7f305d111d87d42,PennController,14,0,experiment,NULL,PennController,13,_Header_,End,1687287337056,60609964bc97b252dfb09949,60609964bc97b252dfb09949,11,beads,critical,D,50,beads40.jpg,beads60.jpg,high,NULL
1687287383,cad1113eafb7c33fb7f305d111d87d42,PennController,14,0,experiment,NULL,Canvas,canvas6,Print,NA,1687287343760,60609964bc97b252dfb09949,60609964bc97b252dfb09949,11,beads,critical,D,50,beads40.jpg,beads60.jpg,high,NULL
1687287383,cad1113eafb7c33fb7f305d111d87d42,PennController,14,0,experiment,NULL,Video,progression,buffer,0.004111,1687287340579,60609964bc97b252dfb09949,60609964bc97b252dfb09949,11,beads,critical,D,50,beads40.jpg,beads60.jpg,high,NULL
1687287383,cad1113eafb7c33fb7f305d111d87d42,PennController,14,0,experiment,NULL,Selector,choice,Selection,option2,1687287346148,60609964bc97b252dfb09949,60609964bc97b252dfb09949,11,beads,critical,D,50,beads40.jpg,beads60.jpg,high,option2;option1
1687287383,cad1113eafb7c33fb7f305d111d87d42,PennController,14,0,experiment,NULL,PennController,13,_Trial_,End,1687287346149,60609964bc97b252dfb09949,60609964bc97b252dfb09949,11,beads,critical,D,50,beads40.jpg,beads60.jpg,high,NULL
1687287383,cad1113eafb7c33fb7f305d111d87d42,PennController,18,0,experiment,NULL,PennController,17,_Trial_,Start,1687287346151,60609964bc97b252dfb09949,60609964bc97b252dfb09949,15,zip,critical,D,75,zip65.jpg,zip85.jpg,high,NULL
1687287383,cad1113eafb7c33fb7f305d111d87d42,PennController,18,0,experiment,NULL,PennController,17,_Header_,Start,1687287346151,60609964bc97b252dfb09949,60609964bc97b252dfb09949,15,zip,critical,D,75,zip65.jpg,zip85.jpg,high,NULL
1687287383,cad1113eafb7c33fb7f305d111d87d42,PennController,18,0,experiment,NULL,PennController,17,_Header_,End,1687287346151,60609964bc97b252dfb09949,60609964bc97b252dfb09949,15,zip,critical,D,75,zip65.jpg,zip85.jpg,high,NULL
1687287383,cad1113eafb7c33fb7f305d111d87d42,PennController,18,0,experiment,NULL,Canvas,canvas6,Print,NA,1687287353051,60609964bc97b252dfb09949,60609964bc97b252dfb09949,15,zip,critical,D,75,zip65.jpg,zip85.jpg,high,NULL
1687287383,cad1113eafb7c33fb7f305d111d87d42,PennController,18,0,experiment,NULL,Video,progression,buffer,0.003552,1687287349669,60609964bc97b252dfb09949,60609964bc97b252dfb09949,15,zip,critical,D,75,zip65.jpg,zip85.jpg,high,NULL
1687287383,cad1113eafb7c33fb7f305d111d87d42,PennController,18,0,experiment,NULL,Selector,choice,Selection,option2,1687287354852,60609964bc97b252dfb09949,60609964bc97b252dfb09949,15,zip,critical,D,75,zip65.jpg,zip85.jpg,high,option2;option1
1687287383,cad1113eafb7c33fb7f305d111d87d42,PennController,18,0,experiment,NULL,PennController,17,_Trial_,End,1687287354854,60609964bc97b252dfb09949,60609964bc97b252dfb09949,15,zip,critical,D,75,zip65.jpg,zip85.jpg,high,NULL
1687287383,cad1113eafb7c33fb7f305d111d87d42,PennController,23,0,experiment,NULL,PennController,22,_Trial_,Start,1687287354855,60609964bc97b252dfb09949,60609964bc97b252dfb09949,20,cat,filler,D,50,cat40.jpg,cat60.jpg,GoalA,NULL
1687287383,cad1113eafb7c33fb7f305d111d87d42,PennController,23,0,experiment,NULL,PennController,22,_Header_,Start,1687287354855,60609964bc97b252dfb09949,60609964bc97b252dfb09949,20,cat,filler,D,50,cat40.jpg,cat60.jpg,GoalA,NULL
1687287383,cad1113eafb7c33fb7f305d111d87d42,PennController,23,0,experiment,NULL,PennController,22,_Header_,End,1687287354856,60609964bc97b252dfb09949,60609964bc97b252dfb09949,20,cat,filler,D,50,cat40.jpg,cat60.jpg,GoalA,NULL
1687287383,cad1113eafb7c33fb7f305d111d87d42,PennController,23,0,experiment,NULL,Canvas,canvas6,Print,NA,1687287361553,60609964bc97b252dfb09949,60609964bc97b252dfb09949,20,cat,filler,D,50,cat40.jpg,cat60.jpg,GoalA,NULL
1687287383,cad1113eafb7c33fb7f305d111d87d42,PennController,23,0,experiment,NULL,Video,progression,buffer,0.006794,1687287358381,60609964bc97b252dfb09949,60609964bc97b252dfb09949,20,cat,filler,D,50,cat40.jpg,cat60.jpg,GoalA,NULL
1687287383,cad1113eafb7c33fb7f305d111d87d42,PennController,23,0,experiment,NULL,Selector,choice,Selection,option2,1687287362840,60609964bc97b252dfb09949,60609964bc97b252dfb09949,20,cat,filler,D,50,cat40.jpg,cat60.jpg,GoalA,option2;option1
1687287383,cad1113eafb7c33fb7f305d111d87d42,PennController,23,0,experiment,NULL,PennController,22,_Trial_,End,1687287362841,60609964bc97b252dfb09949,60609964bc97b252dfb09949,20,cat,filler,D,50,cat40.jpg,cat60.jpg,GoalA,NULL
1687287383,cad1113eafb7c33fb7f305d111d87d42,PennController,6,0,experiment,NULL,PennController,5,_Trial_,Start,1687287362842,60609964bc97b252dfb09949,60609964bc97b252dfb09949,3,clean,critical,D,75,clean65.jpg,clean85.jpg,high,NULL
1687287383,cad1113eafb7c33fb7f305d111d87d42,PennController,6,0,experiment,NULL,PennController,5,_Header_,Start,1687287362842,60609964bc97b252dfb09949,60609964bc97b252dfb09949,3,clean,critical,D,75,clean65.jpg,clean85.jpg,high,NULL
1687287383,cad1113eafb7c33fb7f305d111d87d42,PennController,6,0,experiment,NULL,PennController,5,_Header_,End,1687287362842,60609964bc97b252dfb09949,60609964bc97b252dfb09949,3,clean,critical,D,75,clean65.jpg,clean85.jpg,high,NULL
1687287383,cad1113eafb7c33fb7f305d111d87d42,PennController,6,0,experiment,NULL,Canvas,canvas6,Print,NA,1687287370540,60609964bc97b252dfb09949,60609964bc97b252dfb09949,3,clean,critical,D,75,clean65.jpg,clean85.jpg,high,NULL
1687287383,cad1113eafb7c33fb7f305d111d87d42,PennController,6,0,experiment,NULL,Video,progression,buffer,0.00353,1687287366358,60609964bc97b252dfb09949,60609964bc97b252dfb09949,3,clean,critical,D,75,clean65.jpg,clean85.jpg,high,NULL
1687287383,cad1113eafb7c33fb7f305d111d87d42,PennController,6,0,experiment,NULL,Selector,choice,Selection,option1,1687287371662,60609964bc97b252dfb09949,60609964bc97b252dfb09949,3,clean,critical,D,75,clean65.jpg,clean85.jpg,high,option1;option2
1687287383,cad1113eafb7c33fb7f305d111d87d42,PennController,6,0,experiment,NULL,PennController,5,_Trial_,End,1687287371663,60609964bc97b252dfb09949,60609964bc97b252dfb09949,3,clean,critical,D,75,clean65.jpg,clean85.jpg,high,NULL
1687287383,cad1113eafb7c33fb7f305d111d87d42,PennController,5,0,experiment,NULL,PennController,4,_Trial_,Start,1687287371665,60609964bc97b252dfb09949,60609964bc97b252dfb09949,2,door,critical,D,50,door40.jpg,door60.jpg,high,NULL
1687287383,cad1113eafb7c33fb7f305d111d87d42,PennController,5,0,experiment,NULL,PennController,4,_Header_,Start,1687287371665,60609964bc97b252dfb09949,60609964bc97b252dfb09949,2,door,critical,D,50,door40.jpg,door60.jpg,high,NULL
1687287383,cad1113eafb7c33fb7f305d111d87d42,PennController,5,0,experiment,NULL,PennController,4,_Header_,End,1687287371665,60609964bc97b252dfb09949,60609964bc97b252dfb09949,2,door,critical,D,50,door40.jpg,door60.jpg,high,NULL
1687287383,cad1113eafb7c33fb7f305d111d87d42,PennController,5,0,experiment,NULL,Canvas,canvas6,Print,NA,1687287378362,60609964bc97b252dfb09949,60609964bc97b252dfb09949,2,door,critical,D,50,door40.jpg,door60.jpg,high,NULL
1687287383,cad1113eafb7c33fb7f305d111d87d42,PennController,5,0,experiment,NULL,Video,progression,buffer,0.003344,1687287375183,60609964bc97b252dfb09949,60609964bc97b252dfb09949,2,door,critical,D,50,door40.jpg,door60.jpg,high,NULL
1687287383,cad1113eafb7c33fb7f305d111d87d42,PennController,5,0,experiment,NULL,Selector,choice,Selection,option2,1687287382726,60609964bc97b252dfb09949,60609964bc97b252dfb09949,2,door,critical,D,50,door40.jpg,door60.jpg,high,option1;option2
1687287383,cad1113eafb7c33fb7f305d111d87d42,PennController,5,0,experiment,NULL,PennController,4,_Trial_,End,1687287382728,60609964bc97b252dfb09949,60609964bc97b252dfb09949,2,door,critical,D,50,door40.jpg,door60.jpg,high,NULL
