#
# Results on Thursday June 22 2023 05:50:27 UTC
# USER AGENT: Mozilla/5.0 (Windows NT 10.0; Win64; x64; rv:109.0) Gecko/20100101 Firefox/114.0
# Design number was non-random = 87
#
# Columns below this comment are as follows:
# 1. Results reception time.
# 2. MD5 hash of participant's IP address.
# 3. Controller name.
# 4. Order number of item.
# 5. Inner element number.
# 6. Label.
# 7. Latin Square Group.
# 8. PennElementType.
# 9. PennElementName.
# 10. Parameter.
# 11. Value.
# 12. EventTime.
# 13. PROLIFIC_ID.
# 14. Comments.
1687413027,9dc0f327ac14bc5c7bd9918ea66514ce,PennController,3,0,consent,NULL,PennController,0,_Trial_,Start,1687412753500,5f3b033d78bf3c202a84aeb6,NULL
1687413027,9dc0f327ac14bc5c7bd9918ea66514ce,PennController,3,0,consent,NULL,PennController,0,_Header_,Start,1687412753500,5f3b033d78bf3c202a84aeb6,NULL
1687413027,9dc0f327ac14bc5c7bd9918ea66514ce,PennController,3,0,consent,NULL,PennController,0,_Header_,End,1687412753500,5f3b033d78bf3c202a84aeb6,NULL
1687413027,9dc0f327ac14bc5c7bd9918ea66514ce,PennController,3,0,consent,NULL,PennController,0,_Trial_,End,1687412756297,5f3b033d78bf3c202a84aeb6,NULL
# Columns below this comment are as follows:
# 14. ID.
# 15. Comments.
1687413027,9dc0f327ac14bc5c7bd9918ea66514ce,PennController,4,0,intro,NULL,PennController,1,_Trial_,Start,1687412756298,5f3b033d78bf3c202a84aeb6,5f3b033d78bf3c202a84aeb6,NULL
1687413027,9dc0f327ac14bc5c7bd9918ea66514ce,PennController,4,0,intro,NULL,PennController,1,_Header_,Start,1687412756298,5f3b033d78bf3c202a84aeb6,5f3b033d78bf3c202a84aeb6,NULL
1687413027,9dc0f327ac14bc5c7bd9918ea66514ce,PennController,4,0,intro,NULL,PennController,1,_Header_,End,1687412756298,5f3b033d78bf3c202a84aeb6,5f3b033d78bf3c202a84aeb6,NULL
1687413027,9dc0f327ac14bc5c7bd9918ea66514ce,PennController,4,0,intro,NULL,PennController,1,_Trial_,End,1687412759450,5f3b033d78bf3c202a84aeb6,5f3b033d78bf3c202a84aeb6,NULL
# Columns below this comment are as follows:
# 15. item_number.
# 16. item.
# 17. type.
# 18. Group.
# 19. prog.
# 20. prev_image.
# 21. next_image.
# 22. height.
# 23. Comments.
1687413027,9dc0f327ac14bc5c7bd9918ea66514ce,PennController,14,0,experiment,NULL,PennController,12,_Trial_,Start,1687412759452,5f3b033d78bf3c202a84aeb6,5f3b033d78bf3c202a84aeb6,10,train,critical,B,50,train40.jpg,train60.jpg,low,NULL
1687413027,9dc0f327ac14bc5c7bd9918ea66514ce,PennController,14,0,experiment,NULL,PennController,12,_Header_,Start,1687412759452,5f3b033d78bf3c202a84aeb6,5f3b033d78bf3c202a84aeb6,10,train,critical,B,50,train40.jpg,train60.jpg,low,NULL
1687413027,9dc0f327ac14bc5c7bd9918ea66514ce,PennController,14,0,experiment,NULL,PennController,12,_Header_,End,1687412759452,5f3b033d78bf3c202a84aeb6,5f3b033d78bf3c202a84aeb6,10,train,critical,B,50,train40.jpg,train60.jpg,low,NULL
1687413027,9dc0f327ac14bc5c7bd9918ea66514ce,PennController,14,0,experiment,NULL,Video,progression,buffer,0,1687412762994,5f3b033d78bf3c202a84aeb6,5f3b033d78bf3c202a84aeb6,10,train,critical,B,50,train40.jpg,train60.jpg,low,NULL
1687413027,9dc0f327ac14bc5c7bd9918ea66514ce,PennController,14,0,experiment,NULL,Canvas,canvas6,Print,NA,1687412766219,5f3b033d78bf3c202a84aeb6,5f3b033d78bf3c202a84aeb6,10,train,critical,B,50,train40.jpg,train60.jpg,low,NULL
1687413027,9dc0f327ac14bc5c7bd9918ea66514ce,PennController,14,0,experiment,NULL,Selector,choice,Selection,option2,1687412773609,5f3b033d78bf3c202a84aeb6,5f3b033d78bf3c202a84aeb6,10,train,critical,B,50,train40.jpg,train60.jpg,low,option2;option1
1687413027,9dc0f327ac14bc5c7bd9918ea66514ce,PennController,14,0,experiment,NULL,PennController,12,_Trial_,End,1687412773610,5f3b033d78bf3c202a84aeb6,5f3b033d78bf3c202a84aeb6,10,train,critical,B,50,train40.jpg,train60.jpg,low,NULL
1687413027,9dc0f327ac14bc5c7bd9918ea66514ce,PennController,25,0,experiment,NULL,PennController,23,_Trial_,Start,1687412773612,5f3b033d78bf3c202a84aeb6,5f3b033d78bf3c202a84aeb6,21,visit,filler,B,25,visit15.jpg,visit35.jpg,GoalA,NULL
1687413027,9dc0f327ac14bc5c7bd9918ea66514ce,PennController,25,0,experiment,NULL,PennController,23,_Header_,Start,1687412773612,5f3b033d78bf3c202a84aeb6,5f3b033d78bf3c202a84aeb6,21,visit,filler,B,25,visit15.jpg,visit35.jpg,GoalA,NULL
1687413027,9dc0f327ac14bc5c7bd9918ea66514ce,PennController,25,0,experiment,NULL,PennController,23,_Header_,End,1687412773612,5f3b033d78bf3c202a84aeb6,5f3b033d78bf3c202a84aeb6,21,visit,filler,B,25,visit15.jpg,visit35.jpg,GoalA,NULL
1687413027,9dc0f327ac14bc5c7bd9918ea66514ce,PennController,25,0,experiment,NULL,Video,progression,buffer,0,1687412777152,5f3b033d78bf3c202a84aeb6,5f3b033d78bf3c202a84aeb6,21,visit,filler,B,25,visit15.jpg,visit35.jpg,GoalA,NULL
1687413027,9dc0f327ac14bc5c7bd9918ea66514ce,PennController,25,0,experiment,NULL,Canvas,canvas6,Print,NA,1687412779389,5f3b033d78bf3c202a84aeb6,5f3b033d78bf3c202a84aeb6,21,visit,filler,B,25,visit15.jpg,visit35.jpg,GoalA,NULL
1687413027,9dc0f327ac14bc5c7bd9918ea66514ce,PennController,25,0,experiment,NULL,Selector,choice,Selection,option2,1687412781180,5f3b033d78bf3c202a84aeb6,5f3b033d78bf3c202a84aeb6,21,visit,filler,B,25,visit15.jpg,visit35.jpg,GoalA,option2;option1
1687413027,9dc0f327ac14bc5c7bd9918ea66514ce,PennController,25,0,experiment,NULL,PennController,23,_Trial_,End,1687412781181,5f3b033d78bf3c202a84aeb6,5f3b033d78bf3c202a84aeb6,21,visit,filler,B,25,visit15.jpg,visit35.jpg,GoalA,NULL
1687413027,9dc0f327ac14bc5c7bd9918ea66514ce,PennController,26,0,experiment,NULL,PennController,24,_Trial_,Start,1687412781183,5f3b033d78bf3c202a84aeb6,5f3b033d78bf3c202a84aeb6,22,wall,filler,B,50,wall40.jpg,wall60.jpg,GoalB,NULL
1687413027,9dc0f327ac14bc5c7bd9918ea66514ce,PennController,26,0,experiment,NULL,PennController,24,_Header_,Start,1687412781183,5f3b033d78bf3c202a84aeb6,5f3b033d78bf3c202a84aeb6,22,wall,filler,B,50,wall40.jpg,wall60.jpg,GoalB,NULL
1687413027,9dc0f327ac14bc5c7bd9918ea66514ce,PennController,26,0,experiment,NULL,PennController,24,_Header_,End,1687412781183,5f3b033d78bf3c202a84aeb6,5f3b033d78bf3c202a84aeb6,22,wall,filler,B,50,wall40.jpg,wall60.jpg,GoalB,NULL
1687413027,9dc0f327ac14bc5c7bd9918ea66514ce,PennController,26,0,experiment,NULL,Video,progression,buffer,0,1687412784712,5f3b033d78bf3c202a84aeb6,5f3b033d78bf3c202a84aeb6,22,wall,filler,B,50,wall40.jpg,wall60.jpg,GoalB,NULL
1687413027,9dc0f327ac14bc5c7bd9918ea66514ce,PennController,26,0,experiment,NULL,Canvas,canvas6,Print,NA,1687412787946,5f3b033d78bf3c202a84aeb6,5f3b033d78bf3c202a84aeb6,22,wall,filler,B,50,wall40.jpg,wall60.jpg,GoalB,NULL
1687413027,9dc0f327ac14bc5c7bd9918ea66514ce,PennController,26,0,experiment,NULL,Selector,choice,Selection,option2,1687412790022,5f3b033d78bf3c202a84aeb6,5f3b033d78bf3c202a84aeb6,22,wall,filler,B,50,wall40.jpg,wall60.jpg,GoalB,option1;option2
1687413027,9dc0f327ac14bc5c7bd9918ea66514ce,PennController,26,0,experiment,NULL,PennController,24,_Trial_,End,1687412790024,5f3b033d78bf3c202a84aeb6,5f3b033d78bf3c202a84aeb6,22,wall,filler,B,50,wall40.jpg,wall60.jpg,GoalB,NULL
1687413027,9dc0f327ac14bc5c7bd9918ea66514ce,PennController,9,0,experiment,NULL,PennController,7,_Trial_,Start,1687412790025,5f3b033d78bf3c202a84aeb6,5f3b033d78bf3c202a84aeb6,5,book,critical,B,75,book65.jpg,book85.jpg,low,NULL
1687413027,9dc0f327ac14bc5c7bd9918ea66514ce,PennController,9,0,experiment,NULL,PennController,7,_Header_,Start,1687412790025,5f3b033d78bf3c202a84aeb6,5f3b033d78bf3c202a84aeb6,5,book,critical,B,75,book65.jpg,book85.jpg,low,NULL
1687413027,9dc0f327ac14bc5c7bd9918ea66514ce,PennController,9,0,experiment,NULL,PennController,7,_Header_,End,1687412790025,5f3b033d78bf3c202a84aeb6,5f3b033d78bf3c202a84aeb6,5,book,critical,B,75,book65.jpg,book85.jpg,low,NULL
1687413027,9dc0f327ac14bc5c7bd9918ea66514ce,PennController,9,0,experiment,NULL,Video,progression,buffer,0,1687412793562,5f3b033d78bf3c202a84aeb6,5f3b033d78bf3c202a84aeb6,5,book,critical,B,75,book65.jpg,book85.jpg,low,NULL
1687413027,9dc0f327ac14bc5c7bd9918ea66514ce,PennController,9,0,experiment,NULL,Canvas,canvas6,Print,NA,1687412797790,5f3b033d78bf3c202a84aeb6,5f3b033d78bf3c202a84aeb6,5,book,critical,B,75,book65.jpg,book85.jpg,low,NULL
1687413027,9dc0f327ac14bc5c7bd9918ea66514ce,PennController,9,0,experiment,NULL,Selector,choice,Selection,option1,1687412800227,5f3b033d78bf3c202a84aeb6,5f3b033d78bf3c202a84aeb6,5,book,critical,B,75,book65.jpg,book85.jpg,low,option1;option2
1687413027,9dc0f327ac14bc5c7bd9918ea66514ce,PennController,9,0,experiment,NULL,PennController,7,_Trial_,End,1687412800228,5f3b033d78bf3c202a84aeb6,5f3b033d78bf3c202a84aeb6,5,book,critical,B,75,book65.jpg,book85.jpg,low,NULL
1687413027,9dc0f327ac14bc5c7bd9918ea66514ce,PennController,7,0,experiment,NULL,PennController,5,_Trial_,Start,1687412800229,5f3b033d78bf3c202a84aeb6,5f3b033d78bf3c202a84aeb6,3,clean,critical,B,25,clean15.jpg,clean35.jpg,low,NULL
1687413027,9dc0f327ac14bc5c7bd9918ea66514ce,PennController,7,0,experiment,NULL,PennController,5,_Header_,Start,1687412800229,5f3b033d78bf3c202a84aeb6,5f3b033d78bf3c202a84aeb6,3,clean,critical,B,25,clean15.jpg,clean35.jpg,low,NULL
1687413027,9dc0f327ac14bc5c7bd9918ea66514ce,PennController,7,0,experiment,NULL,PennController,5,_Header_,End,1687412800229,5f3b033d78bf3c202a84aeb6,5f3b033d78bf3c202a84aeb6,3,clean,critical,B,25,clean15.jpg,clean35.jpg,low,NULL
1687413027,9dc0f327ac14bc5c7bd9918ea66514ce,PennController,7,0,experiment,NULL,Video,progression,buffer,0,1687412803777,5f3b033d78bf3c202a84aeb6,5f3b033d78bf3c202a84aeb6,3,clean,critical,B,25,clean15.jpg,clean35.jpg,low,NULL
1687413027,9dc0f327ac14bc5c7bd9918ea66514ce,PennController,7,0,experiment,NULL,Canvas,canvas6,Print,NA,1687412806001,5f3b033d78bf3c202a84aeb6,5f3b033d78bf3c202a84aeb6,3,clean,critical,B,25,clean15.jpg,clean35.jpg,low,NULL
1687413027,9dc0f327ac14bc5c7bd9918ea66514ce,PennController,7,0,experiment,NULL,Selector,choice,Selection,option1,1687412810156,5f3b033d78bf3c202a84aeb6,5f3b033d78bf3c202a84aeb6,3,clean,critical,B,25,clean15.jpg,clean35.jpg,low,option2;option1
1687413027,9dc0f327ac14bc5c7bd9918ea66514ce,PennController,7,0,experiment,NULL,PennController,5,_Trial_,End,1687412810157,5f3b033d78bf3c202a84aeb6,5f3b033d78bf3c202a84aeb6,3,clean,critical,B,25,clean15.jpg,clean35.jpg,low,NULL
1687413027,9dc0f327ac14bc5c7bd9918ea66514ce,PennController,31,0,experiment,NULL,PennController,29,_Trial_,Start,1687412810158,5f3b033d78bf3c202a84aeb6,5f3b033d78bf3c202a84aeb6,27,square,filler,B,25,square15.jpg,square35.jpg,GoalA,NULL
1687413027,9dc0f327ac14bc5c7bd9918ea66514ce,PennController,31,0,experiment,NULL,PennController,29,_Header_,Start,1687412810158,5f3b033d78bf3c202a84aeb6,5f3b033d78bf3c202a84aeb6,27,square,filler,B,25,square15.jpg,square35.jpg,GoalA,NULL
1687413027,9dc0f327ac14bc5c7bd9918ea66514ce,PennController,31,0,experiment,NULL,PennController,29,_Header_,End,1687412810158,5f3b033d78bf3c202a84aeb6,5f3b033d78bf3c202a84aeb6,27,square,filler,B,25,square15.jpg,square35.jpg,GoalA,NULL
1687413027,9dc0f327ac14bc5c7bd9918ea66514ce,PennController,31,0,experiment,NULL,Video,progression,buffer,0,1687412813692,5f3b033d78bf3c202a84aeb6,5f3b033d78bf3c202a84aeb6,27,square,filler,B,25,square15.jpg,square35.jpg,GoalA,NULL
1687413027,9dc0f327ac14bc5c7bd9918ea66514ce,PennController,31,0,experiment,NULL,Canvas,canvas6,Print,NA,1687412815919,5f3b033d78bf3c202a84aeb6,5f3b033d78bf3c202a84aeb6,27,square,filler,B,25,square15.jpg,square35.jpg,GoalA,NULL
1687413027,9dc0f327ac14bc5c7bd9918ea66514ce,PennController,31,0,experiment,NULL,Selector,choice,Selection,option2,1687412817575,5f3b033d78bf3c202a84aeb6,5f3b033d78bf3c202a84aeb6,27,square,filler,B,25,square15.jpg,square35.jpg,GoalA,option2;option1
1687413027,9dc0f327ac14bc5c7bd9918ea66514ce,PennController,31,0,experiment,NULL,PennController,29,_Trial_,End,1687412817576,5f3b033d78bf3c202a84aeb6,5f3b033d78bf3c202a84aeb6,27,square,filler,B,25,square15.jpg,square35.jpg,GoalA,NULL
1687413027,9dc0f327ac14bc5c7bd9918ea66514ce,PennController,23,0,experiment,NULL,PennController,21,_Trial_,Start,1687412817577,5f3b033d78bf3c202a84aeb6,5f3b033d78bf3c202a84aeb6,19,cup,filler,B,50,cup40.jpg,cup60.jpg,GoalA,NULL
1687413027,9dc0f327ac14bc5c7bd9918ea66514ce,PennController,23,0,experiment,NULL,PennController,21,_Header_,Start,1687412817577,5f3b033d78bf3c202a84aeb6,5f3b033d78bf3c202a84aeb6,19,cup,filler,B,50,cup40.jpg,cup60.jpg,GoalA,NULL
1687413027,9dc0f327ac14bc5c7bd9918ea66514ce,PennController,23,0,experiment,NULL,PennController,21,_Header_,End,1687412817577,5f3b033d78bf3c202a84aeb6,5f3b033d78bf3c202a84aeb6,19,cup,filler,B,50,cup40.jpg,cup60.jpg,GoalA,NULL
1687413027,9dc0f327ac14bc5c7bd9918ea66514ce,PennController,23,0,experiment,NULL,Video,progression,buffer,0,1687412821109,5f3b033d78bf3c202a84aeb6,5f3b033d78bf3c202a84aeb6,19,cup,filler,B,50,cup40.jpg,cup60.jpg,GoalA,NULL
1687413027,9dc0f327ac14bc5c7bd9918ea66514ce,PennController,23,0,experiment,NULL,Canvas,canvas6,Print,NA,1687412824339,5f3b033d78bf3c202a84aeb6,5f3b033d78bf3c202a84aeb6,19,cup,filler,B,50,cup40.jpg,cup60.jpg,GoalA,NULL
1687413027,9dc0f327ac14bc5c7bd9918ea66514ce,PennController,23,0,experiment,NULL,Selector,choice,Selection,option1,1687412828675,5f3b033d78bf3c202a84aeb6,5f3b033d78bf3c202a84aeb6,19,cup,filler,B,50,cup40.jpg,cup60.jpg,GoalA,option1;option2
1687413027,9dc0f327ac14bc5c7bd9918ea66514ce,PennController,23,0,experiment,NULL,PennController,21,_Trial_,End,1687412828678,5f3b033d78bf3c202a84aeb6,5f3b033d78bf3c202a84aeb6,19,cup,filler,B,50,cup40.jpg,cup60.jpg,GoalA,NULL
1687413027,9dc0f327ac14bc5c7bd9918ea66514ce,PennController,20,0,experiment,NULL,PennController,18,_Trial_,Start,1687412828681,5f3b033d78bf3c202a84aeb6,5f3b033d78bf3c202a84aeb6,16,blinds,critical,B,50,blinds42.jpg,blinds60.jpg,low,NULL
1687413027,9dc0f327ac14bc5c7bd9918ea66514ce,PennController,20,0,experiment,NULL,PennController,18,_Header_,Start,1687412828681,5f3b033d78bf3c202a84aeb6,5f3b033d78bf3c202a84aeb6,16,blinds,critical,B,50,blinds42.jpg,blinds60.jpg,low,NULL
1687413027,9dc0f327ac14bc5c7bd9918ea66514ce,PennController,20,0,experiment,NULL,PennController,18,_Header_,End,1687412828681,5f3b033d78bf3c202a84aeb6,5f3b033d78bf3c202a84aeb6,16,blinds,critical,B,50,blinds42.jpg,blinds60.jpg,low,NULL
1687413027,9dc0f327ac14bc5c7bd9918ea66514ce,PennController,20,0,experiment,NULL,Video,progression,buffer,0,1687412832215,5f3b033d78bf3c202a84aeb6,5f3b033d78bf3c202a84aeb6,16,blinds,critical,B,50,blinds42.jpg,blinds60.jpg,low,NULL
1687413027,9dc0f327ac14bc5c7bd9918ea66514ce,PennController,20,0,experiment,NULL,Canvas,canvas6,Print,NA,1687412836853,5f3b033d78bf3c202a84aeb6,5f3b033d78bf3c202a84aeb6,16,blinds,critical,B,50,blinds42.jpg,blinds60.jpg,low,NULL
1687413027,9dc0f327ac14bc5c7bd9918ea66514ce,PennController,20,0,experiment,NULL,Selector,choice,Selection,option2,1687412838669,5f3b033d78bf3c202a84aeb6,5f3b033d78bf3c202a84aeb6,16,blinds,critical,B,50,blinds42.jpg,blinds60.jpg,low,option2;option1
1687413027,9dc0f327ac14bc5c7bd9918ea66514ce,PennController,20,0,experiment,NULL,PennController,18,_Trial_,End,1687412838671,5f3b033d78bf3c202a84aeb6,5f3b033d78bf3c202a84aeb6,16,blinds,critical,B,50,blinds42.jpg,blinds60.jpg,low,NULL
1687413027,9dc0f327ac14bc5c7bd9918ea66514ce,PennController,18,0,experiment,NULL,PennController,16,_Trial_,Start,1687412838672,5f3b033d78bf3c202a84aeb6,5f3b033d78bf3c202a84aeb6,14,cover,critical,B,75,cover66.jpg,cover84.jpg,low,NULL
1687413027,9dc0f327ac14bc5c7bd9918ea66514ce,PennController,18,0,experiment,NULL,PennController,16,_Header_,Start,1687412838672,5f3b033d78bf3c202a84aeb6,5f3b033d78bf3c202a84aeb6,14,cover,critical,B,75,cover66.jpg,cover84.jpg,low,NULL
1687413027,9dc0f327ac14bc5c7bd9918ea66514ce,PennController,18,0,experiment,NULL,PennController,16,_Header_,End,1687412838672,5f3b033d78bf3c202a84aeb6,5f3b033d78bf3c202a84aeb6,14,cover,critical,B,75,cover66.jpg,cover84.jpg,low,NULL
1687413027,9dc0f327ac14bc5c7bd9918ea66514ce,PennController,18,0,experiment,NULL,Video,progression,buffer,0,1687412842208,5f3b033d78bf3c202a84aeb6,5f3b033d78bf3c202a84aeb6,14,cover,critical,B,75,cover66.jpg,cover84.jpg,low,NULL
1687413027,9dc0f327ac14bc5c7bd9918ea66514ce,PennController,18,0,experiment,NULL,Canvas,canvas6,Print,NA,1687412848436,5f3b033d78bf3c202a84aeb6,5f3b033d78bf3c202a84aeb6,14,cover,critical,B,75,cover66.jpg,cover84.jpg,low,NULL
1687413027,9dc0f327ac14bc5c7bd9918ea66514ce,PennController,18,0,experiment,NULL,Selector,choice,Selection,option2,1687412849973,5f3b033d78bf3c202a84aeb6,5f3b033d78bf3c202a84aeb6,14,cover,critical,B,75,cover66.jpg,cover84.jpg,low,option2;option1
1687413027,9dc0f327ac14bc5c7bd9918ea66514ce,PennController,18,0,experiment,NULL,PennController,16,_Trial_,End,1687412849974,5f3b033d78bf3c202a84aeb6,5f3b033d78bf3c202a84aeb6,14,cover,critical,B,75,cover66.jpg,cover84.jpg,low,NULL
1687413027,9dc0f327ac14bc5c7bd9918ea66514ce,PennController,33,0,experiment,NULL,PennController,31,_Trial_,Start,1687412849975,5f3b033d78bf3c202a84aeb6,5f3b033d78bf3c202a84aeb6,29,frog,filler,B,75,frog65.jpg,frog85.jpg,GoalA,NULL
1687413027,9dc0f327ac14bc5c7bd9918ea66514ce,PennController,33,0,experiment,NULL,PennController,31,_Header_,Start,1687412849975,5f3b033d78bf3c202a84aeb6,5f3b033d78bf3c202a84aeb6,29,frog,filler,B,75,frog65.jpg,frog85.jpg,GoalA,NULL
1687413027,9dc0f327ac14bc5c7bd9918ea66514ce,PennController,33,0,experiment,NULL,PennController,31,_Header_,End,1687412849975,5f3b033d78bf3c202a84aeb6,5f3b033d78bf3c202a84aeb6,29,frog,filler,B,75,frog65.jpg,frog85.jpg,GoalA,NULL
1687413027,9dc0f327ac14bc5c7bd9918ea66514ce,PennController,33,0,experiment,NULL,Video,progression,buffer,0,1687412853522,5f3b033d78bf3c202a84aeb6,5f3b033d78bf3c202a84aeb6,29,frog,filler,B,75,frog65.jpg,frog85.jpg,GoalA,NULL
1687413027,9dc0f327ac14bc5c7bd9918ea66514ce,PennController,33,0,experiment,NULL,Canvas,canvas6,Print,NA,1687412857756,5f3b033d78bf3c202a84aeb6,5f3b033d78bf3c202a84aeb6,29,frog,filler,B,75,frog65.jpg,frog85.jpg,GoalA,NULL
1687413027,9dc0f327ac14bc5c7bd9918ea66514ce,PennController,33,0,experiment,NULL,Selector,choice,Selection,option2,1687412859151,5f3b033d78bf3c202a84aeb6,5f3b033d78bf3c202a84aeb6,29,frog,filler,B,75,frog65.jpg,frog85.jpg,GoalA,option2;option1
1687413027,9dc0f327ac14bc5c7bd9918ea66514ce,PennController,33,0,experiment,NULL,PennController,31,_Trial_,End,1687412859152,5f3b033d78bf3c202a84aeb6,5f3b033d78bf3c202a84aeb6,29,frog,filler,B,75,frog65.jpg,frog85.jpg,GoalA,NULL
1687413027,9dc0f327ac14bc5c7bd9918ea66514ce,PennController,12,0,experiment,NULL,PennController,10,_Trial_,Start,1687412859153,5f3b033d78bf3c202a84aeb6,5f3b033d78bf3c202a84aeb6,8,cucumber,critical,B,75,cucumber66.jpg,cucumber84.jpg,low,NULL
1687413027,9dc0f327ac14bc5c7bd9918ea66514ce,PennController,12,0,experiment,NULL,PennController,10,_Header_,Start,1687412859153,5f3b033d78bf3c202a84aeb6,5f3b033d78bf3c202a84aeb6,8,cucumber,critical,B,75,cucumber66.jpg,cucumber84.jpg,low,NULL
1687413027,9dc0f327ac14bc5c7bd9918ea66514ce,PennController,12,0,experiment,NULL,PennController,10,_Header_,End,1687412859153,5f3b033d78bf3c202a84aeb6,5f3b033d78bf3c202a84aeb6,8,cucumber,critical,B,75,cucumber66.jpg,cucumber84.jpg,low,NULL
1687413027,9dc0f327ac14bc5c7bd9918ea66514ce,PennController,12,0,experiment,NULL,Video,progression,buffer,0,1687412862689,5f3b033d78bf3c202a84aeb6,5f3b033d78bf3c202a84aeb6,8,cucumber,critical,B,75,cucumber66.jpg,cucumber84.jpg,low,NULL
1687413027,9dc0f327ac14bc5c7bd9918ea66514ce,PennController,12,0,experiment,NULL,Canvas,canvas6,Print,NA,1687412868921,5f3b033d78bf3c202a84aeb6,5f3b033d78bf3c202a84aeb6,8,cucumber,critical,B,75,cucumber66.jpg,cucumber84.jpg,low,NULL
1687413027,9dc0f327ac14bc5c7bd9918ea66514ce,PennController,12,0,experiment,NULL,Selector,choice,Selection,option2,1687412870454,5f3b033d78bf3c202a84aeb6,5f3b033d78bf3c202a84aeb6,8,cucumber,critical,B,75,cucumber66.jpg,cucumber84.jpg,low,option2;option1
1687413027,9dc0f327ac14bc5c7bd9918ea66514ce,PennController,12,0,experiment,NULL,PennController,10,_Trial_,End,1687412870455,5f3b033d78bf3c202a84aeb6,5f3b033d78bf3c202a84aeb6,8,cucumber,critical,B,75,cucumber66.jpg,cucumber84.jpg,low,NULL
1687413027,9dc0f327ac14bc5c7bd9918ea66514ce,PennController,17,0,experiment,NULL,PennController,15,_Trial_,Start,1687412870455,5f3b033d78bf3c202a84aeb6,5f3b033d78bf3c202a84aeb6,13,mix,critical,B,50,mix40.jpg,mix60.jpg,low,NULL
1687413027,9dc0f327ac14bc5c7bd9918ea66514ce,PennController,17,0,experiment,NULL,PennController,15,_Header_,Start,1687412870455,5f3b033d78bf3c202a84aeb6,5f3b033d78bf3c202a84aeb6,13,mix,critical,B,50,mix40.jpg,mix60.jpg,low,NULL
1687413027,9dc0f327ac14bc5c7bd9918ea66514ce,PennController,17,0,experiment,NULL,PennController,15,_Header_,End,1687412870455,5f3b033d78bf3c202a84aeb6,5f3b033d78bf3c202a84aeb6,13,mix,critical,B,50,mix40.jpg,mix60.jpg,low,NULL
1687413027,9dc0f327ac14bc5c7bd9918ea66514ce,PennController,17,0,experiment,NULL,Video,progression,buffer,0,1687412873982,5f3b033d78bf3c202a84aeb6,5f3b033d78bf3c202a84aeb6,13,mix,critical,B,50,mix40.jpg,mix60.jpg,low,NULL
1687413027,9dc0f327ac14bc5c7bd9918ea66514ce,PennController,17,0,experiment,NULL,Canvas,canvas6,Print,NA,1687412877203,5f3b033d78bf3c202a84aeb6,5f3b033d78bf3c202a84aeb6,13,mix,critical,B,50,mix40.jpg,mix60.jpg,low,NULL
1687413027,9dc0f327ac14bc5c7bd9918ea66514ce,PennController,17,0,experiment,NULL,Selector,choice,Selection,option2,1687412878727,5f3b033d78bf3c202a84aeb6,5f3b033d78bf3c202a84aeb6,13,mix,critical,B,50,mix40.jpg,mix60.jpg,low,option2;option1
1687413027,9dc0f327ac14bc5c7bd9918ea66514ce,PennController,17,0,experiment,NULL,PennController,15,_Trial_,End,1687412878728,5f3b033d78bf3c202a84aeb6,5f3b033d78bf3c202a84aeb6,13,mix,critical,B,50,mix40.jpg,mix60.jpg,low,NULL
1687413027,9dc0f327ac14bc5c7bd9918ea66514ce,PennController,27,0,experiment,NULL,PennController,25,_Trial_,Start,1687412878729,5f3b033d78bf3c202a84aeb6,5f3b033d78bf3c202a84aeb6,23,color,filler,B,75,color65.jpg,color85.jpg,GoalA,NULL
1687413027,9dc0f327ac14bc5c7bd9918ea66514ce,PennController,27,0,experiment,NULL,PennController,25,_Header_,Start,1687412878729,5f3b033d78bf3c202a84aeb6,5f3b033d78bf3c202a84aeb6,23,color,filler,B,75,color65.jpg,color85.jpg,GoalA,NULL
1687413027,9dc0f327ac14bc5c7bd9918ea66514ce,PennController,27,0,experiment,NULL,PennController,25,_Header_,End,1687412878729,5f3b033d78bf3c202a84aeb6,5f3b033d78bf3c202a84aeb6,23,color,filler,B,75,color65.jpg,color85.jpg,GoalA,NULL
1687413027,9dc0f327ac14bc5c7bd9918ea66514ce,PennController,27,0,experiment,NULL,Video,progression,buffer,0,1687412882264,5f3b033d78bf3c202a84aeb6,5f3b033d78bf3c202a84aeb6,23,color,filler,B,75,color65.jpg,color85.jpg,GoalA,NULL
1687413027,9dc0f327ac14bc5c7bd9918ea66514ce,PennController,27,0,experiment,NULL,Canvas,canvas6,Print,NA,1687412886499,5f3b033d78bf3c202a84aeb6,5f3b033d78bf3c202a84aeb6,23,color,filler,B,75,color65.jpg,color85.jpg,GoalA,NULL
1687413027,9dc0f327ac14bc5c7bd9918ea66514ce,PennController,27,0,experiment,NULL,Selector,choice,Selection,option2,1687412889330,5f3b033d78bf3c202a84aeb6,5f3b033d78bf3c202a84aeb6,23,color,filler,B,75,color65.jpg,color85.jpg,GoalA,option2;option1
1687413027,9dc0f327ac14bc5c7bd9918ea66514ce,PennController,27,0,experiment,NULL,PennController,25,_Trial_,End,1687412889333,5f3b033d78bf3c202a84aeb6,5f3b033d78bf3c202a84aeb6,23,color,filler,B,75,color65.jpg,color85.jpg,GoalA,NULL
1687413027,9dc0f327ac14bc5c7bd9918ea66514ce,PennController,21,0,experiment,NULL,PennController,19,_Trial_,Start,1687412889336,5f3b033d78bf3c202a84aeb6,5f3b033d78bf3c202a84aeb6,17,roll,critical,B,75,roll65.jpg,roll85.jpg,low,NULL
1687413027,9dc0f327ac14bc5c7bd9918ea66514ce,PennController,21,0,experiment,NULL,PennController,19,_Header_,Start,1687412889336,5f3b033d78bf3c202a84aeb6,5f3b033d78bf3c202a84aeb6,17,roll,critical,B,75,roll65.jpg,roll85.jpg,low,NULL
1687413027,9dc0f327ac14bc5c7bd9918ea66514ce,PennController,21,0,experiment,NULL,PennController,19,_Header_,End,1687412889336,5f3b033d78bf3c202a84aeb6,5f3b033d78bf3c202a84aeb6,17,roll,critical,B,75,roll65.jpg,roll85.jpg,low,NULL
1687413027,9dc0f327ac14bc5c7bd9918ea66514ce,PennController,21,0,experiment,NULL,Video,progression,buffer,0,1687412892867,5f3b033d78bf3c202a84aeb6,5f3b033d78bf3c202a84aeb6,17,roll,critical,B,75,roll65.jpg,roll85.jpg,low,NULL
1687413027,9dc0f327ac14bc5c7bd9918ea66514ce,PennController,21,0,experiment,NULL,Canvas,canvas6,Print,NA,1687412897104,5f3b033d78bf3c202a84aeb6,5f3b033d78bf3c202a84aeb6,17,roll,critical,B,75,roll65.jpg,roll85.jpg,low,NULL
1687413027,9dc0f327ac14bc5c7bd9918ea66514ce,PennController,21,0,experiment,NULL,Selector,choice,Selection,option1,1687412899523,5f3b033d78bf3c202a84aeb6,5f3b033d78bf3c202a84aeb6,17,roll,critical,B,75,roll65.jpg,roll85.jpg,low,option1;option2
1687413027,9dc0f327ac14bc5c7bd9918ea66514ce,PennController,21,0,experiment,NULL,PennController,19,_Trial_,End,1687412899524,5f3b033d78bf3c202a84aeb6,5f3b033d78bf3c202a84aeb6,17,roll,critical,B,75,roll65.jpg,roll85.jpg,low,NULL
1687413027,9dc0f327ac14bc5c7bd9918ea66514ce,PennController,15,0,experiment,NULL,PennController,13,_Trial_,Start,1687412899526,5f3b033d78bf3c202a84aeb6,5f3b033d78bf3c202a84aeb6,11,beads,critical,B,75,beads65.jpg,beads85.jpg,low,NULL
1687413027,9dc0f327ac14bc5c7bd9918ea66514ce,PennController,15,0,experiment,NULL,PennController,13,_Header_,Start,1687412899526,5f3b033d78bf3c202a84aeb6,5f3b033d78bf3c202a84aeb6,11,beads,critical,B,75,beads65.jpg,beads85.jpg,low,NULL
1687413027,9dc0f327ac14bc5c7bd9918ea66514ce,PennController,15,0,experiment,NULL,PennController,13,_Header_,End,1687412899526,5f3b033d78bf3c202a84aeb6,5f3b033d78bf3c202a84aeb6,11,beads,critical,B,75,beads65.jpg,beads85.jpg,low,NULL
1687413027,9dc0f327ac14bc5c7bd9918ea66514ce,PennController,15,0,experiment,NULL,Video,progression,buffer,0,1687412903060,5f3b033d78bf3c202a84aeb6,5f3b033d78bf3c202a84aeb6,11,beads,critical,B,75,beads65.jpg,beads85.jpg,low,NULL
1687413027,9dc0f327ac14bc5c7bd9918ea66514ce,PennController,15,0,experiment,NULL,Canvas,canvas6,Print,NA,1687412907294,5f3b033d78bf3c202a84aeb6,5f3b033d78bf3c202a84aeb6,11,beads,critical,B,75,beads65.jpg,beads85.jpg,low,NULL
1687413027,9dc0f327ac14bc5c7bd9918ea66514ce,PennController,15,0,experiment,NULL,Selector,choice,Selection,option1,1687412908722,5f3b033d78bf3c202a84aeb6,5f3b033d78bf3c202a84aeb6,11,beads,critical,B,75,beads65.jpg,beads85.jpg,low,option2;option1
1687413027,9dc0f327ac14bc5c7bd9918ea66514ce,PennController,15,0,experiment,NULL,PennController,13,_Trial_,End,1687412908722,5f3b033d78bf3c202a84aeb6,5f3b033d78bf3c202a84aeb6,11,beads,critical,B,75,beads65.jpg,beads85.jpg,low,NULL
1687413027,9dc0f327ac14bc5c7bd9918ea66514ce,PennController,11,0,experiment,NULL,PennController,9,_Trial_,Start,1687412908724,5f3b033d78bf3c202a84aeb6,5f3b033d78bf3c202a84aeb6,7,stack,critical,B,50,stack40.jpg,stack60.jpg,low,NULL
1687413027,9dc0f327ac14bc5c7bd9918ea66514ce,PennController,11,0,experiment,NULL,PennController,9,_Header_,Start,1687412908724,5f3b033d78bf3c202a84aeb6,5f3b033d78bf3c202a84aeb6,7,stack,critical,B,50,stack40.jpg,stack60.jpg,low,NULL
1687413027,9dc0f327ac14bc5c7bd9918ea66514ce,PennController,11,0,experiment,NULL,PennController,9,_Header_,End,1687412908724,5f3b033d78bf3c202a84aeb6,5f3b033d78bf3c202a84aeb6,7,stack,critical,B,50,stack40.jpg,stack60.jpg,low,NULL
1687413027,9dc0f327ac14bc5c7bd9918ea66514ce,PennController,11,0,experiment,NULL,Video,progression,buffer,0,1687412912244,5f3b033d78bf3c202a84aeb6,5f3b033d78bf3c202a84aeb6,7,stack,critical,B,50,stack40.jpg,stack60.jpg,low,NULL
1687413027,9dc0f327ac14bc5c7bd9918ea66514ce,PennController,11,0,experiment,NULL,Canvas,canvas6,Print,NA,1687412915481,5f3b033d78bf3c202a84aeb6,5f3b033d78bf3c202a84aeb6,7,stack,critical,B,50,stack40.jpg,stack60.jpg,low,NULL
1687413027,9dc0f327ac14bc5c7bd9918ea66514ce,PennController,11,0,experiment,NULL,Selector,choice,Selection,option2,1687412917561,5f3b033d78bf3c202a84aeb6,5f3b033d78bf3c202a84aeb6,7,stack,critical,B,50,stack40.jpg,stack60.jpg,low,option1;option2
1687413027,9dc0f327ac14bc5c7bd9918ea66514ce,PennController,11,0,experiment,NULL,PennController,9,_Trial_,End,1687412917561,5f3b033d78bf3c202a84aeb6,5f3b033d78bf3c202a84aeb6,7,stack,critical,B,50,stack40.jpg,stack60.jpg,low,NULL
1687413027,9dc0f327ac14bc5c7bd9918ea66514ce,PennController,6,0,experiment,NULL,PennController,4,_Trial_,Start,1687412917562,5f3b033d78bf3c202a84aeb6,5f3b033d78bf3c202a84aeb6,2,door,critical,B,75,door65.jpg,door85.jpg,low,NULL
1687413027,9dc0f327ac14bc5c7bd9918ea66514ce,PennController,6,0,experiment,NULL,PennController,4,_Header_,Start,1687412917562,5f3b033d78bf3c202a84aeb6,5f3b033d78bf3c202a84aeb6,2,door,critical,B,75,door65.jpg,door85.jpg,low,NULL
1687413027,9dc0f327ac14bc5c7bd9918ea66514ce,PennController,6,0,experiment,NULL,PennController,4,_Header_,End,1687412917562,5f3b033d78bf3c202a84aeb6,5f3b033d78bf3c202a84aeb6,2,door,critical,B,75,door65.jpg,door85.jpg,low,NULL
1687413027,9dc0f327ac14bc5c7bd9918ea66514ce,PennController,6,0,experiment,NULL,Video,progression,buffer,0,1687412921091,5f3b033d78bf3c202a84aeb6,5f3b033d78bf3c202a84aeb6,2,door,critical,B,75,door65.jpg,door85.jpg,low,NULL
1687413027,9dc0f327ac14bc5c7bd9918ea66514ce,PennController,6,0,experiment,NULL,Canvas,canvas6,Print,NA,1687412925323,5f3b033d78bf3c202a84aeb6,5f3b033d78bf3c202a84aeb6,2,door,critical,B,75,door65.jpg,door85.jpg,low,NULL
1687413027,9dc0f327ac14bc5c7bd9918ea66514ce,PennController,6,0,experiment,NULL,Selector,choice,Selection,option2,1687412929114,5f3b033d78bf3c202a84aeb6,5f3b033d78bf3c202a84aeb6,2,door,critical,B,75,door65.jpg,door85.jpg,low,option1;option2
1687413027,9dc0f327ac14bc5c7bd9918ea66514ce,PennController,6,0,experiment,NULL,PennController,4,_Trial_,End,1687412929115,5f3b033d78bf3c202a84aeb6,5f3b033d78bf3c202a84aeb6,2,door,critical,B,75,door65.jpg,door85.jpg,low,NULL
1687413027,9dc0f327ac14bc5c7bd9918ea66514ce,PennController,8,0,experiment,NULL,PennController,6,_Trial_,Start,1687412929117,5f3b033d78bf3c202a84aeb6,5f3b033d78bf3c202a84aeb6,4,candy,critical,B,50,candy40.jpg,candy60.jpg,low,NULL
1687413027,9dc0f327ac14bc5c7bd9918ea66514ce,PennController,8,0,experiment,NULL,PennController,6,_Header_,Start,1687412929117,5f3b033d78bf3c202a84aeb6,5f3b033d78bf3c202a84aeb6,4,candy,critical,B,50,candy40.jpg,candy60.jpg,low,NULL
1687413027,9dc0f327ac14bc5c7bd9918ea66514ce,PennController,8,0,experiment,NULL,PennController,6,_Header_,End,1687412929117,5f3b033d78bf3c202a84aeb6,5f3b033d78bf3c202a84aeb6,4,candy,critical,B,50,candy40.jpg,candy60.jpg,low,NULL
1687413027,9dc0f327ac14bc5c7bd9918ea66514ce,PennController,8,0,experiment,NULL,Video,progression,buffer,0,1687412932656,5f3b033d78bf3c202a84aeb6,5f3b033d78bf3c202a84aeb6,4,candy,critical,B,50,candy40.jpg,candy60.jpg,low,NULL
1687413027,9dc0f327ac14bc5c7bd9918ea66514ce,PennController,8,0,experiment,NULL,Canvas,canvas6,Print,NA,1687412935896,5f3b033d78bf3c202a84aeb6,5f3b033d78bf3c202a84aeb6,4,candy,critical,B,50,candy40.jpg,candy60.jpg,low,NULL
1687413027,9dc0f327ac14bc5c7bd9918ea66514ce,PennController,8,0,experiment,NULL,Selector,choice,Selection,option1,1687412937621,5f3b033d78bf3c202a84aeb6,5f3b033d78bf3c202a84aeb6,4,candy,critical,B,50,candy40.jpg,candy60.jpg,low,option2;option1
1687413027,9dc0f327ac14bc5c7bd9918ea66514ce,PennController,8,0,experiment,NULL,PennController,6,_Trial_,End,1687412937623,5f3b033d78bf3c202a84aeb6,5f3b033d78bf3c202a84aeb6,4,candy,critical,B,50,candy40.jpg,candy60.jpg,low,NULL
1687413027,9dc0f327ac14bc5c7bd9918ea66514ce,PennController,30,0,experiment,NULL,PennController,28,_Trial_,Start,1687412937624,5f3b033d78bf3c202a84aeb6,5f3b033d78bf3c202a84aeb6,26,sandwich,filler,B,75,sandwich65.jpg,sandwich85.jpg,GoalB,NULL
1687413027,9dc0f327ac14bc5c7bd9918ea66514ce,PennController,30,0,experiment,NULL,PennController,28,_Header_,Start,1687412937624,5f3b033d78bf3c202a84aeb6,5f3b033d78bf3c202a84aeb6,26,sandwich,filler,B,75,sandwich65.jpg,sandwich85.jpg,GoalB,NULL
1687413027,9dc0f327ac14bc5c7bd9918ea66514ce,PennController,30,0,experiment,NULL,PennController,28,_Header_,End,1687412937624,5f3b033d78bf3c202a84aeb6,5f3b033d78bf3c202a84aeb6,26,sandwich,filler,B,75,sandwich65.jpg,sandwich85.jpg,GoalB,NULL
1687413027,9dc0f327ac14bc5c7bd9918ea66514ce,PennController,30,0,experiment,NULL,Video,progression,buffer,0,1687412941164,5f3b033d78bf3c202a84aeb6,5f3b033d78bf3c202a84aeb6,26,sandwich,filler,B,75,sandwich65.jpg,sandwich85.jpg,GoalB,NULL
1687413027,9dc0f327ac14bc5c7bd9918ea66514ce,PennController,30,0,experiment,NULL,Canvas,canvas6,Print,NA,1687412945393,5f3b033d78bf3c202a84aeb6,5f3b033d78bf3c202a84aeb6,26,sandwich,filler,B,75,sandwich65.jpg,sandwich85.jpg,GoalB,NULL
1687413027,9dc0f327ac14bc5c7bd9918ea66514ce,PennController,30,0,experiment,NULL,Selector,choice,Selection,option1,1687412948500,5f3b033d78bf3c202a84aeb6,5f3b033d78bf3c202a84aeb6,26,sandwich,filler,B,75,sandwich65.jpg,sandwich85.jpg,GoalB,option1;option2
1687413027,9dc0f327ac14bc5c7bd9918ea66514ce,PennController,30,0,experiment,NULL,PennController,28,_Trial_,End,1687412948501,5f3b033d78bf3c202a84aeb6,5f3b033d78bf3c202a84aeb6,26,sandwich,filler,B,75,sandwich65.jpg,sandwich85.jpg,GoalB,NULL
1687413027,9dc0f327ac14bc5c7bd9918ea66514ce,PennController,32,0,experiment,NULL,PennController,30,_Trial_,Start,1687412948501,5f3b033d78bf3c202a84aeb6,5f3b033d78bf3c202a84aeb6,28,sort,filler,B,50,sort40.jpg,sort60.jpg,GoalB,NULL
1687413027,9dc0f327ac14bc5c7bd9918ea66514ce,PennController,32,0,experiment,NULL,PennController,30,_Header_,Start,1687412948501,5f3b033d78bf3c202a84aeb6,5f3b033d78bf3c202a84aeb6,28,sort,filler,B,50,sort40.jpg,sort60.jpg,GoalB,NULL
1687413027,9dc0f327ac14bc5c7bd9918ea66514ce,PennController,32,0,experiment,NULL,PennController,30,_Header_,End,1687412948501,5f3b033d78bf3c202a84aeb6,5f3b033d78bf3c202a84aeb6,28,sort,filler,B,50,sort40.jpg,sort60.jpg,GoalB,NULL
1687413027,9dc0f327ac14bc5c7bd9918ea66514ce,PennController,32,0,experiment,NULL,Video,progression,buffer,0,1687412952047,5f3b033d78bf3c202a84aeb6,5f3b033d78bf3c202a84aeb6,28,sort,filler,B,50,sort40.jpg,sort60.jpg,GoalB,NULL
1687413027,9dc0f327ac14bc5c7bd9918ea66514ce,PennController,32,0,experiment,NULL,Canvas,canvas6,Print,NA,1687412955276,5f3b033d78bf3c202a84aeb6,5f3b033d78bf3c202a84aeb6,28,sort,filler,B,50,sort40.jpg,sort60.jpg,GoalB,NULL
1687413027,9dc0f327ac14bc5c7bd9918ea66514ce,PennController,32,0,experiment,NULL,Selector,choice,Selection,option2,1687412957795,5f3b033d78bf3c202a84aeb6,5f3b033d78bf3c202a84aeb6,28,sort,filler,B,50,sort40.jpg,sort60.jpg,GoalB,option1;option2
1687413027,9dc0f327ac14bc5c7bd9918ea66514ce,PennController,32,0,experiment,NULL,PennController,30,_Trial_,End,1687412957796,5f3b033d78bf3c202a84aeb6,5f3b033d78bf3c202a84aeb6,28,sort,filler,B,50,sort40.jpg,sort60.jpg,GoalB,NULL
1687413027,9dc0f327ac14bc5c7bd9918ea66514ce,PennController,5,0,experiment,NULL,PennController,3,_Trial_,Start,1687412957799,5f3b033d78bf3c202a84aeb6,5f3b033d78bf3c202a84aeb6,1,vase,critical,B,50,vase40.jpg,vase60.jpg,low,NULL
1687413027,9dc0f327ac14bc5c7bd9918ea66514ce,PennController,5,0,experiment,NULL,PennController,3,_Header_,Start,1687412957799,5f3b033d78bf3c202a84aeb6,5f3b033d78bf3c202a84aeb6,1,vase,critical,B,50,vase40.jpg,vase60.jpg,low,NULL
1687413027,9dc0f327ac14bc5c7bd9918ea66514ce,PennController,5,0,experiment,NULL,PennController,3,_Header_,End,1687412957799,5f3b033d78bf3c202a84aeb6,5f3b033d78bf3c202a84aeb6,1,vase,critical,B,50,vase40.jpg,vase60.jpg,low,NULL
1687413027,9dc0f327ac14bc5c7bd9918ea66514ce,PennController,5,0,experiment,NULL,Video,progression,buffer,0,1687412961332,5f3b033d78bf3c202a84aeb6,5f3b033d78bf3c202a84aeb6,1,vase,critical,B,50,vase40.jpg,vase60.jpg,low,NULL
1687413027,9dc0f327ac14bc5c7bd9918ea66514ce,PennController,5,0,experiment,NULL,Canvas,canvas6,Print,NA,1687412964555,5f3b033d78bf3c202a84aeb6,5f3b033d78bf3c202a84aeb6,1,vase,critical,B,50,vase40.jpg,vase60.jpg,low,NULL
1687413027,9dc0f327ac14bc5c7bd9918ea66514ce,PennController,5,0,experiment,NULL,Selector,choice,Selection,option2,1687412965903,5f3b033d78bf3c202a84aeb6,5f3b033d78bf3c202a84aeb6,1,vase,critical,B,50,vase40.jpg,vase60.jpg,low,option2;option1
1687413027,9dc0f327ac14bc5c7bd9918ea66514ce,PennController,5,0,experiment,NULL,PennController,3,_Trial_,End,1687412965903,5f3b033d78bf3c202a84aeb6,5f3b033d78bf3c202a84aeb6,1,vase,critical,B,50,vase40.jpg,vase60.jpg,low,NULL
1687413027,9dc0f327ac14bc5c7bd9918ea66514ce,PennController,28,0,experiment,NULL,PennController,26,_Trial_,Start,1687412965905,5f3b033d78bf3c202a84aeb6,5f3b033d78bf3c202a84aeb6,24,match,filler,B,25,match15.jpg,match35.jpg,GoalB,NULL
1687413027,9dc0f327ac14bc5c7bd9918ea66514ce,PennController,28,0,experiment,NULL,PennController,26,_Header_,Start,1687412965905,5f3b033d78bf3c202a84aeb6,5f3b033d78bf3c202a84aeb6,24,match,filler,B,25,match15.jpg,match35.jpg,GoalB,NULL
1687413027,9dc0f327ac14bc5c7bd9918ea66514ce,PennController,28,0,experiment,NULL,PennController,26,_Header_,End,1687412965905,5f3b033d78bf3c202a84aeb6,5f3b033d78bf3c202a84aeb6,24,match,filler,B,25,match15.jpg,match35.jpg,GoalB,NULL
1687413027,9dc0f327ac14bc5c7bd9918ea66514ce,PennController,28,0,experiment,NULL,Video,progression,buffer,0,1687412969432,5f3b033d78bf3c202a84aeb6,5f3b033d78bf3c202a84aeb6,24,match,filler,B,25,match15.jpg,match35.jpg,GoalB,NULL
1687413027,9dc0f327ac14bc5c7bd9918ea66514ce,PennController,28,0,experiment,NULL,Canvas,canvas6,Print,NA,1687412971657,5f3b033d78bf3c202a84aeb6,5f3b033d78bf3c202a84aeb6,24,match,filler,B,25,match15.jpg,match35.jpg,GoalB,NULL
1687413027,9dc0f327ac14bc5c7bd9918ea66514ce,PennController,28,0,experiment,NULL,Selector,choice,Selection,option1,1687412973329,5f3b033d78bf3c202a84aeb6,5f3b033d78bf3c202a84aeb6,24,match,filler,B,25,match15.jpg,match35.jpg,GoalB,option1;option2
1687413027,9dc0f327ac14bc5c7bd9918ea66514ce,PennController,28,0,experiment,NULL,PennController,26,_Trial_,End,1687412973330,5f3b033d78bf3c202a84aeb6,5f3b033d78bf3c202a84aeb6,24,match,filler,B,25,match15.jpg,match35.jpg,GoalB,NULL
1687413027,9dc0f327ac14bc5c7bd9918ea66514ce,PennController,19,0,experiment,NULL,PennController,17,_Trial_,Start,1687412973331,5f3b033d78bf3c202a84aeb6,5f3b033d78bf3c202a84aeb6,15,zip,critical,B,25,zip15.jpg,zip35.jpg,low,NULL
1687413027,9dc0f327ac14bc5c7bd9918ea66514ce,PennController,19,0,experiment,NULL,PennController,17,_Header_,Start,1687412973331,5f3b033d78bf3c202a84aeb6,5f3b033d78bf3c202a84aeb6,15,zip,critical,B,25,zip15.jpg,zip35.jpg,low,NULL
1687413027,9dc0f327ac14bc5c7bd9918ea66514ce,PennController,19,0,experiment,NULL,PennController,17,_Header_,End,1687412973331,5f3b033d78bf3c202a84aeb6,5f3b033d78bf3c202a84aeb6,15,zip,critical,B,25,zip15.jpg,zip35.jpg,low,NULL
1687413027,9dc0f327ac14bc5c7bd9918ea66514ce,PennController,19,0,experiment,NULL,Video,progression,buffer,0,1687412976856,5f3b033d78bf3c202a84aeb6,5f3b033d78bf3c202a84aeb6,15,zip,critical,B,25,zip15.jpg,zip35.jpg,low,NULL
1687413027,9dc0f327ac14bc5c7bd9918ea66514ce,PennController,19,0,experiment,NULL,Canvas,canvas6,Print,NA,1687412979092,5f3b033d78bf3c202a84aeb6,5f3b033d78bf3c202a84aeb6,15,zip,critical,B,25,zip15.jpg,zip35.jpg,low,NULL
1687413027,9dc0f327ac14bc5c7bd9918ea66514ce,PennController,19,0,experiment,NULL,Selector,choice,Selection,option1,1687412980727,5f3b033d78bf3c202a84aeb6,5f3b033d78bf3c202a84aeb6,15,zip,critical,B,25,zip15.jpg,zip35.jpg,low,option1;option2
1687413027,9dc0f327ac14bc5c7bd9918ea66514ce,PennController,19,0,experiment,NULL,PennController,17,_Trial_,End,1687412980728,5f3b033d78bf3c202a84aeb6,5f3b033d78bf3c202a84aeb6,15,zip,critical,B,25,zip15.jpg,zip35.jpg,low,NULL
1687413027,9dc0f327ac14bc5c7bd9918ea66514ce,PennController,24,0,experiment,NULL,PennController,22,_Trial_,Start,1687412980729,5f3b033d78bf3c202a84aeb6,5f3b033d78bf3c202a84aeb6,20,cat,filler,B,75,cat65.jpg,cat85.jpg,GoalB,NULL
1687413027,9dc0f327ac14bc5c7bd9918ea66514ce,PennController,24,0,experiment,NULL,PennController,22,_Header_,Start,1687412980729,5f3b033d78bf3c202a84aeb6,5f3b033d78bf3c202a84aeb6,20,cat,filler,B,75,cat65.jpg,cat85.jpg,GoalB,NULL
1687413027,9dc0f327ac14bc5c7bd9918ea66514ce,PennController,24,0,experiment,NULL,PennController,22,_Header_,End,1687412980729,5f3b033d78bf3c202a84aeb6,5f3b033d78bf3c202a84aeb6,20,cat,filler,B,75,cat65.jpg,cat85.jpg,GoalB,NULL
1687413027,9dc0f327ac14bc5c7bd9918ea66514ce,PennController,24,0,experiment,NULL,Video,progression,buffer,0,1687412984270,5f3b033d78bf3c202a84aeb6,5f3b033d78bf3c202a84aeb6,20,cat,filler,B,75,cat65.jpg,cat85.jpg,GoalB,NULL
1687413027,9dc0f327ac14bc5c7bd9918ea66514ce,PennController,24,0,experiment,NULL,Canvas,canvas6,Print,NA,1687412988493,5f3b033d78bf3c202a84aeb6,5f3b033d78bf3c202a84aeb6,20,cat,filler,B,75,cat65.jpg,cat85.jpg,GoalB,NULL
1687413027,9dc0f327ac14bc5c7bd9918ea66514ce,PennController,24,0,experiment,NULL,Selector,choice,Selection,option2,1687412990432,5f3b033d78bf3c202a84aeb6,5f3b033d78bf3c202a84aeb6,20,cat,filler,B,75,cat65.jpg,cat85.jpg,GoalB,option2;option1
1687413027,9dc0f327ac14bc5c7bd9918ea66514ce,PennController,24,0,experiment,NULL,PennController,22,_Trial_,End,1687412990433,5f3b033d78bf3c202a84aeb6,5f3b033d78bf3c202a84aeb6,20,cat,filler,B,75,cat65.jpg,cat85.jpg,GoalB,NULL
1687413027,9dc0f327ac14bc5c7bd9918ea66514ce,PennController,29,0,experiment,NULL,PennController,27,_Trial_,Start,1687412990434,5f3b033d78bf3c202a84aeb6,5f3b033d78bf3c202a84aeb6,25,house,filler,B,50,house40.jpg,house60.jpg,GoalA,NULL
1687413027,9dc0f327ac14bc5c7bd9918ea66514ce,PennController,29,0,experiment,NULL,PennController,27,_Header_,Start,1687412990434,5f3b033d78bf3c202a84aeb6,5f3b033d78bf3c202a84aeb6,25,house,filler,B,50,house40.jpg,house60.jpg,GoalA,NULL
1687413027,9dc0f327ac14bc5c7bd9918ea66514ce,PennController,29,0,experiment,NULL,PennController,27,_Header_,End,1687412990434,5f3b033d78bf3c202a84aeb6,5f3b033d78bf3c202a84aeb6,25,house,filler,B,50,house40.jpg,house60.jpg,GoalA,NULL
1687413027,9dc0f327ac14bc5c7bd9918ea66514ce,PennController,29,0,experiment,NULL,Video,progression,buffer,0,1687412993973,5f3b033d78bf3c202a84aeb6,5f3b033d78bf3c202a84aeb6,25,house,filler,B,50,house40.jpg,house60.jpg,GoalA,NULL
1687413027,9dc0f327ac14bc5c7bd9918ea66514ce,PennController,29,0,experiment,NULL,Canvas,canvas6,Print,NA,1687412997203,5f3b033d78bf3c202a84aeb6,5f3b033d78bf3c202a84aeb6,25,house,filler,B,50,house40.jpg,house60.jpg,GoalA,NULL
1687413027,9dc0f327ac14bc5c7bd9918ea66514ce,PennController,29,0,experiment,NULL,Selector,choice,Selection,option1,1687412998935,5f3b033d78bf3c202a84aeb6,5f3b033d78bf3c202a84aeb6,25,house,filler,B,50,house40.jpg,house60.jpg,GoalA,option2;option1
1687413027,9dc0f327ac14bc5c7bd9918ea66514ce,PennController,29,0,experiment,NULL,PennController,27,_Trial_,End,1687412998936,5f3b033d78bf3c202a84aeb6,5f3b033d78bf3c202a84aeb6,25,house,filler,B,50,house40.jpg,house60.jpg,GoalA,NULL
1687413027,9dc0f327ac14bc5c7bd9918ea66514ce,PennController,13,0,experiment,NULL,PennController,11,_Trial_,Start,1687412998938,5f3b033d78bf3c202a84aeb6,5f3b033d78bf3c202a84aeb6,9,cake,critical,B,25,cake15.jpg,cake33.jpg,low,NULL
1687413027,9dc0f327ac14bc5c7bd9918ea66514ce,PennController,13,0,experiment,NULL,PennController,11,_Header_,Start,1687412998938,5f3b033d78bf3c202a84aeb6,5f3b033d78bf3c202a84aeb6,9,cake,critical,B,25,cake15.jpg,cake33.jpg,low,NULL
1687413027,9dc0f327ac14bc5c7bd9918ea66514ce,PennController,13,0,experiment,NULL,PennController,11,_Header_,End,1687412998938,5f3b033d78bf3c202a84aeb6,5f3b033d78bf3c202a84aeb6,9,cake,critical,B,25,cake15.jpg,cake33.jpg,low,NULL
1687413027,9dc0f327ac14bc5c7bd9918ea66514ce,PennController,13,0,experiment,NULL,Video,progression,buffer,0,1687413002483,5f3b033d78bf3c202a84aeb6,5f3b033d78bf3c202a84aeb6,9,cake,critical,B,25,cake15.jpg,cake33.jpg,low,NULL
1687413027,9dc0f327ac14bc5c7bd9918ea66514ce,PennController,13,0,experiment,NULL,Canvas,canvas6,Print,NA,1687413005326,5f3b033d78bf3c202a84aeb6,5f3b033d78bf3c202a84aeb6,9,cake,critical,B,25,cake15.jpg,cake33.jpg,low,NULL
1687413027,9dc0f327ac14bc5c7bd9918ea66514ce,PennController,13,0,experiment,NULL,Selector,choice,Selection,option1,1687413007123,5f3b033d78bf3c202a84aeb6,5f3b033d78bf3c202a84aeb6,9,cake,critical,B,25,cake15.jpg,cake33.jpg,low,option1;option2
1687413027,9dc0f327ac14bc5c7bd9918ea66514ce,PennController,13,0,experiment,NULL,PennController,11,_Trial_,End,1687413007124,5f3b033d78bf3c202a84aeb6,5f3b033d78bf3c202a84aeb6,9,cake,critical,B,25,cake15.jpg,cake33.jpg,low,NULL
1687413027,9dc0f327ac14bc5c7bd9918ea66514ce,PennController,16,0,experiment,NULL,PennController,14,_Trial_,Start,1687413007125,5f3b033d78bf3c202a84aeb6,5f3b033d78bf3c202a84aeb6,12,erase,critical,B,25,erase15.jpg,erase33.jpg,low,NULL
1687413027,9dc0f327ac14bc5c7bd9918ea66514ce,PennController,16,0,experiment,NULL,PennController,14,_Header_,Start,1687413007125,5f3b033d78bf3c202a84aeb6,5f3b033d78bf3c202a84aeb6,12,erase,critical,B,25,erase15.jpg,erase33.jpg,low,NULL
1687413027,9dc0f327ac14bc5c7bd9918ea66514ce,PennController,16,0,experiment,NULL,PennController,14,_Header_,End,1687413007125,5f3b033d78bf3c202a84aeb6,5f3b033d78bf3c202a84aeb6,12,erase,critical,B,25,erase15.jpg,erase33.jpg,low,NULL
1687413027,9dc0f327ac14bc5c7bd9918ea66514ce,PennController,16,0,experiment,NULL,Video,progression,buffer,0,1687413010664,5f3b033d78bf3c202a84aeb6,5f3b033d78bf3c202a84aeb6,12,erase,critical,B,25,erase15.jpg,erase33.jpg,low,NULL
1687413027,9dc0f327ac14bc5c7bd9918ea66514ce,PennController,16,0,experiment,NULL,Canvas,canvas6,Print,NA,1687413013493,5f3b033d78bf3c202a84aeb6,5f3b033d78bf3c202a84aeb6,12,erase,critical,B,25,erase15.jpg,erase33.jpg,low,NULL
1687413027,9dc0f327ac14bc5c7bd9918ea66514ce,PennController,16,0,experiment,NULL,Selector,choice,Selection,option1,1687413016864,5f3b033d78bf3c202a84aeb6,5f3b033d78bf3c202a84aeb6,12,erase,critical,B,25,erase15.jpg,erase33.jpg,low,option1;option2
1687413027,9dc0f327ac14bc5c7bd9918ea66514ce,PennController,16,0,experiment,NULL,PennController,14,_Trial_,End,1687413016865,5f3b033d78bf3c202a84aeb6,5f3b033d78bf3c202a84aeb6,12,erase,critical,B,25,erase15.jpg,erase33.jpg,low,NULL
1687413027,9dc0f327ac14bc5c7bd9918ea66514ce,PennController,10,0,experiment,NULL,PennController,8,_Trial_,Start,1687413016866,5f3b033d78bf3c202a84aeb6,5f3b033d78bf3c202a84aeb6,6,flower,critical,B,25,flower15.jpg,flower35.jpg,low,NULL
1687413027,9dc0f327ac14bc5c7bd9918ea66514ce,PennController,10,0,experiment,NULL,PennController,8,_Header_,Start,1687413016866,5f3b033d78bf3c202a84aeb6,5f3b033d78bf3c202a84aeb6,6,flower,critical,B,25,flower15.jpg,flower35.jpg,low,NULL
1687413027,9dc0f327ac14bc5c7bd9918ea66514ce,PennController,10,0,experiment,NULL,PennController,8,_Header_,End,1687413016866,5f3b033d78bf3c202a84aeb6,5f3b033d78bf3c202a84aeb6,6,flower,critical,B,25,flower15.jpg,flower35.jpg,low,NULL
1687413027,9dc0f327ac14bc5c7bd9918ea66514ce,PennController,10,0,experiment,NULL,Video,progression,buffer,0,1687413020399,5f3b033d78bf3c202a84aeb6,5f3b033d78bf3c202a84aeb6,6,flower,critical,B,25,flower15.jpg,flower35.jpg,low,NULL
1687413027,9dc0f327ac14bc5c7bd9918ea66514ce,PennController,10,0,experiment,NULL,Canvas,canvas6,Print,NA,1687413022628,5f3b033d78bf3c202a84aeb6,5f3b033d78bf3c202a84aeb6,6,flower,critical,B,25,flower15.jpg,flower35.jpg,low,NULL
1687413027,9dc0f327ac14bc5c7bd9918ea66514ce,PennController,10,0,experiment,NULL,Selector,choice,Selection,option1,1687413024821,5f3b033d78bf3c202a84aeb6,5f3b033d78bf3c202a84aeb6,6,flower,critical,B,25,flower15.jpg,flower35.jpg,low,option2;option1
1687413027,9dc0f327ac14bc5c7bd9918ea66514ce,PennController,10,0,experiment,NULL,PennController,8,_Trial_,End,1687413024822,5f3b033d78bf3c202a84aeb6,5f3b033d78bf3c202a84aeb6,6,flower,critical,B,25,flower15.jpg,flower35.jpg,low,NULL
1687413027,9dc0f327ac14bc5c7bd9918ea66514ce,PennController,22,0,experiment,NULL,PennController,20,_Trial_,Start,1687413024823,5f3b033d78bf3c202a84aeb6,5f3b033d78bf3c202a84aeb6,18,ball,critical,B,25,ball15.jpg,ball35.jpg,low,NULL
1687413027,9dc0f327ac14bc5c7bd9918ea66514ce,PennController,22,0,experiment,NULL,PennController,20,_Header_,Start,1687413024823,5f3b033d78bf3c202a84aeb6,5f3b033d78bf3c202a84aeb6,18,ball,critical,B,25,ball15.jpg,ball35.jpg,low,NULL
1687413027,9dc0f327ac14bc5c7bd9918ea66514ce,PennController,22,0,experiment,NULL,PennController,20,_Header_,End,1687413024823,5f3b033d78bf3c202a84aeb6,5f3b033d78bf3c202a84aeb6,18,ball,critical,B,25,ball15.jpg,ball35.jpg,low,NULL
1687413027,9dc0f327ac14bc5c7bd9918ea66514ce,PennController,22,0,experiment,NULL,Video,progression,buffer,0,1687413028358,5f3b033d78bf3c202a84aeb6,5f3b033d78bf3c202a84aeb6,18,ball,critical,B,25,ball15.jpg,ball35.jpg,low,NULL
1687413027,9dc0f327ac14bc5c7bd9918ea66514ce,PennController,22,0,experiment,NULL,Canvas,canvas6,Print,NA,1687413030591,5f3b033d78bf3c202a84aeb6,5f3b033d78bf3c202a84aeb6,18,ball,critical,B,25,ball15.jpg,ball35.jpg,low,NULL
1687413027,9dc0f327ac14bc5c7bd9918ea66514ce,PennController,22,0,experiment,NULL,Selector,choice,Selection,option2,1687413032028,5f3b033d78bf3c202a84aeb6,5f3b033d78bf3c202a84aeb6,18,ball,critical,B,25,ball15.jpg,ball35.jpg,low,option1;option2
1687413027,9dc0f327ac14bc5c7bd9918ea66514ce,PennController,22,0,experiment,NULL,PennController,20,_Trial_,End,1687413032029,5f3b033d78bf3c202a84aeb6,5f3b033d78bf3c202a84aeb6,18,ball,critical,B,25,ball15.jpg,ball35.jpg,low,NULL
