#
# Results on Tuesday June 20 2023 19:03:16 UTC
# USER AGENT: Mozilla/5.0 (Windows NT 10.0; Win64; x64) AppleWebKit/537.36 (KHTML, like Gecko) Chrome/114.0.0.0 Safari/537.36
# Design number was non-random = 34
#
# Columns below this comment are as follows:
# 1. Results reception time.
# 2. MD5 hash of participant's IP address.
# 3. Controller name.
# 4. Order number of item.
# 5. Inner element number.
# 6. Label.
# 7. Latin Square Group.
# 8. PennElementType.
# 9. PennElementName.
# 10. Parameter.
# 11. Value.
# 12. EventTime.
# 13. PROLIFIC_ID.
# 14. Comments.
1687287796,5ae62022a880db74dc7f31ff8637677b,PennController,2,0,consent,NULL,PennController,0,_Trial_,Start,1687287447247,613a6abd8f010ce9c87a4bc7,NULL
1687287796,5ae62022a880db74dc7f31ff8637677b,PennController,2,0,consent,NULL,PennController,0,_Header_,Start,1687287447247,613a6abd8f010ce9c87a4bc7,NULL
1687287796,5ae62022a880db74dc7f31ff8637677b,PennController,2,0,consent,NULL,PennController,0,_Header_,End,1687287447247,613a6abd8f010ce9c87a4bc7,NULL
1687287796,5ae62022a880db74dc7f31ff8637677b,PennController,2,0,consent,NULL,PennController,0,_Trial_,End,1687287500756,613a6abd8f010ce9c87a4bc7,NULL
# Columns below this comment are as follows:
# 14. ID.
# 15. Comments.
1687287796,5ae62022a880db74dc7f31ff8637677b,PennController,3,0,intro,NULL,PennController,1,_Trial_,Start,1687287500761,613a6abd8f010ce9c87a4bc7,613a6abd8f010ce9c87a4bc7,NULL
1687287796,5ae62022a880db74dc7f31ff8637677b,PennController,3,0,intro,NULL,PennController,1,_Header_,Start,1687287500761,613a6abd8f010ce9c87a4bc7,613a6abd8f010ce9c87a4bc7,NULL
1687287796,5ae62022a880db74dc7f31ff8637677b,PennController,3,0,intro,NULL,PennController,1,_Header_,End,1687287500761,613a6abd8f010ce9c87a4bc7,613a6abd8f010ce9c87a4bc7,NULL
1687287796,5ae62022a880db74dc7f31ff8637677b,PennController,3,0,intro,NULL,PennController,1,_Trial_,End,1687287525478,613a6abd8f010ce9c87a4bc7,613a6abd8f010ce9c87a4bc7,NULL
# Columns below this comment are as follows:
# 15. item_number.
# 16. item.
# 17. type.
# 18. Group.
# 19. prog.
# 20. prev_image.
# 21. next_image.
# 22. height.
# 23. Comments.
1687287796,5ae62022a880db74dc7f31ff8637677b,PennController,27,0,experiment,NULL,PennController,26,_Trial_,Start,1687287525479,613a6abd8f010ce9c87a4bc7,613a6abd8f010ce9c87a4bc7,24,match,filler,E,25,match15.jpg,match35.jpg,GoalA,NULL
1687287796,5ae62022a880db74dc7f31ff8637677b,PennController,27,0,experiment,NULL,PennController,26,_Header_,Start,1687287525479,613a6abd8f010ce9c87a4bc7,613a6abd8f010ce9c87a4bc7,24,match,filler,E,25,match15.jpg,match35.jpg,GoalA,NULL
1687287796,5ae62022a880db74dc7f31ff8637677b,PennController,27,0,experiment,NULL,PennController,26,_Header_,End,1687287525479,613a6abd8f010ce9c87a4bc7,613a6abd8f010ce9c87a4bc7,24,match,filler,E,25,match15.jpg,match35.jpg,GoalA,NULL
1687287796,5ae62022a880db74dc7f31ff8637677b,PennController,27,0,experiment,NULL,Canvas,canvas6,Print,NA,1687287531218,613a6abd8f010ce9c87a4bc7,613a6abd8f010ce9c87a4bc7,24,match,filler,E,25,match15.jpg,match35.jpg,GoalA,NULL
1687287796,5ae62022a880db74dc7f31ff8637677b,PennController,27,0,experiment,NULL,Video,progression,buffer,0.008908,1687287529040,613a6abd8f010ce9c87a4bc7,613a6abd8f010ce9c87a4bc7,24,match,filler,E,25,match15.jpg,match35.jpg,GoalA,NULL
1687287796,5ae62022a880db74dc7f31ff8637677b,PennController,27,0,experiment,NULL,Selector,choice,Selection,option2,1687287539521,613a6abd8f010ce9c87a4bc7,613a6abd8f010ce9c87a4bc7,24,match,filler,E,25,match15.jpg,match35.jpg,GoalA,option2;option1
1687287796,5ae62022a880db74dc7f31ff8637677b,PennController,27,0,experiment,NULL,PennController,26,_Trial_,End,1687287539526,613a6abd8f010ce9c87a4bc7,613a6abd8f010ce9c87a4bc7,24,match,filler,E,25,match15.jpg,match35.jpg,GoalA,NULL
1687287796,5ae62022a880db74dc7f31ff8637677b,PennController,31,0,experiment,NULL,PennController,30,_Trial_,Start,1687287539529,613a6abd8f010ce9c87a4bc7,613a6abd8f010ce9c87a4bc7,28,sort,filler,E,50,sort40.jpg,sort60.jpg,GoalA,NULL
1687287796,5ae62022a880db74dc7f31ff8637677b,PennController,31,0,experiment,NULL,PennController,30,_Header_,Start,1687287539529,613a6abd8f010ce9c87a4bc7,613a6abd8f010ce9c87a4bc7,28,sort,filler,E,50,sort40.jpg,sort60.jpg,GoalA,NULL
1687287796,5ae62022a880db74dc7f31ff8637677b,PennController,31,0,experiment,NULL,PennController,30,_Header_,End,1687287539529,613a6abd8f010ce9c87a4bc7,613a6abd8f010ce9c87a4bc7,28,sort,filler,E,50,sort40.jpg,sort60.jpg,GoalA,NULL
1687287796,5ae62022a880db74dc7f31ff8637677b,PennController,31,0,experiment,NULL,Canvas,canvas6,Print,NA,1687287546250,613a6abd8f010ce9c87a4bc7,613a6abd8f010ce9c87a4bc7,28,sort,filler,E,50,sort40.jpg,sort60.jpg,GoalA,NULL
1687287796,5ae62022a880db74dc7f31ff8637677b,PennController,31,0,experiment,NULL,Video,progression,buffer,0.009476,1687287543065,613a6abd8f010ce9c87a4bc7,613a6abd8f010ce9c87a4bc7,28,sort,filler,E,50,sort40.jpg,sort60.jpg,GoalA,NULL
1687287796,5ae62022a880db74dc7f31ff8637677b,PennController,31,0,experiment,NULL,Selector,choice,Selection,option2,1687287548958,613a6abd8f010ce9c87a4bc7,613a6abd8f010ce9c87a4bc7,28,sort,filler,E,50,sort40.jpg,sort60.jpg,GoalA,option1;option2
1687287796,5ae62022a880db74dc7f31ff8637677b,PennController,31,0,experiment,NULL,PennController,30,_Trial_,End,1687287548960,613a6abd8f010ce9c87a4bc7,613a6abd8f010ce9c87a4bc7,28,sort,filler,E,50,sort40.jpg,sort60.jpg,GoalA,NULL
1687287796,5ae62022a880db74dc7f31ff8637677b,PennController,23,0,experiment,NULL,PennController,22,_Trial_,Start,1687287548962,613a6abd8f010ce9c87a4bc7,613a6abd8f010ce9c87a4bc7,20,cat,filler,E,75,cat65.jpg,cat85.jpg,GoalA,NULL
1687287796,5ae62022a880db74dc7f31ff8637677b,PennController,23,0,experiment,NULL,PennController,22,_Header_,Start,1687287548962,613a6abd8f010ce9c87a4bc7,613a6abd8f010ce9c87a4bc7,20,cat,filler,E,75,cat65.jpg,cat85.jpg,GoalA,NULL
1687287796,5ae62022a880db74dc7f31ff8637677b,PennController,23,0,experiment,NULL,PennController,22,_Header_,End,1687287548962,613a6abd8f010ce9c87a4bc7,613a6abd8f010ce9c87a4bc7,20,cat,filler,E,75,cat65.jpg,cat85.jpg,GoalA,NULL
1687287796,5ae62022a880db74dc7f31ff8637677b,PennController,23,0,experiment,NULL,Canvas,canvas6,Print,NA,1687287556665,613a6abd8f010ce9c87a4bc7,613a6abd8f010ce9c87a4bc7,20,cat,filler,E,75,cat65.jpg,cat85.jpg,GoalA,NULL
1687287796,5ae62022a880db74dc7f31ff8637677b,PennController,23,0,experiment,NULL,Video,progression,buffer,0.008895,1687287552503,613a6abd8f010ce9c87a4bc7,613a6abd8f010ce9c87a4bc7,20,cat,filler,E,75,cat65.jpg,cat85.jpg,GoalA,NULL
1687287796,5ae62022a880db74dc7f31ff8637677b,PennController,23,0,experiment,NULL,Selector,choice,Selection,option2,1687287557730,613a6abd8f010ce9c87a4bc7,613a6abd8f010ce9c87a4bc7,20,cat,filler,E,75,cat65.jpg,cat85.jpg,GoalA,option1;option2
1687287796,5ae62022a880db74dc7f31ff8637677b,PennController,23,0,experiment,NULL,PennController,22,_Trial_,End,1687287557734,613a6abd8f010ce9c87a4bc7,613a6abd8f010ce9c87a4bc7,20,cat,filler,E,75,cat65.jpg,cat85.jpg,GoalA,NULL
1687287796,5ae62022a880db74dc7f31ff8637677b,PennController,4,0,experiment,NULL,PennController,3,_Trial_,Start,1687287557739,613a6abd8f010ce9c87a4bc7,613a6abd8f010ce9c87a4bc7,1,vase,critical,E,50,vase40.jpg,vase60.jpg,high,NULL
1687287796,5ae62022a880db74dc7f31ff8637677b,PennController,4,0,experiment,NULL,PennController,3,_Header_,Start,1687287557739,613a6abd8f010ce9c87a4bc7,613a6abd8f010ce9c87a4bc7,1,vase,critical,E,50,vase40.jpg,vase60.jpg,high,NULL
1687287796,5ae62022a880db74dc7f31ff8637677b,PennController,4,0,experiment,NULL,PennController,3,_Header_,End,1687287557739,613a6abd8f010ce9c87a4bc7,613a6abd8f010ce9c87a4bc7,1,vase,critical,E,50,vase40.jpg,vase60.jpg,high,NULL
1687287796,5ae62022a880db74dc7f31ff8637677b,PennController,4,0,experiment,NULL,Canvas,canvas6,Print,NA,1687287564442,613a6abd8f010ce9c87a4bc7,613a6abd8f010ce9c87a4bc7,1,vase,critical,E,50,vase40.jpg,vase60.jpg,high,NULL
1687287796,5ae62022a880db74dc7f31ff8637677b,PennController,4,0,experiment,NULL,Video,progression,buffer,0.005431,1687287561275,613a6abd8f010ce9c87a4bc7,613a6abd8f010ce9c87a4bc7,1,vase,critical,E,50,vase40.jpg,vase60.jpg,high,NULL
1687287796,5ae62022a880db74dc7f31ff8637677b,PennController,4,0,experiment,NULL,Selector,choice,Selection,option2,1687287565569,613a6abd8f010ce9c87a4bc7,613a6abd8f010ce9c87a4bc7,1,vase,critical,E,50,vase40.jpg,vase60.jpg,high,option1;option2
1687287796,5ae62022a880db74dc7f31ff8637677b,PennController,4,0,experiment,NULL,PennController,3,_Trial_,End,1687287565573,613a6abd8f010ce9c87a4bc7,613a6abd8f010ce9c87a4bc7,1,vase,critical,E,50,vase40.jpg,vase60.jpg,high,NULL
1687287796,5ae62022a880db74dc7f31ff8637677b,PennController,25,0,experiment,NULL,PennController,24,_Trial_,Start,1687287565578,613a6abd8f010ce9c87a4bc7,613a6abd8f010ce9c87a4bc7,22,wall,filler,E,50,wall40.jpg,wall60.jpg,GoalA,NULL
1687287796,5ae62022a880db74dc7f31ff8637677b,PennController,25,0,experiment,NULL,PennController,24,_Header_,Start,1687287565578,613a6abd8f010ce9c87a4bc7,613a6abd8f010ce9c87a4bc7,22,wall,filler,E,50,wall40.jpg,wall60.jpg,GoalA,NULL
1687287796,5ae62022a880db74dc7f31ff8637677b,PennController,25,0,experiment,NULL,PennController,24,_Header_,End,1687287565578,613a6abd8f010ce9c87a4bc7,613a6abd8f010ce9c87a4bc7,22,wall,filler,E,50,wall40.jpg,wall60.jpg,GoalA,NULL
1687287796,5ae62022a880db74dc7f31ff8637677b,PennController,25,0,experiment,NULL,Canvas,canvas6,Print,NA,1687287572287,613a6abd8f010ce9c87a4bc7,613a6abd8f010ce9c87a4bc7,22,wall,filler,E,50,wall40.jpg,wall60.jpg,GoalA,NULL
1687287796,5ae62022a880db74dc7f31ff8637677b,PennController,25,0,experiment,NULL,Video,progression,buffer,0.004822,1687287569120,613a6abd8f010ce9c87a4bc7,613a6abd8f010ce9c87a4bc7,22,wall,filler,E,50,wall40.jpg,wall60.jpg,GoalA,NULL
1687287796,5ae62022a880db74dc7f31ff8637677b,PennController,25,0,experiment,NULL,Selector,choice,Selection,option2,1687287574209,613a6abd8f010ce9c87a4bc7,613a6abd8f010ce9c87a4bc7,22,wall,filler,E,50,wall40.jpg,wall60.jpg,GoalA,option1;option2
1687287796,5ae62022a880db74dc7f31ff8637677b,PennController,25,0,experiment,NULL,PennController,24,_Trial_,End,1687287574211,613a6abd8f010ce9c87a4bc7,613a6abd8f010ce9c87a4bc7,22,wall,filler,E,50,wall40.jpg,wall60.jpg,GoalA,NULL
1687287796,5ae62022a880db74dc7f31ff8637677b,PennController,18,0,experiment,NULL,PennController,17,_Trial_,Start,1687287574213,613a6abd8f010ce9c87a4bc7,613a6abd8f010ce9c87a4bc7,15,zip,critical,E,25,zip15.jpg,zip35.jpg,high,NULL
1687287796,5ae62022a880db74dc7f31ff8637677b,PennController,18,0,experiment,NULL,PennController,17,_Header_,Start,1687287574213,613a6abd8f010ce9c87a4bc7,613a6abd8f010ce9c87a4bc7,15,zip,critical,E,25,zip15.jpg,zip35.jpg,high,NULL
1687287796,5ae62022a880db74dc7f31ff8637677b,PennController,18,0,experiment,NULL,PennController,17,_Header_,End,1687287574213,613a6abd8f010ce9c87a4bc7,613a6abd8f010ce9c87a4bc7,15,zip,critical,E,25,zip15.jpg,zip35.jpg,high,NULL
1687287796,5ae62022a880db74dc7f31ff8637677b,PennController,18,0,experiment,NULL,Canvas,canvas6,Print,NA,1687287579917,613a6abd8f010ce9c87a4bc7,613a6abd8f010ce9c87a4bc7,15,zip,critical,E,25,zip15.jpg,zip35.jpg,high,NULL
1687287796,5ae62022a880db74dc7f31ff8637677b,PennController,18,0,experiment,NULL,Video,progression,buffer,0.011269,1687287577752,613a6abd8f010ce9c87a4bc7,613a6abd8f010ce9c87a4bc7,15,zip,critical,E,25,zip15.jpg,zip35.jpg,high,NULL
1687287796,5ae62022a880db74dc7f31ff8637677b,PennController,18,0,experiment,NULL,Selector,choice,Selection,option1,1687287583457,613a6abd8f010ce9c87a4bc7,613a6abd8f010ce9c87a4bc7,15,zip,critical,E,25,zip15.jpg,zip35.jpg,high,option1;option2
1687287796,5ae62022a880db74dc7f31ff8637677b,PennController,18,0,experiment,NULL,PennController,17,_Trial_,End,1687287583459,613a6abd8f010ce9c87a4bc7,613a6abd8f010ce9c87a4bc7,15,zip,critical,E,25,zip15.jpg,zip35.jpg,high,NULL
1687287796,5ae62022a880db74dc7f31ff8637677b,PennController,26,0,experiment,NULL,PennController,25,_Trial_,Start,1687287583462,613a6abd8f010ce9c87a4bc7,613a6abd8f010ce9c87a4bc7,23,color,filler,E,75,color65.jpg,color85.jpg,GoalB,NULL
1687287796,5ae62022a880db74dc7f31ff8637677b,PennController,26,0,experiment,NULL,PennController,25,_Header_,Start,1687287583462,613a6abd8f010ce9c87a4bc7,613a6abd8f010ce9c87a4bc7,23,color,filler,E,75,color65.jpg,color85.jpg,GoalB,NULL
1687287796,5ae62022a880db74dc7f31ff8637677b,PennController,26,0,experiment,NULL,PennController,25,_Header_,End,1687287583462,613a6abd8f010ce9c87a4bc7,613a6abd8f010ce9c87a4bc7,23,color,filler,E,75,color65.jpg,color85.jpg,GoalB,NULL
1687287796,5ae62022a880db74dc7f31ff8637677b,PennController,26,0,experiment,NULL,Canvas,canvas6,Print,NA,1687287591167,613a6abd8f010ce9c87a4bc7,613a6abd8f010ce9c87a4bc7,23,color,filler,E,75,color65.jpg,color85.jpg,GoalB,NULL
1687287796,5ae62022a880db74dc7f31ff8637677b,PennController,26,0,experiment,NULL,Video,progression,buffer,0.008736,1687287586999,613a6abd8f010ce9c87a4bc7,613a6abd8f010ce9c87a4bc7,23,color,filler,E,75,color65.jpg,color85.jpg,GoalB,NULL
1687287796,5ae62022a880db74dc7f31ff8637677b,PennController,26,0,experiment,NULL,Selector,choice,Selection,option1,1687287593109,613a6abd8f010ce9c87a4bc7,613a6abd8f010ce9c87a4bc7,23,color,filler,E,75,color65.jpg,color85.jpg,GoalB,option2;option1
1687287796,5ae62022a880db74dc7f31ff8637677b,PennController,26,0,experiment,NULL,PennController,25,_Trial_,End,1687287593111,613a6abd8f010ce9c87a4bc7,613a6abd8f010ce9c87a4bc7,23,color,filler,E,75,color65.jpg,color85.jpg,GoalB,NULL
1687287796,5ae62022a880db74dc7f31ff8637677b,PennController,20,0,experiment,NULL,PennController,19,_Trial_,Start,1687287593113,613a6abd8f010ce9c87a4bc7,613a6abd8f010ce9c87a4bc7,17,roll,critical,E,75,roll65.jpg,roll85.jpg,high,NULL
1687287796,5ae62022a880db74dc7f31ff8637677b,PennController,20,0,experiment,NULL,PennController,19,_Header_,Start,1687287593113,613a6abd8f010ce9c87a4bc7,613a6abd8f010ce9c87a4bc7,17,roll,critical,E,75,roll65.jpg,roll85.jpg,high,NULL
1687287796,5ae62022a880db74dc7f31ff8637677b,PennController,20,0,experiment,NULL,PennController,19,_Header_,End,1687287593113,613a6abd8f010ce9c87a4bc7,613a6abd8f010ce9c87a4bc7,17,roll,critical,E,75,roll65.jpg,roll85.jpg,high,NULL
1687287796,5ae62022a880db74dc7f31ff8637677b,PennController,20,0,experiment,NULL,Canvas,canvas6,Print,NA,1687287600902,613a6abd8f010ce9c87a4bc7,613a6abd8f010ce9c87a4bc7,17,roll,critical,E,75,roll65.jpg,roll85.jpg,high,NULL
1687287796,5ae62022a880db74dc7f31ff8637677b,PennController,20,0,experiment,NULL,Video,progression,buffer,0,1687287596653,613a6abd8f010ce9c87a4bc7,613a6abd8f010ce9c87a4bc7,17,roll,critical,E,75,roll65.jpg,roll85.jpg,high,NULL
1687287796,5ae62022a880db74dc7f31ff8637677b,PennController,20,0,experiment,NULL,Selector,choice,Selection,option1,1687287603774,613a6abd8f010ce9c87a4bc7,613a6abd8f010ce9c87a4bc7,17,roll,critical,E,75,roll65.jpg,roll85.jpg,high,option2;option1
1687287796,5ae62022a880db74dc7f31ff8637677b,PennController,20,0,experiment,NULL,PennController,19,_Trial_,End,1687287603777,613a6abd8f010ce9c87a4bc7,613a6abd8f010ce9c87a4bc7,17,roll,critical,E,75,roll65.jpg,roll85.jpg,high,NULL
1687287796,5ae62022a880db74dc7f31ff8637677b,PennController,10,0,experiment,NULL,PennController,9,_Trial_,Start,1687287603779,613a6abd8f010ce9c87a4bc7,613a6abd8f010ce9c87a4bc7,7,stack,critical,E,50,stack40.jpg,stack60.jpg,high,NULL
1687287796,5ae62022a880db74dc7f31ff8637677b,PennController,10,0,experiment,NULL,PennController,9,_Header_,Start,1687287603779,613a6abd8f010ce9c87a4bc7,613a6abd8f010ce9c87a4bc7,7,stack,critical,E,50,stack40.jpg,stack60.jpg,high,NULL
1687287796,5ae62022a880db74dc7f31ff8637677b,PennController,10,0,experiment,NULL,PennController,9,_Header_,End,1687287603780,613a6abd8f010ce9c87a4bc7,613a6abd8f010ce9c87a4bc7,7,stack,critical,E,50,stack40.jpg,stack60.jpg,high,NULL
1687287796,5ae62022a880db74dc7f31ff8637677b,PennController,10,0,experiment,NULL,Canvas,canvas6,Print,NA,1687287610487,613a6abd8f010ce9c87a4bc7,613a6abd8f010ce9c87a4bc7,7,stack,critical,E,50,stack40.jpg,stack60.jpg,high,NULL
1687287796,5ae62022a880db74dc7f31ff8637677b,PennController,10,0,experiment,NULL,Video,progression,buffer,0.008844,1687287607315,613a6abd8f010ce9c87a4bc7,613a6abd8f010ce9c87a4bc7,7,stack,critical,E,50,stack40.jpg,stack60.jpg,high,NULL
1687287796,5ae62022a880db74dc7f31ff8637677b,PennController,10,0,experiment,NULL,Selector,choice,Selection,option1,1687287615395,613a6abd8f010ce9c87a4bc7,613a6abd8f010ce9c87a4bc7,7,stack,critical,E,50,stack40.jpg,stack60.jpg,high,option2;option1
1687287796,5ae62022a880db74dc7f31ff8637677b,PennController,10,0,experiment,NULL,PennController,9,_Trial_,End,1687287615397,613a6abd8f010ce9c87a4bc7,613a6abd8f010ce9c87a4bc7,7,stack,critical,E,50,stack40.jpg,stack60.jpg,high,NULL
1687287796,5ae62022a880db74dc7f31ff8637677b,PennController,5,0,experiment,NULL,PennController,4,_Trial_,Start,1687287615399,613a6abd8f010ce9c87a4bc7,613a6abd8f010ce9c87a4bc7,2,door,critical,E,75,door65.jpg,door85.jpg,high,NULL
1687287796,5ae62022a880db74dc7f31ff8637677b,PennController,5,0,experiment,NULL,PennController,4,_Header_,Start,1687287615399,613a6abd8f010ce9c87a4bc7,613a6abd8f010ce9c87a4bc7,2,door,critical,E,75,door65.jpg,door85.jpg,high,NULL
1687287796,5ae62022a880db74dc7f31ff8637677b,PennController,5,0,experiment,NULL,PennController,4,_Header_,End,1687287615399,613a6abd8f010ce9c87a4bc7,613a6abd8f010ce9c87a4bc7,2,door,critical,E,75,door65.jpg,door85.jpg,high,NULL
1687287796,5ae62022a880db74dc7f31ff8637677b,PennController,5,0,experiment,NULL,Canvas,canvas6,Print,NA,1687287623153,613a6abd8f010ce9c87a4bc7,613a6abd8f010ce9c87a4bc7,2,door,critical,E,75,door65.jpg,door85.jpg,high,NULL
1687287796,5ae62022a880db74dc7f31ff8637677b,PennController,5,0,experiment,NULL,Video,progression,buffer,0,1687287618936,613a6abd8f010ce9c87a4bc7,613a6abd8f010ce9c87a4bc7,2,door,critical,E,75,door65.jpg,door85.jpg,high,NULL
1687287796,5ae62022a880db74dc7f31ff8637677b,PennController,5,0,experiment,NULL,Selector,choice,Selection,option2,1687287624679,613a6abd8f010ce9c87a4bc7,613a6abd8f010ce9c87a4bc7,2,door,critical,E,75,door65.jpg,door85.jpg,high,option1;option2
1687287796,5ae62022a880db74dc7f31ff8637677b,PennController,5,0,experiment,NULL,PennController,4,_Trial_,End,1687287624682,613a6abd8f010ce9c87a4bc7,613a6abd8f010ce9c87a4bc7,2,door,critical,E,75,door65.jpg,door85.jpg,high,NULL
1687287796,5ae62022a880db74dc7f31ff8637677b,PennController,22,0,experiment,NULL,PennController,21,_Trial_,Start,1687287624684,613a6abd8f010ce9c87a4bc7,613a6abd8f010ce9c87a4bc7,19,cup,filler,E,50,cup40.jpg,cup60.jpg,GoalB,NULL
1687287796,5ae62022a880db74dc7f31ff8637677b,PennController,22,0,experiment,NULL,PennController,21,_Header_,Start,1687287624684,613a6abd8f010ce9c87a4bc7,613a6abd8f010ce9c87a4bc7,19,cup,filler,E,50,cup40.jpg,cup60.jpg,GoalB,NULL
1687287796,5ae62022a880db74dc7f31ff8637677b,PennController,22,0,experiment,NULL,PennController,21,_Header_,End,1687287624684,613a6abd8f010ce9c87a4bc7,613a6abd8f010ce9c87a4bc7,19,cup,filler,E,50,cup40.jpg,cup60.jpg,GoalB,NULL
1687287796,5ae62022a880db74dc7f31ff8637677b,PennController,22,0,experiment,NULL,Canvas,canvas6,Print,NA,1687287631387,613a6abd8f010ce9c87a4bc7,613a6abd8f010ce9c87a4bc7,19,cup,filler,E,50,cup40.jpg,cup60.jpg,GoalB,NULL
1687287796,5ae62022a880db74dc7f31ff8637677b,PennController,22,0,experiment,NULL,Video,progression,buffer,0.008498,1687287628219,613a6abd8f010ce9c87a4bc7,613a6abd8f010ce9c87a4bc7,19,cup,filler,E,50,cup40.jpg,cup60.jpg,GoalB,NULL
1687287796,5ae62022a880db74dc7f31ff8637677b,PennController,22,0,experiment,NULL,Selector,choice,Selection,option1,1687287634223,613a6abd8f010ce9c87a4bc7,613a6abd8f010ce9c87a4bc7,19,cup,filler,E,50,cup40.jpg,cup60.jpg,GoalB,option2;option1
1687287796,5ae62022a880db74dc7f31ff8637677b,PennController,22,0,experiment,NULL,PennController,21,_Trial_,End,1687287634225,613a6abd8f010ce9c87a4bc7,613a6abd8f010ce9c87a4bc7,19,cup,filler,E,50,cup40.jpg,cup60.jpg,GoalB,NULL
1687287796,5ae62022a880db74dc7f31ff8637677b,PennController,21,0,experiment,NULL,PennController,20,_Trial_,Start,1687287634227,613a6abd8f010ce9c87a4bc7,613a6abd8f010ce9c87a4bc7,18,ball,critical,E,25,ball15.jpg,ball35.jpg,high,NULL
1687287796,5ae62022a880db74dc7f31ff8637677b,PennController,21,0,experiment,NULL,PennController,20,_Header_,Start,1687287634227,613a6abd8f010ce9c87a4bc7,613a6abd8f010ce9c87a4bc7,18,ball,critical,E,25,ball15.jpg,ball35.jpg,high,NULL
1687287796,5ae62022a880db74dc7f31ff8637677b,PennController,21,0,experiment,NULL,PennController,20,_Header_,End,1687287634227,613a6abd8f010ce9c87a4bc7,613a6abd8f010ce9c87a4bc7,18,ball,critical,E,25,ball15.jpg,ball35.jpg,high,NULL
1687287796,5ae62022a880db74dc7f31ff8637677b,PennController,21,0,experiment,NULL,Canvas,canvas6,Print,NA,1687287639920,613a6abd8f010ce9c87a4bc7,613a6abd8f010ce9c87a4bc7,18,ball,critical,E,25,ball15.jpg,ball35.jpg,high,NULL
1687287796,5ae62022a880db74dc7f31ff8637677b,PennController,21,0,experiment,NULL,Video,progression,buffer,0.005013,1687287637754,613a6abd8f010ce9c87a4bc7,613a6abd8f010ce9c87a4bc7,18,ball,critical,E,25,ball15.jpg,ball35.jpg,high,NULL
1687287796,5ae62022a880db74dc7f31ff8637677b,PennController,21,0,experiment,NULL,Selector,choice,Selection,option2,1687287641771,613a6abd8f010ce9c87a4bc7,613a6abd8f010ce9c87a4bc7,18,ball,critical,E,25,ball15.jpg,ball35.jpg,high,option1;option2
1687287796,5ae62022a880db74dc7f31ff8637677b,PennController,21,0,experiment,NULL,PennController,20,_Trial_,End,1687287641773,613a6abd8f010ce9c87a4bc7,613a6abd8f010ce9c87a4bc7,18,ball,critical,E,25,ball15.jpg,ball35.jpg,high,NULL
1687287796,5ae62022a880db74dc7f31ff8637677b,PennController,30,0,experiment,NULL,PennController,29,_Trial_,Start,1687287641775,613a6abd8f010ce9c87a4bc7,613a6abd8f010ce9c87a4bc7,27,square,filler,E,25,square15.jpg,square35.jpg,GoalB,NULL
1687287796,5ae62022a880db74dc7f31ff8637677b,PennController,30,0,experiment,NULL,PennController,29,_Header_,Start,1687287641775,613a6abd8f010ce9c87a4bc7,613a6abd8f010ce9c87a4bc7,27,square,filler,E,25,square15.jpg,square35.jpg,GoalB,NULL
1687287796,5ae62022a880db74dc7f31ff8637677b,PennController,30,0,experiment,NULL,PennController,29,_Header_,End,1687287641775,613a6abd8f010ce9c87a4bc7,613a6abd8f010ce9c87a4bc7,27,square,filler,E,25,square15.jpg,square35.jpg,GoalB,NULL
1687287796,5ae62022a880db74dc7f31ff8637677b,PennController,30,0,experiment,NULL,Canvas,canvas6,Print,NA,1687287647471,613a6abd8f010ce9c87a4bc7,613a6abd8f010ce9c87a4bc7,27,square,filler,E,25,square15.jpg,square35.jpg,GoalB,NULL
1687287796,5ae62022a880db74dc7f31ff8637677b,PennController,30,0,experiment,NULL,Video,progression,buffer,0.005082,1687287645307,613a6abd8f010ce9c87a4bc7,613a6abd8f010ce9c87a4bc7,27,square,filler,E,25,square15.jpg,square35.jpg,GoalB,NULL
1687287796,5ae62022a880db74dc7f31ff8637677b,PennController,30,0,experiment,NULL,Selector,choice,Selection,option1,1687287649040,613a6abd8f010ce9c87a4bc7,613a6abd8f010ce9c87a4bc7,27,square,filler,E,25,square15.jpg,square35.jpg,GoalB,option1;option2
1687287796,5ae62022a880db74dc7f31ff8637677b,PennController,30,0,experiment,NULL,PennController,29,_Trial_,End,1687287649042,613a6abd8f010ce9c87a4bc7,613a6abd8f010ce9c87a4bc7,27,square,filler,E,25,square15.jpg,square35.jpg,GoalB,NULL
1687287796,5ae62022a880db74dc7f31ff8637677b,PennController,9,0,experiment,NULL,PennController,8,_Trial_,Start,1687287649045,613a6abd8f010ce9c87a4bc7,613a6abd8f010ce9c87a4bc7,6,flower,critical,E,25,flower15.jpg,flower35.jpg,high,NULL
1687287796,5ae62022a880db74dc7f31ff8637677b,PennController,9,0,experiment,NULL,PennController,8,_Header_,Start,1687287649045,613a6abd8f010ce9c87a4bc7,613a6abd8f010ce9c87a4bc7,6,flower,critical,E,25,flower15.jpg,flower35.jpg,high,NULL
1687287796,5ae62022a880db74dc7f31ff8637677b,PennController,9,0,experiment,NULL,PennController,8,_Header_,End,1687287649045,613a6abd8f010ce9c87a4bc7,613a6abd8f010ce9c87a4bc7,6,flower,critical,E,25,flower15.jpg,flower35.jpg,high,NULL
1687287796,5ae62022a880db74dc7f31ff8637677b,PennController,9,0,experiment,NULL,Canvas,canvas6,Print,NA,1687287654738,613a6abd8f010ce9c87a4bc7,613a6abd8f010ce9c87a4bc7,6,flower,critical,E,25,flower15.jpg,flower35.jpg,high,NULL
1687287796,5ae62022a880db74dc7f31ff8637677b,PennController,9,0,experiment,NULL,Video,progression,buffer,0.004955,1687287652574,613a6abd8f010ce9c87a4bc7,613a6abd8f010ce9c87a4bc7,6,flower,critical,E,25,flower15.jpg,flower35.jpg,high,NULL
1687287796,5ae62022a880db74dc7f31ff8637677b,PennController,9,0,experiment,NULL,Selector,choice,Selection,option1,1687287657606,613a6abd8f010ce9c87a4bc7,613a6abd8f010ce9c87a4bc7,6,flower,critical,E,25,flower15.jpg,flower35.jpg,high,option2;option1
1687287796,5ae62022a880db74dc7f31ff8637677b,PennController,9,0,experiment,NULL,PennController,8,_Trial_,End,1687287657608,613a6abd8f010ce9c87a4bc7,613a6abd8f010ce9c87a4bc7,6,flower,critical,E,25,flower15.jpg,flower35.jpg,high,NULL
1687287796,5ae62022a880db74dc7f31ff8637677b,PennController,8,0,experiment,NULL,PennController,7,_Trial_,Start,1687287657610,613a6abd8f010ce9c87a4bc7,613a6abd8f010ce9c87a4bc7,5,book,critical,E,75,book65.jpg,book85.jpg,high,NULL
1687287796,5ae62022a880db74dc7f31ff8637677b,PennController,8,0,experiment,NULL,PennController,7,_Header_,Start,1687287657610,613a6abd8f010ce9c87a4bc7,613a6abd8f010ce9c87a4bc7,5,book,critical,E,75,book65.jpg,book85.jpg,high,NULL
1687287796,5ae62022a880db74dc7f31ff8637677b,PennController,8,0,experiment,NULL,PennController,7,_Header_,End,1687287657610,613a6abd8f010ce9c87a4bc7,613a6abd8f010ce9c87a4bc7,5,book,critical,E,75,book65.jpg,book85.jpg,high,NULL
1687287796,5ae62022a880db74dc7f31ff8637677b,PennController,8,0,experiment,NULL,Canvas,canvas6,Print,NA,1687287665305,613a6abd8f010ce9c87a4bc7,613a6abd8f010ce9c87a4bc7,5,book,critical,E,75,book65.jpg,book85.jpg,high,NULL
1687287796,5ae62022a880db74dc7f31ff8637677b,PennController,8,0,experiment,NULL,Video,progression,buffer,0.005022,1687287661143,613a6abd8f010ce9c87a4bc7,613a6abd8f010ce9c87a4bc7,5,book,critical,E,75,book65.jpg,book85.jpg,high,NULL
1687287796,5ae62022a880db74dc7f31ff8637677b,PennController,8,0,experiment,NULL,Selector,choice,Selection,option2,1687287666947,613a6abd8f010ce9c87a4bc7,613a6abd8f010ce9c87a4bc7,5,book,critical,E,75,book65.jpg,book85.jpg,high,option1;option2
1687287796,5ae62022a880db74dc7f31ff8637677b,PennController,8,0,experiment,NULL,PennController,7,_Trial_,End,1687287666949,613a6abd8f010ce9c87a4bc7,613a6abd8f010ce9c87a4bc7,5,book,critical,E,75,book65.jpg,book85.jpg,high,NULL
1687287796,5ae62022a880db74dc7f31ff8637677b,PennController,29,0,experiment,NULL,PennController,28,_Trial_,Start,1687287666951,613a6abd8f010ce9c87a4bc7,613a6abd8f010ce9c87a4bc7,26,sandwich,filler,E,75,sandwich65.jpg,sandwich85.jpg,GoalA,NULL
1687287796,5ae62022a880db74dc7f31ff8637677b,PennController,29,0,experiment,NULL,PennController,28,_Header_,Start,1687287666951,613a6abd8f010ce9c87a4bc7,613a6abd8f010ce9c87a4bc7,26,sandwich,filler,E,75,sandwich65.jpg,sandwich85.jpg,GoalA,NULL
1687287796,5ae62022a880db74dc7f31ff8637677b,PennController,29,0,experiment,NULL,PennController,28,_Header_,End,1687287666951,613a6abd8f010ce9c87a4bc7,613a6abd8f010ce9c87a4bc7,26,sandwich,filler,E,75,sandwich65.jpg,sandwich85.jpg,GoalA,NULL
1687287796,5ae62022a880db74dc7f31ff8637677b,PennController,29,0,experiment,NULL,Canvas,canvas6,Print,NA,1687287674659,613a6abd8f010ce9c87a4bc7,613a6abd8f010ce9c87a4bc7,26,sandwich,filler,E,75,sandwich65.jpg,sandwich85.jpg,GoalA,NULL
1687287796,5ae62022a880db74dc7f31ff8637677b,PennController,29,0,experiment,NULL,Video,progression,buffer,0.008043,1687287670487,613a6abd8f010ce9c87a4bc7,613a6abd8f010ce9c87a4bc7,26,sandwich,filler,E,75,sandwich65.jpg,sandwich85.jpg,GoalA,NULL
1687287796,5ae62022a880db74dc7f31ff8637677b,PennController,29,0,experiment,NULL,Selector,choice,Selection,option1,1687287676987,613a6abd8f010ce9c87a4bc7,613a6abd8f010ce9c87a4bc7,26,sandwich,filler,E,75,sandwich65.jpg,sandwich85.jpg,GoalA,option2;option1
1687287796,5ae62022a880db74dc7f31ff8637677b,PennController,29,0,experiment,NULL,PennController,28,_Trial_,End,1687287676989,613a6abd8f010ce9c87a4bc7,613a6abd8f010ce9c87a4bc7,26,sandwich,filler,E,75,sandwich65.jpg,sandwich85.jpg,GoalA,NULL
1687287796,5ae62022a880db74dc7f31ff8637677b,PennController,24,0,experiment,NULL,PennController,23,_Trial_,Start,1687287676992,613a6abd8f010ce9c87a4bc7,613a6abd8f010ce9c87a4bc7,21,visit,filler,E,25,visit15.jpg,visit35.jpg,GoalB,NULL
1687287796,5ae62022a880db74dc7f31ff8637677b,PennController,24,0,experiment,NULL,PennController,23,_Header_,Start,1687287676992,613a6abd8f010ce9c87a4bc7,613a6abd8f010ce9c87a4bc7,21,visit,filler,E,25,visit15.jpg,visit35.jpg,GoalB,NULL
1687287796,5ae62022a880db74dc7f31ff8637677b,PennController,24,0,experiment,NULL,PennController,23,_Header_,End,1687287676992,613a6abd8f010ce9c87a4bc7,613a6abd8f010ce9c87a4bc7,21,visit,filler,E,25,visit15.jpg,visit35.jpg,GoalB,NULL
1687287796,5ae62022a880db74dc7f31ff8637677b,PennController,24,0,experiment,NULL,Canvas,canvas6,Print,NA,1687287682688,613a6abd8f010ce9c87a4bc7,613a6abd8f010ce9c87a4bc7,21,visit,filler,E,25,visit15.jpg,visit35.jpg,GoalB,NULL
1687287796,5ae62022a880db74dc7f31ff8637677b,PennController,24,0,experiment,NULL,Video,progression,buffer,0.008087,1687287680525,613a6abd8f010ce9c87a4bc7,613a6abd8f010ce9c87a4bc7,21,visit,filler,E,25,visit15.jpg,visit35.jpg,GoalB,NULL
1687287796,5ae62022a880db74dc7f31ff8637677b,PennController,24,0,experiment,NULL,Selector,choice,Selection,option2,1687287685323,613a6abd8f010ce9c87a4bc7,613a6abd8f010ce9c87a4bc7,21,visit,filler,E,25,visit15.jpg,visit35.jpg,GoalB,option2;option1
1687287796,5ae62022a880db74dc7f31ff8637677b,PennController,24,0,experiment,NULL,PennController,23,_Trial_,End,1687287685325,613a6abd8f010ce9c87a4bc7,613a6abd8f010ce9c87a4bc7,21,visit,filler,E,25,visit15.jpg,visit35.jpg,GoalB,NULL
1687287796,5ae62022a880db74dc7f31ff8637677b,PennController,17,0,experiment,NULL,PennController,16,_Trial_,Start,1687287685327,613a6abd8f010ce9c87a4bc7,613a6abd8f010ce9c87a4bc7,14,cover,critical,E,75,cover66.jpg,cover84.jpg,high,NULL
1687287796,5ae62022a880db74dc7f31ff8637677b,PennController,17,0,experiment,NULL,PennController,16,_Header_,Start,1687287685327,613a6abd8f010ce9c87a4bc7,613a6abd8f010ce9c87a4bc7,14,cover,critical,E,75,cover66.jpg,cover84.jpg,high,NULL
1687287796,5ae62022a880db74dc7f31ff8637677b,PennController,17,0,experiment,NULL,PennController,16,_Header_,End,1687287685327,613a6abd8f010ce9c87a4bc7,613a6abd8f010ce9c87a4bc7,14,cover,critical,E,75,cover66.jpg,cover84.jpg,high,NULL
1687287796,5ae62022a880db74dc7f31ff8637677b,PennController,17,0,experiment,NULL,Canvas,canvas6,Print,NA,1687287695026,613a6abd8f010ce9c87a4bc7,613a6abd8f010ce9c87a4bc7,14,cover,critical,E,75,cover66.jpg,cover84.jpg,high,NULL
1687287796,5ae62022a880db74dc7f31ff8637677b,PennController,17,0,experiment,NULL,Video,progression,buffer,0.005152,1687287688860,613a6abd8f010ce9c87a4bc7,613a6abd8f010ce9c87a4bc7,14,cover,critical,E,75,cover66.jpg,cover84.jpg,high,NULL
1687287796,5ae62022a880db74dc7f31ff8637677b,PennController,17,0,experiment,NULL,Selector,choice,Selection,option1,1687287696208,613a6abd8f010ce9c87a4bc7,613a6abd8f010ce9c87a4bc7,14,cover,critical,E,75,cover66.jpg,cover84.jpg,high,option1;option2
1687287796,5ae62022a880db74dc7f31ff8637677b,PennController,17,0,experiment,NULL,PennController,16,_Trial_,End,1687287696210,613a6abd8f010ce9c87a4bc7,613a6abd8f010ce9c87a4bc7,14,cover,critical,E,75,cover66.jpg,cover84.jpg,high,NULL
1687287796,5ae62022a880db74dc7f31ff8637677b,PennController,7,0,experiment,NULL,PennController,6,_Trial_,Start,1687287696212,613a6abd8f010ce9c87a4bc7,613a6abd8f010ce9c87a4bc7,4,candy,critical,E,50,candy40.jpg,candy60.jpg,high,NULL
1687287796,5ae62022a880db74dc7f31ff8637677b,PennController,7,0,experiment,NULL,PennController,6,_Header_,Start,1687287696212,613a6abd8f010ce9c87a4bc7,613a6abd8f010ce9c87a4bc7,4,candy,critical,E,50,candy40.jpg,candy60.jpg,high,NULL
1687287796,5ae62022a880db74dc7f31ff8637677b,PennController,7,0,experiment,NULL,PennController,6,_Header_,End,1687287696212,613a6abd8f010ce9c87a4bc7,613a6abd8f010ce9c87a4bc7,4,candy,critical,E,50,candy40.jpg,candy60.jpg,high,NULL
1687287796,5ae62022a880db74dc7f31ff8637677b,PennController,7,0,experiment,NULL,Canvas,canvas6,Print,NA,1687287702909,613a6abd8f010ce9c87a4bc7,613a6abd8f010ce9c87a4bc7,4,candy,critical,E,50,candy40.jpg,candy60.jpg,high,NULL
1687287796,5ae62022a880db74dc7f31ff8637677b,PennController,7,0,experiment,NULL,Video,progression,buffer,0.003313,1687287699736,613a6abd8f010ce9c87a4bc7,613a6abd8f010ce9c87a4bc7,4,candy,critical,E,50,candy40.jpg,candy60.jpg,high,NULL
1687287796,5ae62022a880db74dc7f31ff8637677b,PennController,7,0,experiment,NULL,Selector,choice,Selection,option1,1687287705707,613a6abd8f010ce9c87a4bc7,613a6abd8f010ce9c87a4bc7,4,candy,critical,E,50,candy40.jpg,candy60.jpg,high,option2;option1
1687287796,5ae62022a880db74dc7f31ff8637677b,PennController,7,0,experiment,NULL,PennController,6,_Trial_,End,1687287705709,613a6abd8f010ce9c87a4bc7,613a6abd8f010ce9c87a4bc7,4,candy,critical,E,50,candy40.jpg,candy60.jpg,high,NULL
1687287796,5ae62022a880db74dc7f31ff8637677b,PennController,13,0,experiment,NULL,PennController,12,_Trial_,Start,1687287705710,613a6abd8f010ce9c87a4bc7,613a6abd8f010ce9c87a4bc7,10,train,critical,E,50,train40.jpg,train60.jpg,high,NULL
1687287796,5ae62022a880db74dc7f31ff8637677b,PennController,13,0,experiment,NULL,PennController,12,_Header_,Start,1687287705710,613a6abd8f010ce9c87a4bc7,613a6abd8f010ce9c87a4bc7,10,train,critical,E,50,train40.jpg,train60.jpg,high,NULL
1687287796,5ae62022a880db74dc7f31ff8637677b,PennController,13,0,experiment,NULL,PennController,12,_Header_,End,1687287705710,613a6abd8f010ce9c87a4bc7,613a6abd8f010ce9c87a4bc7,10,train,critical,E,50,train40.jpg,train60.jpg,high,NULL
1687287796,5ae62022a880db74dc7f31ff8637677b,PennController,13,0,experiment,NULL,Canvas,canvas6,Print,NA,1687287712409,613a6abd8f010ce9c87a4bc7,613a6abd8f010ce9c87a4bc7,10,train,critical,E,50,train40.jpg,train60.jpg,high,NULL
1687287796,5ae62022a880db74dc7f31ff8637677b,PennController,13,0,experiment,NULL,Video,progression,buffer,0.007382,1687287709244,613a6abd8f010ce9c87a4bc7,613a6abd8f010ce9c87a4bc7,10,train,critical,E,50,train40.jpg,train60.jpg,high,NULL
1687287796,5ae62022a880db74dc7f31ff8637677b,PennController,13,0,experiment,NULL,Selector,choice,Selection,option1,1687287714623,613a6abd8f010ce9c87a4bc7,613a6abd8f010ce9c87a4bc7,10,train,critical,E,50,train40.jpg,train60.jpg,high,option2;option1
1687287796,5ae62022a880db74dc7f31ff8637677b,PennController,13,0,experiment,NULL,PennController,12,_Trial_,End,1687287714626,613a6abd8f010ce9c87a4bc7,613a6abd8f010ce9c87a4bc7,10,train,critical,E,50,train40.jpg,train60.jpg,high,NULL
1687287796,5ae62022a880db74dc7f31ff8637677b,PennController,12,0,experiment,NULL,PennController,11,_Trial_,Start,1687287714628,613a6abd8f010ce9c87a4bc7,613a6abd8f010ce9c87a4bc7,9,cake,critical,E,25,cake15.jpg,cake33.jpg,high,NULL
1687287796,5ae62022a880db74dc7f31ff8637677b,PennController,12,0,experiment,NULL,PennController,11,_Header_,Start,1687287714628,613a6abd8f010ce9c87a4bc7,613a6abd8f010ce9c87a4bc7,9,cake,critical,E,25,cake15.jpg,cake33.jpg,high,NULL
1687287796,5ae62022a880db74dc7f31ff8637677b,PennController,12,0,experiment,NULL,PennController,11,_Header_,End,1687287714628,613a6abd8f010ce9c87a4bc7,613a6abd8f010ce9c87a4bc7,9,cake,critical,E,25,cake15.jpg,cake33.jpg,high,NULL
1687287796,5ae62022a880db74dc7f31ff8637677b,PennController,12,0,experiment,NULL,Canvas,canvas6,Print,NA,1687287720924,613a6abd8f010ce9c87a4bc7,613a6abd8f010ce9c87a4bc7,9,cake,critical,E,25,cake15.jpg,cake33.jpg,high,NULL
1687287796,5ae62022a880db74dc7f31ff8637677b,PennController,12,0,experiment,NULL,Video,progression,buffer,0.008255,1687287718160,613a6abd8f010ce9c87a4bc7,613a6abd8f010ce9c87a4bc7,9,cake,critical,E,25,cake15.jpg,cake33.jpg,high,NULL
1687287796,5ae62022a880db74dc7f31ff8637677b,PennController,12,0,experiment,NULL,Selector,choice,Selection,option1,1687287722890,613a6abd8f010ce9c87a4bc7,613a6abd8f010ce9c87a4bc7,9,cake,critical,E,25,cake15.jpg,cake33.jpg,high,option1;option2
1687287796,5ae62022a880db74dc7f31ff8637677b,PennController,12,0,experiment,NULL,PennController,11,_Trial_,End,1687287722892,613a6abd8f010ce9c87a4bc7,613a6abd8f010ce9c87a4bc7,9,cake,critical,E,25,cake15.jpg,cake33.jpg,high,NULL
1687287796,5ae62022a880db74dc7f31ff8637677b,PennController,11,0,experiment,NULL,PennController,10,_Trial_,Start,1687287722893,613a6abd8f010ce9c87a4bc7,613a6abd8f010ce9c87a4bc7,8,cucumber,critical,E,75,cucumber66.jpg,cucumber84.jpg,high,NULL
1687287796,5ae62022a880db74dc7f31ff8637677b,PennController,11,0,experiment,NULL,PennController,10,_Header_,Start,1687287722893,613a6abd8f010ce9c87a4bc7,613a6abd8f010ce9c87a4bc7,8,cucumber,critical,E,75,cucumber66.jpg,cucumber84.jpg,high,NULL
1687287796,5ae62022a880db74dc7f31ff8637677b,PennController,11,0,experiment,NULL,PennController,10,_Header_,End,1687287722893,613a6abd8f010ce9c87a4bc7,613a6abd8f010ce9c87a4bc7,8,cucumber,critical,E,75,cucumber66.jpg,cucumber84.jpg,high,NULL
1687287796,5ae62022a880db74dc7f31ff8637677b,PennController,11,0,experiment,NULL,Canvas,canvas6,Print,NA,1687287732593,613a6abd8f010ce9c87a4bc7,613a6abd8f010ce9c87a4bc7,8,cucumber,critical,E,75,cucumber66.jpg,cucumber84.jpg,high,NULL
1687287796,5ae62022a880db74dc7f31ff8637677b,PennController,11,0,experiment,NULL,Video,progression,buffer,0.008065,1687287726423,613a6abd8f010ce9c87a4bc7,613a6abd8f010ce9c87a4bc7,8,cucumber,critical,E,75,cucumber66.jpg,cucumber84.jpg,high,NULL
1687287796,5ae62022a880db74dc7f31ff8637677b,PennController,11,0,experiment,NULL,Selector,choice,Selection,option1,1687287735206,613a6abd8f010ce9c87a4bc7,613a6abd8f010ce9c87a4bc7,8,cucumber,critical,E,75,cucumber66.jpg,cucumber84.jpg,high,option2;option1
1687287796,5ae62022a880db74dc7f31ff8637677b,PennController,11,0,experiment,NULL,PennController,10,_Trial_,End,1687287735208,613a6abd8f010ce9c87a4bc7,613a6abd8f010ce9c87a4bc7,8,cucumber,critical,E,75,cucumber66.jpg,cucumber84.jpg,high,NULL
1687287796,5ae62022a880db74dc7f31ff8637677b,PennController,6,0,experiment,NULL,PennController,5,_Trial_,Start,1687287735210,613a6abd8f010ce9c87a4bc7,613a6abd8f010ce9c87a4bc7,3,clean,critical,E,25,clean15.jpg,clean35.jpg,high,NULL
1687287796,5ae62022a880db74dc7f31ff8637677b,PennController,6,0,experiment,NULL,PennController,5,_Header_,Start,1687287735210,613a6abd8f010ce9c87a4bc7,613a6abd8f010ce9c87a4bc7,3,clean,critical,E,25,clean15.jpg,clean35.jpg,high,NULL
1687287796,5ae62022a880db74dc7f31ff8637677b,PennController,6,0,experiment,NULL,PennController,5,_Header_,End,1687287735210,613a6abd8f010ce9c87a4bc7,613a6abd8f010ce9c87a4bc7,3,clean,critical,E,25,clean15.jpg,clean35.jpg,high,NULL
1687287796,5ae62022a880db74dc7f31ff8637677b,PennController,6,0,experiment,NULL,Canvas,canvas6,Print,NA,1687287740908,613a6abd8f010ce9c87a4bc7,613a6abd8f010ce9c87a4bc7,3,clean,critical,E,25,clean15.jpg,clean35.jpg,high,NULL
1687287796,5ae62022a880db74dc7f31ff8637677b,PennController,6,0,experiment,NULL,Video,progression,buffer,0.011573,1687287738746,613a6abd8f010ce9c87a4bc7,613a6abd8f010ce9c87a4bc7,3,clean,critical,E,25,clean15.jpg,clean35.jpg,high,NULL
1687287796,5ae62022a880db74dc7f31ff8637677b,PennController,6,0,experiment,NULL,Selector,choice,Selection,option1,1687287742887,613a6abd8f010ce9c87a4bc7,613a6abd8f010ce9c87a4bc7,3,clean,critical,E,25,clean15.jpg,clean35.jpg,high,option1;option2
1687287796,5ae62022a880db74dc7f31ff8637677b,PennController,6,0,experiment,NULL,PennController,5,_Trial_,End,1687287742889,613a6abd8f010ce9c87a4bc7,613a6abd8f010ce9c87a4bc7,3,clean,critical,E,25,clean15.jpg,clean35.jpg,high,NULL
1687287796,5ae62022a880db74dc7f31ff8637677b,PennController,15,0,experiment,NULL,PennController,14,_Trial_,Start,1687287742891,613a6abd8f010ce9c87a4bc7,613a6abd8f010ce9c87a4bc7,12,erase,critical,E,25,erase15.jpg,erase33.jpg,high,NULL
1687287796,5ae62022a880db74dc7f31ff8637677b,PennController,15,0,experiment,NULL,PennController,14,_Header_,Start,1687287742891,613a6abd8f010ce9c87a4bc7,613a6abd8f010ce9c87a4bc7,12,erase,critical,E,25,erase15.jpg,erase33.jpg,high,NULL
1687287796,5ae62022a880db74dc7f31ff8637677b,PennController,15,0,experiment,NULL,PennController,14,_Header_,End,1687287742891,613a6abd8f010ce9c87a4bc7,613a6abd8f010ce9c87a4bc7,12,erase,critical,E,25,erase15.jpg,erase33.jpg,high,NULL
1687287796,5ae62022a880db74dc7f31ff8637677b,PennController,15,0,experiment,NULL,Canvas,canvas6,Print,NA,1687287749193,613a6abd8f010ce9c87a4bc7,613a6abd8f010ce9c87a4bc7,12,erase,critical,E,25,erase15.jpg,erase33.jpg,high,NULL
1687287796,5ae62022a880db74dc7f31ff8637677b,PennController,15,0,experiment,NULL,Video,progression,buffer,0.008891,1687287746425,613a6abd8f010ce9c87a4bc7,613a6abd8f010ce9c87a4bc7,12,erase,critical,E,25,erase15.jpg,erase33.jpg,high,NULL
1687287796,5ae62022a880db74dc7f31ff8637677b,PennController,15,0,experiment,NULL,Selector,choice,Selection,option1,1687287750518,613a6abd8f010ce9c87a4bc7,613a6abd8f010ce9c87a4bc7,12,erase,critical,E,25,erase15.jpg,erase33.jpg,high,option1;option2
1687287796,5ae62022a880db74dc7f31ff8637677b,PennController,15,0,experiment,NULL,PennController,14,_Trial_,End,1687287750520,613a6abd8f010ce9c87a4bc7,613a6abd8f010ce9c87a4bc7,12,erase,critical,E,25,erase15.jpg,erase33.jpg,high,NULL
1687287796,5ae62022a880db74dc7f31ff8637677b,PennController,32,0,experiment,NULL,PennController,31,_Trial_,Start,1687287750521,613a6abd8f010ce9c87a4bc7,613a6abd8f010ce9c87a4bc7,29,frog,filler,E,75,frog65.jpg,frog85.jpg,GoalB,NULL
1687287796,5ae62022a880db74dc7f31ff8637677b,PennController,32,0,experiment,NULL,PennController,31,_Header_,Start,1687287750521,613a6abd8f010ce9c87a4bc7,613a6abd8f010ce9c87a4bc7,29,frog,filler,E,75,frog65.jpg,frog85.jpg,GoalB,NULL
1687287796,5ae62022a880db74dc7f31ff8637677b,PennController,32,0,experiment,NULL,PennController,31,_Header_,End,1687287750521,613a6abd8f010ce9c87a4bc7,613a6abd8f010ce9c87a4bc7,29,frog,filler,E,75,frog65.jpg,frog85.jpg,GoalB,NULL
1687287796,5ae62022a880db74dc7f31ff8637677b,PennController,32,0,experiment,NULL,Canvas,canvas6,Print,NA,1687287758212,613a6abd8f010ce9c87a4bc7,613a6abd8f010ce9c87a4bc7,29,frog,filler,E,75,frog65.jpg,frog85.jpg,GoalB,NULL
1687287796,5ae62022a880db74dc7f31ff8637677b,PennController,32,0,experiment,NULL,Video,progression,buffer,0.005725,1687287754050,613a6abd8f010ce9c87a4bc7,613a6abd8f010ce9c87a4bc7,29,frog,filler,E,75,frog65.jpg,frog85.jpg,GoalB,NULL
1687287796,5ae62022a880db74dc7f31ff8637677b,PennController,32,0,experiment,NULL,Selector,choice,Selection,option1,1687287759594,613a6abd8f010ce9c87a4bc7,613a6abd8f010ce9c87a4bc7,29,frog,filler,E,75,frog65.jpg,frog85.jpg,GoalB,option1;option2
1687287796,5ae62022a880db74dc7f31ff8637677b,PennController,32,0,experiment,NULL,PennController,31,_Trial_,End,1687287759596,613a6abd8f010ce9c87a4bc7,613a6abd8f010ce9c87a4bc7,29,frog,filler,E,75,frog65.jpg,frog85.jpg,GoalB,NULL
1687287796,5ae62022a880db74dc7f31ff8637677b,PennController,14,0,experiment,NULL,PennController,13,_Trial_,Start,1687287759598,613a6abd8f010ce9c87a4bc7,613a6abd8f010ce9c87a4bc7,11,beads,critical,E,75,beads65.jpg,beads85.jpg,high,NULL
1687287796,5ae62022a880db74dc7f31ff8637677b,PennController,14,0,experiment,NULL,PennController,13,_Header_,Start,1687287759598,613a6abd8f010ce9c87a4bc7,613a6abd8f010ce9c87a4bc7,11,beads,critical,E,75,beads65.jpg,beads85.jpg,high,NULL
1687287796,5ae62022a880db74dc7f31ff8637677b,PennController,14,0,experiment,NULL,PennController,13,_Header_,End,1687287759598,613a6abd8f010ce9c87a4bc7,613a6abd8f010ce9c87a4bc7,11,beads,critical,E,75,beads65.jpg,beads85.jpg,high,NULL
1687287796,5ae62022a880db74dc7f31ff8637677b,PennController,14,0,experiment,NULL,Canvas,canvas6,Print,NA,1687287767297,613a6abd8f010ce9c87a4bc7,613a6abd8f010ce9c87a4bc7,11,beads,critical,E,75,beads65.jpg,beads85.jpg,high,NULL
1687287796,5ae62022a880db74dc7f31ff8637677b,PennController,14,0,experiment,NULL,Video,progression,buffer,0.006944,1687287763129,613a6abd8f010ce9c87a4bc7,613a6abd8f010ce9c87a4bc7,11,beads,critical,E,75,beads65.jpg,beads85.jpg,high,NULL
1687287796,5ae62022a880db74dc7f31ff8637677b,PennController,14,0,experiment,NULL,Selector,choice,Selection,option1,1687287768355,613a6abd8f010ce9c87a4bc7,613a6abd8f010ce9c87a4bc7,11,beads,critical,E,75,beads65.jpg,beads85.jpg,high,option1;option2
1687287796,5ae62022a880db74dc7f31ff8637677b,PennController,14,0,experiment,NULL,PennController,13,_Trial_,End,1687287768357,613a6abd8f010ce9c87a4bc7,613a6abd8f010ce9c87a4bc7,11,beads,critical,E,75,beads65.jpg,beads85.jpg,high,NULL
1687287796,5ae62022a880db74dc7f31ff8637677b,PennController,28,0,experiment,NULL,PennController,27,_Trial_,Start,1687287768359,613a6abd8f010ce9c87a4bc7,613a6abd8f010ce9c87a4bc7,25,house,filler,E,50,house40.jpg,house60.jpg,GoalB,NULL
1687287796,5ae62022a880db74dc7f31ff8637677b,PennController,28,0,experiment,NULL,PennController,27,_Header_,Start,1687287768360,613a6abd8f010ce9c87a4bc7,613a6abd8f010ce9c87a4bc7,25,house,filler,E,50,house40.jpg,house60.jpg,GoalB,NULL
1687287796,5ae62022a880db74dc7f31ff8637677b,PennController,28,0,experiment,NULL,PennController,27,_Header_,End,1687287768360,613a6abd8f010ce9c87a4bc7,613a6abd8f010ce9c87a4bc7,25,house,filler,E,50,house40.jpg,house60.jpg,GoalB,NULL
1687287796,5ae62022a880db74dc7f31ff8637677b,PennController,28,0,experiment,NULL,Canvas,canvas6,Print,NA,1687287775062,613a6abd8f010ce9c87a4bc7,613a6abd8f010ce9c87a4bc7,25,house,filler,E,50,house40.jpg,house60.jpg,GoalB,NULL
1687287796,5ae62022a880db74dc7f31ff8637677b,PennController,28,0,experiment,NULL,Video,progression,buffer,0.008019,1687287771894,613a6abd8f010ce9c87a4bc7,613a6abd8f010ce9c87a4bc7,25,house,filler,E,50,house40.jpg,house60.jpg,GoalB,NULL
1687287796,5ae62022a880db74dc7f31ff8637677b,PennController,28,0,experiment,NULL,Selector,choice,Selection,option1,1687287776822,613a6abd8f010ce9c87a4bc7,613a6abd8f010ce9c87a4bc7,25,house,filler,E,50,house40.jpg,house60.jpg,GoalB,option1;option2
1687287796,5ae62022a880db74dc7f31ff8637677b,PennController,28,0,experiment,NULL,PennController,27,_Trial_,End,1687287776825,613a6abd8f010ce9c87a4bc7,613a6abd8f010ce9c87a4bc7,25,house,filler,E,50,house40.jpg,house60.jpg,GoalB,NULL
1687287796,5ae62022a880db74dc7f31ff8637677b,PennController,16,0,experiment,NULL,PennController,15,_Trial_,Start,1687287776826,613a6abd8f010ce9c87a4bc7,613a6abd8f010ce9c87a4bc7,13,mix,critical,E,50,mix40.jpg,mix60.jpg,high,NULL
1687287796,5ae62022a880db74dc7f31ff8637677b,PennController,16,0,experiment,NULL,PennController,15,_Header_,Start,1687287776826,613a6abd8f010ce9c87a4bc7,613a6abd8f010ce9c87a4bc7,13,mix,critical,E,50,mix40.jpg,mix60.jpg,high,NULL
1687287796,5ae62022a880db74dc7f31ff8637677b,PennController,16,0,experiment,NULL,PennController,15,_Header_,End,1687287776826,613a6abd8f010ce9c87a4bc7,613a6abd8f010ce9c87a4bc7,13,mix,critical,E,50,mix40.jpg,mix60.jpg,high,NULL
1687287796,5ae62022a880db74dc7f31ff8637677b,PennController,16,0,experiment,NULL,Canvas,canvas6,Print,NA,1687287783522,613a6abd8f010ce9c87a4bc7,613a6abd8f010ce9c87a4bc7,13,mix,critical,E,50,mix40.jpg,mix60.jpg,high,NULL
1687287796,5ae62022a880db74dc7f31ff8637677b,PennController,16,0,experiment,NULL,Video,progression,buffer,0.008279,1687287780360,613a6abd8f010ce9c87a4bc7,613a6abd8f010ce9c87a4bc7,13,mix,critical,E,50,mix40.jpg,mix60.jpg,high,NULL
1687287796,5ae62022a880db74dc7f31ff8637677b,PennController,16,0,experiment,NULL,Selector,choice,Selection,option1,1687287786441,613a6abd8f010ce9c87a4bc7,613a6abd8f010ce9c87a4bc7,13,mix,critical,E,50,mix40.jpg,mix60.jpg,high,option1;option2
1687287796,5ae62022a880db74dc7f31ff8637677b,PennController,16,0,experiment,NULL,PennController,15,_Trial_,End,1687287786444,613a6abd8f010ce9c87a4bc7,613a6abd8f010ce9c87a4bc7,13,mix,critical,E,50,mix40.jpg,mix60.jpg,high,NULL
1687287796,5ae62022a880db74dc7f31ff8637677b,PennController,19,0,experiment,NULL,PennController,18,_Trial_,Start,1687287786446,613a6abd8f010ce9c87a4bc7,613a6abd8f010ce9c87a4bc7,16,blinds,critical,E,50,blinds42.jpg,blinds60.jpg,high,NULL
1687287796,5ae62022a880db74dc7f31ff8637677b,PennController,19,0,experiment,NULL,PennController,18,_Header_,Start,1687287786446,613a6abd8f010ce9c87a4bc7,613a6abd8f010ce9c87a4bc7,16,blinds,critical,E,50,blinds42.jpg,blinds60.jpg,high,NULL
1687287796,5ae62022a880db74dc7f31ff8637677b,PennController,19,0,experiment,NULL,PennController,18,_Header_,End,1687287786446,613a6abd8f010ce9c87a4bc7,613a6abd8f010ce9c87a4bc7,16,blinds,critical,E,50,blinds42.jpg,blinds60.jpg,high,NULL
1687287796,5ae62022a880db74dc7f31ff8637677b,PennController,19,0,experiment,NULL,Canvas,canvas6,Print,NA,1687287794546,613a6abd8f010ce9c87a4bc7,613a6abd8f010ce9c87a4bc7,16,blinds,critical,E,50,blinds42.jpg,blinds60.jpg,high,NULL
1687287796,5ae62022a880db74dc7f31ff8637677b,PennController,19,0,experiment,NULL,Video,progression,buffer,0.008018,1687287789981,613a6abd8f010ce9c87a4bc7,613a6abd8f010ce9c87a4bc7,16,blinds,critical,E,50,blinds42.jpg,blinds60.jpg,high,NULL
1687287796,5ae62022a880db74dc7f31ff8637677b,PennController,19,0,experiment,NULL,Selector,choice,Selection,option1,1687287795676,613a6abd8f010ce9c87a4bc7,613a6abd8f010ce9c87a4bc7,16,blinds,critical,E,50,blinds42.jpg,blinds60.jpg,high,option1;option2
1687287796,5ae62022a880db74dc7f31ff8637677b,PennController,19,0,experiment,NULL,PennController,18,_Trial_,End,1687287795678,613a6abd8f010ce9c87a4bc7,613a6abd8f010ce9c87a4bc7,16,blinds,critical,E,50,blinds42.jpg,blinds60.jpg,high,NULL
