#
# Results on Tuesday June 20 2023 19:07:10 UTC
# USER AGENT: Mozilla/5.0 (Linux; Android 9; Redmi Note 8) AppleWebKit/537.36 (KHTML, like Gecko) Chrome/89.0.4389.105 Mobile Safari/537.36
# Design number was non-random = 3
#
# Columns below this comment are as follows:
# 1. Results reception time.
# 2. MD5 hash of participant's IP address.
# 3. Controller name.
# 4. Order number of item.
# 5. Inner element number.
# 6. Label.
# 7. Latin Square Group.
# 8. PennElementType.
# 9. PennElementName.
# 10. Parameter.
# 11. Value.
# 12. EventTime.
# 13. PROLIFIC_ID.
# 14. Comments.
1687288030,99ee33f3e1d010e6ea9e3edc9cbe3eef,PennController,2,0,consent,NULL,PennController,0,_Trial_,Start,1687286872246,5e483b6aa68f6b2da92190ee,NULL
1687288030,99ee33f3e1d010e6ea9e3edc9cbe3eef,PennController,2,0,consent,NULL,PennController,0,_Header_,Start,1687286872246,5e483b6aa68f6b2da92190ee,NULL
1687288030,99ee33f3e1d010e6ea9e3edc9cbe3eef,PennController,2,0,consent,NULL,PennController,0,_Header_,End,1687286872246,5e483b6aa68f6b2da92190ee,NULL
1687288030,99ee33f3e1d010e6ea9e3edc9cbe3eef,PennController,2,0,consent,NULL,PennController,0,_Trial_,End,1687286874108,5e483b6aa68f6b2da92190ee,NULL
# Columns below this comment are as follows:
# 14. ID.
# 15. Comments.
1687288030,99ee33f3e1d010e6ea9e3edc9cbe3eef,PennController,3,0,intro,NULL,PennController,1,_Trial_,Start,1687286874114,5e483b6aa68f6b2da92190ee,5e483b6aa68f6b2da92190ee,NULL
1687288030,99ee33f3e1d010e6ea9e3edc9cbe3eef,PennController,3,0,intro,NULL,PennController,1,_Header_,Start,1687286874114,5e483b6aa68f6b2da92190ee,5e483b6aa68f6b2da92190ee,NULL
1687288030,99ee33f3e1d010e6ea9e3edc9cbe3eef,PennController,3,0,intro,NULL,PennController,1,_Header_,End,1687286874114,5e483b6aa68f6b2da92190ee,5e483b6aa68f6b2da92190ee,NULL
1687288030,99ee33f3e1d010e6ea9e3edc9cbe3eef,PennController,3,0,intro,NULL,PennController,1,_Trial_,End,1687286877538,5e483b6aa68f6b2da92190ee,5e483b6aa68f6b2da92190ee,NULL
# Columns below this comment are as follows:
# 15. item_number.
# 16. item.
# 17. type.
# 18. Group.
# 19. prog.
# 20. prev_image.
# 21. next_image.
# 22. height.
# 23. Comments.
1687288030,99ee33f3e1d010e6ea9e3edc9cbe3eef,PennController,6,0,experiment,NULL,PennController,5,_Trial_,Start,1687286877542,5e483b6aa68f6b2da92190ee,5e483b6aa68f6b2da92190ee,3,clean,critical,D,75,clean65.jpg,clean85.jpg,high,NULL
1687288030,99ee33f3e1d010e6ea9e3edc9cbe3eef,PennController,6,0,experiment,NULL,PennController,5,_Header_,Start,1687286877543,5e483b6aa68f6b2da92190ee,5e483b6aa68f6b2da92190ee,3,clean,critical,D,75,clean65.jpg,clean85.jpg,high,NULL
1687288030,99ee33f3e1d010e6ea9e3edc9cbe3eef,PennController,6,0,experiment,NULL,PennController,5,_Header_,End,1687286877543,5e483b6aa68f6b2da92190ee,5e483b6aa68f6b2da92190ee,3,clean,critical,D,75,clean65.jpg,clean85.jpg,high,NULL
1687288030,99ee33f3e1d010e6ea9e3edc9cbe3eef,PennController,6,0,experiment,NULL,Canvas,canvas6,Print,NA,1687286885477,5e483b6aa68f6b2da92190ee,5e483b6aa68f6b2da92190ee,3,clean,critical,D,75,clean65.jpg,clean85.jpg,high,NULL
1687288030,99ee33f3e1d010e6ea9e3edc9cbe3eef,PennController,6,0,experiment,NULL,Video,progression,buffer,0.018985,1687286881259,5e483b6aa68f6b2da92190ee,5e483b6aa68f6b2da92190ee,3,clean,critical,D,75,clean65.jpg,clean85.jpg,high,NULL
1687288030,99ee33f3e1d010e6ea9e3edc9cbe3eef,PennController,6,0,experiment,NULL,Selector,choice,Selection,option1,1687286888274,5e483b6aa68f6b2da92190ee,5e483b6aa68f6b2da92190ee,3,clean,critical,D,75,clean65.jpg,clean85.jpg,high,option1;option2
1687288030,99ee33f3e1d010e6ea9e3edc9cbe3eef,PennController,6,0,experiment,NULL,PennController,5,_Trial_,End,1687286888290,5e483b6aa68f6b2da92190ee,5e483b6aa68f6b2da92190ee,3,clean,critical,D,75,clean65.jpg,clean85.jpg,high,NULL
1687288030,99ee33f3e1d010e6ea9e3edc9cbe3eef,PennController,24,0,experiment,NULL,PennController,23,_Trial_,Start,1687286888300,5e483b6aa68f6b2da92190ee,5e483b6aa68f6b2da92190ee,21,visit,filler,D,75,visit65.jpg,visit85.jpg,GoalB,NULL
1687288030,99ee33f3e1d010e6ea9e3edc9cbe3eef,PennController,24,0,experiment,NULL,PennController,23,_Header_,Start,1687286888300,5e483b6aa68f6b2da92190ee,5e483b6aa68f6b2da92190ee,21,visit,filler,D,75,visit65.jpg,visit85.jpg,GoalB,NULL
1687288030,99ee33f3e1d010e6ea9e3edc9cbe3eef,PennController,24,0,experiment,NULL,PennController,23,_Header_,End,1687286888300,5e483b6aa68f6b2da92190ee,5e483b6aa68f6b2da92190ee,21,visit,filler,D,75,visit65.jpg,visit85.jpg,GoalB,NULL
1687288030,99ee33f3e1d010e6ea9e3edc9cbe3eef,PennController,24,0,experiment,NULL,Canvas,canvas6,Print,NA,1687286896135,5e483b6aa68f6b2da92190ee,5e483b6aa68f6b2da92190ee,21,visit,filler,D,75,visit65.jpg,visit85.jpg,GoalB,NULL
1687288030,99ee33f3e1d010e6ea9e3edc9cbe3eef,PennController,24,0,experiment,NULL,Video,progression,buffer,0.016386,1687286891913,5e483b6aa68f6b2da92190ee,5e483b6aa68f6b2da92190ee,21,visit,filler,D,75,visit65.jpg,visit85.jpg,GoalB,NULL
1687288030,99ee33f3e1d010e6ea9e3edc9cbe3eef,PennController,24,0,experiment,NULL,Selector,choice,Selection,option2,1687286897823,5e483b6aa68f6b2da92190ee,5e483b6aa68f6b2da92190ee,21,visit,filler,D,75,visit65.jpg,visit85.jpg,GoalB,option1;option2
1687288030,99ee33f3e1d010e6ea9e3edc9cbe3eef,PennController,24,0,experiment,NULL,PennController,23,_Trial_,End,1687286897829,5e483b6aa68f6b2da92190ee,5e483b6aa68f6b2da92190ee,21,visit,filler,D,75,visit65.jpg,visit85.jpg,GoalB,NULL
1687288030,99ee33f3e1d010e6ea9e3edc9cbe3eef,PennController,31,0,experiment,NULL,PennController,30,_Trial_,Start,1687286897834,5e483b6aa68f6b2da92190ee,5e483b6aa68f6b2da92190ee,28,sort,filler,D,25,sort15.jpg,sort35.jpg,GoalA,NULL
1687288030,99ee33f3e1d010e6ea9e3edc9cbe3eef,PennController,31,0,experiment,NULL,PennController,30,_Header_,Start,1687286897834,5e483b6aa68f6b2da92190ee,5e483b6aa68f6b2da92190ee,28,sort,filler,D,25,sort15.jpg,sort35.jpg,GoalA,NULL
1687288030,99ee33f3e1d010e6ea9e3edc9cbe3eef,PennController,31,0,experiment,NULL,PennController,30,_Header_,End,1687286897835,5e483b6aa68f6b2da92190ee,5e483b6aa68f6b2da92190ee,28,sort,filler,D,25,sort15.jpg,sort35.jpg,GoalA,NULL
1687288030,99ee33f3e1d010e6ea9e3edc9cbe3eef,PennController,31,0,experiment,NULL,Canvas,canvas6,Print,NA,1687286903691,5e483b6aa68f6b2da92190ee,5e483b6aa68f6b2da92190ee,28,sort,filler,D,25,sort15.jpg,sort35.jpg,GoalA,NULL
1687288030,99ee33f3e1d010e6ea9e3edc9cbe3eef,PennController,31,0,experiment,NULL,Video,progression,buffer,0.019462,1687286901448,5e483b6aa68f6b2da92190ee,5e483b6aa68f6b2da92190ee,28,sort,filler,D,25,sort15.jpg,sort35.jpg,GoalA,NULL
1687288030,99ee33f3e1d010e6ea9e3edc9cbe3eef,PennController,31,0,experiment,NULL,Selector,choice,Selection,option1,1687286905985,5e483b6aa68f6b2da92190ee,5e483b6aa68f6b2da92190ee,28,sort,filler,D,25,sort15.jpg,sort35.jpg,GoalA,option1;option2
1687288030,99ee33f3e1d010e6ea9e3edc9cbe3eef,PennController,31,0,experiment,NULL,PennController,30,_Trial_,End,1687286905998,5e483b6aa68f6b2da92190ee,5e483b6aa68f6b2da92190ee,28,sort,filler,D,25,sort15.jpg,sort35.jpg,GoalA,NULL
1687288030,99ee33f3e1d010e6ea9e3edc9cbe3eef,PennController,5,0,experiment,NULL,PennController,4,_Trial_,Start,1687286906010,5e483b6aa68f6b2da92190ee,5e483b6aa68f6b2da92190ee,2,door,critical,D,50,door40.jpg,door60.jpg,high,NULL
1687288030,99ee33f3e1d010e6ea9e3edc9cbe3eef,PennController,5,0,experiment,NULL,PennController,4,_Header_,Start,1687286906010,5e483b6aa68f6b2da92190ee,5e483b6aa68f6b2da92190ee,2,door,critical,D,50,door40.jpg,door60.jpg,high,NULL
1687288030,99ee33f3e1d010e6ea9e3edc9cbe3eef,PennController,5,0,experiment,NULL,PennController,4,_Header_,End,1687286906010,5e483b6aa68f6b2da92190ee,5e483b6aa68f6b2da92190ee,2,door,critical,D,50,door40.jpg,door60.jpg,high,NULL
1687288030,99ee33f3e1d010e6ea9e3edc9cbe3eef,PennController,5,0,experiment,NULL,Canvas,canvas6,Print,NA,1687286912935,5e483b6aa68f6b2da92190ee,5e483b6aa68f6b2da92190ee,2,door,critical,D,50,door40.jpg,door60.jpg,high,NULL
1687288030,99ee33f3e1d010e6ea9e3edc9cbe3eef,PennController,5,0,experiment,NULL,Video,progression,buffer,0.022917,1687286909692,5e483b6aa68f6b2da92190ee,5e483b6aa68f6b2da92190ee,2,door,critical,D,50,door40.jpg,door60.jpg,high,NULL
1687288030,99ee33f3e1d010e6ea9e3edc9cbe3eef,PennController,5,0,experiment,NULL,Selector,choice,Selection,option1,1687286914550,5e483b6aa68f6b2da92190ee,5e483b6aa68f6b2da92190ee,2,door,critical,D,50,door40.jpg,door60.jpg,high,option1;option2
1687288030,99ee33f3e1d010e6ea9e3edc9cbe3eef,PennController,5,0,experiment,NULL,PennController,4,_Trial_,End,1687286914557,5e483b6aa68f6b2da92190ee,5e483b6aa68f6b2da92190ee,2,door,critical,D,50,door40.jpg,door60.jpg,high,NULL
1687288030,99ee33f3e1d010e6ea9e3edc9cbe3eef,PennController,11,0,experiment,NULL,PennController,10,_Trial_,Start,1687286914566,5e483b6aa68f6b2da92190ee,5e483b6aa68f6b2da92190ee,8,cucumber,critical,D,50,cucumber42.jpg,cucumber60.jpg,high,NULL
1687288030,99ee33f3e1d010e6ea9e3edc9cbe3eef,PennController,11,0,experiment,NULL,PennController,10,_Header_,Start,1687286914566,5e483b6aa68f6b2da92190ee,5e483b6aa68f6b2da92190ee,8,cucumber,critical,D,50,cucumber42.jpg,cucumber60.jpg,high,NULL
1687288030,99ee33f3e1d010e6ea9e3edc9cbe3eef,PennController,11,0,experiment,NULL,PennController,10,_Header_,End,1687286914566,5e483b6aa68f6b2da92190ee,5e483b6aa68f6b2da92190ee,8,cucumber,critical,D,50,cucumber42.jpg,cucumber60.jpg,high,NULL
1687288030,99ee33f3e1d010e6ea9e3edc9cbe3eef,PennController,11,0,experiment,NULL,Canvas,canvas6,Print,NA,1687286922853,5e483b6aa68f6b2da92190ee,5e483b6aa68f6b2da92190ee,8,cucumber,critical,D,50,cucumber42.jpg,cucumber60.jpg,high,NULL
1687288030,99ee33f3e1d010e6ea9e3edc9cbe3eef,PennController,11,0,experiment,NULL,Video,progression,buffer,0.0216,1687286918236,5e483b6aa68f6b2da92190ee,5e483b6aa68f6b2da92190ee,8,cucumber,critical,D,50,cucumber42.jpg,cucumber60.jpg,high,NULL
1687288030,99ee33f3e1d010e6ea9e3edc9cbe3eef,PennController,11,0,experiment,NULL,Selector,choice,Selection,option1,1687286925411,5e483b6aa68f6b2da92190ee,5e483b6aa68f6b2da92190ee,8,cucumber,critical,D,50,cucumber42.jpg,cucumber60.jpg,high,option2;option1
1687288030,99ee33f3e1d010e6ea9e3edc9cbe3eef,PennController,11,0,experiment,NULL,PennController,10,_Trial_,End,1687286925419,5e483b6aa68f6b2da92190ee,5e483b6aa68f6b2da92190ee,8,cucumber,critical,D,50,cucumber42.jpg,cucumber60.jpg,high,NULL
1687288030,99ee33f3e1d010e6ea9e3edc9cbe3eef,PennController,23,0,experiment,NULL,PennController,22,_Trial_,Start,1687286925429,5e483b6aa68f6b2da92190ee,5e483b6aa68f6b2da92190ee,20,cat,filler,D,50,cat40.jpg,cat60.jpg,GoalA,NULL
1687288030,99ee33f3e1d010e6ea9e3edc9cbe3eef,PennController,23,0,experiment,NULL,PennController,22,_Header_,Start,1687286925429,5e483b6aa68f6b2da92190ee,5e483b6aa68f6b2da92190ee,20,cat,filler,D,50,cat40.jpg,cat60.jpg,GoalA,NULL
1687288030,99ee33f3e1d010e6ea9e3edc9cbe3eef,PennController,23,0,experiment,NULL,PennController,22,_Header_,End,1687286925429,5e483b6aa68f6b2da92190ee,5e483b6aa68f6b2da92190ee,20,cat,filler,D,50,cat40.jpg,cat60.jpg,GoalA,NULL
1687288030,99ee33f3e1d010e6ea9e3edc9cbe3eef,PennController,23,0,experiment,NULL,Canvas,canvas6,Print,NA,1687286932306,5e483b6aa68f6b2da92190ee,5e483b6aa68f6b2da92190ee,20,cat,filler,D,50,cat40.jpg,cat60.jpg,GoalA,NULL
1687288030,99ee33f3e1d010e6ea9e3edc9cbe3eef,PennController,23,0,experiment,NULL,Video,progression,buffer,0.029063,1687286929090,5e483b6aa68f6b2da92190ee,5e483b6aa68f6b2da92190ee,20,cat,filler,D,50,cat40.jpg,cat60.jpg,GoalA,NULL
1687288030,99ee33f3e1d010e6ea9e3edc9cbe3eef,PennController,23,0,experiment,NULL,Selector,choice,Selection,option1,1687286934343,5e483b6aa68f6b2da92190ee,5e483b6aa68f6b2da92190ee,20,cat,filler,D,50,cat40.jpg,cat60.jpg,GoalA,option1;option2
1687288030,99ee33f3e1d010e6ea9e3edc9cbe3eef,PennController,23,0,experiment,NULL,PennController,22,_Trial_,End,1687286934349,5e483b6aa68f6b2da92190ee,5e483b6aa68f6b2da92190ee,20,cat,filler,D,50,cat40.jpg,cat60.jpg,GoalA,NULL
1687288030,99ee33f3e1d010e6ea9e3edc9cbe3eef,PennController,8,0,experiment,NULL,PennController,7,_Trial_,Start,1687286934355,5e483b6aa68f6b2da92190ee,5e483b6aa68f6b2da92190ee,5,book,critical,D,50,book40.jpg,book60.jpg,high,NULL
1687288030,99ee33f3e1d010e6ea9e3edc9cbe3eef,PennController,8,0,experiment,NULL,PennController,7,_Header_,Start,1687286934355,5e483b6aa68f6b2da92190ee,5e483b6aa68f6b2da92190ee,5,book,critical,D,50,book40.jpg,book60.jpg,high,NULL
1687288030,99ee33f3e1d010e6ea9e3edc9cbe3eef,PennController,8,0,experiment,NULL,PennController,7,_Header_,End,1687286934355,5e483b6aa68f6b2da92190ee,5e483b6aa68f6b2da92190ee,5,book,critical,D,50,book40.jpg,book60.jpg,high,NULL
1687288030,99ee33f3e1d010e6ea9e3edc9cbe3eef,PennController,8,0,experiment,NULL,Canvas,canvas6,Print,NA,1687286941246,5e483b6aa68f6b2da92190ee,5e483b6aa68f6b2da92190ee,5,book,critical,D,50,book40.jpg,book60.jpg,high,NULL
1687288030,99ee33f3e1d010e6ea9e3edc9cbe3eef,PennController,8,0,experiment,NULL,Video,progression,buffer,0.022322,1687286938013,5e483b6aa68f6b2da92190ee,5e483b6aa68f6b2da92190ee,5,book,critical,D,50,book40.jpg,book60.jpg,high,NULL
1687288030,99ee33f3e1d010e6ea9e3edc9cbe3eef,PennController,8,0,experiment,NULL,Selector,choice,Selection,option2,1687286951348,5e483b6aa68f6b2da92190ee,5e483b6aa68f6b2da92190ee,5,book,critical,D,50,book40.jpg,book60.jpg,high,option2;option1
1687288030,99ee33f3e1d010e6ea9e3edc9cbe3eef,PennController,8,0,experiment,NULL,PennController,7,_Trial_,End,1687286951356,5e483b6aa68f6b2da92190ee,5e483b6aa68f6b2da92190ee,5,book,critical,D,50,book40.jpg,book60.jpg,high,NULL
1687288030,99ee33f3e1d010e6ea9e3edc9cbe3eef,PennController,29,0,experiment,NULL,PennController,28,_Trial_,Start,1687286951366,5e483b6aa68f6b2da92190ee,5e483b6aa68f6b2da92190ee,26,sandwich,filler,D,50,sandwich40.jpg,sandwich60.jpg,GoalA,NULL
1687288030,99ee33f3e1d010e6ea9e3edc9cbe3eef,PennController,29,0,experiment,NULL,PennController,28,_Header_,Start,1687286951366,5e483b6aa68f6b2da92190ee,5e483b6aa68f6b2da92190ee,26,sandwich,filler,D,50,sandwich40.jpg,sandwich60.jpg,GoalA,NULL
1687288030,99ee33f3e1d010e6ea9e3edc9cbe3eef,PennController,29,0,experiment,NULL,PennController,28,_Header_,End,1687286951367,5e483b6aa68f6b2da92190ee,5e483b6aa68f6b2da92190ee,26,sandwich,filler,D,50,sandwich40.jpg,sandwich60.jpg,GoalA,NULL
1687288030,99ee33f3e1d010e6ea9e3edc9cbe3eef,PennController,29,0,experiment,NULL,Canvas,canvas6,Print,NA,1687286958172,5e483b6aa68f6b2da92190ee,5e483b6aa68f6b2da92190ee,26,sandwich,filler,D,50,sandwich40.jpg,sandwich60.jpg,GoalA,NULL
1687288030,99ee33f3e1d010e6ea9e3edc9cbe3eef,PennController,29,0,experiment,NULL,Video,progression,buffer,0.016518,1687286954945,5e483b6aa68f6b2da92190ee,5e483b6aa68f6b2da92190ee,26,sandwich,filler,D,50,sandwich40.jpg,sandwich60.jpg,GoalA,NULL
1687288030,99ee33f3e1d010e6ea9e3edc9cbe3eef,PennController,29,0,experiment,NULL,Selector,choice,Selection,option2,1687286968687,5e483b6aa68f6b2da92190ee,5e483b6aa68f6b2da92190ee,26,sandwich,filler,D,50,sandwich40.jpg,sandwich60.jpg,GoalA,option1;option2
1687288030,99ee33f3e1d010e6ea9e3edc9cbe3eef,PennController,29,0,experiment,NULL,PennController,28,_Trial_,End,1687286968693,5e483b6aa68f6b2da92190ee,5e483b6aa68f6b2da92190ee,26,sandwich,filler,D,50,sandwich40.jpg,sandwich60.jpg,GoalA,NULL
1687288030,99ee33f3e1d010e6ea9e3edc9cbe3eef,PennController,12,0,experiment,NULL,PennController,11,_Trial_,Start,1687286968699,5e483b6aa68f6b2da92190ee,5e483b6aa68f6b2da92190ee,9,cake,critical,D,75,cake66.jpg,cake84.jpg,high,NULL
1687288030,99ee33f3e1d010e6ea9e3edc9cbe3eef,PennController,12,0,experiment,NULL,PennController,11,_Header_,Start,1687286968700,5e483b6aa68f6b2da92190ee,5e483b6aa68f6b2da92190ee,9,cake,critical,D,75,cake66.jpg,cake84.jpg,high,NULL
1687288030,99ee33f3e1d010e6ea9e3edc9cbe3eef,PennController,12,0,experiment,NULL,PennController,11,_Header_,End,1687286968700,5e483b6aa68f6b2da92190ee,5e483b6aa68f6b2da92190ee,9,cake,critical,D,75,cake66.jpg,cake84.jpg,high,NULL
1687288030,99ee33f3e1d010e6ea9e3edc9cbe3eef,PennController,12,0,experiment,NULL,Canvas,canvas6,Print,NA,1687286978540,5e483b6aa68f6b2da92190ee,5e483b6aa68f6b2da92190ee,9,cake,critical,D,75,cake66.jpg,cake84.jpg,high,NULL
1687288030,99ee33f3e1d010e6ea9e3edc9cbe3eef,PennController,12,0,experiment,NULL,Video,progression,buffer,0.016262,1687286972322,5e483b6aa68f6b2da92190ee,5e483b6aa68f6b2da92190ee,9,cake,critical,D,75,cake66.jpg,cake84.jpg,high,NULL
1687288030,99ee33f3e1d010e6ea9e3edc9cbe3eef,PennController,12,0,experiment,NULL,Selector,choice,Selection,option2,1687286990763,5e483b6aa68f6b2da92190ee,5e483b6aa68f6b2da92190ee,9,cake,critical,D,75,cake66.jpg,cake84.jpg,high,option1;option2
1687288030,99ee33f3e1d010e6ea9e3edc9cbe3eef,PennController,12,0,experiment,NULL,PennController,11,_Trial_,End,1687286990777,5e483b6aa68f6b2da92190ee,5e483b6aa68f6b2da92190ee,9,cake,critical,D,75,cake66.jpg,cake84.jpg,high,NULL
1687288030,99ee33f3e1d010e6ea9e3edc9cbe3eef,PennController,32,0,experiment,NULL,PennController,31,_Trial_,Start,1687286990794,5e483b6aa68f6b2da92190ee,5e483b6aa68f6b2da92190ee,29,frog,filler,D,50,frog40.jpg,frog60.jpg,GoalB,NULL
1687288030,99ee33f3e1d010e6ea9e3edc9cbe3eef,PennController,32,0,experiment,NULL,PennController,31,_Header_,Start,1687286990794,5e483b6aa68f6b2da92190ee,5e483b6aa68f6b2da92190ee,29,frog,filler,D,50,frog40.jpg,frog60.jpg,GoalB,NULL
1687288030,99ee33f3e1d010e6ea9e3edc9cbe3eef,PennController,32,0,experiment,NULL,PennController,31,_Header_,End,1687286990795,5e483b6aa68f6b2da92190ee,5e483b6aa68f6b2da92190ee,29,frog,filler,D,50,frog40.jpg,frog60.jpg,GoalB,NULL
1687288030,99ee33f3e1d010e6ea9e3edc9cbe3eef,PennController,32,0,experiment,NULL,Canvas,canvas6,Print,NA,1687286997691,5e483b6aa68f6b2da92190ee,5e483b6aa68f6b2da92190ee,29,frog,filler,D,50,frog40.jpg,frog60.jpg,GoalB,NULL
1687288030,99ee33f3e1d010e6ea9e3edc9cbe3eef,PennController,32,0,experiment,NULL,Video,progression,buffer,0.014264,1687286994459,5e483b6aa68f6b2da92190ee,5e483b6aa68f6b2da92190ee,29,frog,filler,D,50,frog40.jpg,frog60.jpg,GoalB,NULL
1687288030,99ee33f3e1d010e6ea9e3edc9cbe3eef,PennController,32,0,experiment,NULL,Selector,choice,Selection,option1,1687287005954,5e483b6aa68f6b2da92190ee,5e483b6aa68f6b2da92190ee,29,frog,filler,D,50,frog40.jpg,frog60.jpg,GoalB,option1;option2
1687288030,99ee33f3e1d010e6ea9e3edc9cbe3eef,PennController,32,0,experiment,NULL,PennController,31,_Trial_,End,1687287005968,5e483b6aa68f6b2da92190ee,5e483b6aa68f6b2da92190ee,29,frog,filler,D,50,frog40.jpg,frog60.jpg,GoalB,NULL
1687288030,99ee33f3e1d010e6ea9e3edc9cbe3eef,PennController,30,0,experiment,NULL,PennController,29,_Trial_,Start,1687287005985,5e483b6aa68f6b2da92190ee,5e483b6aa68f6b2da92190ee,27,square,filler,D,75,square65.jpg,square85.jpg,GoalB,NULL
1687288030,99ee33f3e1d010e6ea9e3edc9cbe3eef,PennController,30,0,experiment,NULL,PennController,29,_Header_,Start,1687287005986,5e483b6aa68f6b2da92190ee,5e483b6aa68f6b2da92190ee,27,square,filler,D,75,square65.jpg,square85.jpg,GoalB,NULL
1687288030,99ee33f3e1d010e6ea9e3edc9cbe3eef,PennController,30,0,experiment,NULL,PennController,29,_Header_,End,1687287005986,5e483b6aa68f6b2da92190ee,5e483b6aa68f6b2da92190ee,27,square,filler,D,75,square65.jpg,square85.jpg,GoalB,NULL
1687288030,99ee33f3e1d010e6ea9e3edc9cbe3eef,PennController,30,0,experiment,NULL,Canvas,canvas6,Print,NA,1687287013866,5e483b6aa68f6b2da92190ee,5e483b6aa68f6b2da92190ee,27,square,filler,D,75,square65.jpg,square85.jpg,GoalB,NULL
1687288030,99ee33f3e1d010e6ea9e3edc9cbe3eef,PennController,30,0,experiment,NULL,Video,progression,buffer,0.023883,1687287009650,5e483b6aa68f6b2da92190ee,5e483b6aa68f6b2da92190ee,27,square,filler,D,75,square65.jpg,square85.jpg,GoalB,NULL
1687288030,99ee33f3e1d010e6ea9e3edc9cbe3eef,PennController,30,0,experiment,NULL,Selector,choice,Selection,option2,1687287019417,5e483b6aa68f6b2da92190ee,5e483b6aa68f6b2da92190ee,27,square,filler,D,75,square65.jpg,square85.jpg,GoalB,option1;option2
1687288030,99ee33f3e1d010e6ea9e3edc9cbe3eef,PennController,30,0,experiment,NULL,PennController,29,_Trial_,End,1687287019423,5e483b6aa68f6b2da92190ee,5e483b6aa68f6b2da92190ee,27,square,filler,D,75,square65.jpg,square85.jpg,GoalB,NULL
1687288030,99ee33f3e1d010e6ea9e3edc9cbe3eef,PennController,7,0,experiment,NULL,PennController,6,_Trial_,Start,1687287019427,5e483b6aa68f6b2da92190ee,5e483b6aa68f6b2da92190ee,4,candy,critical,D,25,candy15.jpg,candy35.jpg,high,NULL
1687288030,99ee33f3e1d010e6ea9e3edc9cbe3eef,PennController,7,0,experiment,NULL,PennController,6,_Header_,Start,1687287019427,5e483b6aa68f6b2da92190ee,5e483b6aa68f6b2da92190ee,4,candy,critical,D,25,candy15.jpg,candy35.jpg,high,NULL
1687288030,99ee33f3e1d010e6ea9e3edc9cbe3eef,PennController,7,0,experiment,NULL,PennController,6,_Header_,End,1687287019427,5e483b6aa68f6b2da92190ee,5e483b6aa68f6b2da92190ee,4,candy,critical,D,25,candy15.jpg,candy35.jpg,high,NULL
1687288030,99ee33f3e1d010e6ea9e3edc9cbe3eef,PennController,7,0,experiment,NULL,Canvas,canvas6,Print,NA,1687287025268,5e483b6aa68f6b2da92190ee,5e483b6aa68f6b2da92190ee,4,candy,critical,D,25,candy15.jpg,candy35.jpg,high,NULL
1687288030,99ee33f3e1d010e6ea9e3edc9cbe3eef,PennController,7,0,experiment,NULL,Video,progression,buffer,0.022928,1687287023075,5e483b6aa68f6b2da92190ee,5e483b6aa68f6b2da92190ee,4,candy,critical,D,25,candy15.jpg,candy35.jpg,high,NULL
1687288030,99ee33f3e1d010e6ea9e3edc9cbe3eef,PennController,7,0,experiment,NULL,Selector,choice,Selection,option2,1687287029192,5e483b6aa68f6b2da92190ee,5e483b6aa68f6b2da92190ee,4,candy,critical,D,25,candy15.jpg,candy35.jpg,high,option1;option2
1687288030,99ee33f3e1d010e6ea9e3edc9cbe3eef,PennController,7,0,experiment,NULL,PennController,6,_Trial_,End,1687287029199,5e483b6aa68f6b2da92190ee,5e483b6aa68f6b2da92190ee,4,candy,critical,D,25,candy15.jpg,candy35.jpg,high,NULL
1687288030,99ee33f3e1d010e6ea9e3edc9cbe3eef,PennController,4,0,experiment,NULL,PennController,3,_Trial_,Start,1687287029205,5e483b6aa68f6b2da92190ee,5e483b6aa68f6b2da92190ee,1,vase,critical,D,25,vase15.jpg,vase35.jpg,high,NULL
1687288030,99ee33f3e1d010e6ea9e3edc9cbe3eef,PennController,4,0,experiment,NULL,PennController,3,_Header_,Start,1687287029205,5e483b6aa68f6b2da92190ee,5e483b6aa68f6b2da92190ee,1,vase,critical,D,25,vase15.jpg,vase35.jpg,high,NULL
1687288030,99ee33f3e1d010e6ea9e3edc9cbe3eef,PennController,4,0,experiment,NULL,PennController,3,_Header_,End,1687287029205,5e483b6aa68f6b2da92190ee,5e483b6aa68f6b2da92190ee,1,vase,critical,D,25,vase15.jpg,vase35.jpg,high,NULL
1687288030,99ee33f3e1d010e6ea9e3edc9cbe3eef,PennController,4,0,experiment,NULL,Canvas,canvas6,Print,NA,1687287035079,5e483b6aa68f6b2da92190ee,5e483b6aa68f6b2da92190ee,1,vase,critical,D,25,vase15.jpg,vase35.jpg,high,NULL
1687288030,99ee33f3e1d010e6ea9e3edc9cbe3eef,PennController,4,0,experiment,NULL,Video,progression,buffer,0.029204,1687287032868,5e483b6aa68f6b2da92190ee,5e483b6aa68f6b2da92190ee,1,vase,critical,D,25,vase15.jpg,vase35.jpg,high,NULL
1687288030,99ee33f3e1d010e6ea9e3edc9cbe3eef,PennController,4,0,experiment,NULL,Selector,choice,Selection,option1,1687287042105,5e483b6aa68f6b2da92190ee,5e483b6aa68f6b2da92190ee,1,vase,critical,D,25,vase15.jpg,vase35.jpg,high,option2;option1
1687288030,99ee33f3e1d010e6ea9e3edc9cbe3eef,PennController,4,0,experiment,NULL,PennController,3,_Trial_,End,1687287042117,5e483b6aa68f6b2da92190ee,5e483b6aa68f6b2da92190ee,1,vase,critical,D,25,vase15.jpg,vase35.jpg,high,NULL
1687288030,99ee33f3e1d010e6ea9e3edc9cbe3eef,PennController,18,0,experiment,NULL,PennController,17,_Trial_,Start,1687287042127,5e483b6aa68f6b2da92190ee,5e483b6aa68f6b2da92190ee,15,zip,critical,D,75,zip65.jpg,zip85.jpg,high,NULL
1687288030,99ee33f3e1d010e6ea9e3edc9cbe3eef,PennController,18,0,experiment,NULL,PennController,17,_Header_,Start,1687287042127,5e483b6aa68f6b2da92190ee,5e483b6aa68f6b2da92190ee,15,zip,critical,D,75,zip65.jpg,zip85.jpg,high,NULL
1687288030,99ee33f3e1d010e6ea9e3edc9cbe3eef,PennController,18,0,experiment,NULL,PennController,17,_Header_,End,1687287042128,5e483b6aa68f6b2da92190ee,5e483b6aa68f6b2da92190ee,15,zip,critical,D,75,zip65.jpg,zip85.jpg,high,NULL
1687288030,99ee33f3e1d010e6ea9e3edc9cbe3eef,PennController,18,0,experiment,NULL,Canvas,canvas6,Print,NA,1687287049211,5e483b6aa68f6b2da92190ee,5e483b6aa68f6b2da92190ee,15,zip,critical,D,75,zip65.jpg,zip85.jpg,high,NULL
1687288030,99ee33f3e1d010e6ea9e3edc9cbe3eef,PennController,18,0,experiment,NULL,Video,progression,buffer,0.026326,1687287045789,5e483b6aa68f6b2da92190ee,5e483b6aa68f6b2da92190ee,15,zip,critical,D,75,zip65.jpg,zip85.jpg,high,NULL
1687288030,99ee33f3e1d010e6ea9e3edc9cbe3eef,PennController,18,0,experiment,NULL,Selector,choice,Selection,option1,1687287051969,5e483b6aa68f6b2da92190ee,5e483b6aa68f6b2da92190ee,15,zip,critical,D,75,zip65.jpg,zip85.jpg,high,option1;option2
1687288030,99ee33f3e1d010e6ea9e3edc9cbe3eef,PennController,18,0,experiment,NULL,PennController,17,_Trial_,End,1687287051981,5e483b6aa68f6b2da92190ee,5e483b6aa68f6b2da92190ee,15,zip,critical,D,75,zip65.jpg,zip85.jpg,high,NULL
1687288030,99ee33f3e1d010e6ea9e3edc9cbe3eef,PennController,19,0,experiment,NULL,PennController,18,_Trial_,Start,1687287051992,5e483b6aa68f6b2da92190ee,5e483b6aa68f6b2da92190ee,16,blinds,critical,D,25,blinds15.jpg,blinds33.jpg,high,NULL
1687288030,99ee33f3e1d010e6ea9e3edc9cbe3eef,PennController,19,0,experiment,NULL,PennController,18,_Header_,Start,1687287051992,5e483b6aa68f6b2da92190ee,5e483b6aa68f6b2da92190ee,16,blinds,critical,D,25,blinds15.jpg,blinds33.jpg,high,NULL
1687288030,99ee33f3e1d010e6ea9e3edc9cbe3eef,PennController,19,0,experiment,NULL,PennController,18,_Header_,End,1687287051992,5e483b6aa68f6b2da92190ee,5e483b6aa68f6b2da92190ee,16,blinds,critical,D,25,blinds15.jpg,blinds33.jpg,high,NULL
1687288030,99ee33f3e1d010e6ea9e3edc9cbe3eef,PennController,19,0,experiment,NULL,Canvas,canvas6,Print,NA,1687287058442,5e483b6aa68f6b2da92190ee,5e483b6aa68f6b2da92190ee,16,blinds,critical,D,25,blinds15.jpg,blinds33.jpg,high,NULL
1687288030,99ee33f3e1d010e6ea9e3edc9cbe3eef,PennController,19,0,experiment,NULL,Video,progression,buffer,0.023763,1687287055621,5e483b6aa68f6b2da92190ee,5e483b6aa68f6b2da92190ee,16,blinds,critical,D,25,blinds15.jpg,blinds33.jpg,high,NULL
1687288030,99ee33f3e1d010e6ea9e3edc9cbe3eef,PennController,19,0,experiment,NULL,Selector,choice,Selection,option2,1687287065450,5e483b6aa68f6b2da92190ee,5e483b6aa68f6b2da92190ee,16,blinds,critical,D,25,blinds15.jpg,blinds33.jpg,high,option1;option2
1687288030,99ee33f3e1d010e6ea9e3edc9cbe3eef,PennController,19,0,experiment,NULL,PennController,18,_Trial_,End,1687287065462,5e483b6aa68f6b2da92190ee,5e483b6aa68f6b2da92190ee,16,blinds,critical,D,25,blinds15.jpg,blinds33.jpg,high,NULL
1687288030,99ee33f3e1d010e6ea9e3edc9cbe3eef,PennController,21,0,experiment,NULL,PennController,20,_Trial_,Start,1687287065471,5e483b6aa68f6b2da92190ee,5e483b6aa68f6b2da92190ee,18,ball,critical,D,75,ball65.jpg,ball85.jpg,high,NULL
1687288030,99ee33f3e1d010e6ea9e3edc9cbe3eef,PennController,21,0,experiment,NULL,PennController,20,_Header_,Start,1687287065471,5e483b6aa68f6b2da92190ee,5e483b6aa68f6b2da92190ee,18,ball,critical,D,75,ball65.jpg,ball85.jpg,high,NULL
1687288030,99ee33f3e1d010e6ea9e3edc9cbe3eef,PennController,21,0,experiment,NULL,PennController,20,_Header_,End,1687287065471,5e483b6aa68f6b2da92190ee,5e483b6aa68f6b2da92190ee,18,ball,critical,D,75,ball65.jpg,ball85.jpg,high,NULL
1687288030,99ee33f3e1d010e6ea9e3edc9cbe3eef,PennController,21,0,experiment,NULL,Canvas,canvas6,Print,NA,1687287073353,5e483b6aa68f6b2da92190ee,5e483b6aa68f6b2da92190ee,18,ball,critical,D,75,ball65.jpg,ball85.jpg,high,NULL
1687288030,99ee33f3e1d010e6ea9e3edc9cbe3eef,PennController,21,0,experiment,NULL,Video,progression,buffer,0.022964,1687287069137,5e483b6aa68f6b2da92190ee,5e483b6aa68f6b2da92190ee,18,ball,critical,D,75,ball65.jpg,ball85.jpg,high,NULL
1687288030,99ee33f3e1d010e6ea9e3edc9cbe3eef,PennController,21,0,experiment,NULL,Selector,choice,Selection,option1,1687287081469,5e483b6aa68f6b2da92190ee,5e483b6aa68f6b2da92190ee,18,ball,critical,D,75,ball65.jpg,ball85.jpg,high,option2;option1
1687288030,99ee33f3e1d010e6ea9e3edc9cbe3eef,PennController,21,0,experiment,NULL,PennController,20,_Trial_,End,1687287081480,5e483b6aa68f6b2da92190ee,5e483b6aa68f6b2da92190ee,18,ball,critical,D,75,ball65.jpg,ball85.jpg,high,NULL
1687288030,99ee33f3e1d010e6ea9e3edc9cbe3eef,PennController,28,0,experiment,NULL,PennController,27,_Trial_,Start,1687287081487,5e483b6aa68f6b2da92190ee,5e483b6aa68f6b2da92190ee,25,house,filler,D,25,house15.jpg,house35.jpg,GoalB,NULL
1687288030,99ee33f3e1d010e6ea9e3edc9cbe3eef,PennController,28,0,experiment,NULL,PennController,27,_Header_,Start,1687287081487,5e483b6aa68f6b2da92190ee,5e483b6aa68f6b2da92190ee,25,house,filler,D,25,house15.jpg,house35.jpg,GoalB,NULL
1687288030,99ee33f3e1d010e6ea9e3edc9cbe3eef,PennController,28,0,experiment,NULL,PennController,27,_Header_,End,1687287081487,5e483b6aa68f6b2da92190ee,5e483b6aa68f6b2da92190ee,25,house,filler,D,25,house15.jpg,house35.jpg,GoalB,NULL
1687288030,99ee33f3e1d010e6ea9e3edc9cbe3eef,PennController,28,0,experiment,NULL,Canvas,canvas6,Print,NA,1687287087388,5e483b6aa68f6b2da92190ee,5e483b6aa68f6b2da92190ee,25,house,filler,D,25,house15.jpg,house35.jpg,GoalB,NULL
1687288030,99ee33f3e1d010e6ea9e3edc9cbe3eef,PennController,28,0,experiment,NULL,Video,progression,buffer,0.019575,1687287085152,5e483b6aa68f6b2da92190ee,5e483b6aa68f6b2da92190ee,25,house,filler,D,25,house15.jpg,house35.jpg,GoalB,NULL
1687288030,99ee33f3e1d010e6ea9e3edc9cbe3eef,PennController,28,0,experiment,NULL,Selector,choice,Selection,option2,1687287173328,5e483b6aa68f6b2da92190ee,5e483b6aa68f6b2da92190ee,25,house,filler,D,25,house15.jpg,house35.jpg,GoalB,option1;option2
1687288030,99ee33f3e1d010e6ea9e3edc9cbe3eef,PennController,28,0,experiment,NULL,PennController,27,_Trial_,End,1687287173348,5e483b6aa68f6b2da92190ee,5e483b6aa68f6b2da92190ee,25,house,filler,D,25,house15.jpg,house35.jpg,GoalB,NULL
1687288030,99ee33f3e1d010e6ea9e3edc9cbe3eef,PennController,25,0,experiment,NULL,PennController,24,_Trial_,Start,1687287173367,5e483b6aa68f6b2da92190ee,5e483b6aa68f6b2da92190ee,22,wall,filler,D,25,wall15.jpg,wall35.jpg,GoalA,NULL
1687288030,99ee33f3e1d010e6ea9e3edc9cbe3eef,PennController,25,0,experiment,NULL,PennController,24,_Header_,Start,1687287173367,5e483b6aa68f6b2da92190ee,5e483b6aa68f6b2da92190ee,22,wall,filler,D,25,wall15.jpg,wall35.jpg,GoalA,NULL
1687288030,99ee33f3e1d010e6ea9e3edc9cbe3eef,PennController,25,0,experiment,NULL,PennController,24,_Header_,End,1687287173367,5e483b6aa68f6b2da92190ee,5e483b6aa68f6b2da92190ee,22,wall,filler,D,25,wall15.jpg,wall35.jpg,GoalA,NULL
1687288030,99ee33f3e1d010e6ea9e3edc9cbe3eef,PennController,25,0,experiment,NULL,Canvas,canvas6,Print,NA,1687287179236,5e483b6aa68f6b2da92190ee,5e483b6aa68f6b2da92190ee,22,wall,filler,D,25,wall15.jpg,wall35.jpg,GoalA,NULL
1687288030,99ee33f3e1d010e6ea9e3edc9cbe3eef,PennController,25,0,experiment,NULL,Video,progression,buffer,0.026089,1687287177041,5e483b6aa68f6b2da92190ee,5e483b6aa68f6b2da92190ee,22,wall,filler,D,25,wall15.jpg,wall35.jpg,GoalA,NULL
1687288030,99ee33f3e1d010e6ea9e3edc9cbe3eef,PennController,25,0,experiment,NULL,Selector,choice,Selection,option2,1687287868107,5e483b6aa68f6b2da92190ee,5e483b6aa68f6b2da92190ee,22,wall,filler,D,25,wall15.jpg,wall35.jpg,GoalA,option1;option2
1687288030,99ee33f3e1d010e6ea9e3edc9cbe3eef,PennController,25,0,experiment,NULL,PennController,24,_Trial_,End,1687287868136,5e483b6aa68f6b2da92190ee,5e483b6aa68f6b2da92190ee,22,wall,filler,D,25,wall15.jpg,wall35.jpg,GoalA,NULL
1687288030,99ee33f3e1d010e6ea9e3edc9cbe3eef,PennController,22,0,experiment,NULL,PennController,21,_Trial_,Start,1687287868158,5e483b6aa68f6b2da92190ee,5e483b6aa68f6b2da92190ee,19,cup,filler,D,25,cup15.jpg,cup35.jpg,GoalB,NULL
1687288030,99ee33f3e1d010e6ea9e3edc9cbe3eef,PennController,22,0,experiment,NULL,PennController,21,_Header_,Start,1687287868158,5e483b6aa68f6b2da92190ee,5e483b6aa68f6b2da92190ee,19,cup,filler,D,25,cup15.jpg,cup35.jpg,GoalB,NULL
1687288030,99ee33f3e1d010e6ea9e3edc9cbe3eef,PennController,22,0,experiment,NULL,PennController,21,_Header_,End,1687287868158,5e483b6aa68f6b2da92190ee,5e483b6aa68f6b2da92190ee,19,cup,filler,D,25,cup15.jpg,cup35.jpg,GoalB,NULL
1687288030,99ee33f3e1d010e6ea9e3edc9cbe3eef,PennController,22,0,experiment,NULL,Canvas,canvas6,Print,NA,1687287874033,5e483b6aa68f6b2da92190ee,5e483b6aa68f6b2da92190ee,19,cup,filler,D,25,cup15.jpg,cup35.jpg,GoalB,NULL
1687288030,99ee33f3e1d010e6ea9e3edc9cbe3eef,PennController,22,0,experiment,NULL,Video,progression,buffer,0.021841,1687287871855,5e483b6aa68f6b2da92190ee,5e483b6aa68f6b2da92190ee,19,cup,filler,D,25,cup15.jpg,cup35.jpg,GoalB,NULL
1687288030,99ee33f3e1d010e6ea9e3edc9cbe3eef,PennController,22,0,experiment,NULL,Selector,choice,Selection,option1,1687287885731,5e483b6aa68f6b2da92190ee,5e483b6aa68f6b2da92190ee,19,cup,filler,D,25,cup15.jpg,cup35.jpg,GoalB,option1;option2
1687288030,99ee33f3e1d010e6ea9e3edc9cbe3eef,PennController,22,0,experiment,NULL,PennController,21,_Trial_,End,1687287885739,5e483b6aa68f6b2da92190ee,5e483b6aa68f6b2da92190ee,19,cup,filler,D,25,cup15.jpg,cup35.jpg,GoalB,NULL
1687288030,99ee33f3e1d010e6ea9e3edc9cbe3eef,PennController,9,0,experiment,NULL,PennController,8,_Trial_,Start,1687287885747,5e483b6aa68f6b2da92190ee,5e483b6aa68f6b2da92190ee,6,flower,critical,D,75,flower65.jpg,flower85.jpg,high,NULL
1687288030,99ee33f3e1d010e6ea9e3edc9cbe3eef,PennController,9,0,experiment,NULL,PennController,8,_Header_,Start,1687287885747,5e483b6aa68f6b2da92190ee,5e483b6aa68f6b2da92190ee,6,flower,critical,D,75,flower65.jpg,flower85.jpg,high,NULL
1687288030,99ee33f3e1d010e6ea9e3edc9cbe3eef,PennController,9,0,experiment,NULL,PennController,8,_Header_,End,1687287885747,5e483b6aa68f6b2da92190ee,5e483b6aa68f6b2da92190ee,6,flower,critical,D,75,flower65.jpg,flower85.jpg,high,NULL
1687288030,99ee33f3e1d010e6ea9e3edc9cbe3eef,PennController,9,0,experiment,NULL,Canvas,canvas6,Print,NA,1687287893637,5e483b6aa68f6b2da92190ee,5e483b6aa68f6b2da92190ee,6,flower,critical,D,75,flower65.jpg,flower85.jpg,high,NULL
1687288030,99ee33f3e1d010e6ea9e3edc9cbe3eef,PennController,9,0,experiment,NULL,Video,progression,buffer,0.027134,1687287889419,5e483b6aa68f6b2da92190ee,5e483b6aa68f6b2da92190ee,6,flower,critical,D,75,flower65.jpg,flower85.jpg,high,NULL
1687288030,99ee33f3e1d010e6ea9e3edc9cbe3eef,PennController,9,0,experiment,NULL,Selector,choice,Selection,option2,1687287905261,5e483b6aa68f6b2da92190ee,5e483b6aa68f6b2da92190ee,6,flower,critical,D,75,flower65.jpg,flower85.jpg,high,option1;option2
1687288030,99ee33f3e1d010e6ea9e3edc9cbe3eef,PennController,9,0,experiment,NULL,PennController,8,_Trial_,End,1687287905274,5e483b6aa68f6b2da92190ee,5e483b6aa68f6b2da92190ee,6,flower,critical,D,75,flower65.jpg,flower85.jpg,high,NULL
1687288030,99ee33f3e1d010e6ea9e3edc9cbe3eef,PennController,27,0,experiment,NULL,PennController,26,_Trial_,Start,1687287905287,5e483b6aa68f6b2da92190ee,5e483b6aa68f6b2da92190ee,24,match,filler,D,75,match65.jpg,match85.jpg,GoalA,NULL
1687288030,99ee33f3e1d010e6ea9e3edc9cbe3eef,PennController,27,0,experiment,NULL,PennController,26,_Header_,Start,1687287905287,5e483b6aa68f6b2da92190ee,5e483b6aa68f6b2da92190ee,24,match,filler,D,75,match65.jpg,match85.jpg,GoalA,NULL
1687288030,99ee33f3e1d010e6ea9e3edc9cbe3eef,PennController,27,0,experiment,NULL,PennController,26,_Header_,End,1687287905287,5e483b6aa68f6b2da92190ee,5e483b6aa68f6b2da92190ee,24,match,filler,D,75,match65.jpg,match85.jpg,GoalA,NULL
1687288030,99ee33f3e1d010e6ea9e3edc9cbe3eef,PennController,27,0,experiment,NULL,Canvas,canvas6,Print,NA,1687287913213,5e483b6aa68f6b2da92190ee,5e483b6aa68f6b2da92190ee,24,match,filler,D,75,match65.jpg,match85.jpg,GoalA,NULL
1687288030,99ee33f3e1d010e6ea9e3edc9cbe3eef,PennController,27,0,experiment,NULL,Video,progression,buffer,0.020323,1687287908972,5e483b6aa68f6b2da92190ee,5e483b6aa68f6b2da92190ee,24,match,filler,D,75,match65.jpg,match85.jpg,GoalA,NULL
1687288030,99ee33f3e1d010e6ea9e3edc9cbe3eef,PennController,27,0,experiment,NULL,Selector,choice,Selection,option1,1687287914959,5e483b6aa68f6b2da92190ee,5e483b6aa68f6b2da92190ee,24,match,filler,D,75,match65.jpg,match85.jpg,GoalA,option2;option1
1687288030,99ee33f3e1d010e6ea9e3edc9cbe3eef,PennController,27,0,experiment,NULL,PennController,26,_Trial_,End,1687287914970,5e483b6aa68f6b2da92190ee,5e483b6aa68f6b2da92190ee,24,match,filler,D,75,match65.jpg,match85.jpg,GoalA,NULL
1687288030,99ee33f3e1d010e6ea9e3edc9cbe3eef,PennController,17,0,experiment,NULL,PennController,16,_Trial_,Start,1687287914978,5e483b6aa68f6b2da92190ee,5e483b6aa68f6b2da92190ee,14,cover,critical,D,50,cover42.jpg,cover60.jpg,high,NULL
1687288030,99ee33f3e1d010e6ea9e3edc9cbe3eef,PennController,17,0,experiment,NULL,PennController,16,_Header_,Start,1687287914978,5e483b6aa68f6b2da92190ee,5e483b6aa68f6b2da92190ee,14,cover,critical,D,50,cover42.jpg,cover60.jpg,high,NULL
1687288030,99ee33f3e1d010e6ea9e3edc9cbe3eef,PennController,17,0,experiment,NULL,PennController,16,_Header_,End,1687287914978,5e483b6aa68f6b2da92190ee,5e483b6aa68f6b2da92190ee,14,cover,critical,D,50,cover42.jpg,cover60.jpg,high,NULL
1687288030,99ee33f3e1d010e6ea9e3edc9cbe3eef,PennController,17,0,experiment,NULL,Canvas,canvas6,Print,NA,1687287923246,5e483b6aa68f6b2da92190ee,5e483b6aa68f6b2da92190ee,14,cover,critical,D,50,cover42.jpg,cover60.jpg,high,NULL
1687288030,99ee33f3e1d010e6ea9e3edc9cbe3eef,PennController,17,0,experiment,NULL,Video,progression,buffer,0.020193,1687287918653,5e483b6aa68f6b2da92190ee,5e483b6aa68f6b2da92190ee,14,cover,critical,D,50,cover42.jpg,cover60.jpg,high,NULL
1687288030,99ee33f3e1d010e6ea9e3edc9cbe3eef,PennController,17,0,experiment,NULL,Selector,choice,Selection,option1,1687287932359,5e483b6aa68f6b2da92190ee,5e483b6aa68f6b2da92190ee,14,cover,critical,D,50,cover42.jpg,cover60.jpg,high,option1;option2
1687288030,99ee33f3e1d010e6ea9e3edc9cbe3eef,PennController,17,0,experiment,NULL,PennController,16,_Trial_,End,1687287932373,5e483b6aa68f6b2da92190ee,5e483b6aa68f6b2da92190ee,14,cover,critical,D,50,cover42.jpg,cover60.jpg,high,NULL
1687288030,99ee33f3e1d010e6ea9e3edc9cbe3eef,PennController,20,0,experiment,NULL,PennController,19,_Trial_,Start,1687287932384,5e483b6aa68f6b2da92190ee,5e483b6aa68f6b2da92190ee,17,roll,critical,D,50,roll40.jpg,roll60.jpg,high,NULL
1687288030,99ee33f3e1d010e6ea9e3edc9cbe3eef,PennController,20,0,experiment,NULL,PennController,19,_Header_,Start,1687287932384,5e483b6aa68f6b2da92190ee,5e483b6aa68f6b2da92190ee,17,roll,critical,D,50,roll40.jpg,roll60.jpg,high,NULL
1687288030,99ee33f3e1d010e6ea9e3edc9cbe3eef,PennController,20,0,experiment,NULL,PennController,19,_Header_,End,1687287932384,5e483b6aa68f6b2da92190ee,5e483b6aa68f6b2da92190ee,17,roll,critical,D,50,roll40.jpg,roll60.jpg,high,NULL
1687288030,99ee33f3e1d010e6ea9e3edc9cbe3eef,PennController,20,0,experiment,NULL,Canvas,canvas6,Print,NA,1687287939304,5e483b6aa68f6b2da92190ee,5e483b6aa68f6b2da92190ee,17,roll,critical,D,50,roll40.jpg,roll60.jpg,high,NULL
1687288030,99ee33f3e1d010e6ea9e3edc9cbe3eef,PennController,20,0,experiment,NULL,Video,progression,buffer,0.029925,1687287936067,5e483b6aa68f6b2da92190ee,5e483b6aa68f6b2da92190ee,17,roll,critical,D,50,roll40.jpg,roll60.jpg,high,NULL
1687288030,99ee33f3e1d010e6ea9e3edc9cbe3eef,PennController,20,0,experiment,NULL,Selector,choice,Selection,option2,1687287940428,5e483b6aa68f6b2da92190ee,5e483b6aa68f6b2da92190ee,17,roll,critical,D,50,roll40.jpg,roll60.jpg,high,option1;option2
1687288030,99ee33f3e1d010e6ea9e3edc9cbe3eef,PennController,20,0,experiment,NULL,PennController,19,_Trial_,End,1687287940434,5e483b6aa68f6b2da92190ee,5e483b6aa68f6b2da92190ee,17,roll,critical,D,50,roll40.jpg,roll60.jpg,high,NULL
1687288030,99ee33f3e1d010e6ea9e3edc9cbe3eef,PennController,13,0,experiment,NULL,PennController,12,_Trial_,Start,1687287940439,5e483b6aa68f6b2da92190ee,5e483b6aa68f6b2da92190ee,10,train,critical,D,25,train15.jpg,train35.jpg,high,NULL
1687288030,99ee33f3e1d010e6ea9e3edc9cbe3eef,PennController,13,0,experiment,NULL,PennController,12,_Header_,Start,1687287940439,5e483b6aa68f6b2da92190ee,5e483b6aa68f6b2da92190ee,10,train,critical,D,25,train15.jpg,train35.jpg,high,NULL
1687288030,99ee33f3e1d010e6ea9e3edc9cbe3eef,PennController,13,0,experiment,NULL,PennController,12,_Header_,End,1687287940439,5e483b6aa68f6b2da92190ee,5e483b6aa68f6b2da92190ee,10,train,critical,D,25,train15.jpg,train35.jpg,high,NULL
1687288030,99ee33f3e1d010e6ea9e3edc9cbe3eef,PennController,13,0,experiment,NULL,Canvas,canvas6,Print,NA,1687287946305,5e483b6aa68f6b2da92190ee,5e483b6aa68f6b2da92190ee,10,train,critical,D,25,train15.jpg,train35.jpg,high,NULL
1687288030,99ee33f3e1d010e6ea9e3edc9cbe3eef,PennController,13,0,experiment,NULL,Video,progression,buffer,0.023231,1687287944095,5e483b6aa68f6b2da92190ee,5e483b6aa68f6b2da92190ee,10,train,critical,D,25,train15.jpg,train35.jpg,high,NULL
1687288030,99ee33f3e1d010e6ea9e3edc9cbe3eef,PennController,13,0,experiment,NULL,Selector,choice,Selection,option1,1687287963766,5e483b6aa68f6b2da92190ee,5e483b6aa68f6b2da92190ee,10,train,critical,D,25,train15.jpg,train35.jpg,high,option1;option2
1687288030,99ee33f3e1d010e6ea9e3edc9cbe3eef,PennController,13,0,experiment,NULL,PennController,12,_Trial_,End,1687287963780,5e483b6aa68f6b2da92190ee,5e483b6aa68f6b2da92190ee,10,train,critical,D,25,train15.jpg,train35.jpg,high,NULL
1687288030,99ee33f3e1d010e6ea9e3edc9cbe3eef,PennController,26,0,experiment,NULL,PennController,25,_Trial_,Start,1687287963790,5e483b6aa68f6b2da92190ee,5e483b6aa68f6b2da92190ee,23,color,filler,D,50,color40.jpg,color60.jpg,GoalB,NULL
1687288030,99ee33f3e1d010e6ea9e3edc9cbe3eef,PennController,26,0,experiment,NULL,PennController,25,_Header_,Start,1687287963790,5e483b6aa68f6b2da92190ee,5e483b6aa68f6b2da92190ee,23,color,filler,D,50,color40.jpg,color60.jpg,GoalB,NULL
1687288030,99ee33f3e1d010e6ea9e3edc9cbe3eef,PennController,26,0,experiment,NULL,PennController,25,_Header_,End,1687287963790,5e483b6aa68f6b2da92190ee,5e483b6aa68f6b2da92190ee,23,color,filler,D,50,color40.jpg,color60.jpg,GoalB,NULL
1687288030,99ee33f3e1d010e6ea9e3edc9cbe3eef,PennController,26,0,experiment,NULL,Canvas,canvas6,Print,NA,1687287970699,5e483b6aa68f6b2da92190ee,5e483b6aa68f6b2da92190ee,23,color,filler,D,50,color40.jpg,color60.jpg,GoalB,NULL
1687288030,99ee33f3e1d010e6ea9e3edc9cbe3eef,PennController,26,0,experiment,NULL,Video,progression,buffer,0.02492,1687287967488,5e483b6aa68f6b2da92190ee,5e483b6aa68f6b2da92190ee,23,color,filler,D,50,color40.jpg,color60.jpg,GoalB,NULL
1687288030,99ee33f3e1d010e6ea9e3edc9cbe3eef,PennController,26,0,experiment,NULL,Selector,choice,Selection,option1,1687287974716,5e483b6aa68f6b2da92190ee,5e483b6aa68f6b2da92190ee,23,color,filler,D,50,color40.jpg,color60.jpg,GoalB,option2;option1
1687288030,99ee33f3e1d010e6ea9e3edc9cbe3eef,PennController,26,0,experiment,NULL,PennController,25,_Trial_,End,1687287974732,5e483b6aa68f6b2da92190ee,5e483b6aa68f6b2da92190ee,23,color,filler,D,50,color40.jpg,color60.jpg,GoalB,NULL
1687288030,99ee33f3e1d010e6ea9e3edc9cbe3eef,PennController,10,0,experiment,NULL,PennController,9,_Trial_,Start,1687287974741,5e483b6aa68f6b2da92190ee,5e483b6aa68f6b2da92190ee,7,stack,critical,D,25,stack15.jpg,stack35.jpg,high,NULL
1687288030,99ee33f3e1d010e6ea9e3edc9cbe3eef,PennController,10,0,experiment,NULL,PennController,9,_Header_,Start,1687287974741,5e483b6aa68f6b2da92190ee,5e483b6aa68f6b2da92190ee,7,stack,critical,D,25,stack15.jpg,stack35.jpg,high,NULL
1687288030,99ee33f3e1d010e6ea9e3edc9cbe3eef,PennController,10,0,experiment,NULL,PennController,9,_Header_,End,1687287974741,5e483b6aa68f6b2da92190ee,5e483b6aa68f6b2da92190ee,7,stack,critical,D,25,stack15.jpg,stack35.jpg,high,NULL
1687288030,99ee33f3e1d010e6ea9e3edc9cbe3eef,PennController,10,0,experiment,NULL,Canvas,canvas6,Print,NA,1687287980616,5e483b6aa68f6b2da92190ee,5e483b6aa68f6b2da92190ee,7,stack,critical,D,25,stack15.jpg,stack35.jpg,high,NULL
1687288030,99ee33f3e1d010e6ea9e3edc9cbe3eef,PennController,10,0,experiment,NULL,Video,progression,buffer,0.022503,1687287978394,5e483b6aa68f6b2da92190ee,5e483b6aa68f6b2da92190ee,7,stack,critical,D,25,stack15.jpg,stack35.jpg,high,NULL
1687288030,99ee33f3e1d010e6ea9e3edc9cbe3eef,PennController,10,0,experiment,NULL,Selector,choice,Selection,option2,1687287985549,5e483b6aa68f6b2da92190ee,5e483b6aa68f6b2da92190ee,7,stack,critical,D,25,stack15.jpg,stack35.jpg,high,option1;option2
1687288030,99ee33f3e1d010e6ea9e3edc9cbe3eef,PennController,10,0,experiment,NULL,PennController,9,_Trial_,End,1687287985562,5e483b6aa68f6b2da92190ee,5e483b6aa68f6b2da92190ee,7,stack,critical,D,25,stack15.jpg,stack35.jpg,high,NULL
1687288030,99ee33f3e1d010e6ea9e3edc9cbe3eef,PennController,15,0,experiment,NULL,PennController,14,_Trial_,Start,1687287985570,5e483b6aa68f6b2da92190ee,5e483b6aa68f6b2da92190ee,12,erase,critical,D,75,erase66.jpg,erase84.jpg,high,NULL
1687288030,99ee33f3e1d010e6ea9e3edc9cbe3eef,PennController,15,0,experiment,NULL,PennController,14,_Header_,Start,1687287985570,5e483b6aa68f6b2da92190ee,5e483b6aa68f6b2da92190ee,12,erase,critical,D,75,erase66.jpg,erase84.jpg,high,NULL
1687288030,99ee33f3e1d010e6ea9e3edc9cbe3eef,PennController,15,0,experiment,NULL,PennController,14,_Header_,End,1687287985570,5e483b6aa68f6b2da92190ee,5e483b6aa68f6b2da92190ee,12,erase,critical,D,75,erase66.jpg,erase84.jpg,high,NULL
1687288030,99ee33f3e1d010e6ea9e3edc9cbe3eef,PennController,15,0,experiment,NULL,Canvas,canvas6,Print,NA,1687287995446,5e483b6aa68f6b2da92190ee,5e483b6aa68f6b2da92190ee,12,erase,critical,D,75,erase66.jpg,erase84.jpg,high,NULL
1687288030,99ee33f3e1d010e6ea9e3edc9cbe3eef,PennController,15,0,experiment,NULL,Video,progression,buffer,0.025803,1687287989227,5e483b6aa68f6b2da92190ee,5e483b6aa68f6b2da92190ee,12,erase,critical,D,75,erase66.jpg,erase84.jpg,high,NULL
1687288030,99ee33f3e1d010e6ea9e3edc9cbe3eef,PennController,15,0,experiment,NULL,Selector,choice,Selection,option1,1687288006964,5e483b6aa68f6b2da92190ee,5e483b6aa68f6b2da92190ee,12,erase,critical,D,75,erase66.jpg,erase84.jpg,high,option1;option2
1687288030,99ee33f3e1d010e6ea9e3edc9cbe3eef,PennController,15,0,experiment,NULL,PennController,14,_Trial_,End,1687288006971,5e483b6aa68f6b2da92190ee,5e483b6aa68f6b2da92190ee,12,erase,critical,D,75,erase66.jpg,erase84.jpg,high,NULL
1687288030,99ee33f3e1d010e6ea9e3edc9cbe3eef,PennController,14,0,experiment,NULL,PennController,13,_Trial_,Start,1687288006979,5e483b6aa68f6b2da92190ee,5e483b6aa68f6b2da92190ee,11,beads,critical,D,50,beads40.jpg,beads60.jpg,high,NULL
1687288030,99ee33f3e1d010e6ea9e3edc9cbe3eef,PennController,14,0,experiment,NULL,PennController,13,_Header_,Start,1687288006979,5e483b6aa68f6b2da92190ee,5e483b6aa68f6b2da92190ee,11,beads,critical,D,50,beads40.jpg,beads60.jpg,high,NULL
1687288030,99ee33f3e1d010e6ea9e3edc9cbe3eef,PennController,14,0,experiment,NULL,PennController,13,_Header_,End,1687288006979,5e483b6aa68f6b2da92190ee,5e483b6aa68f6b2da92190ee,11,beads,critical,D,50,beads40.jpg,beads60.jpg,high,NULL
1687288030,99ee33f3e1d010e6ea9e3edc9cbe3eef,PennController,14,0,experiment,NULL,Canvas,canvas6,Print,NA,1687288013854,5e483b6aa68f6b2da92190ee,5e483b6aa68f6b2da92190ee,11,beads,critical,D,50,beads40.jpg,beads60.jpg,high,NULL
1687288030,99ee33f3e1d010e6ea9e3edc9cbe3eef,PennController,14,0,experiment,NULL,Video,progression,buffer,0.026192,1687288010629,5e483b6aa68f6b2da92190ee,5e483b6aa68f6b2da92190ee,11,beads,critical,D,50,beads40.jpg,beads60.jpg,high,NULL
1687288030,99ee33f3e1d010e6ea9e3edc9cbe3eef,PennController,14,0,experiment,NULL,Selector,choice,Selection,option2,1687288019438,5e483b6aa68f6b2da92190ee,5e483b6aa68f6b2da92190ee,11,beads,critical,D,50,beads40.jpg,beads60.jpg,high,option2;option1
1687288030,99ee33f3e1d010e6ea9e3edc9cbe3eef,PennController,14,0,experiment,NULL,PennController,13,_Trial_,End,1687288019446,5e483b6aa68f6b2da92190ee,5e483b6aa68f6b2da92190ee,11,beads,critical,D,50,beads40.jpg,beads60.jpg,high,NULL
1687288030,99ee33f3e1d010e6ea9e3edc9cbe3eef,PennController,16,0,experiment,NULL,PennController,15,_Trial_,Start,1687288019456,5e483b6aa68f6b2da92190ee,5e483b6aa68f6b2da92190ee,13,mix,critical,D,25,mix15.jpg,mix35.jpg,high,NULL
1687288030,99ee33f3e1d010e6ea9e3edc9cbe3eef,PennController,16,0,experiment,NULL,PennController,15,_Header_,Start,1687288019456,5e483b6aa68f6b2da92190ee,5e483b6aa68f6b2da92190ee,13,mix,critical,D,25,mix15.jpg,mix35.jpg,high,NULL
1687288030,99ee33f3e1d010e6ea9e3edc9cbe3eef,PennController,16,0,experiment,NULL,PennController,15,_Header_,End,1687288019456,5e483b6aa68f6b2da92190ee,5e483b6aa68f6b2da92190ee,13,mix,critical,D,25,mix15.jpg,mix35.jpg,high,NULL
1687288030,99ee33f3e1d010e6ea9e3edc9cbe3eef,PennController,16,0,experiment,NULL,Canvas,canvas6,Print,NA,1687288025368,5e483b6aa68f6b2da92190ee,5e483b6aa68f6b2da92190ee,13,mix,critical,D,25,mix15.jpg,mix35.jpg,high,NULL
1687288030,99ee33f3e1d010e6ea9e3edc9cbe3eef,PennController,16,0,experiment,NULL,Video,progression,buffer,0.027009,1687288023129,5e483b6aa68f6b2da92190ee,5e483b6aa68f6b2da92190ee,13,mix,critical,D,25,mix15.jpg,mix35.jpg,high,NULL
1687288030,99ee33f3e1d010e6ea9e3edc9cbe3eef,PennController,16,0,experiment,NULL,Selector,choice,Selection,option1,1687288029738,5e483b6aa68f6b2da92190ee,5e483b6aa68f6b2da92190ee,13,mix,critical,D,25,mix15.jpg,mix35.jpg,high,option2;option1
1687288030,99ee33f3e1d010e6ea9e3edc9cbe3eef,PennController,16,0,experiment,NULL,PennController,15,_Trial_,End,1687288029745,5e483b6aa68f6b2da92190ee,5e483b6aa68f6b2da92190ee,13,mix,critical,D,25,mix15.jpg,mix35.jpg,high,NULL
