#
# Results on Tuesday June 20 2023 19:02:17 UTC
# USER AGENT: Mozilla/5.0 (Windows NT 10.0; Win64; x64; rv:109.0) Gecko/20100101 Firefox/114.0
# Design number was non-random = 28
#
# Columns below this comment are as follows:
# 1. Results reception time.
# 2. MD5 hash of participant's IP address.
# 3. Controller name.
# 4. Order number of item.
# 5. Inner element number.
# 6. Label.
# 7. Latin Square Group.
# 8. PennElementType.
# 9. PennElementName.
# 10. Parameter.
# 11. Value.
# 12. EventTime.
# 13. PROLIFIC_ID.
# 14. Comments.
1687287737,7408fb7cd38b9fb51886a68b6711ff85,PennController,2,0,consent,NULL,PennController,0,_Trial_,Start,1687287407625,5fa688e95f02862c0d459a44,NULL
1687287737,7408fb7cd38b9fb51886a68b6711ff85,PennController,2,0,consent,NULL,PennController,0,_Header_,Start,1687287407625,5fa688e95f02862c0d459a44,NULL
1687287737,7408fb7cd38b9fb51886a68b6711ff85,PennController,2,0,consent,NULL,PennController,0,_Header_,End,1687287407625,5fa688e95f02862c0d459a44,NULL
1687287737,7408fb7cd38b9fb51886a68b6711ff85,PennController,2,0,consent,NULL,PennController,0,_Trial_,End,1687287429792,5fa688e95f02862c0d459a44,NULL
# Columns below this comment are as follows:
# 14. ID.
# 15. Comments.
1687287737,7408fb7cd38b9fb51886a68b6711ff85,PennController,3,0,intro,NULL,PennController,1,_Trial_,Start,1687287429794,5fa688e95f02862c0d459a44,5fa688e95f02862c0d459a44,NULL
1687287737,7408fb7cd38b9fb51886a68b6711ff85,PennController,3,0,intro,NULL,PennController,1,_Header_,Start,1687287429794,5fa688e95f02862c0d459a44,5fa688e95f02862c0d459a44,NULL
1687287737,7408fb7cd38b9fb51886a68b6711ff85,PennController,3,0,intro,NULL,PennController,1,_Header_,End,1687287429794,5fa688e95f02862c0d459a44,5fa688e95f02862c0d459a44,NULL
1687287737,7408fb7cd38b9fb51886a68b6711ff85,PennController,3,0,intro,NULL,PennController,1,_Trial_,End,1687287435017,5fa688e95f02862c0d459a44,5fa688e95f02862c0d459a44,NULL
# Columns below this comment are as follows:
# 15. item_number.
# 16. item.
# 17. type.
# 18. Group.
# 19. prog.
# 20. prev_image.
# 21. next_image.
# 22. height.
# 23. Comments.
1687287737,7408fb7cd38b9fb51886a68b6711ff85,PennController,17,0,experiment,NULL,PennController,16,_Trial_,Start,1687287435018,5fa688e95f02862c0d459a44,5fa688e95f02862c0d459a44,14,cover,critical,E,75,cover66.jpg,cover84.jpg,high,NULL
1687287737,7408fb7cd38b9fb51886a68b6711ff85,PennController,17,0,experiment,NULL,PennController,16,_Header_,Start,1687287435018,5fa688e95f02862c0d459a44,5fa688e95f02862c0d459a44,14,cover,critical,E,75,cover66.jpg,cover84.jpg,high,NULL
1687287737,7408fb7cd38b9fb51886a68b6711ff85,PennController,17,0,experiment,NULL,PennController,16,_Header_,End,1687287435018,5fa688e95f02862c0d459a44,5fa688e95f02862c0d459a44,14,cover,critical,E,75,cover66.jpg,cover84.jpg,high,NULL
1687287737,7408fb7cd38b9fb51886a68b6711ff85,PennController,17,0,experiment,NULL,Video,progression,buffer,0,1687287438564,5fa688e95f02862c0d459a44,5fa688e95f02862c0d459a44,14,cover,critical,E,75,cover66.jpg,cover84.jpg,high,NULL
1687287737,7408fb7cd38b9fb51886a68b6711ff85,PennController,17,0,experiment,NULL,Canvas,canvas6,Print,NA,1687287444798,5fa688e95f02862c0d459a44,5fa688e95f02862c0d459a44,14,cover,critical,E,75,cover66.jpg,cover84.jpg,high,NULL
1687287737,7408fb7cd38b9fb51886a68b6711ff85,PennController,17,0,experiment,NULL,Selector,choice,Selection,option2,1687287449569,5fa688e95f02862c0d459a44,5fa688e95f02862c0d459a44,14,cover,critical,E,75,cover66.jpg,cover84.jpg,high,option2;option1
1687287737,7408fb7cd38b9fb51886a68b6711ff85,PennController,17,0,experiment,NULL,PennController,16,_Trial_,End,1687287449570,5fa688e95f02862c0d459a44,5fa688e95f02862c0d459a44,14,cover,critical,E,75,cover66.jpg,cover84.jpg,high,NULL
1687287737,7408fb7cd38b9fb51886a68b6711ff85,PennController,22,0,experiment,NULL,PennController,21,_Trial_,Start,1687287449571,5fa688e95f02862c0d459a44,5fa688e95f02862c0d459a44,19,cup,filler,E,50,cup40.jpg,cup60.jpg,GoalB,NULL
1687287737,7408fb7cd38b9fb51886a68b6711ff85,PennController,22,0,experiment,NULL,PennController,21,_Header_,Start,1687287449571,5fa688e95f02862c0d459a44,5fa688e95f02862c0d459a44,19,cup,filler,E,50,cup40.jpg,cup60.jpg,GoalB,NULL
1687287737,7408fb7cd38b9fb51886a68b6711ff85,PennController,22,0,experiment,NULL,PennController,21,_Header_,End,1687287449571,5fa688e95f02862c0d459a44,5fa688e95f02862c0d459a44,19,cup,filler,E,50,cup40.jpg,cup60.jpg,GoalB,NULL
1687287737,7408fb7cd38b9fb51886a68b6711ff85,PennController,22,0,experiment,NULL,Video,progression,buffer,0,1687287453094,5fa688e95f02862c0d459a44,5fa688e95f02862c0d459a44,19,cup,filler,E,50,cup40.jpg,cup60.jpg,GoalB,NULL
1687287737,7408fb7cd38b9fb51886a68b6711ff85,PennController,22,0,experiment,NULL,Canvas,canvas6,Print,NA,1687287456320,5fa688e95f02862c0d459a44,5fa688e95f02862c0d459a44,19,cup,filler,E,50,cup40.jpg,cup60.jpg,GoalB,NULL
1687287737,7408fb7cd38b9fb51886a68b6711ff85,PennController,22,0,experiment,NULL,Selector,choice,Selection,option2,1687287469318,5fa688e95f02862c0d459a44,5fa688e95f02862c0d459a44,19,cup,filler,E,50,cup40.jpg,cup60.jpg,GoalB,option2;option1
1687287737,7408fb7cd38b9fb51886a68b6711ff85,PennController,22,0,experiment,NULL,PennController,21,_Trial_,End,1687287469318,5fa688e95f02862c0d459a44,5fa688e95f02862c0d459a44,19,cup,filler,E,50,cup40.jpg,cup60.jpg,GoalB,NULL
1687287737,7408fb7cd38b9fb51886a68b6711ff85,PennController,32,0,experiment,NULL,PennController,31,_Trial_,Start,1687287469320,5fa688e95f02862c0d459a44,5fa688e95f02862c0d459a44,29,frog,filler,E,75,frog65.jpg,frog85.jpg,GoalB,NULL
1687287737,7408fb7cd38b9fb51886a68b6711ff85,PennController,32,0,experiment,NULL,PennController,31,_Header_,Start,1687287469320,5fa688e95f02862c0d459a44,5fa688e95f02862c0d459a44,29,frog,filler,E,75,frog65.jpg,frog85.jpg,GoalB,NULL
1687287737,7408fb7cd38b9fb51886a68b6711ff85,PennController,32,0,experiment,NULL,PennController,31,_Header_,End,1687287469320,5fa688e95f02862c0d459a44,5fa688e95f02862c0d459a44,29,frog,filler,E,75,frog65.jpg,frog85.jpg,GoalB,NULL
1687287737,7408fb7cd38b9fb51886a68b6711ff85,PennController,32,0,experiment,NULL,Video,progression,buffer,0,1687287472862,5fa688e95f02862c0d459a44,5fa688e95f02862c0d459a44,29,frog,filler,E,75,frog65.jpg,frog85.jpg,GoalB,NULL
1687287737,7408fb7cd38b9fb51886a68b6711ff85,PennController,32,0,experiment,NULL,Canvas,canvas6,Print,NA,1687287477091,5fa688e95f02862c0d459a44,5fa688e95f02862c0d459a44,29,frog,filler,E,75,frog65.jpg,frog85.jpg,GoalB,NULL
1687287737,7408fb7cd38b9fb51886a68b6711ff85,PennController,32,0,experiment,NULL,Selector,choice,Selection,option1,1687287478590,5fa688e95f02862c0d459a44,5fa688e95f02862c0d459a44,29,frog,filler,E,75,frog65.jpg,frog85.jpg,GoalB,option2;option1
1687287737,7408fb7cd38b9fb51886a68b6711ff85,PennController,32,0,experiment,NULL,PennController,31,_Trial_,End,1687287478592,5fa688e95f02862c0d459a44,5fa688e95f02862c0d459a44,29,frog,filler,E,75,frog65.jpg,frog85.jpg,GoalB,NULL
1687287737,7408fb7cd38b9fb51886a68b6711ff85,PennController,29,0,experiment,NULL,PennController,28,_Trial_,Start,1687287478593,5fa688e95f02862c0d459a44,5fa688e95f02862c0d459a44,26,sandwich,filler,E,75,sandwich65.jpg,sandwich85.jpg,GoalA,NULL
1687287737,7408fb7cd38b9fb51886a68b6711ff85,PennController,29,0,experiment,NULL,PennController,28,_Header_,Start,1687287478593,5fa688e95f02862c0d459a44,5fa688e95f02862c0d459a44,26,sandwich,filler,E,75,sandwich65.jpg,sandwich85.jpg,GoalA,NULL
1687287737,7408fb7cd38b9fb51886a68b6711ff85,PennController,29,0,experiment,NULL,PennController,28,_Header_,End,1687287478594,5fa688e95f02862c0d459a44,5fa688e95f02862c0d459a44,26,sandwich,filler,E,75,sandwich65.jpg,sandwich85.jpg,GoalA,NULL
1687287737,7408fb7cd38b9fb51886a68b6711ff85,PennController,29,0,experiment,NULL,Video,progression,buffer,0,1687287482108,5fa688e95f02862c0d459a44,5fa688e95f02862c0d459a44,26,sandwich,filler,E,75,sandwich65.jpg,sandwich85.jpg,GoalA,NULL
1687287737,7408fb7cd38b9fb51886a68b6711ff85,PennController,29,0,experiment,NULL,Canvas,canvas6,Print,NA,1687287486333,5fa688e95f02862c0d459a44,5fa688e95f02862c0d459a44,26,sandwich,filler,E,75,sandwich65.jpg,sandwich85.jpg,GoalA,NULL
1687287737,7408fb7cd38b9fb51886a68b6711ff85,PennController,29,0,experiment,NULL,Selector,choice,Selection,option2,1687287495219,5fa688e95f02862c0d459a44,5fa688e95f02862c0d459a44,26,sandwich,filler,E,75,sandwich65.jpg,sandwich85.jpg,GoalA,option1;option2
1687287737,7408fb7cd38b9fb51886a68b6711ff85,PennController,29,0,experiment,NULL,PennController,28,_Trial_,End,1687287495220,5fa688e95f02862c0d459a44,5fa688e95f02862c0d459a44,26,sandwich,filler,E,75,sandwich65.jpg,sandwich85.jpg,GoalA,NULL
1687287737,7408fb7cd38b9fb51886a68b6711ff85,PennController,14,0,experiment,NULL,PennController,13,_Trial_,Start,1687287495222,5fa688e95f02862c0d459a44,5fa688e95f02862c0d459a44,11,beads,critical,E,75,beads65.jpg,beads85.jpg,high,NULL
1687287737,7408fb7cd38b9fb51886a68b6711ff85,PennController,14,0,experiment,NULL,PennController,13,_Header_,Start,1687287495222,5fa688e95f02862c0d459a44,5fa688e95f02862c0d459a44,11,beads,critical,E,75,beads65.jpg,beads85.jpg,high,NULL
1687287737,7408fb7cd38b9fb51886a68b6711ff85,PennController,14,0,experiment,NULL,PennController,13,_Header_,End,1687287495222,5fa688e95f02862c0d459a44,5fa688e95f02862c0d459a44,11,beads,critical,E,75,beads65.jpg,beads85.jpg,high,NULL
1687287737,7408fb7cd38b9fb51886a68b6711ff85,PennController,14,0,experiment,NULL,Video,progression,buffer,0,1687287498751,5fa688e95f02862c0d459a44,5fa688e95f02862c0d459a44,11,beads,critical,E,75,beads65.jpg,beads85.jpg,high,NULL
1687287737,7408fb7cd38b9fb51886a68b6711ff85,PennController,14,0,experiment,NULL,Canvas,canvas6,Print,NA,1687287502977,5fa688e95f02862c0d459a44,5fa688e95f02862c0d459a44,11,beads,critical,E,75,beads65.jpg,beads85.jpg,high,NULL
1687287737,7408fb7cd38b9fb51886a68b6711ff85,PennController,14,0,experiment,NULL,Selector,choice,Selection,option2,1687287511663,5fa688e95f02862c0d459a44,5fa688e95f02862c0d459a44,11,beads,critical,E,75,beads65.jpg,beads85.jpg,high,option1;option2
1687287737,7408fb7cd38b9fb51886a68b6711ff85,PennController,14,0,experiment,NULL,PennController,13,_Trial_,End,1687287511664,5fa688e95f02862c0d459a44,5fa688e95f02862c0d459a44,11,beads,critical,E,75,beads65.jpg,beads85.jpg,high,NULL
1687287737,7408fb7cd38b9fb51886a68b6711ff85,PennController,10,0,experiment,NULL,PennController,9,_Trial_,Start,1687287511665,5fa688e95f02862c0d459a44,5fa688e95f02862c0d459a44,7,stack,critical,E,50,stack40.jpg,stack60.jpg,high,NULL
1687287737,7408fb7cd38b9fb51886a68b6711ff85,PennController,10,0,experiment,NULL,PennController,9,_Header_,Start,1687287511665,5fa688e95f02862c0d459a44,5fa688e95f02862c0d459a44,7,stack,critical,E,50,stack40.jpg,stack60.jpg,high,NULL
1687287737,7408fb7cd38b9fb51886a68b6711ff85,PennController,10,0,experiment,NULL,PennController,9,_Header_,End,1687287511666,5fa688e95f02862c0d459a44,5fa688e95f02862c0d459a44,7,stack,critical,E,50,stack40.jpg,stack60.jpg,high,NULL
1687287737,7408fb7cd38b9fb51886a68b6711ff85,PennController,10,0,experiment,NULL,Video,progression,buffer,0,1687287515205,5fa688e95f02862c0d459a44,5fa688e95f02862c0d459a44,7,stack,critical,E,50,stack40.jpg,stack60.jpg,high,NULL
1687287737,7408fb7cd38b9fb51886a68b6711ff85,PennController,10,0,experiment,NULL,Canvas,canvas6,Print,NA,1687287518429,5fa688e95f02862c0d459a44,5fa688e95f02862c0d459a44,7,stack,critical,E,50,stack40.jpg,stack60.jpg,high,NULL
1687287737,7408fb7cd38b9fb51886a68b6711ff85,PennController,10,0,experiment,NULL,Selector,choice,Selection,option1,1687287522062,5fa688e95f02862c0d459a44,5fa688e95f02862c0d459a44,7,stack,critical,E,50,stack40.jpg,stack60.jpg,high,option1;option2
1687287737,7408fb7cd38b9fb51886a68b6711ff85,PennController,10,0,experiment,NULL,PennController,9,_Trial_,End,1687287522062,5fa688e95f02862c0d459a44,5fa688e95f02862c0d459a44,7,stack,critical,E,50,stack40.jpg,stack60.jpg,high,NULL
1687287737,7408fb7cd38b9fb51886a68b6711ff85,PennController,23,0,experiment,NULL,PennController,22,_Trial_,Start,1687287522063,5fa688e95f02862c0d459a44,5fa688e95f02862c0d459a44,20,cat,filler,E,75,cat65.jpg,cat85.jpg,GoalA,NULL
1687287737,7408fb7cd38b9fb51886a68b6711ff85,PennController,23,0,experiment,NULL,PennController,22,_Header_,Start,1687287522063,5fa688e95f02862c0d459a44,5fa688e95f02862c0d459a44,20,cat,filler,E,75,cat65.jpg,cat85.jpg,GoalA,NULL
1687287737,7408fb7cd38b9fb51886a68b6711ff85,PennController,23,0,experiment,NULL,PennController,22,_Header_,End,1687287522063,5fa688e95f02862c0d459a44,5fa688e95f02862c0d459a44,20,cat,filler,E,75,cat65.jpg,cat85.jpg,GoalA,NULL
1687287737,7408fb7cd38b9fb51886a68b6711ff85,PennController,23,0,experiment,NULL,Video,progression,buffer,0,1687287525603,5fa688e95f02862c0d459a44,5fa688e95f02862c0d459a44,20,cat,filler,E,75,cat65.jpg,cat85.jpg,GoalA,NULL
1687287737,7408fb7cd38b9fb51886a68b6711ff85,PennController,23,0,experiment,NULL,Canvas,canvas6,Print,NA,1687287529825,5fa688e95f02862c0d459a44,5fa688e95f02862c0d459a44,20,cat,filler,E,75,cat65.jpg,cat85.jpg,GoalA,NULL
1687287737,7408fb7cd38b9fb51886a68b6711ff85,PennController,23,0,experiment,NULL,Selector,choice,Selection,option2,1687287533645,5fa688e95f02862c0d459a44,5fa688e95f02862c0d459a44,20,cat,filler,E,75,cat65.jpg,cat85.jpg,GoalA,option1;option2
1687287737,7408fb7cd38b9fb51886a68b6711ff85,PennController,23,0,experiment,NULL,PennController,22,_Trial_,End,1687287533646,5fa688e95f02862c0d459a44,5fa688e95f02862c0d459a44,20,cat,filler,E,75,cat65.jpg,cat85.jpg,GoalA,NULL
1687287737,7408fb7cd38b9fb51886a68b6711ff85,PennController,19,0,experiment,NULL,PennController,18,_Trial_,Start,1687287533647,5fa688e95f02862c0d459a44,5fa688e95f02862c0d459a44,16,blinds,critical,E,50,blinds42.jpg,blinds60.jpg,high,NULL
1687287737,7408fb7cd38b9fb51886a68b6711ff85,PennController,19,0,experiment,NULL,PennController,18,_Header_,Start,1687287533647,5fa688e95f02862c0d459a44,5fa688e95f02862c0d459a44,16,blinds,critical,E,50,blinds42.jpg,blinds60.jpg,high,NULL
1687287737,7408fb7cd38b9fb51886a68b6711ff85,PennController,19,0,experiment,NULL,PennController,18,_Header_,End,1687287533647,5fa688e95f02862c0d459a44,5fa688e95f02862c0d459a44,16,blinds,critical,E,50,blinds42.jpg,blinds60.jpg,high,NULL
1687287737,7408fb7cd38b9fb51886a68b6711ff85,PennController,19,0,experiment,NULL,Video,progression,buffer,0,1687287537183,5fa688e95f02862c0d459a44,5fa688e95f02862c0d459a44,16,blinds,critical,E,50,blinds42.jpg,blinds60.jpg,high,NULL
1687287737,7408fb7cd38b9fb51886a68b6711ff85,PennController,19,0,experiment,NULL,Canvas,canvas6,Print,NA,1687287541821,5fa688e95f02862c0d459a44,5fa688e95f02862c0d459a44,16,blinds,critical,E,50,blinds42.jpg,blinds60.jpg,high,NULL
1687287737,7408fb7cd38b9fb51886a68b6711ff85,PennController,19,0,experiment,NULL,Selector,choice,Selection,option1,1687287545088,5fa688e95f02862c0d459a44,5fa688e95f02862c0d459a44,16,blinds,critical,E,50,blinds42.jpg,blinds60.jpg,high,option2;option1
1687287737,7408fb7cd38b9fb51886a68b6711ff85,PennController,19,0,experiment,NULL,PennController,18,_Trial_,End,1687287545088,5fa688e95f02862c0d459a44,5fa688e95f02862c0d459a44,16,blinds,critical,E,50,blinds42.jpg,blinds60.jpg,high,NULL
1687287737,7408fb7cd38b9fb51886a68b6711ff85,PennController,26,0,experiment,NULL,PennController,25,_Trial_,Start,1687287545090,5fa688e95f02862c0d459a44,5fa688e95f02862c0d459a44,23,color,filler,E,75,color65.jpg,color85.jpg,GoalB,NULL
1687287737,7408fb7cd38b9fb51886a68b6711ff85,PennController,26,0,experiment,NULL,PennController,25,_Header_,Start,1687287545090,5fa688e95f02862c0d459a44,5fa688e95f02862c0d459a44,23,color,filler,E,75,color65.jpg,color85.jpg,GoalB,NULL
1687287737,7408fb7cd38b9fb51886a68b6711ff85,PennController,26,0,experiment,NULL,PennController,25,_Header_,End,1687287545090,5fa688e95f02862c0d459a44,5fa688e95f02862c0d459a44,23,color,filler,E,75,color65.jpg,color85.jpg,GoalB,NULL
1687287737,7408fb7cd38b9fb51886a68b6711ff85,PennController,26,0,experiment,NULL,Video,progression,buffer,0,1687287548639,5fa688e95f02862c0d459a44,5fa688e95f02862c0d459a44,23,color,filler,E,75,color65.jpg,color85.jpg,GoalB,NULL
1687287737,7408fb7cd38b9fb51886a68b6711ff85,PennController,26,0,experiment,NULL,Canvas,canvas6,Print,NA,1687287552883,5fa688e95f02862c0d459a44,5fa688e95f02862c0d459a44,23,color,filler,E,75,color65.jpg,color85.jpg,GoalB,NULL
1687287737,7408fb7cd38b9fb51886a68b6711ff85,PennController,26,0,experiment,NULL,Selector,choice,Selection,option1,1687287560630,5fa688e95f02862c0d459a44,5fa688e95f02862c0d459a44,23,color,filler,E,75,color65.jpg,color85.jpg,GoalB,option2;option1
1687287737,7408fb7cd38b9fb51886a68b6711ff85,PennController,26,0,experiment,NULL,PennController,25,_Trial_,End,1687287560630,5fa688e95f02862c0d459a44,5fa688e95f02862c0d459a44,23,color,filler,E,75,color65.jpg,color85.jpg,GoalB,NULL
1687287737,7408fb7cd38b9fb51886a68b6711ff85,PennController,16,0,experiment,NULL,PennController,15,_Trial_,Start,1687287560630,5fa688e95f02862c0d459a44,5fa688e95f02862c0d459a44,13,mix,critical,E,50,mix40.jpg,mix60.jpg,high,NULL
1687287737,7408fb7cd38b9fb51886a68b6711ff85,PennController,16,0,experiment,NULL,PennController,15,_Header_,Start,1687287560630,5fa688e95f02862c0d459a44,5fa688e95f02862c0d459a44,13,mix,critical,E,50,mix40.jpg,mix60.jpg,high,NULL
1687287737,7408fb7cd38b9fb51886a68b6711ff85,PennController,16,0,experiment,NULL,PennController,15,_Header_,End,1687287560630,5fa688e95f02862c0d459a44,5fa688e95f02862c0d459a44,13,mix,critical,E,50,mix40.jpg,mix60.jpg,high,NULL
1687287737,7408fb7cd38b9fb51886a68b6711ff85,PennController,16,0,experiment,NULL,Video,progression,buffer,0,1687287564161,5fa688e95f02862c0d459a44,5fa688e95f02862c0d459a44,13,mix,critical,E,50,mix40.jpg,mix60.jpg,high,NULL
1687287737,7408fb7cd38b9fb51886a68b6711ff85,PennController,16,0,experiment,NULL,Canvas,canvas6,Print,NA,1687287567393,5fa688e95f02862c0d459a44,5fa688e95f02862c0d459a44,13,mix,critical,E,50,mix40.jpg,mix60.jpg,high,NULL
1687287737,7408fb7cd38b9fb51886a68b6711ff85,PennController,16,0,experiment,NULL,Selector,choice,Selection,option2,1687287569353,5fa688e95f02862c0d459a44,5fa688e95f02862c0d459a44,13,mix,critical,E,50,mix40.jpg,mix60.jpg,high,option1;option2
1687287737,7408fb7cd38b9fb51886a68b6711ff85,PennController,16,0,experiment,NULL,PennController,15,_Trial_,End,1687287569354,5fa688e95f02862c0d459a44,5fa688e95f02862c0d459a44,13,mix,critical,E,50,mix40.jpg,mix60.jpg,high,NULL
1687287737,7408fb7cd38b9fb51886a68b6711ff85,PennController,4,0,experiment,NULL,PennController,3,_Trial_,Start,1687287569355,5fa688e95f02862c0d459a44,5fa688e95f02862c0d459a44,1,vase,critical,E,50,vase40.jpg,vase60.jpg,high,NULL
1687287737,7408fb7cd38b9fb51886a68b6711ff85,PennController,4,0,experiment,NULL,PennController,3,_Header_,Start,1687287569355,5fa688e95f02862c0d459a44,5fa688e95f02862c0d459a44,1,vase,critical,E,50,vase40.jpg,vase60.jpg,high,NULL
1687287737,7408fb7cd38b9fb51886a68b6711ff85,PennController,4,0,experiment,NULL,PennController,3,_Header_,End,1687287569355,5fa688e95f02862c0d459a44,5fa688e95f02862c0d459a44,1,vase,critical,E,50,vase40.jpg,vase60.jpg,high,NULL
1687287737,7408fb7cd38b9fb51886a68b6711ff85,PennController,4,0,experiment,NULL,Video,progression,buffer,0,1687287572890,5fa688e95f02862c0d459a44,5fa688e95f02862c0d459a44,1,vase,critical,E,50,vase40.jpg,vase60.jpg,high,NULL
1687287737,7408fb7cd38b9fb51886a68b6711ff85,PennController,4,0,experiment,NULL,Canvas,canvas6,Print,NA,1687287576121,5fa688e95f02862c0d459a44,5fa688e95f02862c0d459a44,1,vase,critical,E,50,vase40.jpg,vase60.jpg,high,NULL
1687287737,7408fb7cd38b9fb51886a68b6711ff85,PennController,4,0,experiment,NULL,Selector,choice,Selection,option2,1687287578495,5fa688e95f02862c0d459a44,5fa688e95f02862c0d459a44,1,vase,critical,E,50,vase40.jpg,vase60.jpg,high,option2;option1
1687287737,7408fb7cd38b9fb51886a68b6711ff85,PennController,4,0,experiment,NULL,PennController,3,_Trial_,End,1687287578496,5fa688e95f02862c0d459a44,5fa688e95f02862c0d459a44,1,vase,critical,E,50,vase40.jpg,vase60.jpg,high,NULL
1687287737,7408fb7cd38b9fb51886a68b6711ff85,PennController,9,0,experiment,NULL,PennController,8,_Trial_,Start,1687287578497,5fa688e95f02862c0d459a44,5fa688e95f02862c0d459a44,6,flower,critical,E,25,flower15.jpg,flower35.jpg,high,NULL
1687287737,7408fb7cd38b9fb51886a68b6711ff85,PennController,9,0,experiment,NULL,PennController,8,_Header_,Start,1687287578497,5fa688e95f02862c0d459a44,5fa688e95f02862c0d459a44,6,flower,critical,E,25,flower15.jpg,flower35.jpg,high,NULL
1687287737,7408fb7cd38b9fb51886a68b6711ff85,PennController,9,0,experiment,NULL,PennController,8,_Header_,End,1687287578497,5fa688e95f02862c0d459a44,5fa688e95f02862c0d459a44,6,flower,critical,E,25,flower15.jpg,flower35.jpg,high,NULL
1687287737,7408fb7cd38b9fb51886a68b6711ff85,PennController,9,0,experiment,NULL,Video,progression,buffer,0,1687287582043,5fa688e95f02862c0d459a44,5fa688e95f02862c0d459a44,6,flower,critical,E,25,flower15.jpg,flower35.jpg,high,NULL
1687287737,7408fb7cd38b9fb51886a68b6711ff85,PennController,9,0,experiment,NULL,Canvas,canvas6,Print,NA,1687287584284,5fa688e95f02862c0d459a44,5fa688e95f02862c0d459a44,6,flower,critical,E,25,flower15.jpg,flower35.jpg,high,NULL
1687287737,7408fb7cd38b9fb51886a68b6711ff85,PennController,9,0,experiment,NULL,Selector,choice,Selection,option1,1687287585663,5fa688e95f02862c0d459a44,5fa688e95f02862c0d459a44,6,flower,critical,E,25,flower15.jpg,flower35.jpg,high,option1;option2
1687287737,7408fb7cd38b9fb51886a68b6711ff85,PennController,9,0,experiment,NULL,PennController,8,_Trial_,End,1687287585664,5fa688e95f02862c0d459a44,5fa688e95f02862c0d459a44,6,flower,critical,E,25,flower15.jpg,flower35.jpg,high,NULL
1687287737,7408fb7cd38b9fb51886a68b6711ff85,PennController,7,0,experiment,NULL,PennController,6,_Trial_,Start,1687287585665,5fa688e95f02862c0d459a44,5fa688e95f02862c0d459a44,4,candy,critical,E,50,candy40.jpg,candy60.jpg,high,NULL
1687287737,7408fb7cd38b9fb51886a68b6711ff85,PennController,7,0,experiment,NULL,PennController,6,_Header_,Start,1687287585665,5fa688e95f02862c0d459a44,5fa688e95f02862c0d459a44,4,candy,critical,E,50,candy40.jpg,candy60.jpg,high,NULL
1687287737,7408fb7cd38b9fb51886a68b6711ff85,PennController,7,0,experiment,NULL,PennController,6,_Header_,End,1687287585665,5fa688e95f02862c0d459a44,5fa688e95f02862c0d459a44,4,candy,critical,E,50,candy40.jpg,candy60.jpg,high,NULL
1687287737,7408fb7cd38b9fb51886a68b6711ff85,PennController,7,0,experiment,NULL,Video,progression,buffer,0,1687287589188,5fa688e95f02862c0d459a44,5fa688e95f02862c0d459a44,4,candy,critical,E,50,candy40.jpg,candy60.jpg,high,NULL
1687287737,7408fb7cd38b9fb51886a68b6711ff85,PennController,7,0,experiment,NULL,Canvas,canvas6,Print,NA,1687287592430,5fa688e95f02862c0d459a44,5fa688e95f02862c0d459a44,4,candy,critical,E,50,candy40.jpg,candy60.jpg,high,NULL
1687287737,7408fb7cd38b9fb51886a68b6711ff85,PennController,7,0,experiment,NULL,Selector,choice,Selection,option1,1687287594546,5fa688e95f02862c0d459a44,5fa688e95f02862c0d459a44,4,candy,critical,E,50,candy40.jpg,candy60.jpg,high,option2;option1
1687287737,7408fb7cd38b9fb51886a68b6711ff85,PennController,7,0,experiment,NULL,PennController,6,_Trial_,End,1687287594546,5fa688e95f02862c0d459a44,5fa688e95f02862c0d459a44,4,candy,critical,E,50,candy40.jpg,candy60.jpg,high,NULL
1687287737,7408fb7cd38b9fb51886a68b6711ff85,PennController,24,0,experiment,NULL,PennController,23,_Trial_,Start,1687287594547,5fa688e95f02862c0d459a44,5fa688e95f02862c0d459a44,21,visit,filler,E,25,visit15.jpg,visit35.jpg,GoalB,NULL
1687287737,7408fb7cd38b9fb51886a68b6711ff85,PennController,24,0,experiment,NULL,PennController,23,_Header_,Start,1687287594547,5fa688e95f02862c0d459a44,5fa688e95f02862c0d459a44,21,visit,filler,E,25,visit15.jpg,visit35.jpg,GoalB,NULL
1687287737,7408fb7cd38b9fb51886a68b6711ff85,PennController,24,0,experiment,NULL,PennController,23,_Header_,End,1687287594547,5fa688e95f02862c0d459a44,5fa688e95f02862c0d459a44,21,visit,filler,E,25,visit15.jpg,visit35.jpg,GoalB,NULL
1687287737,7408fb7cd38b9fb51886a68b6711ff85,PennController,24,0,experiment,NULL,Video,progression,buffer,0,1687287598073,5fa688e95f02862c0d459a44,5fa688e95f02862c0d459a44,21,visit,filler,E,25,visit15.jpg,visit35.jpg,GoalB,NULL
1687287737,7408fb7cd38b9fb51886a68b6711ff85,PennController,24,0,experiment,NULL,Canvas,canvas6,Print,NA,1687287600304,5fa688e95f02862c0d459a44,5fa688e95f02862c0d459a44,21,visit,filler,E,25,visit15.jpg,visit35.jpg,GoalB,NULL
1687287737,7408fb7cd38b9fb51886a68b6711ff85,PennController,24,0,experiment,NULL,Selector,choice,Selection,option1,1687287602117,5fa688e95f02862c0d459a44,5fa688e95f02862c0d459a44,21,visit,filler,E,25,visit15.jpg,visit35.jpg,GoalB,option1;option2
1687287737,7408fb7cd38b9fb51886a68b6711ff85,PennController,24,0,experiment,NULL,PennController,23,_Trial_,End,1687287602118,5fa688e95f02862c0d459a44,5fa688e95f02862c0d459a44,21,visit,filler,E,25,visit15.jpg,visit35.jpg,GoalB,NULL
1687287737,7408fb7cd38b9fb51886a68b6711ff85,PennController,5,0,experiment,NULL,PennController,4,_Trial_,Start,1687287602119,5fa688e95f02862c0d459a44,5fa688e95f02862c0d459a44,2,door,critical,E,75,door65.jpg,door85.jpg,high,NULL
1687287737,7408fb7cd38b9fb51886a68b6711ff85,PennController,5,0,experiment,NULL,PennController,4,_Header_,Start,1687287602119,5fa688e95f02862c0d459a44,5fa688e95f02862c0d459a44,2,door,critical,E,75,door65.jpg,door85.jpg,high,NULL
1687287737,7408fb7cd38b9fb51886a68b6711ff85,PennController,5,0,experiment,NULL,PennController,4,_Header_,End,1687287602119,5fa688e95f02862c0d459a44,5fa688e95f02862c0d459a44,2,door,critical,E,75,door65.jpg,door85.jpg,high,NULL
1687287737,7408fb7cd38b9fb51886a68b6711ff85,PennController,5,0,experiment,NULL,Video,progression,buffer,0,1687287605649,5fa688e95f02862c0d459a44,5fa688e95f02862c0d459a44,2,door,critical,E,75,door65.jpg,door85.jpg,high,NULL
1687287737,7408fb7cd38b9fb51886a68b6711ff85,PennController,5,0,experiment,NULL,Canvas,canvas6,Print,NA,1687287609881,5fa688e95f02862c0d459a44,5fa688e95f02862c0d459a44,2,door,critical,E,75,door65.jpg,door85.jpg,high,NULL
1687287737,7408fb7cd38b9fb51886a68b6711ff85,PennController,5,0,experiment,NULL,Selector,choice,Selection,option1,1687287611198,5fa688e95f02862c0d459a44,5fa688e95f02862c0d459a44,2,door,critical,E,75,door65.jpg,door85.jpg,high,option1;option2
1687287737,7408fb7cd38b9fb51886a68b6711ff85,PennController,5,0,experiment,NULL,PennController,4,_Trial_,End,1687287611198,5fa688e95f02862c0d459a44,5fa688e95f02862c0d459a44,2,door,critical,E,75,door65.jpg,door85.jpg,high,NULL
1687287737,7408fb7cd38b9fb51886a68b6711ff85,PennController,28,0,experiment,NULL,PennController,27,_Trial_,Start,1687287611199,5fa688e95f02862c0d459a44,5fa688e95f02862c0d459a44,25,house,filler,E,50,house40.jpg,house60.jpg,GoalB,NULL
1687287737,7408fb7cd38b9fb51886a68b6711ff85,PennController,28,0,experiment,NULL,PennController,27,_Header_,Start,1687287611199,5fa688e95f02862c0d459a44,5fa688e95f02862c0d459a44,25,house,filler,E,50,house40.jpg,house60.jpg,GoalB,NULL
1687287737,7408fb7cd38b9fb51886a68b6711ff85,PennController,28,0,experiment,NULL,PennController,27,_Header_,End,1687287611199,5fa688e95f02862c0d459a44,5fa688e95f02862c0d459a44,25,house,filler,E,50,house40.jpg,house60.jpg,GoalB,NULL
1687287737,7408fb7cd38b9fb51886a68b6711ff85,PennController,28,0,experiment,NULL,Video,progression,buffer,0,1687287614715,5fa688e95f02862c0d459a44,5fa688e95f02862c0d459a44,25,house,filler,E,50,house40.jpg,house60.jpg,GoalB,NULL
1687287737,7408fb7cd38b9fb51886a68b6711ff85,PennController,28,0,experiment,NULL,Canvas,canvas6,Print,NA,1687287617940,5fa688e95f02862c0d459a44,5fa688e95f02862c0d459a44,25,house,filler,E,50,house40.jpg,house60.jpg,GoalB,NULL
1687287737,7408fb7cd38b9fb51886a68b6711ff85,PennController,28,0,experiment,NULL,Selector,choice,Selection,option1,1687287619942,5fa688e95f02862c0d459a44,5fa688e95f02862c0d459a44,25,house,filler,E,50,house40.jpg,house60.jpg,GoalB,option2;option1
1687287737,7408fb7cd38b9fb51886a68b6711ff85,PennController,28,0,experiment,NULL,PennController,27,_Trial_,End,1687287619942,5fa688e95f02862c0d459a44,5fa688e95f02862c0d459a44,25,house,filler,E,50,house40.jpg,house60.jpg,GoalB,NULL
1687287737,7408fb7cd38b9fb51886a68b6711ff85,PennController,21,0,experiment,NULL,PennController,20,_Trial_,Start,1687287619943,5fa688e95f02862c0d459a44,5fa688e95f02862c0d459a44,18,ball,critical,E,25,ball15.jpg,ball35.jpg,high,NULL
1687287737,7408fb7cd38b9fb51886a68b6711ff85,PennController,21,0,experiment,NULL,PennController,20,_Header_,Start,1687287619943,5fa688e95f02862c0d459a44,5fa688e95f02862c0d459a44,18,ball,critical,E,25,ball15.jpg,ball35.jpg,high,NULL
1687287737,7408fb7cd38b9fb51886a68b6711ff85,PennController,21,0,experiment,NULL,PennController,20,_Header_,End,1687287619943,5fa688e95f02862c0d459a44,5fa688e95f02862c0d459a44,18,ball,critical,E,25,ball15.jpg,ball35.jpg,high,NULL
1687287737,7408fb7cd38b9fb51886a68b6711ff85,PennController,21,0,experiment,NULL,Video,progression,buffer,0,1687287623478,5fa688e95f02862c0d459a44,5fa688e95f02862c0d459a44,18,ball,critical,E,25,ball15.jpg,ball35.jpg,high,NULL
1687287737,7408fb7cd38b9fb51886a68b6711ff85,PennController,21,0,experiment,NULL,Canvas,canvas6,Print,NA,1687287625709,5fa688e95f02862c0d459a44,5fa688e95f02862c0d459a44,18,ball,critical,E,25,ball15.jpg,ball35.jpg,high,NULL
1687287737,7408fb7cd38b9fb51886a68b6711ff85,PennController,21,0,experiment,NULL,Selector,choice,Selection,option1,1687287627549,5fa688e95f02862c0d459a44,5fa688e95f02862c0d459a44,18,ball,critical,E,25,ball15.jpg,ball35.jpg,high,option2;option1
1687287737,7408fb7cd38b9fb51886a68b6711ff85,PennController,21,0,experiment,NULL,PennController,20,_Trial_,End,1687287627550,5fa688e95f02862c0d459a44,5fa688e95f02862c0d459a44,18,ball,critical,E,25,ball15.jpg,ball35.jpg,high,NULL
1687287737,7408fb7cd38b9fb51886a68b6711ff85,PennController,12,0,experiment,NULL,PennController,11,_Trial_,Start,1687287627550,5fa688e95f02862c0d459a44,5fa688e95f02862c0d459a44,9,cake,critical,E,25,cake15.jpg,cake33.jpg,high,NULL
1687287737,7408fb7cd38b9fb51886a68b6711ff85,PennController,12,0,experiment,NULL,PennController,11,_Header_,Start,1687287627550,5fa688e95f02862c0d459a44,5fa688e95f02862c0d459a44,9,cake,critical,E,25,cake15.jpg,cake33.jpg,high,NULL
1687287737,7408fb7cd38b9fb51886a68b6711ff85,PennController,12,0,experiment,NULL,PennController,11,_Header_,End,1687287627550,5fa688e95f02862c0d459a44,5fa688e95f02862c0d459a44,9,cake,critical,E,25,cake15.jpg,cake33.jpg,high,NULL
1687287737,7408fb7cd38b9fb51886a68b6711ff85,PennController,12,0,experiment,NULL,Video,progression,buffer,0,1687287631075,5fa688e95f02862c0d459a44,5fa688e95f02862c0d459a44,9,cake,critical,E,25,cake15.jpg,cake33.jpg,high,NULL
1687287737,7408fb7cd38b9fb51886a68b6711ff85,PennController,12,0,experiment,NULL,Canvas,canvas6,Print,NA,1687287633913,5fa688e95f02862c0d459a44,5fa688e95f02862c0d459a44,9,cake,critical,E,25,cake15.jpg,cake33.jpg,high,NULL
1687287737,7408fb7cd38b9fb51886a68b6711ff85,PennController,12,0,experiment,NULL,Selector,choice,Selection,option1,1687287635335,5fa688e95f02862c0d459a44,5fa688e95f02862c0d459a44,9,cake,critical,E,25,cake15.jpg,cake33.jpg,high,option2;option1
1687287737,7408fb7cd38b9fb51886a68b6711ff85,PennController,12,0,experiment,NULL,PennController,11,_Trial_,End,1687287635336,5fa688e95f02862c0d459a44,5fa688e95f02862c0d459a44,9,cake,critical,E,25,cake15.jpg,cake33.jpg,high,NULL
1687287737,7408fb7cd38b9fb51886a68b6711ff85,PennController,27,0,experiment,NULL,PennController,26,_Trial_,Start,1687287635337,5fa688e95f02862c0d459a44,5fa688e95f02862c0d459a44,24,match,filler,E,25,match15.jpg,match35.jpg,GoalA,NULL
1687287737,7408fb7cd38b9fb51886a68b6711ff85,PennController,27,0,experiment,NULL,PennController,26,_Header_,Start,1687287635337,5fa688e95f02862c0d459a44,5fa688e95f02862c0d459a44,24,match,filler,E,25,match15.jpg,match35.jpg,GoalA,NULL
1687287737,7408fb7cd38b9fb51886a68b6711ff85,PennController,27,0,experiment,NULL,PennController,26,_Header_,End,1687287635337,5fa688e95f02862c0d459a44,5fa688e95f02862c0d459a44,24,match,filler,E,25,match15.jpg,match35.jpg,GoalA,NULL
1687287737,7408fb7cd38b9fb51886a68b6711ff85,PennController,27,0,experiment,NULL,Video,progression,buffer,0,1687287638871,5fa688e95f02862c0d459a44,5fa688e95f02862c0d459a44,24,match,filler,E,25,match15.jpg,match35.jpg,GoalA,NULL
1687287737,7408fb7cd38b9fb51886a68b6711ff85,PennController,27,0,experiment,NULL,Canvas,canvas6,Print,NA,1687287641106,5fa688e95f02862c0d459a44,5fa688e95f02862c0d459a44,24,match,filler,E,25,match15.jpg,match35.jpg,GoalA,NULL
1687287737,7408fb7cd38b9fb51886a68b6711ff85,PennController,27,0,experiment,NULL,Selector,choice,Selection,option1,1687287642508,5fa688e95f02862c0d459a44,5fa688e95f02862c0d459a44,24,match,filler,E,25,match15.jpg,match35.jpg,GoalA,option2;option1
1687287737,7408fb7cd38b9fb51886a68b6711ff85,PennController,27,0,experiment,NULL,PennController,26,_Trial_,End,1687287642509,5fa688e95f02862c0d459a44,5fa688e95f02862c0d459a44,24,match,filler,E,25,match15.jpg,match35.jpg,GoalA,NULL
1687287737,7408fb7cd38b9fb51886a68b6711ff85,PennController,15,0,experiment,NULL,PennController,14,_Trial_,Start,1687287642509,5fa688e95f02862c0d459a44,5fa688e95f02862c0d459a44,12,erase,critical,E,25,erase15.jpg,erase33.jpg,high,NULL
1687287737,7408fb7cd38b9fb51886a68b6711ff85,PennController,15,0,experiment,NULL,PennController,14,_Header_,Start,1687287642509,5fa688e95f02862c0d459a44,5fa688e95f02862c0d459a44,12,erase,critical,E,25,erase15.jpg,erase33.jpg,high,NULL
1687287737,7408fb7cd38b9fb51886a68b6711ff85,PennController,15,0,experiment,NULL,PennController,14,_Header_,End,1687287642509,5fa688e95f02862c0d459a44,5fa688e95f02862c0d459a44,12,erase,critical,E,25,erase15.jpg,erase33.jpg,high,NULL
1687287737,7408fb7cd38b9fb51886a68b6711ff85,PennController,15,0,experiment,NULL,Video,progression,buffer,0,1687287646043,5fa688e95f02862c0d459a44,5fa688e95f02862c0d459a44,12,erase,critical,E,25,erase15.jpg,erase33.jpg,high,NULL
1687287737,7408fb7cd38b9fb51886a68b6711ff85,PennController,15,0,experiment,NULL,Canvas,canvas6,Print,NA,1687287648872,5fa688e95f02862c0d459a44,5fa688e95f02862c0d459a44,12,erase,critical,E,25,erase15.jpg,erase33.jpg,high,NULL
1687287737,7408fb7cd38b9fb51886a68b6711ff85,PennController,15,0,experiment,NULL,Selector,choice,Selection,option1,1687287652632,5fa688e95f02862c0d459a44,5fa688e95f02862c0d459a44,12,erase,critical,E,25,erase15.jpg,erase33.jpg,high,option2;option1
1687287737,7408fb7cd38b9fb51886a68b6711ff85,PennController,15,0,experiment,NULL,PennController,14,_Trial_,End,1687287652632,5fa688e95f02862c0d459a44,5fa688e95f02862c0d459a44,12,erase,critical,E,25,erase15.jpg,erase33.jpg,high,NULL
1687287737,7408fb7cd38b9fb51886a68b6711ff85,PennController,25,0,experiment,NULL,PennController,24,_Trial_,Start,1687287652633,5fa688e95f02862c0d459a44,5fa688e95f02862c0d459a44,22,wall,filler,E,50,wall40.jpg,wall60.jpg,GoalA,NULL
1687287737,7408fb7cd38b9fb51886a68b6711ff85,PennController,25,0,experiment,NULL,PennController,24,_Header_,Start,1687287652633,5fa688e95f02862c0d459a44,5fa688e95f02862c0d459a44,22,wall,filler,E,50,wall40.jpg,wall60.jpg,GoalA,NULL
1687287737,7408fb7cd38b9fb51886a68b6711ff85,PennController,25,0,experiment,NULL,PennController,24,_Header_,End,1687287652633,5fa688e95f02862c0d459a44,5fa688e95f02862c0d459a44,22,wall,filler,E,50,wall40.jpg,wall60.jpg,GoalA,NULL
1687287737,7408fb7cd38b9fb51886a68b6711ff85,PennController,25,0,experiment,NULL,Video,progression,buffer,0,1687287656162,5fa688e95f02862c0d459a44,5fa688e95f02862c0d459a44,22,wall,filler,E,50,wall40.jpg,wall60.jpg,GoalA,NULL
1687287737,7408fb7cd38b9fb51886a68b6711ff85,PennController,25,0,experiment,NULL,Canvas,canvas6,Print,NA,1687287659400,5fa688e95f02862c0d459a44,5fa688e95f02862c0d459a44,22,wall,filler,E,50,wall40.jpg,wall60.jpg,GoalA,NULL
1687287737,7408fb7cd38b9fb51886a68b6711ff85,PennController,25,0,experiment,NULL,Selector,choice,Selection,option1,1687287664159,5fa688e95f02862c0d459a44,5fa688e95f02862c0d459a44,22,wall,filler,E,50,wall40.jpg,wall60.jpg,GoalA,option1;option2
1687287737,7408fb7cd38b9fb51886a68b6711ff85,PennController,25,0,experiment,NULL,PennController,24,_Trial_,End,1687287664160,5fa688e95f02862c0d459a44,5fa688e95f02862c0d459a44,22,wall,filler,E,50,wall40.jpg,wall60.jpg,GoalA,NULL
1687287737,7408fb7cd38b9fb51886a68b6711ff85,PennController,20,0,experiment,NULL,PennController,19,_Trial_,Start,1687287664160,5fa688e95f02862c0d459a44,5fa688e95f02862c0d459a44,17,roll,critical,E,75,roll65.jpg,roll85.jpg,high,NULL
1687287737,7408fb7cd38b9fb51886a68b6711ff85,PennController,20,0,experiment,NULL,PennController,19,_Header_,Start,1687287664160,5fa688e95f02862c0d459a44,5fa688e95f02862c0d459a44,17,roll,critical,E,75,roll65.jpg,roll85.jpg,high,NULL
1687287737,7408fb7cd38b9fb51886a68b6711ff85,PennController,20,0,experiment,NULL,PennController,19,_Header_,End,1687287664160,5fa688e95f02862c0d459a44,5fa688e95f02862c0d459a44,17,roll,critical,E,75,roll65.jpg,roll85.jpg,high,NULL
1687287737,7408fb7cd38b9fb51886a68b6711ff85,PennController,20,0,experiment,NULL,Video,progression,buffer,0,1687287667691,5fa688e95f02862c0d459a44,5fa688e95f02862c0d459a44,17,roll,critical,E,75,roll65.jpg,roll85.jpg,high,NULL
1687287737,7408fb7cd38b9fb51886a68b6711ff85,PennController,20,0,experiment,NULL,Canvas,canvas6,Print,NA,1687287671921,5fa688e95f02862c0d459a44,5fa688e95f02862c0d459a44,17,roll,critical,E,75,roll65.jpg,roll85.jpg,high,NULL
1687287737,7408fb7cd38b9fb51886a68b6711ff85,PennController,20,0,experiment,NULL,Selector,choice,Selection,option1,1687287673483,5fa688e95f02862c0d459a44,5fa688e95f02862c0d459a44,17,roll,critical,E,75,roll65.jpg,roll85.jpg,high,option1;option2
1687287737,7408fb7cd38b9fb51886a68b6711ff85,PennController,20,0,experiment,NULL,PennController,19,_Trial_,End,1687287673485,5fa688e95f02862c0d459a44,5fa688e95f02862c0d459a44,17,roll,critical,E,75,roll65.jpg,roll85.jpg,high,NULL
1687287737,7408fb7cd38b9fb51886a68b6711ff85,PennController,18,0,experiment,NULL,PennController,17,_Trial_,Start,1687287673485,5fa688e95f02862c0d459a44,5fa688e95f02862c0d459a44,15,zip,critical,E,25,zip15.jpg,zip35.jpg,high,NULL
1687287737,7408fb7cd38b9fb51886a68b6711ff85,PennController,18,0,experiment,NULL,PennController,17,_Header_,Start,1687287673485,5fa688e95f02862c0d459a44,5fa688e95f02862c0d459a44,15,zip,critical,E,25,zip15.jpg,zip35.jpg,high,NULL
1687287737,7408fb7cd38b9fb51886a68b6711ff85,PennController,18,0,experiment,NULL,PennController,17,_Header_,End,1687287673485,5fa688e95f02862c0d459a44,5fa688e95f02862c0d459a44,15,zip,critical,E,25,zip15.jpg,zip35.jpg,high,NULL
1687287737,7408fb7cd38b9fb51886a68b6711ff85,PennController,18,0,experiment,NULL,Video,progression,buffer,0,1687287677014,5fa688e95f02862c0d459a44,5fa688e95f02862c0d459a44,15,zip,critical,E,25,zip15.jpg,zip35.jpg,high,NULL
1687287737,7408fb7cd38b9fb51886a68b6711ff85,PennController,18,0,experiment,NULL,Canvas,canvas6,Print,NA,1687287679243,5fa688e95f02862c0d459a44,5fa688e95f02862c0d459a44,15,zip,critical,E,25,zip15.jpg,zip35.jpg,high,NULL
1687287737,7408fb7cd38b9fb51886a68b6711ff85,PennController,18,0,experiment,NULL,Selector,choice,Selection,option1,1687287681026,5fa688e95f02862c0d459a44,5fa688e95f02862c0d459a44,15,zip,critical,E,25,zip15.jpg,zip35.jpg,high,option1;option2
1687287737,7408fb7cd38b9fb51886a68b6711ff85,PennController,18,0,experiment,NULL,PennController,17,_Trial_,End,1687287681026,5fa688e95f02862c0d459a44,5fa688e95f02862c0d459a44,15,zip,critical,E,25,zip15.jpg,zip35.jpg,high,NULL
1687287737,7408fb7cd38b9fb51886a68b6711ff85,PennController,8,0,experiment,NULL,PennController,7,_Trial_,Start,1687287681027,5fa688e95f02862c0d459a44,5fa688e95f02862c0d459a44,5,book,critical,E,75,book65.jpg,book85.jpg,high,NULL
1687287737,7408fb7cd38b9fb51886a68b6711ff85,PennController,8,0,experiment,NULL,PennController,7,_Header_,Start,1687287681027,5fa688e95f02862c0d459a44,5fa688e95f02862c0d459a44,5,book,critical,E,75,book65.jpg,book85.jpg,high,NULL
1687287737,7408fb7cd38b9fb51886a68b6711ff85,PennController,8,0,experiment,NULL,PennController,7,_Header_,End,1687287681027,5fa688e95f02862c0d459a44,5fa688e95f02862c0d459a44,5,book,critical,E,75,book65.jpg,book85.jpg,high,NULL
1687287737,7408fb7cd38b9fb51886a68b6711ff85,PennController,8,0,experiment,NULL,Video,progression,buffer,0,1687287684545,5fa688e95f02862c0d459a44,5fa688e95f02862c0d459a44,5,book,critical,E,75,book65.jpg,book85.jpg,high,NULL
1687287737,7408fb7cd38b9fb51886a68b6711ff85,PennController,8,0,experiment,NULL,Canvas,canvas6,Print,NA,1687287688776,5fa688e95f02862c0d459a44,5fa688e95f02862c0d459a44,5,book,critical,E,75,book65.jpg,book85.jpg,high,NULL
1687287737,7408fb7cd38b9fb51886a68b6711ff85,PennController,8,0,experiment,NULL,Selector,choice,Selection,option1,1687287690218,5fa688e95f02862c0d459a44,5fa688e95f02862c0d459a44,5,book,critical,E,75,book65.jpg,book85.jpg,high,option1;option2
1687287737,7408fb7cd38b9fb51886a68b6711ff85,PennController,8,0,experiment,NULL,PennController,7,_Trial_,End,1687287690218,5fa688e95f02862c0d459a44,5fa688e95f02862c0d459a44,5,book,critical,E,75,book65.jpg,book85.jpg,high,NULL
1687287737,7408fb7cd38b9fb51886a68b6711ff85,PennController,11,0,experiment,NULL,PennController,10,_Trial_,Start,1687287690219,5fa688e95f02862c0d459a44,5fa688e95f02862c0d459a44,8,cucumber,critical,E,75,cucumber66.jpg,cucumber84.jpg,high,NULL
1687287737,7408fb7cd38b9fb51886a68b6711ff85,PennController,11,0,experiment,NULL,PennController,10,_Header_,Start,1687287690219,5fa688e95f02862c0d459a44,5fa688e95f02862c0d459a44,8,cucumber,critical,E,75,cucumber66.jpg,cucumber84.jpg,high,NULL
1687287737,7408fb7cd38b9fb51886a68b6711ff85,PennController,11,0,experiment,NULL,PennController,10,_Header_,End,1687287690219,5fa688e95f02862c0d459a44,5fa688e95f02862c0d459a44,8,cucumber,critical,E,75,cucumber66.jpg,cucumber84.jpg,high,NULL
1687287737,7408fb7cd38b9fb51886a68b6711ff85,PennController,11,0,experiment,NULL,Video,progression,buffer,0,1687287693752,5fa688e95f02862c0d459a44,5fa688e95f02862c0d459a44,8,cucumber,critical,E,75,cucumber66.jpg,cucumber84.jpg,high,NULL
1687287737,7408fb7cd38b9fb51886a68b6711ff85,PennController,11,0,experiment,NULL,Canvas,canvas6,Print,NA,1687287699978,5fa688e95f02862c0d459a44,5fa688e95f02862c0d459a44,8,cucumber,critical,E,75,cucumber66.jpg,cucumber84.jpg,high,NULL
1687287737,7408fb7cd38b9fb51886a68b6711ff85,PennController,11,0,experiment,NULL,Selector,choice,Selection,option1,1687287702628,5fa688e95f02862c0d459a44,5fa688e95f02862c0d459a44,8,cucumber,critical,E,75,cucumber66.jpg,cucumber84.jpg,high,option1;option2
1687287737,7408fb7cd38b9fb51886a68b6711ff85,PennController,11,0,experiment,NULL,PennController,10,_Trial_,End,1687287702629,5fa688e95f02862c0d459a44,5fa688e95f02862c0d459a44,8,cucumber,critical,E,75,cucumber66.jpg,cucumber84.jpg,high,NULL
1687287737,7408fb7cd38b9fb51886a68b6711ff85,PennController,13,0,experiment,NULL,PennController,12,_Trial_,Start,1687287702631,5fa688e95f02862c0d459a44,5fa688e95f02862c0d459a44,10,train,critical,E,50,train40.jpg,train60.jpg,high,NULL
1687287737,7408fb7cd38b9fb51886a68b6711ff85,PennController,13,0,experiment,NULL,PennController,12,_Header_,Start,1687287702631,5fa688e95f02862c0d459a44,5fa688e95f02862c0d459a44,10,train,critical,E,50,train40.jpg,train60.jpg,high,NULL
1687287737,7408fb7cd38b9fb51886a68b6711ff85,PennController,13,0,experiment,NULL,PennController,12,_Header_,End,1687287702631,5fa688e95f02862c0d459a44,5fa688e95f02862c0d459a44,10,train,critical,E,50,train40.jpg,train60.jpg,high,NULL
1687287737,7408fb7cd38b9fb51886a68b6711ff85,PennController,13,0,experiment,NULL,Video,progression,buffer,0,1687287706171,5fa688e95f02862c0d459a44,5fa688e95f02862c0d459a44,10,train,critical,E,50,train40.jpg,train60.jpg,high,NULL
1687287737,7408fb7cd38b9fb51886a68b6711ff85,PennController,13,0,experiment,NULL,Canvas,canvas6,Print,NA,1687287709420,5fa688e95f02862c0d459a44,5fa688e95f02862c0d459a44,10,train,critical,E,50,train40.jpg,train60.jpg,high,NULL
1687287737,7408fb7cd38b9fb51886a68b6711ff85,PennController,13,0,experiment,NULL,Selector,choice,Selection,option2,1687287711436,5fa688e95f02862c0d459a44,5fa688e95f02862c0d459a44,10,train,critical,E,50,train40.jpg,train60.jpg,high,option1;option2
1687287737,7408fb7cd38b9fb51886a68b6711ff85,PennController,13,0,experiment,NULL,PennController,12,_Trial_,End,1687287711437,5fa688e95f02862c0d459a44,5fa688e95f02862c0d459a44,10,train,critical,E,50,train40.jpg,train60.jpg,high,NULL
1687287737,7408fb7cd38b9fb51886a68b6711ff85,PennController,6,0,experiment,NULL,PennController,5,_Trial_,Start,1687287711437,5fa688e95f02862c0d459a44,5fa688e95f02862c0d459a44,3,clean,critical,E,25,clean15.jpg,clean35.jpg,high,NULL
1687287737,7408fb7cd38b9fb51886a68b6711ff85,PennController,6,0,experiment,NULL,PennController,5,_Header_,Start,1687287711437,5fa688e95f02862c0d459a44,5fa688e95f02862c0d459a44,3,clean,critical,E,25,clean15.jpg,clean35.jpg,high,NULL
1687287737,7408fb7cd38b9fb51886a68b6711ff85,PennController,6,0,experiment,NULL,PennController,5,_Header_,End,1687287711437,5fa688e95f02862c0d459a44,5fa688e95f02862c0d459a44,3,clean,critical,E,25,clean15.jpg,clean35.jpg,high,NULL
1687287737,7408fb7cd38b9fb51886a68b6711ff85,PennController,6,0,experiment,NULL,Video,progression,buffer,0,1687287714965,5fa688e95f02862c0d459a44,5fa688e95f02862c0d459a44,3,clean,critical,E,25,clean15.jpg,clean35.jpg,high,NULL
1687287737,7408fb7cd38b9fb51886a68b6711ff85,PennController,6,0,experiment,NULL,Canvas,canvas6,Print,NA,1687287717199,5fa688e95f02862c0d459a44,5fa688e95f02862c0d459a44,3,clean,critical,E,25,clean15.jpg,clean35.jpg,high,NULL
1687287737,7408fb7cd38b9fb51886a68b6711ff85,PennController,6,0,experiment,NULL,Selector,choice,Selection,option1,1687287718929,5fa688e95f02862c0d459a44,5fa688e95f02862c0d459a44,3,clean,critical,E,25,clean15.jpg,clean35.jpg,high,option2;option1
1687287737,7408fb7cd38b9fb51886a68b6711ff85,PennController,6,0,experiment,NULL,PennController,5,_Trial_,End,1687287718930,5fa688e95f02862c0d459a44,5fa688e95f02862c0d459a44,3,clean,critical,E,25,clean15.jpg,clean35.jpg,high,NULL
1687287737,7408fb7cd38b9fb51886a68b6711ff85,PennController,31,0,experiment,NULL,PennController,30,_Trial_,Start,1687287718931,5fa688e95f02862c0d459a44,5fa688e95f02862c0d459a44,28,sort,filler,E,50,sort40.jpg,sort60.jpg,GoalA,NULL
1687287737,7408fb7cd38b9fb51886a68b6711ff85,PennController,31,0,experiment,NULL,PennController,30,_Header_,Start,1687287718931,5fa688e95f02862c0d459a44,5fa688e95f02862c0d459a44,28,sort,filler,E,50,sort40.jpg,sort60.jpg,GoalA,NULL
1687287737,7408fb7cd38b9fb51886a68b6711ff85,PennController,31,0,experiment,NULL,PennController,30,_Header_,End,1687287718931,5fa688e95f02862c0d459a44,5fa688e95f02862c0d459a44,28,sort,filler,E,50,sort40.jpg,sort60.jpg,GoalA,NULL
1687287737,7408fb7cd38b9fb51886a68b6711ff85,PennController,31,0,experiment,NULL,Video,progression,buffer,0,1687287722460,5fa688e95f02862c0d459a44,5fa688e95f02862c0d459a44,28,sort,filler,E,50,sort40.jpg,sort60.jpg,GoalA,NULL
1687287737,7408fb7cd38b9fb51886a68b6711ff85,PennController,31,0,experiment,NULL,Canvas,canvas6,Print,NA,1687287725697,5fa688e95f02862c0d459a44,5fa688e95f02862c0d459a44,28,sort,filler,E,50,sort40.jpg,sort60.jpg,GoalA,NULL
1687287737,7408fb7cd38b9fb51886a68b6711ff85,PennController,31,0,experiment,NULL,Selector,choice,Selection,option1,1687287728708,5fa688e95f02862c0d459a44,5fa688e95f02862c0d459a44,28,sort,filler,E,50,sort40.jpg,sort60.jpg,GoalA,option1;option2
1687287737,7408fb7cd38b9fb51886a68b6711ff85,PennController,31,0,experiment,NULL,PennController,30,_Trial_,End,1687287728708,5fa688e95f02862c0d459a44,5fa688e95f02862c0d459a44,28,sort,filler,E,50,sort40.jpg,sort60.jpg,GoalA,NULL
1687287737,7408fb7cd38b9fb51886a68b6711ff85,PennController,30,0,experiment,NULL,PennController,29,_Trial_,Start,1687287728709,5fa688e95f02862c0d459a44,5fa688e95f02862c0d459a44,27,square,filler,E,25,square15.jpg,square35.jpg,GoalB,NULL
1687287737,7408fb7cd38b9fb51886a68b6711ff85,PennController,30,0,experiment,NULL,PennController,29,_Header_,Start,1687287728709,5fa688e95f02862c0d459a44,5fa688e95f02862c0d459a44,27,square,filler,E,25,square15.jpg,square35.jpg,GoalB,NULL
1687287737,7408fb7cd38b9fb51886a68b6711ff85,PennController,30,0,experiment,NULL,PennController,29,_Header_,End,1687287728709,5fa688e95f02862c0d459a44,5fa688e95f02862c0d459a44,27,square,filler,E,25,square15.jpg,square35.jpg,GoalB,NULL
1687287737,7408fb7cd38b9fb51886a68b6711ff85,PennController,30,0,experiment,NULL,Video,progression,buffer,0,1687287732246,5fa688e95f02862c0d459a44,5fa688e95f02862c0d459a44,27,square,filler,E,25,square15.jpg,square35.jpg,GoalB,NULL
1687287737,7408fb7cd38b9fb51886a68b6711ff85,PennController,30,0,experiment,NULL,Canvas,canvas6,Print,NA,1687287734475,5fa688e95f02862c0d459a44,5fa688e95f02862c0d459a44,27,square,filler,E,25,square15.jpg,square35.jpg,GoalB,NULL
1687287737,7408fb7cd38b9fb51886a68b6711ff85,PennController,30,0,experiment,NULL,Selector,choice,Selection,option1,1687287737133,5fa688e95f02862c0d459a44,5fa688e95f02862c0d459a44,27,square,filler,E,25,square15.jpg,square35.jpg,GoalB,option1;option2
1687287737,7408fb7cd38b9fb51886a68b6711ff85,PennController,30,0,experiment,NULL,PennController,29,_Trial_,End,1687287737134,5fa688e95f02862c0d459a44,5fa688e95f02862c0d459a44,27,square,filler,E,25,square15.jpg,square35.jpg,GoalB,NULL
