#
# Results on Thursday June 22 2023 05:14:42 UTC
# USER AGENT: Mozilla/5.0 (Windows NT 10.0; Win64; x64) AppleWebKit/537.36 (KHTML, like Gecko) Chrome/114.0.0.0 Safari/537.36
# Design number was non-random = 77
#
# Columns below this comment are as follows:
# 1. Results reception time.
# 2. MD5 hash of participant's IP address.
# 3. Controller name.
# 4. Order number of item.
# 5. Inner element number.
# 6. Label.
# 7. Latin Square Group.
# 8. PennElementType.
# 9. PennElementName.
# 10. Parameter.
# 11. Value.
# 12. EventTime.
# 13. PROLIFIC_ID.
# 14. Comments.
1687410882,a345672467710615cfeea6bf896a0581,PennController,3,0,consent,NULL,PennController,0,_Trial_,Start,1687410470684,60cd29821711a41cf8d42a92,NULL
1687410882,a345672467710615cfeea6bf896a0581,PennController,3,0,consent,NULL,PennController,0,_Header_,Start,1687410470684,60cd29821711a41cf8d42a92,NULL
1687410882,a345672467710615cfeea6bf896a0581,PennController,3,0,consent,NULL,PennController,0,_Header_,End,1687410470685,60cd29821711a41cf8d42a92,NULL
1687410882,a345672467710615cfeea6bf896a0581,PennController,3,0,consent,NULL,PennController,0,_Trial_,End,1687410552049,60cd29821711a41cf8d42a92,NULL
# Columns below this comment are as follows:
# 14. ID.
# 15. Comments.
1687410882,a345672467710615cfeea6bf896a0581,PennController,4,0,intro,NULL,PennController,1,_Trial_,Start,1687410552138,60cd29821711a41cf8d42a92,60cd29821711a41cf8d42a92,NULL
1687410882,a345672467710615cfeea6bf896a0581,PennController,4,0,intro,NULL,PennController,1,_Header_,Start,1687410552139,60cd29821711a41cf8d42a92,60cd29821711a41cf8d42a92,NULL
1687410882,a345672467710615cfeea6bf896a0581,PennController,4,0,intro,NULL,PennController,1,_Header_,End,1687410552139,60cd29821711a41cf8d42a92,60cd29821711a41cf8d42a92,NULL
1687410882,a345672467710615cfeea6bf896a0581,PennController,4,0,intro,NULL,PennController,1,_Trial_,End,1687410585352,60cd29821711a41cf8d42a92,60cd29821711a41cf8d42a92,NULL
# Columns below this comment are as follows:
# 15. item_number.
# 16. item.
# 17. type.
# 18. Group.
# 19. prog.
# 20. prev_image.
# 21. next_image.
# 22. height.
# 23. Comments.
1687410882,a345672467710615cfeea6bf896a0581,PennController,20,0,experiment,NULL,PennController,18,_Trial_,Start,1687410585356,60cd29821711a41cf8d42a92,60cd29821711a41cf8d42a92,16,blinds,critical,E,50,blinds42.jpg,blinds60.jpg,high,NULL
1687410882,a345672467710615cfeea6bf896a0581,PennController,20,0,experiment,NULL,PennController,18,_Header_,Start,1687410585356,60cd29821711a41cf8d42a92,60cd29821711a41cf8d42a92,16,blinds,critical,E,50,blinds42.jpg,blinds60.jpg,high,NULL
1687410882,a345672467710615cfeea6bf896a0581,PennController,20,0,experiment,NULL,PennController,18,_Header_,End,1687410585356,60cd29821711a41cf8d42a92,60cd29821711a41cf8d42a92,16,blinds,critical,E,50,blinds42.jpg,blinds60.jpg,high,NULL
1687410882,a345672467710615cfeea6bf896a0581,PennController,20,0,experiment,NULL,Canvas,canvas6,Print,NA,1687410594428,60cd29821711a41cf8d42a92,60cd29821711a41cf8d42a92,16,blinds,critical,E,50,blinds42.jpg,blinds60.jpg,high,NULL
1687410882,a345672467710615cfeea6bf896a0581,PennController,20,0,experiment,NULL,Video,progression,buffer,0.076235,1687410589868,60cd29821711a41cf8d42a92,60cd29821711a41cf8d42a92,16,blinds,critical,E,50,blinds42.jpg,blinds60.jpg,high,NULL
1687410882,a345672467710615cfeea6bf896a0581,PennController,20,0,experiment,NULL,Selector,choice,Selection,option1,1687410600445,60cd29821711a41cf8d42a92,60cd29821711a41cf8d42a92,16,blinds,critical,E,50,blinds42.jpg,blinds60.jpg,high,option2;option1
1687410882,a345672467710615cfeea6bf896a0581,PennController,20,0,experiment,NULL,PennController,18,_Trial_,End,1687410600451,60cd29821711a41cf8d42a92,60cd29821711a41cf8d42a92,16,blinds,critical,E,50,blinds42.jpg,blinds60.jpg,high,NULL
1687410882,a345672467710615cfeea6bf896a0581,PennController,30,0,experiment,NULL,PennController,28,_Trial_,Start,1687410600458,60cd29821711a41cf8d42a92,60cd29821711a41cf8d42a92,26,sandwich,filler,E,75,sandwich65.jpg,sandwich85.jpg,GoalA,NULL
1687410882,a345672467710615cfeea6bf896a0581,PennController,30,0,experiment,NULL,PennController,28,_Header_,Start,1687410600458,60cd29821711a41cf8d42a92,60cd29821711a41cf8d42a92,26,sandwich,filler,E,75,sandwich65.jpg,sandwich85.jpg,GoalA,NULL
1687410882,a345672467710615cfeea6bf896a0581,PennController,30,0,experiment,NULL,PennController,28,_Header_,End,1687410600458,60cd29821711a41cf8d42a92,60cd29821711a41cf8d42a92,26,sandwich,filler,E,75,sandwich65.jpg,sandwich85.jpg,GoalA,NULL
1687410882,a345672467710615cfeea6bf896a0581,PennController,30,0,experiment,NULL,Canvas,canvas6,Print,NA,1687410608377,60cd29821711a41cf8d42a92,60cd29821711a41cf8d42a92,26,sandwich,filler,E,75,sandwich65.jpg,sandwich85.jpg,GoalA,NULL
1687410882,a345672467710615cfeea6bf896a0581,PennController,30,0,experiment,NULL,Video,progression,buffer,0,1687410604032,60cd29821711a41cf8d42a92,60cd29821711a41cf8d42a92,26,sandwich,filler,E,75,sandwich65.jpg,sandwich85.jpg,GoalA,NULL
1687410882,a345672467710615cfeea6bf896a0581,PennController,30,0,experiment,NULL,Selector,choice,Selection,option2,1687410610379,60cd29821711a41cf8d42a92,60cd29821711a41cf8d42a92,26,sandwich,filler,E,75,sandwich65.jpg,sandwich85.jpg,GoalA,option2;option1
1687410882,a345672467710615cfeea6bf896a0581,PennController,30,0,experiment,NULL,PennController,28,_Trial_,End,1687410610381,60cd29821711a41cf8d42a92,60cd29821711a41cf8d42a92,26,sandwich,filler,E,75,sandwich65.jpg,sandwich85.jpg,GoalA,NULL
1687410882,a345672467710615cfeea6bf896a0581,PennController,15,0,experiment,NULL,PennController,13,_Trial_,Start,1687410610384,60cd29821711a41cf8d42a92,60cd29821711a41cf8d42a92,11,beads,critical,E,75,beads65.jpg,beads85.jpg,high,NULL
1687410882,a345672467710615cfeea6bf896a0581,PennController,15,0,experiment,NULL,PennController,13,_Header_,Start,1687410610384,60cd29821711a41cf8d42a92,60cd29821711a41cf8d42a92,11,beads,critical,E,75,beads65.jpg,beads85.jpg,high,NULL
1687410882,a345672467710615cfeea6bf896a0581,PennController,15,0,experiment,NULL,PennController,13,_Header_,End,1687410610384,60cd29821711a41cf8d42a92,60cd29821711a41cf8d42a92,11,beads,critical,E,75,beads65.jpg,beads85.jpg,high,NULL
1687410882,a345672467710615cfeea6bf896a0581,PennController,15,0,experiment,NULL,Canvas,canvas6,Print,NA,1687410618114,60cd29821711a41cf8d42a92,60cd29821711a41cf8d42a92,11,beads,critical,E,75,beads65.jpg,beads85.jpg,high,NULL
1687410882,a345672467710615cfeea6bf896a0581,PennController,15,0,experiment,NULL,Video,progression,buffer,0.019461,1687410613949,60cd29821711a41cf8d42a92,60cd29821711a41cf8d42a92,11,beads,critical,E,75,beads65.jpg,beads85.jpg,high,NULL
1687410882,a345672467710615cfeea6bf896a0581,PennController,15,0,experiment,NULL,Selector,choice,Selection,option2,1687410622805,60cd29821711a41cf8d42a92,60cd29821711a41cf8d42a92,11,beads,critical,E,75,beads65.jpg,beads85.jpg,high,option2;option1
1687410882,a345672467710615cfeea6bf896a0581,PennController,15,0,experiment,NULL,PennController,13,_Trial_,End,1687410622808,60cd29821711a41cf8d42a92,60cd29821711a41cf8d42a92,11,beads,critical,E,75,beads65.jpg,beads85.jpg,high,NULL
1687410882,a345672467710615cfeea6bf896a0581,PennController,7,0,experiment,NULL,PennController,5,_Trial_,Start,1687410622812,60cd29821711a41cf8d42a92,60cd29821711a41cf8d42a92,3,clean,critical,E,25,clean15.jpg,clean35.jpg,high,NULL
1687410882,a345672467710615cfeea6bf896a0581,PennController,7,0,experiment,NULL,PennController,5,_Header_,Start,1687410622812,60cd29821711a41cf8d42a92,60cd29821711a41cf8d42a92,3,clean,critical,E,25,clean15.jpg,clean35.jpg,high,NULL
1687410882,a345672467710615cfeea6bf896a0581,PennController,7,0,experiment,NULL,PennController,5,_Header_,End,1687410622812,60cd29821711a41cf8d42a92,60cd29821711a41cf8d42a92,3,clean,critical,E,25,clean15.jpg,clean35.jpg,high,NULL
1687410882,a345672467710615cfeea6bf896a0581,PennController,7,0,experiment,NULL,Canvas,canvas6,Print,NA,1687410628593,60cd29821711a41cf8d42a92,60cd29821711a41cf8d42a92,3,clean,critical,E,25,clean15.jpg,clean35.jpg,high,NULL
1687410882,a345672467710615cfeea6bf896a0581,PennController,7,0,experiment,NULL,Video,progression,buffer,0,1687410626375,60cd29821711a41cf8d42a92,60cd29821711a41cf8d42a92,3,clean,critical,E,25,clean15.jpg,clean35.jpg,high,NULL
1687410882,a345672467710615cfeea6bf896a0581,PennController,7,0,experiment,NULL,Selector,choice,Selection,option2,1687410634589,60cd29821711a41cf8d42a92,60cd29821711a41cf8d42a92,3,clean,critical,E,25,clean15.jpg,clean35.jpg,high,option2;option1
1687410882,a345672467710615cfeea6bf896a0581,PennController,7,0,experiment,NULL,PennController,5,_Trial_,End,1687410634591,60cd29821711a41cf8d42a92,60cd29821711a41cf8d42a92,3,clean,critical,E,25,clean15.jpg,clean35.jpg,high,NULL
1687410882,a345672467710615cfeea6bf896a0581,PennController,8,0,experiment,NULL,PennController,6,_Trial_,Start,1687410634595,60cd29821711a41cf8d42a92,60cd29821711a41cf8d42a92,4,candy,critical,E,50,candy40.jpg,candy60.jpg,high,NULL
1687410882,a345672467710615cfeea6bf896a0581,PennController,8,0,experiment,NULL,PennController,6,_Header_,Start,1687410634595,60cd29821711a41cf8d42a92,60cd29821711a41cf8d42a92,4,candy,critical,E,50,candy40.jpg,candy60.jpg,high,NULL
1687410882,a345672467710615cfeea6bf896a0581,PennController,8,0,experiment,NULL,PennController,6,_Header_,End,1687410634595,60cd29821711a41cf8d42a92,60cd29821711a41cf8d42a92,4,candy,critical,E,50,candy40.jpg,candy60.jpg,high,NULL
1687410882,a345672467710615cfeea6bf896a0581,PennController,8,0,experiment,NULL,Canvas,canvas6,Print,NA,1687410641342,60cd29821711a41cf8d42a92,60cd29821711a41cf8d42a92,4,candy,critical,E,50,candy40.jpg,candy60.jpg,high,NULL
1687410882,a345672467710615cfeea6bf896a0581,PennController,8,0,experiment,NULL,Video,progression,buffer,0.017184,1687410638176,60cd29821711a41cf8d42a92,60cd29821711a41cf8d42a92,4,candy,critical,E,50,candy40.jpg,candy60.jpg,high,NULL
1687410882,a345672467710615cfeea6bf896a0581,PennController,8,0,experiment,NULL,Selector,choice,Selection,option2,1687410643151,60cd29821711a41cf8d42a92,60cd29821711a41cf8d42a92,4,candy,critical,E,50,candy40.jpg,candy60.jpg,high,option1;option2
1687410882,a345672467710615cfeea6bf896a0581,PennController,8,0,experiment,NULL,PennController,6,_Trial_,End,1687410643155,60cd29821711a41cf8d42a92,60cd29821711a41cf8d42a92,4,candy,critical,E,50,candy40.jpg,candy60.jpg,high,NULL
1687410882,a345672467710615cfeea6bf896a0581,PennController,10,0,experiment,NULL,PennController,8,_Trial_,Start,1687410643158,60cd29821711a41cf8d42a92,60cd29821711a41cf8d42a92,6,flower,critical,E,25,flower15.jpg,flower35.jpg,high,NULL
1687410882,a345672467710615cfeea6bf896a0581,PennController,10,0,experiment,NULL,PennController,8,_Header_,Start,1687410643158,60cd29821711a41cf8d42a92,60cd29821711a41cf8d42a92,6,flower,critical,E,25,flower15.jpg,flower35.jpg,high,NULL
1687410882,a345672467710615cfeea6bf896a0581,PennController,10,0,experiment,NULL,PennController,8,_Header_,End,1687410643158,60cd29821711a41cf8d42a92,60cd29821711a41cf8d42a92,6,flower,critical,E,25,flower15.jpg,flower35.jpg,high,NULL
1687410882,a345672467710615cfeea6bf896a0581,PennController,10,0,experiment,NULL,Canvas,canvas6,Print,NA,1687410648937,60cd29821711a41cf8d42a92,60cd29821711a41cf8d42a92,6,flower,critical,E,25,flower15.jpg,flower35.jpg,high,NULL
1687410882,a345672467710615cfeea6bf896a0581,PennController,10,0,experiment,NULL,Video,progression,buffer,0,1687410646726,60cd29821711a41cf8d42a92,60cd29821711a41cf8d42a92,6,flower,critical,E,25,flower15.jpg,flower35.jpg,high,NULL
1687410882,a345672467710615cfeea6bf896a0581,PennController,10,0,experiment,NULL,Selector,choice,Selection,option2,1687410652420,60cd29821711a41cf8d42a92,60cd29821711a41cf8d42a92,6,flower,critical,E,25,flower15.jpg,flower35.jpg,high,option2;option1
1687410882,a345672467710615cfeea6bf896a0581,PennController,10,0,experiment,NULL,PennController,8,_Trial_,End,1687410652423,60cd29821711a41cf8d42a92,60cd29821711a41cf8d42a92,6,flower,critical,E,25,flower15.jpg,flower35.jpg,high,NULL
1687410882,a345672467710615cfeea6bf896a0581,PennController,16,0,experiment,NULL,PennController,14,_Trial_,Start,1687410652426,60cd29821711a41cf8d42a92,60cd29821711a41cf8d42a92,12,erase,critical,E,25,erase15.jpg,erase33.jpg,high,NULL
1687410882,a345672467710615cfeea6bf896a0581,PennController,16,0,experiment,NULL,PennController,14,_Header_,Start,1687410652426,60cd29821711a41cf8d42a92,60cd29821711a41cf8d42a92,12,erase,critical,E,25,erase15.jpg,erase33.jpg,high,NULL
1687410882,a345672467710615cfeea6bf896a0581,PennController,16,0,experiment,NULL,PennController,14,_Header_,End,1687410652426,60cd29821711a41cf8d42a92,60cd29821711a41cf8d42a92,12,erase,critical,E,25,erase15.jpg,erase33.jpg,high,NULL
1687410882,a345672467710615cfeea6bf896a0581,PennController,16,0,experiment,NULL,Canvas,canvas6,Print,NA,1687410658806,60cd29821711a41cf8d42a92,60cd29821711a41cf8d42a92,12,erase,critical,E,25,erase15.jpg,erase33.jpg,high,NULL
1687410882,a345672467710615cfeea6bf896a0581,PennController,16,0,experiment,NULL,Video,progression,buffer,0,1687410655995,60cd29821711a41cf8d42a92,60cd29821711a41cf8d42a92,12,erase,critical,E,25,erase15.jpg,erase33.jpg,high,NULL
1687410882,a345672467710615cfeea6bf896a0581,PennController,16,0,experiment,NULL,Selector,choice,Selection,option2,1687410660824,60cd29821711a41cf8d42a92,60cd29821711a41cf8d42a92,12,erase,critical,E,25,erase15.jpg,erase33.jpg,high,option2;option1
1687410882,a345672467710615cfeea6bf896a0581,PennController,16,0,experiment,NULL,PennController,14,_Trial_,End,1687410660826,60cd29821711a41cf8d42a92,60cd29821711a41cf8d42a92,12,erase,critical,E,25,erase15.jpg,erase33.jpg,high,NULL
1687410882,a345672467710615cfeea6bf896a0581,PennController,29,0,experiment,NULL,PennController,27,_Trial_,Start,1687410660829,60cd29821711a41cf8d42a92,60cd29821711a41cf8d42a92,25,house,filler,E,50,house40.jpg,house60.jpg,GoalB,NULL
1687410882,a345672467710615cfeea6bf896a0581,PennController,29,0,experiment,NULL,PennController,27,_Header_,Start,1687410660829,60cd29821711a41cf8d42a92,60cd29821711a41cf8d42a92,25,house,filler,E,50,house40.jpg,house60.jpg,GoalB,NULL
1687410882,a345672467710615cfeea6bf896a0581,PennController,29,0,experiment,NULL,PennController,27,_Header_,End,1687410660829,60cd29821711a41cf8d42a92,60cd29821711a41cf8d42a92,25,house,filler,E,50,house40.jpg,house60.jpg,GoalB,NULL
1687410882,a345672467710615cfeea6bf896a0581,PennController,29,0,experiment,NULL,Canvas,canvas6,Print,NA,1687410667559,60cd29821711a41cf8d42a92,60cd29821711a41cf8d42a92,25,house,filler,E,50,house40.jpg,house60.jpg,GoalB,NULL
1687410882,a345672467710615cfeea6bf896a0581,PennController,29,0,experiment,NULL,Video,progression,buffer,0.01654,1687410664395,60cd29821711a41cf8d42a92,60cd29821711a41cf8d42a92,25,house,filler,E,50,house40.jpg,house60.jpg,GoalB,NULL
1687410882,a345672467710615cfeea6bf896a0581,PennController,29,0,experiment,NULL,Selector,choice,Selection,option2,1687410670110,60cd29821711a41cf8d42a92,60cd29821711a41cf8d42a92,25,house,filler,E,50,house40.jpg,house60.jpg,GoalB,option2;option1
1687410882,a345672467710615cfeea6bf896a0581,PennController,29,0,experiment,NULL,PennController,27,_Trial_,End,1687410670112,60cd29821711a41cf8d42a92,60cd29821711a41cf8d42a92,25,house,filler,E,50,house40.jpg,house60.jpg,GoalB,NULL
1687410882,a345672467710615cfeea6bf896a0581,PennController,28,0,experiment,NULL,PennController,26,_Trial_,Start,1687410670116,60cd29821711a41cf8d42a92,60cd29821711a41cf8d42a92,24,match,filler,E,25,match15.jpg,match35.jpg,GoalA,NULL
1687410882,a345672467710615cfeea6bf896a0581,PennController,28,0,experiment,NULL,PennController,26,_Header_,Start,1687410670116,60cd29821711a41cf8d42a92,60cd29821711a41cf8d42a92,24,match,filler,E,25,match15.jpg,match35.jpg,GoalA,NULL
1687410882,a345672467710615cfeea6bf896a0581,PennController,28,0,experiment,NULL,PennController,26,_Header_,End,1687410670116,60cd29821711a41cf8d42a92,60cd29821711a41cf8d42a92,24,match,filler,E,25,match15.jpg,match35.jpg,GoalA,NULL
1687410882,a345672467710615cfeea6bf896a0581,PennController,28,0,experiment,NULL,Canvas,canvas6,Print,NA,1687410675910,60cd29821711a41cf8d42a92,60cd29821711a41cf8d42a92,24,match,filler,E,25,match15.jpg,match35.jpg,GoalA,NULL
1687410882,a345672467710615cfeea6bf896a0581,PennController,28,0,experiment,NULL,Video,progression,buffer,0,1687410673693,60cd29821711a41cf8d42a92,60cd29821711a41cf8d42a92,24,match,filler,E,25,match15.jpg,match35.jpg,GoalA,NULL
1687410882,a345672467710615cfeea6bf896a0581,PennController,28,0,experiment,NULL,Selector,choice,Selection,option1,1687410681832,60cd29821711a41cf8d42a92,60cd29821711a41cf8d42a92,24,match,filler,E,25,match15.jpg,match35.jpg,GoalA,option2;option1
1687410882,a345672467710615cfeea6bf896a0581,PennController,28,0,experiment,NULL,PennController,26,_Trial_,End,1687410681834,60cd29821711a41cf8d42a92,60cd29821711a41cf8d42a92,24,match,filler,E,25,match15.jpg,match35.jpg,GoalA,NULL
1687410882,a345672467710615cfeea6bf896a0581,PennController,17,0,experiment,NULL,PennController,15,_Trial_,Start,1687410681838,60cd29821711a41cf8d42a92,60cd29821711a41cf8d42a92,13,mix,critical,E,50,mix40.jpg,mix60.jpg,high,NULL
1687410882,a345672467710615cfeea6bf896a0581,PennController,17,0,experiment,NULL,PennController,15,_Header_,Start,1687410681838,60cd29821711a41cf8d42a92,60cd29821711a41cf8d42a92,13,mix,critical,E,50,mix40.jpg,mix60.jpg,high,NULL
1687410882,a345672467710615cfeea6bf896a0581,PennController,17,0,experiment,NULL,PennController,15,_Header_,End,1687410681838,60cd29821711a41cf8d42a92,60cd29821711a41cf8d42a92,13,mix,critical,E,50,mix40.jpg,mix60.jpg,high,NULL
1687410882,a345672467710615cfeea6bf896a0581,PennController,17,0,experiment,NULL,Canvas,canvas6,Print,NA,1687410688576,60cd29821711a41cf8d42a92,60cd29821711a41cf8d42a92,13,mix,critical,E,50,mix40.jpg,mix60.jpg,high,NULL
1687410882,a345672467710615cfeea6bf896a0581,PennController,17,0,experiment,NULL,Video,progression,buffer,0.019708,1687410685414,60cd29821711a41cf8d42a92,60cd29821711a41cf8d42a92,13,mix,critical,E,50,mix40.jpg,mix60.jpg,high,NULL
1687410882,a345672467710615cfeea6bf896a0581,PennController,17,0,experiment,NULL,Selector,choice,Selection,option2,1687410692139,60cd29821711a41cf8d42a92,60cd29821711a41cf8d42a92,13,mix,critical,E,50,mix40.jpg,mix60.jpg,high,option1;option2
1687410882,a345672467710615cfeea6bf896a0581,PennController,17,0,experiment,NULL,PennController,15,_Trial_,End,1687410692141,60cd29821711a41cf8d42a92,60cd29821711a41cf8d42a92,13,mix,critical,E,50,mix40.jpg,mix60.jpg,high,NULL
1687410882,a345672467710615cfeea6bf896a0581,PennController,18,0,experiment,NULL,PennController,16,_Trial_,Start,1687410692146,60cd29821711a41cf8d42a92,60cd29821711a41cf8d42a92,14,cover,critical,E,75,cover66.jpg,cover84.jpg,high,NULL
1687410882,a345672467710615cfeea6bf896a0581,PennController,18,0,experiment,NULL,PennController,16,_Header_,Start,1687410692146,60cd29821711a41cf8d42a92,60cd29821711a41cf8d42a92,14,cover,critical,E,75,cover66.jpg,cover84.jpg,high,NULL
1687410882,a345672467710615cfeea6bf896a0581,PennController,18,0,experiment,NULL,PennController,16,_Header_,End,1687410692146,60cd29821711a41cf8d42a92,60cd29821711a41cf8d42a92,14,cover,critical,E,75,cover66.jpg,cover84.jpg,high,NULL
1687410882,a345672467710615cfeea6bf896a0581,PennController,18,0,experiment,NULL,Canvas,canvas6,Print,NA,1687410701873,60cd29821711a41cf8d42a92,60cd29821711a41cf8d42a92,14,cover,critical,E,75,cover66.jpg,cover84.jpg,high,NULL
1687410882,a345672467710615cfeea6bf896a0581,PennController,18,0,experiment,NULL,Video,progression,buffer,0.018125,1687410695715,60cd29821711a41cf8d42a92,60cd29821711a41cf8d42a92,14,cover,critical,E,75,cover66.jpg,cover84.jpg,high,NULL
1687410882,a345672467710615cfeea6bf896a0581,PennController,18,0,experiment,NULL,Selector,choice,Selection,option1,1687410703742,60cd29821711a41cf8d42a92,60cd29821711a41cf8d42a92,14,cover,critical,E,75,cover66.jpg,cover84.jpg,high,option2;option1
1687410882,a345672467710615cfeea6bf896a0581,PennController,18,0,experiment,NULL,PennController,16,_Trial_,End,1687410703744,60cd29821711a41cf8d42a92,60cd29821711a41cf8d42a92,14,cover,critical,E,75,cover66.jpg,cover84.jpg,high,NULL
1687410882,a345672467710615cfeea6bf896a0581,PennController,14,0,experiment,NULL,PennController,12,_Trial_,Start,1687410703746,60cd29821711a41cf8d42a92,60cd29821711a41cf8d42a92,10,train,critical,E,50,train40.jpg,train60.jpg,high,NULL
1687410882,a345672467710615cfeea6bf896a0581,PennController,14,0,experiment,NULL,PennController,12,_Header_,Start,1687410703746,60cd29821711a41cf8d42a92,60cd29821711a41cf8d42a92,10,train,critical,E,50,train40.jpg,train60.jpg,high,NULL
1687410882,a345672467710615cfeea6bf896a0581,PennController,14,0,experiment,NULL,PennController,12,_Header_,End,1687410703746,60cd29821711a41cf8d42a92,60cd29821711a41cf8d42a92,10,train,critical,E,50,train40.jpg,train60.jpg,high,NULL
1687410882,a345672467710615cfeea6bf896a0581,PennController,14,0,experiment,NULL,Canvas,canvas6,Print,NA,1687410710472,60cd29821711a41cf8d42a92,60cd29821711a41cf8d42a92,10,train,critical,E,50,train40.jpg,train60.jpg,high,NULL
1687410882,a345672467710615cfeea6bf896a0581,PennController,14,0,experiment,NULL,Video,progression,buffer,0.006403,1687410707304,60cd29821711a41cf8d42a92,60cd29821711a41cf8d42a92,10,train,critical,E,50,train40.jpg,train60.jpg,high,NULL
1687410882,a345672467710615cfeea6bf896a0581,PennController,14,0,experiment,NULL,Selector,choice,Selection,option2,1687410714056,60cd29821711a41cf8d42a92,60cd29821711a41cf8d42a92,10,train,critical,E,50,train40.jpg,train60.jpg,high,option1;option2
1687410882,a345672467710615cfeea6bf896a0581,PennController,14,0,experiment,NULL,PennController,12,_Trial_,End,1687410714059,60cd29821711a41cf8d42a92,60cd29821711a41cf8d42a92,10,train,critical,E,50,train40.jpg,train60.jpg,high,NULL
1687410882,a345672467710615cfeea6bf896a0581,PennController,6,0,experiment,NULL,PennController,4,_Trial_,Start,1687410714062,60cd29821711a41cf8d42a92,60cd29821711a41cf8d42a92,2,door,critical,E,75,door65.jpg,door85.jpg,high,NULL
1687410882,a345672467710615cfeea6bf896a0581,PennController,6,0,experiment,NULL,PennController,4,_Header_,Start,1687410714062,60cd29821711a41cf8d42a92,60cd29821711a41cf8d42a92,2,door,critical,E,75,door65.jpg,door85.jpg,high,NULL
1687410882,a345672467710615cfeea6bf896a0581,PennController,6,0,experiment,NULL,PennController,4,_Header_,End,1687410714062,60cd29821711a41cf8d42a92,60cd29821711a41cf8d42a92,2,door,critical,E,75,door65.jpg,door85.jpg,high,NULL
1687410882,a345672467710615cfeea6bf896a0581,PennController,6,0,experiment,NULL,Canvas,canvas6,Print,NA,1687410721807,60cd29821711a41cf8d42a92,60cd29821711a41cf8d42a92,2,door,critical,E,75,door65.jpg,door85.jpg,high,NULL
1687410882,a345672467710615cfeea6bf896a0581,PennController,6,0,experiment,NULL,Video,progression,buffer,0.015634,1687410717618,60cd29821711a41cf8d42a92,60cd29821711a41cf8d42a92,2,door,critical,E,75,door65.jpg,door85.jpg,high,NULL
1687410882,a345672467710615cfeea6bf896a0581,PennController,6,0,experiment,NULL,Selector,choice,Selection,option1,1687410726149,60cd29821711a41cf8d42a92,60cd29821711a41cf8d42a92,2,door,critical,E,75,door65.jpg,door85.jpg,high,option2;option1
1687410882,a345672467710615cfeea6bf896a0581,PennController,6,0,experiment,NULL,PennController,4,_Trial_,End,1687410726152,60cd29821711a41cf8d42a92,60cd29821711a41cf8d42a92,2,door,critical,E,75,door65.jpg,door85.jpg,high,NULL
1687410882,a345672467710615cfeea6bf896a0581,PennController,33,0,experiment,NULL,PennController,31,_Trial_,Start,1687410726155,60cd29821711a41cf8d42a92,60cd29821711a41cf8d42a92,29,frog,filler,E,75,frog65.jpg,frog85.jpg,GoalB,NULL
1687410882,a345672467710615cfeea6bf896a0581,PennController,33,0,experiment,NULL,PennController,31,_Header_,Start,1687410726155,60cd29821711a41cf8d42a92,60cd29821711a41cf8d42a92,29,frog,filler,E,75,frog65.jpg,frog85.jpg,GoalB,NULL
1687410882,a345672467710615cfeea6bf896a0581,PennController,33,0,experiment,NULL,PennController,31,_Header_,End,1687410726155,60cd29821711a41cf8d42a92,60cd29821711a41cf8d42a92,29,frog,filler,E,75,frog65.jpg,frog85.jpg,GoalB,NULL
1687410882,a345672467710615cfeea6bf896a0581,PennController,33,0,experiment,NULL,Canvas,canvas6,Print,NA,1687410733867,60cd29821711a41cf8d42a92,60cd29821711a41cf8d42a92,29,frog,filler,E,75,frog65.jpg,frog85.jpg,GoalB,NULL
1687410882,a345672467710615cfeea6bf896a0581,PennController,33,0,experiment,NULL,Video,progression,buffer,0.008569,1687410729696,60cd29821711a41cf8d42a92,60cd29821711a41cf8d42a92,29,frog,filler,E,75,frog65.jpg,frog85.jpg,GoalB,NULL
1687410882,a345672467710615cfeea6bf896a0581,PennController,33,0,experiment,NULL,Selector,choice,Selection,option2,1687410736489,60cd29821711a41cf8d42a92,60cd29821711a41cf8d42a92,29,frog,filler,E,75,frog65.jpg,frog85.jpg,GoalB,option2;option1
1687410882,a345672467710615cfeea6bf896a0581,PennController,33,0,experiment,NULL,PennController,31,_Trial_,End,1687410736491,60cd29821711a41cf8d42a92,60cd29821711a41cf8d42a92,29,frog,filler,E,75,frog65.jpg,frog85.jpg,GoalB,NULL
1687410882,a345672467710615cfeea6bf896a0581,PennController,22,0,experiment,NULL,PennController,20,_Trial_,Start,1687410736495,60cd29821711a41cf8d42a92,60cd29821711a41cf8d42a92,18,ball,critical,E,25,ball15.jpg,ball35.jpg,high,NULL
1687410882,a345672467710615cfeea6bf896a0581,PennController,22,0,experiment,NULL,PennController,20,_Header_,Start,1687410736495,60cd29821711a41cf8d42a92,60cd29821711a41cf8d42a92,18,ball,critical,E,25,ball15.jpg,ball35.jpg,high,NULL
1687410882,a345672467710615cfeea6bf896a0581,PennController,22,0,experiment,NULL,PennController,20,_Header_,End,1687410736495,60cd29821711a41cf8d42a92,60cd29821711a41cf8d42a92,18,ball,critical,E,25,ball15.jpg,ball35.jpg,high,NULL
1687410882,a345672467710615cfeea6bf896a0581,PennController,22,0,experiment,NULL,Canvas,canvas6,Print,NA,1687410742201,60cd29821711a41cf8d42a92,60cd29821711a41cf8d42a92,18,ball,critical,E,25,ball15.jpg,ball35.jpg,high,NULL
1687410882,a345672467710615cfeea6bf896a0581,PennController,22,0,experiment,NULL,Video,progression,buffer,0.010243,1687410740038,60cd29821711a41cf8d42a92,60cd29821711a41cf8d42a92,18,ball,critical,E,25,ball15.jpg,ball35.jpg,high,NULL
1687410882,a345672467710615cfeea6bf896a0581,PennController,22,0,experiment,NULL,Selector,choice,Selection,option1,1687410744597,60cd29821711a41cf8d42a92,60cd29821711a41cf8d42a92,18,ball,critical,E,25,ball15.jpg,ball35.jpg,high,option1;option2
1687410882,a345672467710615cfeea6bf896a0581,PennController,22,0,experiment,NULL,PennController,20,_Trial_,End,1687410744599,60cd29821711a41cf8d42a92,60cd29821711a41cf8d42a92,18,ball,critical,E,25,ball15.jpg,ball35.jpg,high,NULL
1687410882,a345672467710615cfeea6bf896a0581,PennController,23,0,experiment,NULL,PennController,21,_Trial_,Start,1687410744602,60cd29821711a41cf8d42a92,60cd29821711a41cf8d42a92,19,cup,filler,E,50,cup40.jpg,cup60.jpg,GoalB,NULL
1687410882,a345672467710615cfeea6bf896a0581,PennController,23,0,experiment,NULL,PennController,21,_Header_,Start,1687410744602,60cd29821711a41cf8d42a92,60cd29821711a41cf8d42a92,19,cup,filler,E,50,cup40.jpg,cup60.jpg,GoalB,NULL
1687410882,a345672467710615cfeea6bf896a0581,PennController,23,0,experiment,NULL,PennController,21,_Header_,End,1687410744602,60cd29821711a41cf8d42a92,60cd29821711a41cf8d42a92,19,cup,filler,E,50,cup40.jpg,cup60.jpg,GoalB,NULL
1687410882,a345672467710615cfeea6bf896a0581,PennController,23,0,experiment,NULL,Canvas,canvas6,Print,NA,1687410751318,60cd29821711a41cf8d42a92,60cd29821711a41cf8d42a92,19,cup,filler,E,50,cup40.jpg,cup60.jpg,GoalB,NULL
1687410882,a345672467710615cfeea6bf896a0581,PennController,23,0,experiment,NULL,Video,progression,buffer,0.011244,1687410748148,60cd29821711a41cf8d42a92,60cd29821711a41cf8d42a92,19,cup,filler,E,50,cup40.jpg,cup60.jpg,GoalB,NULL
1687410882,a345672467710615cfeea6bf896a0581,PennController,23,0,experiment,NULL,Selector,choice,Selection,option1,1687410754551,60cd29821711a41cf8d42a92,60cd29821711a41cf8d42a92,19,cup,filler,E,50,cup40.jpg,cup60.jpg,GoalB,option2;option1
1687410882,a345672467710615cfeea6bf896a0581,PennController,23,0,experiment,NULL,PennController,21,_Trial_,End,1687410754553,60cd29821711a41cf8d42a92,60cd29821711a41cf8d42a92,19,cup,filler,E,50,cup40.jpg,cup60.jpg,GoalB,NULL
1687410882,a345672467710615cfeea6bf896a0581,PennController,9,0,experiment,NULL,PennController,7,_Trial_,Start,1687410754555,60cd29821711a41cf8d42a92,60cd29821711a41cf8d42a92,5,book,critical,E,75,book65.jpg,book85.jpg,high,NULL
1687410882,a345672467710615cfeea6bf896a0581,PennController,9,0,experiment,NULL,PennController,7,_Header_,Start,1687410754555,60cd29821711a41cf8d42a92,60cd29821711a41cf8d42a92,5,book,critical,E,75,book65.jpg,book85.jpg,high,NULL
1687410882,a345672467710615cfeea6bf896a0581,PennController,9,0,experiment,NULL,PennController,7,_Header_,End,1687410754555,60cd29821711a41cf8d42a92,60cd29821711a41cf8d42a92,5,book,critical,E,75,book65.jpg,book85.jpg,high,NULL
1687410882,a345672467710615cfeea6bf896a0581,PennController,9,0,experiment,NULL,Canvas,canvas6,Print,NA,1687410762277,60cd29821711a41cf8d42a92,60cd29821711a41cf8d42a92,5,book,critical,E,75,book65.jpg,book85.jpg,high,NULL
1687410882,a345672467710615cfeea6bf896a0581,PennController,9,0,experiment,NULL,Video,progression,buffer,0.016084,1687410758105,60cd29821711a41cf8d42a92,60cd29821711a41cf8d42a92,5,book,critical,E,75,book65.jpg,book85.jpg,high,NULL
1687410882,a345672467710615cfeea6bf896a0581,PennController,9,0,experiment,NULL,Selector,choice,Selection,option1,1687410764641,60cd29821711a41cf8d42a92,60cd29821711a41cf8d42a92,5,book,critical,E,75,book65.jpg,book85.jpg,high,option1;option2
1687410882,a345672467710615cfeea6bf896a0581,PennController,9,0,experiment,NULL,PennController,7,_Trial_,End,1687410764643,60cd29821711a41cf8d42a92,60cd29821711a41cf8d42a92,5,book,critical,E,75,book65.jpg,book85.jpg,high,NULL
1687410882,a345672467710615cfeea6bf896a0581,PennController,24,0,experiment,NULL,PennController,22,_Trial_,Start,1687410764646,60cd29821711a41cf8d42a92,60cd29821711a41cf8d42a92,20,cat,filler,E,75,cat65.jpg,cat85.jpg,GoalA,NULL
1687410882,a345672467710615cfeea6bf896a0581,PennController,24,0,experiment,NULL,PennController,22,_Header_,Start,1687410764646,60cd29821711a41cf8d42a92,60cd29821711a41cf8d42a92,20,cat,filler,E,75,cat65.jpg,cat85.jpg,GoalA,NULL
1687410882,a345672467710615cfeea6bf896a0581,PennController,24,0,experiment,NULL,PennController,22,_Header_,End,1687410764646,60cd29821711a41cf8d42a92,60cd29821711a41cf8d42a92,20,cat,filler,E,75,cat65.jpg,cat85.jpg,GoalA,NULL
1687410882,a345672467710615cfeea6bf896a0581,PennController,24,0,experiment,NULL,Canvas,canvas6,Print,NA,1687410772410,60cd29821711a41cf8d42a92,60cd29821711a41cf8d42a92,20,cat,filler,E,75,cat65.jpg,cat85.jpg,GoalA,NULL
1687410882,a345672467710615cfeea6bf896a0581,PennController,24,0,experiment,NULL,Video,progression,buffer,0,1687410768199,60cd29821711a41cf8d42a92,60cd29821711a41cf8d42a92,20,cat,filler,E,75,cat65.jpg,cat85.jpg,GoalA,NULL
1687410882,a345672467710615cfeea6bf896a0581,PennController,24,0,experiment,NULL,Selector,choice,Selection,option2,1687410774709,60cd29821711a41cf8d42a92,60cd29821711a41cf8d42a92,20,cat,filler,E,75,cat65.jpg,cat85.jpg,GoalA,option2;option1
1687410882,a345672467710615cfeea6bf896a0581,PennController,24,0,experiment,NULL,PennController,22,_Trial_,End,1687410774711,60cd29821711a41cf8d42a92,60cd29821711a41cf8d42a92,20,cat,filler,E,75,cat65.jpg,cat85.jpg,GoalA,NULL
1687410882,a345672467710615cfeea6bf896a0581,PennController,13,0,experiment,NULL,PennController,11,_Trial_,Start,1687410774713,60cd29821711a41cf8d42a92,60cd29821711a41cf8d42a92,9,cake,critical,E,25,cake15.jpg,cake33.jpg,high,NULL
1687410882,a345672467710615cfeea6bf896a0581,PennController,13,0,experiment,NULL,PennController,11,_Header_,Start,1687410774713,60cd29821711a41cf8d42a92,60cd29821711a41cf8d42a92,9,cake,critical,E,25,cake15.jpg,cake33.jpg,high,NULL
1687410882,a345672467710615cfeea6bf896a0581,PennController,13,0,experiment,NULL,PennController,11,_Header_,End,1687410774713,60cd29821711a41cf8d42a92,60cd29821711a41cf8d42a92,9,cake,critical,E,25,cake15.jpg,cake33.jpg,high,NULL
1687410882,a345672467710615cfeea6bf896a0581,PennController,13,0,experiment,NULL,Canvas,canvas6,Print,NA,1687410781028,60cd29821711a41cf8d42a92,60cd29821711a41cf8d42a92,9,cake,critical,E,25,cake15.jpg,cake33.jpg,high,NULL
1687410882,a345672467710615cfeea6bf896a0581,PennController,13,0,experiment,NULL,Video,progression,buffer,0.013213,1687410778253,60cd29821711a41cf8d42a92,60cd29821711a41cf8d42a92,9,cake,critical,E,25,cake15.jpg,cake33.jpg,high,NULL
1687410882,a345672467710615cfeea6bf896a0581,PennController,13,0,experiment,NULL,Selector,choice,Selection,option2,1687410782822,60cd29821711a41cf8d42a92,60cd29821711a41cf8d42a92,9,cake,critical,E,25,cake15.jpg,cake33.jpg,high,option2;option1
1687410882,a345672467710615cfeea6bf896a0581,PennController,13,0,experiment,NULL,PennController,11,_Trial_,End,1687410782824,60cd29821711a41cf8d42a92,60cd29821711a41cf8d42a92,9,cake,critical,E,25,cake15.jpg,cake33.jpg,high,NULL
1687410882,a345672467710615cfeea6bf896a0581,PennController,21,0,experiment,NULL,PennController,19,_Trial_,Start,1687410782826,60cd29821711a41cf8d42a92,60cd29821711a41cf8d42a92,17,roll,critical,E,75,roll65.jpg,roll85.jpg,high,NULL
1687410882,a345672467710615cfeea6bf896a0581,PennController,21,0,experiment,NULL,PennController,19,_Header_,Start,1687410782826,60cd29821711a41cf8d42a92,60cd29821711a41cf8d42a92,17,roll,critical,E,75,roll65.jpg,roll85.jpg,high,NULL
1687410882,a345672467710615cfeea6bf896a0581,PennController,21,0,experiment,NULL,PennController,19,_Header_,End,1687410782826,60cd29821711a41cf8d42a92,60cd29821711a41cf8d42a92,17,roll,critical,E,75,roll65.jpg,roll85.jpg,high,NULL
1687410882,a345672467710615cfeea6bf896a0581,PennController,21,0,experiment,NULL,Canvas,canvas6,Print,NA,1687410790540,60cd29821711a41cf8d42a92,60cd29821711a41cf8d42a92,17,roll,critical,E,75,roll65.jpg,roll85.jpg,high,NULL
1687410882,a345672467710615cfeea6bf896a0581,PennController,21,0,experiment,NULL,Video,progression,buffer,0.013169,1687410786367,60cd29821711a41cf8d42a92,60cd29821711a41cf8d42a92,17,roll,critical,E,75,roll65.jpg,roll85.jpg,high,NULL
1687410882,a345672467710615cfeea6bf896a0581,PennController,21,0,experiment,NULL,Selector,choice,Selection,option1,1687410794140,60cd29821711a41cf8d42a92,60cd29821711a41cf8d42a92,17,roll,critical,E,75,roll65.jpg,roll85.jpg,high,option1;option2
1687410882,a345672467710615cfeea6bf896a0581,PennController,21,0,experiment,NULL,PennController,19,_Trial_,End,1687410794142,60cd29821711a41cf8d42a92,60cd29821711a41cf8d42a92,17,roll,critical,E,75,roll65.jpg,roll85.jpg,high,NULL
1687410882,a345672467710615cfeea6bf896a0581,PennController,32,0,experiment,NULL,PennController,30,_Trial_,Start,1687410794145,60cd29821711a41cf8d42a92,60cd29821711a41cf8d42a92,28,sort,filler,E,50,sort40.jpg,sort60.jpg,GoalA,NULL
1687410882,a345672467710615cfeea6bf896a0581,PennController,32,0,experiment,NULL,PennController,30,_Header_,Start,1687410794145,60cd29821711a41cf8d42a92,60cd29821711a41cf8d42a92,28,sort,filler,E,50,sort40.jpg,sort60.jpg,GoalA,NULL
1687410882,a345672467710615cfeea6bf896a0581,PennController,32,0,experiment,NULL,PennController,30,_Header_,End,1687410794145,60cd29821711a41cf8d42a92,60cd29821711a41cf8d42a92,28,sort,filler,E,50,sort40.jpg,sort60.jpg,GoalA,NULL
1687410882,a345672467710615cfeea6bf896a0581,PennController,32,0,experiment,NULL,Canvas,canvas6,Print,NA,1687410800858,60cd29821711a41cf8d42a92,60cd29821711a41cf8d42a92,28,sort,filler,E,50,sort40.jpg,sort60.jpg,GoalA,NULL
1687410882,a345672467710615cfeea6bf896a0581,PennController,32,0,experiment,NULL,Video,progression,buffer,0.021686,1687410797702,60cd29821711a41cf8d42a92,60cd29821711a41cf8d42a92,28,sort,filler,E,50,sort40.jpg,sort60.jpg,GoalA,NULL
1687410882,a345672467710615cfeea6bf896a0581,PennController,32,0,experiment,NULL,Selector,choice,Selection,option2,1687410804013,60cd29821711a41cf8d42a92,60cd29821711a41cf8d42a92,28,sort,filler,E,50,sort40.jpg,sort60.jpg,GoalA,option2;option1
1687410882,a345672467710615cfeea6bf896a0581,PennController,32,0,experiment,NULL,PennController,30,_Trial_,End,1687410804015,60cd29821711a41cf8d42a92,60cd29821711a41cf8d42a92,28,sort,filler,E,50,sort40.jpg,sort60.jpg,GoalA,NULL
1687410882,a345672467710615cfeea6bf896a0581,PennController,26,0,experiment,NULL,PennController,24,_Trial_,Start,1687410804017,60cd29821711a41cf8d42a92,60cd29821711a41cf8d42a92,22,wall,filler,E,50,wall40.jpg,wall60.jpg,GoalA,NULL
1687410882,a345672467710615cfeea6bf896a0581,PennController,26,0,experiment,NULL,PennController,24,_Header_,Start,1687410804017,60cd29821711a41cf8d42a92,60cd29821711a41cf8d42a92,22,wall,filler,E,50,wall40.jpg,wall60.jpg,GoalA,NULL
1687410882,a345672467710615cfeea6bf896a0581,PennController,26,0,experiment,NULL,PennController,24,_Header_,End,1687410804017,60cd29821711a41cf8d42a92,60cd29821711a41cf8d42a92,22,wall,filler,E,50,wall40.jpg,wall60.jpg,GoalA,NULL
1687410882,a345672467710615cfeea6bf896a0581,PennController,26,0,experiment,NULL,Canvas,canvas6,Print,NA,1687410810754,60cd29821711a41cf8d42a92,60cd29821711a41cf8d42a92,22,wall,filler,E,50,wall40.jpg,wall60.jpg,GoalA,NULL
1687410882,a345672467710615cfeea6bf896a0581,PennController,26,0,experiment,NULL,Video,progression,buffer,0,1687410807556,60cd29821711a41cf8d42a92,60cd29821711a41cf8d42a92,22,wall,filler,E,50,wall40.jpg,wall60.jpg,GoalA,NULL
1687410882,a345672467710615cfeea6bf896a0581,PennController,26,0,experiment,NULL,Selector,choice,Selection,option2,1687410812691,60cd29821711a41cf8d42a92,60cd29821711a41cf8d42a92,22,wall,filler,E,50,wall40.jpg,wall60.jpg,GoalA,option1;option2
1687410882,a345672467710615cfeea6bf896a0581,PennController,26,0,experiment,NULL,PennController,24,_Trial_,End,1687410812692,60cd29821711a41cf8d42a92,60cd29821711a41cf8d42a92,22,wall,filler,E,50,wall40.jpg,wall60.jpg,GoalA,NULL
1687410882,a345672467710615cfeea6bf896a0581,PennController,31,0,experiment,NULL,PennController,29,_Trial_,Start,1687410812696,60cd29821711a41cf8d42a92,60cd29821711a41cf8d42a92,27,square,filler,E,25,square15.jpg,square35.jpg,GoalB,NULL
1687410882,a345672467710615cfeea6bf896a0581,PennController,31,0,experiment,NULL,PennController,29,_Header_,Start,1687410812696,60cd29821711a41cf8d42a92,60cd29821711a41cf8d42a92,27,square,filler,E,25,square15.jpg,square35.jpg,GoalB,NULL
1687410882,a345672467710615cfeea6bf896a0581,PennController,31,0,experiment,NULL,PennController,29,_Header_,End,1687410812696,60cd29821711a41cf8d42a92,60cd29821711a41cf8d42a92,27,square,filler,E,25,square15.jpg,square35.jpg,GoalB,NULL
1687410882,a345672467710615cfeea6bf896a0581,PennController,31,0,experiment,NULL,Canvas,canvas6,Print,NA,1687410818452,60cd29821711a41cf8d42a92,60cd29821711a41cf8d42a92,27,square,filler,E,25,square15.jpg,square35.jpg,GoalB,NULL
1687410882,a345672467710615cfeea6bf896a0581,PennController,31,0,experiment,NULL,Video,progression,buffer,0,1687410816255,60cd29821711a41cf8d42a92,60cd29821711a41cf8d42a92,27,square,filler,E,25,square15.jpg,square35.jpg,GoalB,NULL
1687410882,a345672467710615cfeea6bf896a0581,PennController,31,0,experiment,NULL,Selector,choice,Selection,option2,1687410820655,60cd29821711a41cf8d42a92,60cd29821711a41cf8d42a92,27,square,filler,E,25,square15.jpg,square35.jpg,GoalB,option2;option1
1687410882,a345672467710615cfeea6bf896a0581,PennController,31,0,experiment,NULL,PennController,29,_Trial_,End,1687410820657,60cd29821711a41cf8d42a92,60cd29821711a41cf8d42a92,27,square,filler,E,25,square15.jpg,square35.jpg,GoalB,NULL
1687410882,a345672467710615cfeea6bf896a0581,PennController,11,0,experiment,NULL,PennController,9,_Trial_,Start,1687410820660,60cd29821711a41cf8d42a92,60cd29821711a41cf8d42a92,7,stack,critical,E,50,stack40.jpg,stack60.jpg,high,NULL
1687410882,a345672467710615cfeea6bf896a0581,PennController,11,0,experiment,NULL,PennController,9,_Header_,Start,1687410820660,60cd29821711a41cf8d42a92,60cd29821711a41cf8d42a92,7,stack,critical,E,50,stack40.jpg,stack60.jpg,high,NULL
1687410882,a345672467710615cfeea6bf896a0581,PennController,11,0,experiment,NULL,PennController,9,_Header_,End,1687410820660,60cd29821711a41cf8d42a92,60cd29821711a41cf8d42a92,7,stack,critical,E,50,stack40.jpg,stack60.jpg,high,NULL
1687410882,a345672467710615cfeea6bf896a0581,PennController,11,0,experiment,NULL,Canvas,canvas6,Print,NA,1687410827410,60cd29821711a41cf8d42a92,60cd29821711a41cf8d42a92,7,stack,critical,E,50,stack40.jpg,stack60.jpg,high,NULL
1687410882,a345672467710615cfeea6bf896a0581,PennController,11,0,experiment,NULL,Video,progression,buffer,0,1687410824208,60cd29821711a41cf8d42a92,60cd29821711a41cf8d42a92,7,stack,critical,E,50,stack40.jpg,stack60.jpg,high,NULL
1687410882,a345672467710615cfeea6bf896a0581,PennController,11,0,experiment,NULL,Selector,choice,Selection,option1,1687410833072,60cd29821711a41cf8d42a92,60cd29821711a41cf8d42a92,7,stack,critical,E,50,stack40.jpg,stack60.jpg,high,option2;option1
1687410882,a345672467710615cfeea6bf896a0581,PennController,11,0,experiment,NULL,PennController,9,_Trial_,End,1687410833074,60cd29821711a41cf8d42a92,60cd29821711a41cf8d42a92,7,stack,critical,E,50,stack40.jpg,stack60.jpg,high,NULL
1687410882,a345672467710615cfeea6bf896a0581,PennController,12,0,experiment,NULL,PennController,10,_Trial_,Start,1687410833076,60cd29821711a41cf8d42a92,60cd29821711a41cf8d42a92,8,cucumber,critical,E,75,cucumber66.jpg,cucumber84.jpg,high,NULL
1687410882,a345672467710615cfeea6bf896a0581,PennController,12,0,experiment,NULL,PennController,10,_Header_,Start,1687410833076,60cd29821711a41cf8d42a92,60cd29821711a41cf8d42a92,8,cucumber,critical,E,75,cucumber66.jpg,cucumber84.jpg,high,NULL
1687410882,a345672467710615cfeea6bf896a0581,PennController,12,0,experiment,NULL,PennController,10,_Header_,End,1687410833076,60cd29821711a41cf8d42a92,60cd29821711a41cf8d42a92,8,cucumber,critical,E,75,cucumber66.jpg,cucumber84.jpg,high,NULL
1687410882,a345672467710615cfeea6bf896a0581,PennController,12,0,experiment,NULL,Canvas,canvas6,Print,NA,1687410842801,60cd29821711a41cf8d42a92,60cd29821711a41cf8d42a92,8,cucumber,critical,E,75,cucumber66.jpg,cucumber84.jpg,high,NULL
1687410882,a345672467710615cfeea6bf896a0581,PennController,12,0,experiment,NULL,Video,progression,buffer,0,1687410836618,60cd29821711a41cf8d42a92,60cd29821711a41cf8d42a92,8,cucumber,critical,E,75,cucumber66.jpg,cucumber84.jpg,high,NULL
1687410882,a345672467710615cfeea6bf896a0581,PennController,12,0,experiment,NULL,Selector,choice,Selection,option2,1687410848124,60cd29821711a41cf8d42a92,60cd29821711a41cf8d42a92,8,cucumber,critical,E,75,cucumber66.jpg,cucumber84.jpg,high,option2;option1
1687410882,a345672467710615cfeea6bf896a0581,PennController,12,0,experiment,NULL,PennController,10,_Trial_,End,1687410848126,60cd29821711a41cf8d42a92,60cd29821711a41cf8d42a92,8,cucumber,critical,E,75,cucumber66.jpg,cucumber84.jpg,high,NULL
1687410882,a345672467710615cfeea6bf896a0581,PennController,5,0,experiment,NULL,PennController,3,_Trial_,Start,1687410848128,60cd29821711a41cf8d42a92,60cd29821711a41cf8d42a92,1,vase,critical,E,50,vase40.jpg,vase60.jpg,high,NULL
1687410882,a345672467710615cfeea6bf896a0581,PennController,5,0,experiment,NULL,PennController,3,_Header_,Start,1687410848128,60cd29821711a41cf8d42a92,60cd29821711a41cf8d42a92,1,vase,critical,E,50,vase40.jpg,vase60.jpg,high,NULL
1687410882,a345672467710615cfeea6bf896a0581,PennController,5,0,experiment,NULL,PennController,3,_Header_,End,1687410848128,60cd29821711a41cf8d42a92,60cd29821711a41cf8d42a92,1,vase,critical,E,50,vase40.jpg,vase60.jpg,high,NULL
1687410882,a345672467710615cfeea6bf896a0581,PennController,5,0,experiment,NULL,Canvas,canvas6,Print,NA,1687410854889,60cd29821711a41cf8d42a92,60cd29821711a41cf8d42a92,1,vase,critical,E,50,vase40.jpg,vase60.jpg,high,NULL
1687410882,a345672467710615cfeea6bf896a0581,PennController,5,0,experiment,NULL,Video,progression,buffer,0,1687410851678,60cd29821711a41cf8d42a92,60cd29821711a41cf8d42a92,1,vase,critical,E,50,vase40.jpg,vase60.jpg,high,NULL
1687410882,a345672467710615cfeea6bf896a0581,PennController,5,0,experiment,NULL,Selector,choice,Selection,option1,1687410856567,60cd29821711a41cf8d42a92,60cd29821711a41cf8d42a92,1,vase,critical,E,50,vase40.jpg,vase60.jpg,high,option1;option2
1687410882,a345672467710615cfeea6bf896a0581,PennController,5,0,experiment,NULL,PennController,3,_Trial_,End,1687410856570,60cd29821711a41cf8d42a92,60cd29821711a41cf8d42a92,1,vase,critical,E,50,vase40.jpg,vase60.jpg,high,NULL
1687410882,a345672467710615cfeea6bf896a0581,PennController,27,0,experiment,NULL,PennController,25,_Trial_,Start,1687410856572,60cd29821711a41cf8d42a92,60cd29821711a41cf8d42a92,23,color,filler,E,75,color65.jpg,color85.jpg,GoalB,NULL
1687410882,a345672467710615cfeea6bf896a0581,PennController,27,0,experiment,NULL,PennController,25,_Header_,Start,1687410856572,60cd29821711a41cf8d42a92,60cd29821711a41cf8d42a92,23,color,filler,E,75,color65.jpg,color85.jpg,GoalB,NULL
1687410882,a345672467710615cfeea6bf896a0581,PennController,27,0,experiment,NULL,PennController,25,_Header_,End,1687410856572,60cd29821711a41cf8d42a92,60cd29821711a41cf8d42a92,23,color,filler,E,75,color65.jpg,color85.jpg,GoalB,NULL
1687410882,a345672467710615cfeea6bf896a0581,PennController,27,0,experiment,NULL,Canvas,canvas6,Print,NA,1687410864317,60cd29821711a41cf8d42a92,60cd29821711a41cf8d42a92,23,color,filler,E,75,color65.jpg,color85.jpg,GoalB,NULL
1687410882,a345672467710615cfeea6bf896a0581,PennController,27,0,experiment,NULL,Video,progression,buffer,0,1687410860121,60cd29821711a41cf8d42a92,60cd29821711a41cf8d42a92,23,color,filler,E,75,color65.jpg,color85.jpg,GoalB,NULL
1687410882,a345672467710615cfeea6bf896a0581,PennController,27,0,experiment,NULL,Selector,choice,Selection,option2,1687410866641,60cd29821711a41cf8d42a92,60cd29821711a41cf8d42a92,23,color,filler,E,75,color65.jpg,color85.jpg,GoalB,option1;option2
1687410882,a345672467710615cfeea6bf896a0581,PennController,27,0,experiment,NULL,PennController,25,_Trial_,End,1687410866643,60cd29821711a41cf8d42a92,60cd29821711a41cf8d42a92,23,color,filler,E,75,color65.jpg,color85.jpg,GoalB,NULL
1687410882,a345672467710615cfeea6bf896a0581,PennController,25,0,experiment,NULL,PennController,23,_Trial_,Start,1687410866645,60cd29821711a41cf8d42a92,60cd29821711a41cf8d42a92,21,visit,filler,E,25,visit15.jpg,visit35.jpg,GoalB,NULL
1687410882,a345672467710615cfeea6bf896a0581,PennController,25,0,experiment,NULL,PennController,23,_Header_,Start,1687410866645,60cd29821711a41cf8d42a92,60cd29821711a41cf8d42a92,21,visit,filler,E,25,visit15.jpg,visit35.jpg,GoalB,NULL
1687410882,a345672467710615cfeea6bf896a0581,PennController,25,0,experiment,NULL,PennController,23,_Header_,End,1687410866645,60cd29821711a41cf8d42a92,60cd29821711a41cf8d42a92,21,visit,filler,E,25,visit15.jpg,visit35.jpg,GoalB,NULL
1687410882,a345672467710615cfeea6bf896a0581,PennController,25,0,experiment,NULL,Canvas,canvas6,Print,NA,1687410872394,60cd29821711a41cf8d42a92,60cd29821711a41cf8d42a92,21,visit,filler,E,25,visit15.jpg,visit35.jpg,GoalB,NULL
1687410882,a345672467710615cfeea6bf896a0581,PennController,25,0,experiment,NULL,Video,progression,buffer,0.009344,1687410870227,60cd29821711a41cf8d42a92,60cd29821711a41cf8d42a92,21,visit,filler,E,25,visit15.jpg,visit35.jpg,GoalB,NULL
1687410882,a345672467710615cfeea6bf896a0581,PennController,25,0,experiment,NULL,Selector,choice,Selection,option2,1687410874117,60cd29821711a41cf8d42a92,60cd29821711a41cf8d42a92,21,visit,filler,E,25,visit15.jpg,visit35.jpg,GoalB,option2;option1
1687410882,a345672467710615cfeea6bf896a0581,PennController,25,0,experiment,NULL,PennController,23,_Trial_,End,1687410874120,60cd29821711a41cf8d42a92,60cd29821711a41cf8d42a92,21,visit,filler,E,25,visit15.jpg,visit35.jpg,GoalB,NULL
1687410882,a345672467710615cfeea6bf896a0581,PennController,19,0,experiment,NULL,PennController,17,_Trial_,Start,1687410874122,60cd29821711a41cf8d42a92,60cd29821711a41cf8d42a92,15,zip,critical,E,25,zip15.jpg,zip35.jpg,high,NULL
1687410882,a345672467710615cfeea6bf896a0581,PennController,19,0,experiment,NULL,PennController,17,_Header_,Start,1687410874122,60cd29821711a41cf8d42a92,60cd29821711a41cf8d42a92,15,zip,critical,E,25,zip15.jpg,zip35.jpg,high,NULL
1687410882,a345672467710615cfeea6bf896a0581,PennController,19,0,experiment,NULL,PennController,17,_Header_,End,1687410874122,60cd29821711a41cf8d42a92,60cd29821711a41cf8d42a92,15,zip,critical,E,25,zip15.jpg,zip35.jpg,high,NULL
1687410882,a345672467710615cfeea6bf896a0581,PennController,19,0,experiment,NULL,Canvas,canvas6,Print,NA,1687410879940,60cd29821711a41cf8d42a92,60cd29821711a41cf8d42a92,15,zip,critical,E,25,zip15.jpg,zip35.jpg,high,NULL
1687410882,a345672467710615cfeea6bf896a0581,PennController,19,0,experiment,NULL,Video,progression,buffer,0,1687410877681,60cd29821711a41cf8d42a92,60cd29821711a41cf8d42a92,15,zip,critical,E,25,zip15.jpg,zip35.jpg,high,NULL
1687410882,a345672467710615cfeea6bf896a0581,PennController,19,0,experiment,NULL,Selector,choice,Selection,option2,1687410881499,60cd29821711a41cf8d42a92,60cd29821711a41cf8d42a92,15,zip,critical,E,25,zip15.jpg,zip35.jpg,high,option2;option1
1687410882,a345672467710615cfeea6bf896a0581,PennController,19,0,experiment,NULL,PennController,17,_Trial_,End,1687410881502,60cd29821711a41cf8d42a92,60cd29821711a41cf8d42a92,15,zip,critical,E,25,zip15.jpg,zip35.jpg,high,NULL
