#
# Results on Tuesday June 20 2023 19:09:36 UTC
# USER AGENT: Mozilla/5.0 (Windows NT 10.0; Win64; x64) AppleWebKit/537.36 (KHTML, like Gecko) Chrome/114.0.0.0 Safari/537.36
# Design number was non-random = 3
#
# Columns below this comment are as follows:
# 1. Results reception time.
# 2. MD5 hash of participant's IP address.
# 3. Controller name.
# 4. Order number of item.
# 5. Inner element number.
# 6. Label.
# 7. Latin Square Group.
# 8. PennElementType.
# 9. PennElementName.
# 10. Parameter.
# 11. Value.
# 12. EventTime.
# 13. PROLIFIC_ID.
# 14. Comments.
1687288176,e010b8e0fd77694db780a7c8d682cd00,PennController,2,0,consent,NULL,PennController,0,_Trial_,Start,1687286875471,5bfb724acad1240001e8f657,NULL
1687288176,e010b8e0fd77694db780a7c8d682cd00,PennController,2,0,consent,NULL,PennController,0,_Header_,Start,1687286875472,5bfb724acad1240001e8f657,NULL
1687288176,e010b8e0fd77694db780a7c8d682cd00,PennController,2,0,consent,NULL,PennController,0,_Header_,End,1687286875472,5bfb724acad1240001e8f657,NULL
1687288176,e010b8e0fd77694db780a7c8d682cd00,PennController,2,0,consent,NULL,PennController,0,_Trial_,End,1687287367788,5bfb724acad1240001e8f657,NULL
# Columns below this comment are as follows:
# 14. ID.
# 15. Comments.
1687288176,e010b8e0fd77694db780a7c8d682cd00,PennController,3,0,intro,NULL,PennController,1,_Trial_,Start,1687287367790,5bfb724acad1240001e8f657,5bfb724acad1240001e8f657,NULL
1687288176,e010b8e0fd77694db780a7c8d682cd00,PennController,3,0,intro,NULL,PennController,1,_Header_,Start,1687287367790,5bfb724acad1240001e8f657,5bfb724acad1240001e8f657,NULL
1687288176,e010b8e0fd77694db780a7c8d682cd00,PennController,3,0,intro,NULL,PennController,1,_Header_,End,1687287367790,5bfb724acad1240001e8f657,5bfb724acad1240001e8f657,NULL
1687288176,e010b8e0fd77694db780a7c8d682cd00,PennController,3,0,intro,NULL,PennController,1,_Trial_,End,1687287642854,5bfb724acad1240001e8f657,5bfb724acad1240001e8f657,NULL
# Columns below this comment are as follows:
# 15. item_number.
# 16. item.
# 17. type.
# 18. Group.
# 19. prog.
# 20. prev_image.
# 21. next_image.
# 22. height.
# 23. Comments.
1687288176,e010b8e0fd77694db780a7c8d682cd00,PennController,20,0,experiment,NULL,PennController,19,_Trial_,Start,1687287642855,5bfb724acad1240001e8f657,5bfb724acad1240001e8f657,17,roll,critical,D,50,roll40.jpg,roll60.jpg,high,NULL
1687288176,e010b8e0fd77694db780a7c8d682cd00,PennController,20,0,experiment,NULL,PennController,19,_Header_,Start,1687287642855,5bfb724acad1240001e8f657,5bfb724acad1240001e8f657,17,roll,critical,D,50,roll40.jpg,roll60.jpg,high,NULL
1687288176,e010b8e0fd77694db780a7c8d682cd00,PennController,20,0,experiment,NULL,PennController,19,_Header_,End,1687287642855,5bfb724acad1240001e8f657,5bfb724acad1240001e8f657,17,roll,critical,D,50,roll40.jpg,roll60.jpg,high,NULL
1687288176,e010b8e0fd77694db780a7c8d682cd00,PennController,20,0,experiment,NULL,Canvas,canvas6,Print,NA,1687287649711,5bfb724acad1240001e8f657,5bfb724acad1240001e8f657,17,roll,critical,D,50,roll40.jpg,roll60.jpg,high,NULL
1687288176,e010b8e0fd77694db780a7c8d682cd00,PennController,20,0,experiment,NULL,Video,progression,buffer,0,1687287646385,5bfb724acad1240001e8f657,5bfb724acad1240001e8f657,17,roll,critical,D,50,roll40.jpg,roll60.jpg,high,NULL
1687288176,e010b8e0fd77694db780a7c8d682cd00,PennController,20,0,experiment,NULL,Selector,choice,Selection,option1,1687287664448,5bfb724acad1240001e8f657,5bfb724acad1240001e8f657,17,roll,critical,D,50,roll40.jpg,roll60.jpg,high,option2;option1
1687288176,e010b8e0fd77694db780a7c8d682cd00,PennController,20,0,experiment,NULL,PennController,19,_Trial_,End,1687287664449,5bfb724acad1240001e8f657,5bfb724acad1240001e8f657,17,roll,critical,D,50,roll40.jpg,roll60.jpg,high,NULL
1687288176,e010b8e0fd77694db780a7c8d682cd00,PennController,25,0,experiment,NULL,PennController,24,_Trial_,Start,1687287664451,5bfb724acad1240001e8f657,5bfb724acad1240001e8f657,22,wall,filler,D,25,wall15.jpg,wall35.jpg,GoalA,NULL
1687288176,e010b8e0fd77694db780a7c8d682cd00,PennController,25,0,experiment,NULL,PennController,24,_Header_,Start,1687287664451,5bfb724acad1240001e8f657,5bfb724acad1240001e8f657,22,wall,filler,D,25,wall15.jpg,wall35.jpg,GoalA,NULL
1687288176,e010b8e0fd77694db780a7c8d682cd00,PennController,25,0,experiment,NULL,PennController,24,_Header_,End,1687287664451,5bfb724acad1240001e8f657,5bfb724acad1240001e8f657,22,wall,filler,D,25,wall15.jpg,wall35.jpg,GoalA,NULL
1687288176,e010b8e0fd77694db780a7c8d682cd00,PennController,25,0,experiment,NULL,Canvas,canvas6,Print,NA,1687287670184,5bfb724acad1240001e8f657,5bfb724acad1240001e8f657,22,wall,filler,D,25,wall15.jpg,wall35.jpg,GoalA,NULL
1687288176,e010b8e0fd77694db780a7c8d682cd00,PennController,25,0,experiment,NULL,Video,progression,buffer,0.001471,1687287667974,5bfb724acad1240001e8f657,5bfb724acad1240001e8f657,22,wall,filler,D,25,wall15.jpg,wall35.jpg,GoalA,NULL
1687288176,e010b8e0fd77694db780a7c8d682cd00,PennController,25,0,experiment,NULL,Selector,choice,Selection,option2,1687287673988,5bfb724acad1240001e8f657,5bfb724acad1240001e8f657,22,wall,filler,D,25,wall15.jpg,wall35.jpg,GoalA,option1;option2
1687288176,e010b8e0fd77694db780a7c8d682cd00,PennController,25,0,experiment,NULL,PennController,24,_Trial_,End,1687287673992,5bfb724acad1240001e8f657,5bfb724acad1240001e8f657,22,wall,filler,D,25,wall15.jpg,wall35.jpg,GoalA,NULL
1687288176,e010b8e0fd77694db780a7c8d682cd00,PennController,29,0,experiment,NULL,PennController,28,_Trial_,Start,1687287673995,5bfb724acad1240001e8f657,5bfb724acad1240001e8f657,26,sandwich,filler,D,50,sandwich40.jpg,sandwich60.jpg,GoalA,NULL
1687288176,e010b8e0fd77694db780a7c8d682cd00,PennController,29,0,experiment,NULL,PennController,28,_Header_,Start,1687287673995,5bfb724acad1240001e8f657,5bfb724acad1240001e8f657,26,sandwich,filler,D,50,sandwich40.jpg,sandwich60.jpg,GoalA,NULL
1687288176,e010b8e0fd77694db780a7c8d682cd00,PennController,29,0,experiment,NULL,PennController,28,_Header_,End,1687287673995,5bfb724acad1240001e8f657,5bfb724acad1240001e8f657,26,sandwich,filler,D,50,sandwich40.jpg,sandwich60.jpg,GoalA,NULL
1687288176,e010b8e0fd77694db780a7c8d682cd00,PennController,29,0,experiment,NULL,Canvas,canvas6,Print,NA,1687287680727,5bfb724acad1240001e8f657,5bfb724acad1240001e8f657,26,sandwich,filler,D,50,sandwich40.jpg,sandwich60.jpg,GoalA,NULL
1687288176,e010b8e0fd77694db780a7c8d682cd00,PennController,29,0,experiment,NULL,Video,progression,buffer,0.001285,1687287677525,5bfb724acad1240001e8f657,5bfb724acad1240001e8f657,26,sandwich,filler,D,50,sandwich40.jpg,sandwich60.jpg,GoalA,NULL
1687288176,e010b8e0fd77694db780a7c8d682cd00,PennController,29,0,experiment,NULL,Selector,choice,Selection,option1,1687287681920,5bfb724acad1240001e8f657,5bfb724acad1240001e8f657,26,sandwich,filler,D,50,sandwich40.jpg,sandwich60.jpg,GoalA,option2;option1
1687288176,e010b8e0fd77694db780a7c8d682cd00,PennController,29,0,experiment,NULL,PennController,28,_Trial_,End,1687287681921,5bfb724acad1240001e8f657,5bfb724acad1240001e8f657,26,sandwich,filler,D,50,sandwich40.jpg,sandwich60.jpg,GoalA,NULL
1687288176,e010b8e0fd77694db780a7c8d682cd00,PennController,11,0,experiment,NULL,PennController,10,_Trial_,Start,1687287681922,5bfb724acad1240001e8f657,5bfb724acad1240001e8f657,8,cucumber,critical,D,50,cucumber42.jpg,cucumber60.jpg,high,NULL
1687288176,e010b8e0fd77694db780a7c8d682cd00,PennController,11,0,experiment,NULL,PennController,10,_Header_,Start,1687287681922,5bfb724acad1240001e8f657,5bfb724acad1240001e8f657,8,cucumber,critical,D,50,cucumber42.jpg,cucumber60.jpg,high,NULL
1687288176,e010b8e0fd77694db780a7c8d682cd00,PennController,11,0,experiment,NULL,PennController,10,_Header_,End,1687287681922,5bfb724acad1240001e8f657,5bfb724acad1240001e8f657,8,cucumber,critical,D,50,cucumber42.jpg,cucumber60.jpg,high,NULL
1687288176,e010b8e0fd77694db780a7c8d682cd00,PennController,11,0,experiment,NULL,Canvas,canvas6,Print,NA,1687287690037,5bfb724acad1240001e8f657,5bfb724acad1240001e8f657,8,cucumber,critical,D,50,cucumber42.jpg,cucumber60.jpg,high,NULL
1687288176,e010b8e0fd77694db780a7c8d682cd00,PennController,11,0,experiment,NULL,Video,progression,buffer,0.002183,1687287685445,5bfb724acad1240001e8f657,5bfb724acad1240001e8f657,8,cucumber,critical,D,50,cucumber42.jpg,cucumber60.jpg,high,NULL
1687288176,e010b8e0fd77694db780a7c8d682cd00,PennController,11,0,experiment,NULL,Selector,choice,Selection,option1,1687287703800,5bfb724acad1240001e8f657,5bfb724acad1240001e8f657,8,cucumber,critical,D,50,cucumber42.jpg,cucumber60.jpg,high,option1;option2
1687288176,e010b8e0fd77694db780a7c8d682cd00,PennController,11,0,experiment,NULL,PennController,10,_Trial_,End,1687287703802,5bfb724acad1240001e8f657,5bfb724acad1240001e8f657,8,cucumber,critical,D,50,cucumber42.jpg,cucumber60.jpg,high,NULL
1687288176,e010b8e0fd77694db780a7c8d682cd00,PennController,13,0,experiment,NULL,PennController,12,_Trial_,Start,1687287703803,5bfb724acad1240001e8f657,5bfb724acad1240001e8f657,10,train,critical,D,25,train15.jpg,train35.jpg,high,NULL
1687288176,e010b8e0fd77694db780a7c8d682cd00,PennController,13,0,experiment,NULL,PennController,12,_Header_,Start,1687287703803,5bfb724acad1240001e8f657,5bfb724acad1240001e8f657,10,train,critical,D,25,train15.jpg,train35.jpg,high,NULL
1687288176,e010b8e0fd77694db780a7c8d682cd00,PennController,13,0,experiment,NULL,PennController,12,_Header_,End,1687287703803,5bfb724acad1240001e8f657,5bfb724acad1240001e8f657,10,train,critical,D,25,train15.jpg,train35.jpg,high,NULL
1687288176,e010b8e0fd77694db780a7c8d682cd00,PennController,13,0,experiment,NULL,Canvas,canvas6,Print,NA,1687287709515,5bfb724acad1240001e8f657,5bfb724acad1240001e8f657,10,train,critical,D,25,train15.jpg,train35.jpg,high,NULL
1687288176,e010b8e0fd77694db780a7c8d682cd00,PennController,13,0,experiment,NULL,Video,progression,buffer,0.002338,1687287707323,5bfb724acad1240001e8f657,5bfb724acad1240001e8f657,10,train,critical,D,25,train15.jpg,train35.jpg,high,NULL
1687288176,e010b8e0fd77694db780a7c8d682cd00,PennController,13,0,experiment,NULL,Selector,choice,Selection,option2,1687287741782,5bfb724acad1240001e8f657,5bfb724acad1240001e8f657,10,train,critical,D,25,train15.jpg,train35.jpg,high,option2;option1
1687288176,e010b8e0fd77694db780a7c8d682cd00,PennController,13,0,experiment,NULL,PennController,12,_Trial_,End,1687287741783,5bfb724acad1240001e8f657,5bfb724acad1240001e8f657,10,train,critical,D,25,train15.jpg,train35.jpg,high,NULL
1687288176,e010b8e0fd77694db780a7c8d682cd00,PennController,12,0,experiment,NULL,PennController,11,_Trial_,Start,1687287741784,5bfb724acad1240001e8f657,5bfb724acad1240001e8f657,9,cake,critical,D,75,cake66.jpg,cake84.jpg,high,NULL
1687288176,e010b8e0fd77694db780a7c8d682cd00,PennController,12,0,experiment,NULL,PennController,11,_Header_,Start,1687287741784,5bfb724acad1240001e8f657,5bfb724acad1240001e8f657,9,cake,critical,D,75,cake66.jpg,cake84.jpg,high,NULL
1687288176,e010b8e0fd77694db780a7c8d682cd00,PennController,12,0,experiment,NULL,PennController,11,_Header_,End,1687287741784,5bfb724acad1240001e8f657,5bfb724acad1240001e8f657,9,cake,critical,D,75,cake66.jpg,cake84.jpg,high,NULL
1687288176,e010b8e0fd77694db780a7c8d682cd00,PennController,12,0,experiment,NULL,Canvas,canvas6,Print,NA,1687287751502,5bfb724acad1240001e8f657,5bfb724acad1240001e8f657,9,cake,critical,D,75,cake66.jpg,cake84.jpg,high,NULL
1687288176,e010b8e0fd77694db780a7c8d682cd00,PennController,12,0,experiment,NULL,Video,progression,buffer,0.001396,1687287745301,5bfb724acad1240001e8f657,5bfb724acad1240001e8f657,9,cake,critical,D,75,cake66.jpg,cake84.jpg,high,NULL
1687288176,e010b8e0fd77694db780a7c8d682cd00,PennController,12,0,experiment,NULL,Selector,choice,Selection,option2,1687287753713,5bfb724acad1240001e8f657,5bfb724acad1240001e8f657,9,cake,critical,D,75,cake66.jpg,cake84.jpg,high,option1;option2
1687288176,e010b8e0fd77694db780a7c8d682cd00,PennController,12,0,experiment,NULL,PennController,11,_Trial_,End,1687287753716,5bfb724acad1240001e8f657,5bfb724acad1240001e8f657,9,cake,critical,D,75,cake66.jpg,cake84.jpg,high,NULL
1687288176,e010b8e0fd77694db780a7c8d682cd00,PennController,31,0,experiment,NULL,PennController,30,_Trial_,Start,1687287753718,5bfb724acad1240001e8f657,5bfb724acad1240001e8f657,28,sort,filler,D,25,sort15.jpg,sort35.jpg,GoalA,NULL
1687288176,e010b8e0fd77694db780a7c8d682cd00,PennController,31,0,experiment,NULL,PennController,30,_Header_,Start,1687287753718,5bfb724acad1240001e8f657,5bfb724acad1240001e8f657,28,sort,filler,D,25,sort15.jpg,sort35.jpg,GoalA,NULL
1687288176,e010b8e0fd77694db780a7c8d682cd00,PennController,31,0,experiment,NULL,PennController,30,_Header_,End,1687287753718,5bfb724acad1240001e8f657,5bfb724acad1240001e8f657,28,sort,filler,D,25,sort15.jpg,sort35.jpg,GoalA,NULL
1687288176,e010b8e0fd77694db780a7c8d682cd00,PennController,31,0,experiment,NULL,Canvas,canvas6,Print,NA,1687287759428,5bfb724acad1240001e8f657,5bfb724acad1240001e8f657,28,sort,filler,D,25,sort15.jpg,sort35.jpg,GoalA,NULL
1687288176,e010b8e0fd77694db780a7c8d682cd00,PennController,31,0,experiment,NULL,Video,progression,buffer,0.002279,1687287757243,5bfb724acad1240001e8f657,5bfb724acad1240001e8f657,28,sort,filler,D,25,sort15.jpg,sort35.jpg,GoalA,NULL
1687288176,e010b8e0fd77694db780a7c8d682cd00,PennController,31,0,experiment,NULL,Selector,choice,Selection,option1,1687287762029,5bfb724acad1240001e8f657,5bfb724acad1240001e8f657,28,sort,filler,D,25,sort15.jpg,sort35.jpg,GoalA,option2;option1
1687288176,e010b8e0fd77694db780a7c8d682cd00,PennController,31,0,experiment,NULL,PennController,30,_Trial_,End,1687287762030,5bfb724acad1240001e8f657,5bfb724acad1240001e8f657,28,sort,filler,D,25,sort15.jpg,sort35.jpg,GoalA,NULL
1687288176,e010b8e0fd77694db780a7c8d682cd00,PennController,7,0,experiment,NULL,PennController,6,_Trial_,Start,1687287762031,5bfb724acad1240001e8f657,5bfb724acad1240001e8f657,4,candy,critical,D,25,candy15.jpg,candy35.jpg,high,NULL
1687288176,e010b8e0fd77694db780a7c8d682cd00,PennController,7,0,experiment,NULL,PennController,6,_Header_,Start,1687287762031,5bfb724acad1240001e8f657,5bfb724acad1240001e8f657,4,candy,critical,D,25,candy15.jpg,candy35.jpg,high,NULL
1687288176,e010b8e0fd77694db780a7c8d682cd00,PennController,7,0,experiment,NULL,PennController,6,_Header_,End,1687287762031,5bfb724acad1240001e8f657,5bfb724acad1240001e8f657,4,candy,critical,D,25,candy15.jpg,candy35.jpg,high,NULL
1687288176,e010b8e0fd77694db780a7c8d682cd00,PennController,7,0,experiment,NULL,Canvas,canvas6,Print,NA,1687287767760,5bfb724acad1240001e8f657,5bfb724acad1240001e8f657,4,candy,critical,D,25,candy15.jpg,candy35.jpg,high,NULL
1687288176,e010b8e0fd77694db780a7c8d682cd00,PennController,7,0,experiment,NULL,Video,progression,buffer,0.006353,1687287765563,5bfb724acad1240001e8f657,5bfb724acad1240001e8f657,4,candy,critical,D,25,candy15.jpg,candy35.jpg,high,NULL
1687288176,e010b8e0fd77694db780a7c8d682cd00,PennController,7,0,experiment,NULL,Selector,choice,Selection,option1,1687287770523,5bfb724acad1240001e8f657,5bfb724acad1240001e8f657,4,candy,critical,D,25,candy15.jpg,candy35.jpg,high,option2;option1
1687288176,e010b8e0fd77694db780a7c8d682cd00,PennController,7,0,experiment,NULL,PennController,6,_Trial_,End,1687287770524,5bfb724acad1240001e8f657,5bfb724acad1240001e8f657,4,candy,critical,D,25,candy15.jpg,candy35.jpg,high,NULL
1687288176,e010b8e0fd77694db780a7c8d682cd00,PennController,17,0,experiment,NULL,PennController,16,_Trial_,Start,1687287770524,5bfb724acad1240001e8f657,5bfb724acad1240001e8f657,14,cover,critical,D,50,cover42.jpg,cover60.jpg,high,NULL
1687288176,e010b8e0fd77694db780a7c8d682cd00,PennController,17,0,experiment,NULL,PennController,16,_Header_,Start,1687287770524,5bfb724acad1240001e8f657,5bfb724acad1240001e8f657,14,cover,critical,D,50,cover42.jpg,cover60.jpg,high,NULL
1687288176,e010b8e0fd77694db780a7c8d682cd00,PennController,17,0,experiment,NULL,PennController,16,_Header_,End,1687287770524,5bfb724acad1240001e8f657,5bfb724acad1240001e8f657,14,cover,critical,D,50,cover42.jpg,cover60.jpg,high,NULL
1687288176,e010b8e0fd77694db780a7c8d682cd00,PennController,17,0,experiment,NULL,Canvas,canvas6,Print,NA,1687287778646,5bfb724acad1240001e8f657,5bfb724acad1240001e8f657,14,cover,critical,D,50,cover42.jpg,cover60.jpg,high,NULL
1687288176,e010b8e0fd77694db780a7c8d682cd00,PennController,17,0,experiment,NULL,Video,progression,buffer,0.00244,1687287774040,5bfb724acad1240001e8f657,5bfb724acad1240001e8f657,14,cover,critical,D,50,cover42.jpg,cover60.jpg,high,NULL
1687288176,e010b8e0fd77694db780a7c8d682cd00,PennController,17,0,experiment,NULL,Selector,choice,Selection,option2,1687287799309,5bfb724acad1240001e8f657,5bfb724acad1240001e8f657,14,cover,critical,D,50,cover42.jpg,cover60.jpg,high,option2;option1
1687288176,e010b8e0fd77694db780a7c8d682cd00,PennController,17,0,experiment,NULL,PennController,16,_Trial_,End,1687287799311,5bfb724acad1240001e8f657,5bfb724acad1240001e8f657,14,cover,critical,D,50,cover42.jpg,cover60.jpg,high,NULL
1687288176,e010b8e0fd77694db780a7c8d682cd00,PennController,18,0,experiment,NULL,PennController,17,_Trial_,Start,1687287799312,5bfb724acad1240001e8f657,5bfb724acad1240001e8f657,15,zip,critical,D,75,zip65.jpg,zip85.jpg,high,NULL
1687288176,e010b8e0fd77694db780a7c8d682cd00,PennController,18,0,experiment,NULL,PennController,17,_Header_,Start,1687287799312,5bfb724acad1240001e8f657,5bfb724acad1240001e8f657,15,zip,critical,D,75,zip65.jpg,zip85.jpg,high,NULL
1687288176,e010b8e0fd77694db780a7c8d682cd00,PennController,18,0,experiment,NULL,PennController,17,_Header_,End,1687287799312,5bfb724acad1240001e8f657,5bfb724acad1240001e8f657,15,zip,critical,D,75,zip65.jpg,zip85.jpg,high,NULL
1687288176,e010b8e0fd77694db780a7c8d682cd00,PennController,18,0,experiment,NULL,Canvas,canvas6,Print,NA,1687287806229,5bfb724acad1240001e8f657,5bfb724acad1240001e8f657,15,zip,critical,D,75,zip65.jpg,zip85.jpg,high,NULL
1687288176,e010b8e0fd77694db780a7c8d682cd00,PennController,18,0,experiment,NULL,Video,progression,buffer,0.003282,1687287802842,5bfb724acad1240001e8f657,5bfb724acad1240001e8f657,15,zip,critical,D,75,zip65.jpg,zip85.jpg,high,NULL
1687288176,e010b8e0fd77694db780a7c8d682cd00,PennController,18,0,experiment,NULL,Selector,choice,Selection,option2,1687287842141,5bfb724acad1240001e8f657,5bfb724acad1240001e8f657,15,zip,critical,D,75,zip65.jpg,zip85.jpg,high,option1;option2
1687288176,e010b8e0fd77694db780a7c8d682cd00,PennController,18,0,experiment,NULL,PennController,17,_Trial_,End,1687287842142,5bfb724acad1240001e8f657,5bfb724acad1240001e8f657,15,zip,critical,D,75,zip65.jpg,zip85.jpg,high,NULL
1687288176,e010b8e0fd77694db780a7c8d682cd00,PennController,4,0,experiment,NULL,PennController,3,_Trial_,Start,1687287842143,5bfb724acad1240001e8f657,5bfb724acad1240001e8f657,1,vase,critical,D,25,vase15.jpg,vase35.jpg,high,NULL
1687288176,e010b8e0fd77694db780a7c8d682cd00,PennController,4,0,experiment,NULL,PennController,3,_Header_,Start,1687287842143,5bfb724acad1240001e8f657,5bfb724acad1240001e8f657,1,vase,critical,D,25,vase15.jpg,vase35.jpg,high,NULL
1687288176,e010b8e0fd77694db780a7c8d682cd00,PennController,4,0,experiment,NULL,PennController,3,_Header_,End,1687287842143,5bfb724acad1240001e8f657,5bfb724acad1240001e8f657,1,vase,critical,D,25,vase15.jpg,vase35.jpg,high,NULL
1687288176,e010b8e0fd77694db780a7c8d682cd00,PennController,4,0,experiment,NULL,Canvas,canvas6,Print,NA,1687287847864,5bfb724acad1240001e8f657,5bfb724acad1240001e8f657,1,vase,critical,D,25,vase15.jpg,vase35.jpg,high,NULL
1687288176,e010b8e0fd77694db780a7c8d682cd00,PennController,4,0,experiment,NULL,Video,progression,buffer,0.00409,1687287845672,5bfb724acad1240001e8f657,5bfb724acad1240001e8f657,1,vase,critical,D,25,vase15.jpg,vase35.jpg,high,NULL
1687288176,e010b8e0fd77694db780a7c8d682cd00,PennController,4,0,experiment,NULL,Selector,choice,Selection,option2,1687287849621,5bfb724acad1240001e8f657,5bfb724acad1240001e8f657,1,vase,critical,D,25,vase15.jpg,vase35.jpg,high,option2;option1
1687288176,e010b8e0fd77694db780a7c8d682cd00,PennController,4,0,experiment,NULL,PennController,3,_Trial_,End,1687287849624,5bfb724acad1240001e8f657,5bfb724acad1240001e8f657,1,vase,critical,D,25,vase15.jpg,vase35.jpg,high,NULL
1687288176,e010b8e0fd77694db780a7c8d682cd00,PennController,6,0,experiment,NULL,PennController,5,_Trial_,Start,1687287849627,5bfb724acad1240001e8f657,5bfb724acad1240001e8f657,3,clean,critical,D,75,clean65.jpg,clean85.jpg,high,NULL
1687288176,e010b8e0fd77694db780a7c8d682cd00,PennController,6,0,experiment,NULL,PennController,5,_Header_,Start,1687287849627,5bfb724acad1240001e8f657,5bfb724acad1240001e8f657,3,clean,critical,D,75,clean65.jpg,clean85.jpg,high,NULL
1687288176,e010b8e0fd77694db780a7c8d682cd00,PennController,6,0,experiment,NULL,PennController,5,_Header_,End,1687287849627,5bfb724acad1240001e8f657,5bfb724acad1240001e8f657,3,clean,critical,D,75,clean65.jpg,clean85.jpg,high,NULL
1687288176,e010b8e0fd77694db780a7c8d682cd00,PennController,6,0,experiment,NULL,Canvas,canvas6,Print,NA,1687287857347,5bfb724acad1240001e8f657,5bfb724acad1240001e8f657,3,clean,critical,D,75,clean65.jpg,clean85.jpg,high,NULL
1687288176,e010b8e0fd77694db780a7c8d682cd00,PennController,6,0,experiment,NULL,Video,progression,buffer,0.001469,1687287853152,5bfb724acad1240001e8f657,5bfb724acad1240001e8f657,3,clean,critical,D,75,clean65.jpg,clean85.jpg,high,NULL
1687288176,e010b8e0fd77694db780a7c8d682cd00,PennController,6,0,experiment,NULL,Selector,choice,Selection,option2,1687287860717,5bfb724acad1240001e8f657,5bfb724acad1240001e8f657,3,clean,critical,D,75,clean65.jpg,clean85.jpg,high,option1;option2
1687288176,e010b8e0fd77694db780a7c8d682cd00,PennController,6,0,experiment,NULL,PennController,5,_Trial_,End,1687287860717,5bfb724acad1240001e8f657,5bfb724acad1240001e8f657,3,clean,critical,D,75,clean65.jpg,clean85.jpg,high,NULL
1687288176,e010b8e0fd77694db780a7c8d682cd00,PennController,27,0,experiment,NULL,PennController,26,_Trial_,Start,1687287860719,5bfb724acad1240001e8f657,5bfb724acad1240001e8f657,24,match,filler,D,75,match65.jpg,match85.jpg,GoalA,NULL
1687288176,e010b8e0fd77694db780a7c8d682cd00,PennController,27,0,experiment,NULL,PennController,26,_Header_,Start,1687287860719,5bfb724acad1240001e8f657,5bfb724acad1240001e8f657,24,match,filler,D,75,match65.jpg,match85.jpg,GoalA,NULL
1687288176,e010b8e0fd77694db780a7c8d682cd00,PennController,27,0,experiment,NULL,PennController,26,_Header_,End,1687287860719,5bfb724acad1240001e8f657,5bfb724acad1240001e8f657,24,match,filler,D,75,match65.jpg,match85.jpg,GoalA,NULL
1687288176,e010b8e0fd77694db780a7c8d682cd00,PennController,27,0,experiment,NULL,Canvas,canvas6,Print,NA,1687287868436,5bfb724acad1240001e8f657,5bfb724acad1240001e8f657,24,match,filler,D,75,match65.jpg,match85.jpg,GoalA,NULL
1687288176,e010b8e0fd77694db780a7c8d682cd00,PennController,27,0,experiment,NULL,Video,progression,buffer,0.001355,1687287864233,5bfb724acad1240001e8f657,5bfb724acad1240001e8f657,24,match,filler,D,75,match65.jpg,match85.jpg,GoalA,NULL
1687288176,e010b8e0fd77694db780a7c8d682cd00,PennController,27,0,experiment,NULL,Selector,choice,Selection,option2,1687287968412,5bfb724acad1240001e8f657,5bfb724acad1240001e8f657,24,match,filler,D,75,match65.jpg,match85.jpg,GoalA,option1;option2
1687288176,e010b8e0fd77694db780a7c8d682cd00,PennController,27,0,experiment,NULL,PennController,26,_Trial_,End,1687287968414,5bfb724acad1240001e8f657,5bfb724acad1240001e8f657,24,match,filler,D,75,match65.jpg,match85.jpg,GoalA,NULL
1687288176,e010b8e0fd77694db780a7c8d682cd00,PennController,14,0,experiment,NULL,PennController,13,_Trial_,Start,1687287968418,5bfb724acad1240001e8f657,5bfb724acad1240001e8f657,11,beads,critical,D,50,beads40.jpg,beads60.jpg,high,NULL
1687288176,e010b8e0fd77694db780a7c8d682cd00,PennController,14,0,experiment,NULL,PennController,13,_Header_,Start,1687287968418,5bfb724acad1240001e8f657,5bfb724acad1240001e8f657,11,beads,critical,D,50,beads40.jpg,beads60.jpg,high,NULL
1687288176,e010b8e0fd77694db780a7c8d682cd00,PennController,14,0,experiment,NULL,PennController,13,_Header_,End,1687287968418,5bfb724acad1240001e8f657,5bfb724acad1240001e8f657,11,beads,critical,D,50,beads40.jpg,beads60.jpg,high,NULL
1687288176,e010b8e0fd77694db780a7c8d682cd00,PennController,14,0,experiment,NULL,Canvas,canvas6,Print,NA,1687287975139,5bfb724acad1240001e8f657,5bfb724acad1240001e8f657,11,beads,critical,D,50,beads40.jpg,beads60.jpg,high,NULL
1687288176,e010b8e0fd77694db780a7c8d682cd00,PennController,14,0,experiment,NULL,Video,progression,buffer,0.002173,1687287971946,5bfb724acad1240001e8f657,5bfb724acad1240001e8f657,11,beads,critical,D,50,beads40.jpg,beads60.jpg,high,NULL
1687288176,e010b8e0fd77694db780a7c8d682cd00,PennController,14,0,experiment,NULL,Selector,choice,Selection,option2,1687287977201,5bfb724acad1240001e8f657,5bfb724acad1240001e8f657,11,beads,critical,D,50,beads40.jpg,beads60.jpg,high,option1;option2
1687288176,e010b8e0fd77694db780a7c8d682cd00,PennController,14,0,experiment,NULL,PennController,13,_Trial_,End,1687287977203,5bfb724acad1240001e8f657,5bfb724acad1240001e8f657,11,beads,critical,D,50,beads40.jpg,beads60.jpg,high,NULL
1687288176,e010b8e0fd77694db780a7c8d682cd00,PennController,32,0,experiment,NULL,PennController,31,_Trial_,Start,1687287977204,5bfb724acad1240001e8f657,5bfb724acad1240001e8f657,29,frog,filler,D,50,frog40.jpg,frog60.jpg,GoalB,NULL
1687288176,e010b8e0fd77694db780a7c8d682cd00,PennController,32,0,experiment,NULL,PennController,31,_Header_,Start,1687287977205,5bfb724acad1240001e8f657,5bfb724acad1240001e8f657,29,frog,filler,D,50,frog40.jpg,frog60.jpg,GoalB,NULL
1687288176,e010b8e0fd77694db780a7c8d682cd00,PennController,32,0,experiment,NULL,PennController,31,_Header_,End,1687287977205,5bfb724acad1240001e8f657,5bfb724acad1240001e8f657,29,frog,filler,D,50,frog40.jpg,frog60.jpg,GoalB,NULL
1687288176,e010b8e0fd77694db780a7c8d682cd00,PennController,32,0,experiment,NULL,Canvas,canvas6,Print,NA,1687287983919,5bfb724acad1240001e8f657,5bfb724acad1240001e8f657,29,frog,filler,D,50,frog40.jpg,frog60.jpg,GoalB,NULL
1687288176,e010b8e0fd77694db780a7c8d682cd00,PennController,32,0,experiment,NULL,Video,progression,buffer,0.00144,1687287980724,5bfb724acad1240001e8f657,5bfb724acad1240001e8f657,29,frog,filler,D,50,frog40.jpg,frog60.jpg,GoalB,NULL
1687288176,e010b8e0fd77694db780a7c8d682cd00,PennController,32,0,experiment,NULL,Selector,choice,Selection,option2,1687287986490,5bfb724acad1240001e8f657,5bfb724acad1240001e8f657,29,frog,filler,D,50,frog40.jpg,frog60.jpg,GoalB,option2;option1
1687288176,e010b8e0fd77694db780a7c8d682cd00,PennController,32,0,experiment,NULL,PennController,31,_Trial_,End,1687287986493,5bfb724acad1240001e8f657,5bfb724acad1240001e8f657,29,frog,filler,D,50,frog40.jpg,frog60.jpg,GoalB,NULL
1687288176,e010b8e0fd77694db780a7c8d682cd00,PennController,8,0,experiment,NULL,PennController,7,_Trial_,Start,1687287986495,5bfb724acad1240001e8f657,5bfb724acad1240001e8f657,5,book,critical,D,50,book40.jpg,book60.jpg,high,NULL
1687288176,e010b8e0fd77694db780a7c8d682cd00,PennController,8,0,experiment,NULL,PennController,7,_Header_,Start,1687287986495,5bfb724acad1240001e8f657,5bfb724acad1240001e8f657,5,book,critical,D,50,book40.jpg,book60.jpg,high,NULL
1687288176,e010b8e0fd77694db780a7c8d682cd00,PennController,8,0,experiment,NULL,PennController,7,_Header_,End,1687287986495,5bfb724acad1240001e8f657,5bfb724acad1240001e8f657,5,book,critical,D,50,book40.jpg,book60.jpg,high,NULL
1687288176,e010b8e0fd77694db780a7c8d682cd00,PennController,8,0,experiment,NULL,Canvas,canvas6,Print,NA,1687287993204,5bfb724acad1240001e8f657,5bfb724acad1240001e8f657,5,book,critical,D,50,book40.jpg,book60.jpg,high,NULL
1687288176,e010b8e0fd77694db780a7c8d682cd00,PennController,8,0,experiment,NULL,Video,progression,buffer,0.002169,1687287990016,5bfb724acad1240001e8f657,5bfb724acad1240001e8f657,5,book,critical,D,50,book40.jpg,book60.jpg,high,NULL
1687288176,e010b8e0fd77694db780a7c8d682cd00,PennController,8,0,experiment,NULL,Selector,choice,Selection,option2,1687287996076,5bfb724acad1240001e8f657,5bfb724acad1240001e8f657,5,book,critical,D,50,book40.jpg,book60.jpg,high,option2;option1
1687288176,e010b8e0fd77694db780a7c8d682cd00,PennController,8,0,experiment,NULL,PennController,7,_Trial_,End,1687287996077,5bfb724acad1240001e8f657,5bfb724acad1240001e8f657,5,book,critical,D,50,book40.jpg,book60.jpg,high,NULL
1687288176,e010b8e0fd77694db780a7c8d682cd00,PennController,10,0,experiment,NULL,PennController,9,_Trial_,Start,1687287996078,5bfb724acad1240001e8f657,5bfb724acad1240001e8f657,7,stack,critical,D,25,stack15.jpg,stack35.jpg,high,NULL
1687288176,e010b8e0fd77694db780a7c8d682cd00,PennController,10,0,experiment,NULL,PennController,9,_Header_,Start,1687287996078,5bfb724acad1240001e8f657,5bfb724acad1240001e8f657,7,stack,critical,D,25,stack15.jpg,stack35.jpg,high,NULL
1687288176,e010b8e0fd77694db780a7c8d682cd00,PennController,10,0,experiment,NULL,PennController,9,_Header_,End,1687287996078,5bfb724acad1240001e8f657,5bfb724acad1240001e8f657,7,stack,critical,D,25,stack15.jpg,stack35.jpg,high,NULL
1687288176,e010b8e0fd77694db780a7c8d682cd00,PennController,10,0,experiment,NULL,Canvas,canvas6,Print,NA,1687288001792,5bfb724acad1240001e8f657,5bfb724acad1240001e8f657,7,stack,critical,D,25,stack15.jpg,stack35.jpg,high,NULL
1687288176,e010b8e0fd77694db780a7c8d682cd00,PennController,10,0,experiment,NULL,Video,progression,buffer,0.001657,1687287999600,5bfb724acad1240001e8f657,5bfb724acad1240001e8f657,7,stack,critical,D,25,stack15.jpg,stack35.jpg,high,NULL
1687288176,e010b8e0fd77694db780a7c8d682cd00,PennController,10,0,experiment,NULL,Selector,choice,Selection,option2,1687288004397,5bfb724acad1240001e8f657,5bfb724acad1240001e8f657,7,stack,critical,D,25,stack15.jpg,stack35.jpg,high,option1;option2
1687288176,e010b8e0fd77694db780a7c8d682cd00,PennController,10,0,experiment,NULL,PennController,9,_Trial_,End,1687288004398,5bfb724acad1240001e8f657,5bfb724acad1240001e8f657,7,stack,critical,D,25,stack15.jpg,stack35.jpg,high,NULL
1687288176,e010b8e0fd77694db780a7c8d682cd00,PennController,9,0,experiment,NULL,PennController,8,_Trial_,Start,1687288004399,5bfb724acad1240001e8f657,5bfb724acad1240001e8f657,6,flower,critical,D,75,flower65.jpg,flower85.jpg,high,NULL
1687288176,e010b8e0fd77694db780a7c8d682cd00,PennController,9,0,experiment,NULL,PennController,8,_Header_,Start,1687288004399,5bfb724acad1240001e8f657,5bfb724acad1240001e8f657,6,flower,critical,D,75,flower65.jpg,flower85.jpg,high,NULL
1687288176,e010b8e0fd77694db780a7c8d682cd00,PennController,9,0,experiment,NULL,PennController,8,_Header_,End,1687288004399,5bfb724acad1240001e8f657,5bfb724acad1240001e8f657,6,flower,critical,D,75,flower65.jpg,flower85.jpg,high,NULL
1687288176,e010b8e0fd77694db780a7c8d682cd00,PennController,9,0,experiment,NULL,Canvas,canvas6,Print,NA,1687288012122,5bfb724acad1240001e8f657,5bfb724acad1240001e8f657,6,flower,critical,D,75,flower65.jpg,flower85.jpg,high,NULL
1687288176,e010b8e0fd77694db780a7c8d682cd00,PennController,9,0,experiment,NULL,Video,progression,buffer,0.005155,1687288007933,5bfb724acad1240001e8f657,5bfb724acad1240001e8f657,6,flower,critical,D,75,flower65.jpg,flower85.jpg,high,NULL
1687288176,e010b8e0fd77694db780a7c8d682cd00,PennController,9,0,experiment,NULL,Selector,choice,Selection,option2,1687288047716,5bfb724acad1240001e8f657,5bfb724acad1240001e8f657,6,flower,critical,D,75,flower65.jpg,flower85.jpg,high,option1;option2
1687288176,e010b8e0fd77694db780a7c8d682cd00,PennController,9,0,experiment,NULL,PennController,8,_Trial_,End,1687288047717,5bfb724acad1240001e8f657,5bfb724acad1240001e8f657,6,flower,critical,D,75,flower65.jpg,flower85.jpg,high,NULL
1687288176,e010b8e0fd77694db780a7c8d682cd00,PennController,16,0,experiment,NULL,PennController,15,_Trial_,Start,1687288047717,5bfb724acad1240001e8f657,5bfb724acad1240001e8f657,13,mix,critical,D,25,mix15.jpg,mix35.jpg,high,NULL
1687288176,e010b8e0fd77694db780a7c8d682cd00,PennController,16,0,experiment,NULL,PennController,15,_Header_,Start,1687288047717,5bfb724acad1240001e8f657,5bfb724acad1240001e8f657,13,mix,critical,D,25,mix15.jpg,mix35.jpg,high,NULL
1687288176,e010b8e0fd77694db780a7c8d682cd00,PennController,16,0,experiment,NULL,PennController,15,_Header_,End,1687288047717,5bfb724acad1240001e8f657,5bfb724acad1240001e8f657,13,mix,critical,D,25,mix15.jpg,mix35.jpg,high,NULL
1687288176,e010b8e0fd77694db780a7c8d682cd00,PennController,16,0,experiment,NULL,Canvas,canvas6,Print,NA,1687288053442,5bfb724acad1240001e8f657,5bfb724acad1240001e8f657,13,mix,critical,D,25,mix15.jpg,mix35.jpg,high,NULL
1687288176,e010b8e0fd77694db780a7c8d682cd00,PennController,16,0,experiment,NULL,Video,progression,buffer,0.002222,1687288051240,5bfb724acad1240001e8f657,5bfb724acad1240001e8f657,13,mix,critical,D,25,mix15.jpg,mix35.jpg,high,NULL
1687288176,e010b8e0fd77694db780a7c8d682cd00,PennController,16,0,experiment,NULL,Selector,choice,Selection,option2,1687288071905,5bfb724acad1240001e8f657,5bfb724acad1240001e8f657,13,mix,critical,D,25,mix15.jpg,mix35.jpg,high,option1;option2
1687288176,e010b8e0fd77694db780a7c8d682cd00,PennController,16,0,experiment,NULL,PennController,15,_Trial_,End,1687288071906,5bfb724acad1240001e8f657,5bfb724acad1240001e8f657,13,mix,critical,D,25,mix15.jpg,mix35.jpg,high,NULL
1687288176,e010b8e0fd77694db780a7c8d682cd00,PennController,21,0,experiment,NULL,PennController,20,_Trial_,Start,1687288071907,5bfb724acad1240001e8f657,5bfb724acad1240001e8f657,18,ball,critical,D,75,ball65.jpg,ball85.jpg,high,NULL
1687288176,e010b8e0fd77694db780a7c8d682cd00,PennController,21,0,experiment,NULL,PennController,20,_Header_,Start,1687288071907,5bfb724acad1240001e8f657,5bfb724acad1240001e8f657,18,ball,critical,D,75,ball65.jpg,ball85.jpg,high,NULL
1687288176,e010b8e0fd77694db780a7c8d682cd00,PennController,21,0,experiment,NULL,PennController,20,_Header_,End,1687288071907,5bfb724acad1240001e8f657,5bfb724acad1240001e8f657,18,ball,critical,D,75,ball65.jpg,ball85.jpg,high,NULL
1687288176,e010b8e0fd77694db780a7c8d682cd00,PennController,21,0,experiment,NULL,Canvas,canvas6,Print,NA,1687288079622,5bfb724acad1240001e8f657,5bfb724acad1240001e8f657,18,ball,critical,D,75,ball65.jpg,ball85.jpg,high,NULL
1687288176,e010b8e0fd77694db780a7c8d682cd00,PennController,21,0,experiment,NULL,Video,progression,buffer,0.001882,1687288075431,5bfb724acad1240001e8f657,5bfb724acad1240001e8f657,18,ball,critical,D,75,ball65.jpg,ball85.jpg,high,NULL
1687288176,e010b8e0fd77694db780a7c8d682cd00,PennController,21,0,experiment,NULL,Selector,choice,Selection,option2,1687288081574,5bfb724acad1240001e8f657,5bfb724acad1240001e8f657,18,ball,critical,D,75,ball65.jpg,ball85.jpg,high,option1;option2
1687288176,e010b8e0fd77694db780a7c8d682cd00,PennController,21,0,experiment,NULL,PennController,20,_Trial_,End,1687288081575,5bfb724acad1240001e8f657,5bfb724acad1240001e8f657,18,ball,critical,D,75,ball65.jpg,ball85.jpg,high,NULL
1687288176,e010b8e0fd77694db780a7c8d682cd00,PennController,23,0,experiment,NULL,PennController,22,_Trial_,Start,1687288081575,5bfb724acad1240001e8f657,5bfb724acad1240001e8f657,20,cat,filler,D,50,cat40.jpg,cat60.jpg,GoalA,NULL
1687288176,e010b8e0fd77694db780a7c8d682cd00,PennController,23,0,experiment,NULL,PennController,22,_Header_,Start,1687288081575,5bfb724acad1240001e8f657,5bfb724acad1240001e8f657,20,cat,filler,D,50,cat40.jpg,cat60.jpg,GoalA,NULL
1687288176,e010b8e0fd77694db780a7c8d682cd00,PennController,23,0,experiment,NULL,PennController,22,_Header_,End,1687288081575,5bfb724acad1240001e8f657,5bfb724acad1240001e8f657,20,cat,filler,D,50,cat40.jpg,cat60.jpg,GoalA,NULL
1687288176,e010b8e0fd77694db780a7c8d682cd00,PennController,23,0,experiment,NULL,Canvas,canvas6,Print,NA,1687288088298,5bfb724acad1240001e8f657,5bfb724acad1240001e8f657,20,cat,filler,D,50,cat40.jpg,cat60.jpg,GoalA,NULL
1687288176,e010b8e0fd77694db780a7c8d682cd00,PennController,23,0,experiment,NULL,Video,progression,buffer,0.009136,1687288085105,5bfb724acad1240001e8f657,5bfb724acad1240001e8f657,20,cat,filler,D,50,cat40.jpg,cat60.jpg,GoalA,NULL
1687288176,e010b8e0fd77694db780a7c8d682cd00,PennController,23,0,experiment,NULL,Selector,choice,Selection,option2,1687288089735,5bfb724acad1240001e8f657,5bfb724acad1240001e8f657,20,cat,filler,D,50,cat40.jpg,cat60.jpg,GoalA,option2;option1
1687288176,e010b8e0fd77694db780a7c8d682cd00,PennController,23,0,experiment,NULL,PennController,22,_Trial_,End,1687288089737,5bfb724acad1240001e8f657,5bfb724acad1240001e8f657,20,cat,filler,D,50,cat40.jpg,cat60.jpg,GoalA,NULL
1687288176,e010b8e0fd77694db780a7c8d682cd00,PennController,19,0,experiment,NULL,PennController,18,_Trial_,Start,1687288089740,5bfb724acad1240001e8f657,5bfb724acad1240001e8f657,16,blinds,critical,D,25,blinds15.jpg,blinds33.jpg,high,NULL
1687288176,e010b8e0fd77694db780a7c8d682cd00,PennController,19,0,experiment,NULL,PennController,18,_Header_,Start,1687288089740,5bfb724acad1240001e8f657,5bfb724acad1240001e8f657,16,blinds,critical,D,25,blinds15.jpg,blinds33.jpg,high,NULL
1687288176,e010b8e0fd77694db780a7c8d682cd00,PennController,19,0,experiment,NULL,PennController,18,_Header_,End,1687288089740,5bfb724acad1240001e8f657,5bfb724acad1240001e8f657,16,blinds,critical,D,25,blinds15.jpg,blinds33.jpg,high,NULL
1687288176,e010b8e0fd77694db780a7c8d682cd00,PennController,19,0,experiment,NULL,Canvas,canvas6,Print,NA,1687288096055,5bfb724acad1240001e8f657,5bfb724acad1240001e8f657,16,blinds,critical,D,25,blinds15.jpg,blinds33.jpg,high,NULL
1687288176,e010b8e0fd77694db780a7c8d682cd00,PennController,19,0,experiment,NULL,Video,progression,buffer,0.002123,1687288093261,5bfb724acad1240001e8f657,5bfb724acad1240001e8f657,16,blinds,critical,D,25,blinds15.jpg,blinds33.jpg,high,NULL
1687288176,e010b8e0fd77694db780a7c8d682cd00,PennController,19,0,experiment,NULL,Selector,choice,Selection,option2,1687288097401,5bfb724acad1240001e8f657,5bfb724acad1240001e8f657,16,blinds,critical,D,25,blinds15.jpg,blinds33.jpg,high,option2;option1
1687288176,e010b8e0fd77694db780a7c8d682cd00,PennController,19,0,experiment,NULL,PennController,18,_Trial_,End,1687288097402,5bfb724acad1240001e8f657,5bfb724acad1240001e8f657,16,blinds,critical,D,25,blinds15.jpg,blinds33.jpg,high,NULL
1687288176,e010b8e0fd77694db780a7c8d682cd00,PennController,28,0,experiment,NULL,PennController,27,_Trial_,Start,1687288097403,5bfb724acad1240001e8f657,5bfb724acad1240001e8f657,25,house,filler,D,25,house15.jpg,house35.jpg,GoalB,NULL
1687288176,e010b8e0fd77694db780a7c8d682cd00,PennController,28,0,experiment,NULL,PennController,27,_Header_,Start,1687288097403,5bfb724acad1240001e8f657,5bfb724acad1240001e8f657,25,house,filler,D,25,house15.jpg,house35.jpg,GoalB,NULL
1687288176,e010b8e0fd77694db780a7c8d682cd00,PennController,28,0,experiment,NULL,PennController,27,_Header_,End,1687288097403,5bfb724acad1240001e8f657,5bfb724acad1240001e8f657,25,house,filler,D,25,house15.jpg,house35.jpg,GoalB,NULL
1687288176,e010b8e0fd77694db780a7c8d682cd00,PennController,28,0,experiment,NULL,Canvas,canvas6,Print,NA,1687288103121,5bfb724acad1240001e8f657,5bfb724acad1240001e8f657,25,house,filler,D,25,house15.jpg,house35.jpg,GoalB,NULL
1687288176,e010b8e0fd77694db780a7c8d682cd00,PennController,28,0,experiment,NULL,Video,progression,buffer,0.002309,1687288100926,5bfb724acad1240001e8f657,5bfb724acad1240001e8f657,25,house,filler,D,25,house15.jpg,house35.jpg,GoalB,NULL
1687288176,e010b8e0fd77694db780a7c8d682cd00,PennController,28,0,experiment,NULL,Selector,choice,Selection,option2,1687288106199,5bfb724acad1240001e8f657,5bfb724acad1240001e8f657,25,house,filler,D,25,house15.jpg,house35.jpg,GoalB,option1;option2
1687288176,e010b8e0fd77694db780a7c8d682cd00,PennController,28,0,experiment,NULL,PennController,27,_Trial_,End,1687288106200,5bfb724acad1240001e8f657,5bfb724acad1240001e8f657,25,house,filler,D,25,house15.jpg,house35.jpg,GoalB,NULL
1687288176,e010b8e0fd77694db780a7c8d682cd00,PennController,30,0,experiment,NULL,PennController,29,_Trial_,Start,1687288106200,5bfb724acad1240001e8f657,5bfb724acad1240001e8f657,27,square,filler,D,75,square65.jpg,square85.jpg,GoalB,NULL
1687288176,e010b8e0fd77694db780a7c8d682cd00,PennController,30,0,experiment,NULL,PennController,29,_Header_,Start,1687288106200,5bfb724acad1240001e8f657,5bfb724acad1240001e8f657,27,square,filler,D,75,square65.jpg,square85.jpg,GoalB,NULL
1687288176,e010b8e0fd77694db780a7c8d682cd00,PennController,30,0,experiment,NULL,PennController,29,_Header_,End,1687288106200,5bfb724acad1240001e8f657,5bfb724acad1240001e8f657,27,square,filler,D,75,square65.jpg,square85.jpg,GoalB,NULL
1687288176,e010b8e0fd77694db780a7c8d682cd00,PennController,30,0,experiment,NULL,Canvas,canvas6,Print,NA,1687288113913,5bfb724acad1240001e8f657,5bfb724acad1240001e8f657,27,square,filler,D,75,square65.jpg,square85.jpg,GoalB,NULL
1687288176,e010b8e0fd77694db780a7c8d682cd00,PennController,30,0,experiment,NULL,Video,progression,buffer,0.007786,1687288109731,5bfb724acad1240001e8f657,5bfb724acad1240001e8f657,27,square,filler,D,75,square65.jpg,square85.jpg,GoalB,NULL
1687288176,e010b8e0fd77694db780a7c8d682cd00,PennController,30,0,experiment,NULL,Selector,choice,Selection,option2,1687288115724,5bfb724acad1240001e8f657,5bfb724acad1240001e8f657,27,square,filler,D,75,square65.jpg,square85.jpg,GoalB,option1;option2
1687288176,e010b8e0fd77694db780a7c8d682cd00,PennController,30,0,experiment,NULL,PennController,29,_Trial_,End,1687288115726,5bfb724acad1240001e8f657,5bfb724acad1240001e8f657,27,square,filler,D,75,square65.jpg,square85.jpg,GoalB,NULL
1687288176,e010b8e0fd77694db780a7c8d682cd00,PennController,24,0,experiment,NULL,PennController,23,_Trial_,Start,1687288115729,5bfb724acad1240001e8f657,5bfb724acad1240001e8f657,21,visit,filler,D,75,visit65.jpg,visit85.jpg,GoalB,NULL
1687288176,e010b8e0fd77694db780a7c8d682cd00,PennController,24,0,experiment,NULL,PennController,23,_Header_,Start,1687288115729,5bfb724acad1240001e8f657,5bfb724acad1240001e8f657,21,visit,filler,D,75,visit65.jpg,visit85.jpg,GoalB,NULL
1687288176,e010b8e0fd77694db780a7c8d682cd00,PennController,24,0,experiment,NULL,PennController,23,_Header_,End,1687288115729,5bfb724acad1240001e8f657,5bfb724acad1240001e8f657,21,visit,filler,D,75,visit65.jpg,visit85.jpg,GoalB,NULL
1687288176,e010b8e0fd77694db780a7c8d682cd00,PennController,24,0,experiment,NULL,Canvas,canvas6,Print,NA,1687288123451,5bfb724acad1240001e8f657,5bfb724acad1240001e8f657,21,visit,filler,D,75,visit65.jpg,visit85.jpg,GoalB,NULL
1687288176,e010b8e0fd77694db780a7c8d682cd00,PennController,24,0,experiment,NULL,Video,progression,buffer,0.001694,1687288119249,5bfb724acad1240001e8f657,5bfb724acad1240001e8f657,21,visit,filler,D,75,visit65.jpg,visit85.jpg,GoalB,NULL
1687288176,e010b8e0fd77694db780a7c8d682cd00,PennController,24,0,experiment,NULL,Selector,choice,Selection,option2,1687288138261,5bfb724acad1240001e8f657,5bfb724acad1240001e8f657,21,visit,filler,D,75,visit65.jpg,visit85.jpg,GoalB,option1;option2
1687288176,e010b8e0fd77694db780a7c8d682cd00,PennController,24,0,experiment,NULL,PennController,23,_Trial_,End,1687288138263,5bfb724acad1240001e8f657,5bfb724acad1240001e8f657,21,visit,filler,D,75,visit65.jpg,visit85.jpg,GoalB,NULL
1687288176,e010b8e0fd77694db780a7c8d682cd00,PennController,5,0,experiment,NULL,PennController,4,_Trial_,Start,1687288138266,5bfb724acad1240001e8f657,5bfb724acad1240001e8f657,2,door,critical,D,50,door40.jpg,door60.jpg,high,NULL
1687288176,e010b8e0fd77694db780a7c8d682cd00,PennController,5,0,experiment,NULL,PennController,4,_Header_,Start,1687288138266,5bfb724acad1240001e8f657,5bfb724acad1240001e8f657,2,door,critical,D,50,door40.jpg,door60.jpg,high,NULL
1687288176,e010b8e0fd77694db780a7c8d682cd00,PennController,5,0,experiment,NULL,PennController,4,_Header_,End,1687288138266,5bfb724acad1240001e8f657,5bfb724acad1240001e8f657,2,door,critical,D,50,door40.jpg,door60.jpg,high,NULL
1687288176,e010b8e0fd77694db780a7c8d682cd00,PennController,5,0,experiment,NULL,Canvas,canvas6,Print,NA,1687288144978,5bfb724acad1240001e8f657,5bfb724acad1240001e8f657,2,door,critical,D,50,door40.jpg,door60.jpg,high,NULL
1687288176,e010b8e0fd77694db780a7c8d682cd00,PennController,5,0,experiment,NULL,Video,progression,buffer,0.001637,1687288141791,5bfb724acad1240001e8f657,5bfb724acad1240001e8f657,2,door,critical,D,50,door40.jpg,door60.jpg,high,NULL
1687288176,e010b8e0fd77694db780a7c8d682cd00,PennController,5,0,experiment,NULL,Selector,choice,Selection,option1,1687288148296,5bfb724acad1240001e8f657,5bfb724acad1240001e8f657,2,door,critical,D,50,door40.jpg,door60.jpg,high,option1;option2
1687288176,e010b8e0fd77694db780a7c8d682cd00,PennController,5,0,experiment,NULL,PennController,4,_Trial_,End,1687288148296,5bfb724acad1240001e8f657,5bfb724acad1240001e8f657,2,door,critical,D,50,door40.jpg,door60.jpg,high,NULL
1687288176,e010b8e0fd77694db780a7c8d682cd00,PennController,22,0,experiment,NULL,PennController,21,_Trial_,Start,1687288148297,5bfb724acad1240001e8f657,5bfb724acad1240001e8f657,19,cup,filler,D,25,cup15.jpg,cup35.jpg,GoalB,NULL
1687288176,e010b8e0fd77694db780a7c8d682cd00,PennController,22,0,experiment,NULL,PennController,21,_Header_,Start,1687288148297,5bfb724acad1240001e8f657,5bfb724acad1240001e8f657,19,cup,filler,D,25,cup15.jpg,cup35.jpg,GoalB,NULL
1687288176,e010b8e0fd77694db780a7c8d682cd00,PennController,22,0,experiment,NULL,PennController,21,_Header_,End,1687288148297,5bfb724acad1240001e8f657,5bfb724acad1240001e8f657,19,cup,filler,D,25,cup15.jpg,cup35.jpg,GoalB,NULL
1687288176,e010b8e0fd77694db780a7c8d682cd00,PennController,22,0,experiment,NULL,Canvas,canvas6,Print,NA,1687288154022,5bfb724acad1240001e8f657,5bfb724acad1240001e8f657,19,cup,filler,D,25,cup15.jpg,cup35.jpg,GoalB,NULL
1687288176,e010b8e0fd77694db780a7c8d682cd00,PennController,22,0,experiment,NULL,Video,progression,buffer,0.002006,1687288151827,5bfb724acad1240001e8f657,5bfb724acad1240001e8f657,19,cup,filler,D,25,cup15.jpg,cup35.jpg,GoalB,NULL
1687288176,e010b8e0fd77694db780a7c8d682cd00,PennController,22,0,experiment,NULL,Selector,choice,Selection,option1,1687288156112,5bfb724acad1240001e8f657,5bfb724acad1240001e8f657,19,cup,filler,D,25,cup15.jpg,cup35.jpg,GoalB,option2;option1
1687288176,e010b8e0fd77694db780a7c8d682cd00,PennController,22,0,experiment,NULL,PennController,21,_Trial_,End,1687288156115,5bfb724acad1240001e8f657,5bfb724acad1240001e8f657,19,cup,filler,D,25,cup15.jpg,cup35.jpg,GoalB,NULL
1687288176,e010b8e0fd77694db780a7c8d682cd00,PennController,26,0,experiment,NULL,PennController,25,_Trial_,Start,1687288156117,5bfb724acad1240001e8f657,5bfb724acad1240001e8f657,23,color,filler,D,50,color40.jpg,color60.jpg,GoalB,NULL
1687288176,e010b8e0fd77694db780a7c8d682cd00,PennController,26,0,experiment,NULL,PennController,25,_Header_,Start,1687288156117,5bfb724acad1240001e8f657,5bfb724acad1240001e8f657,23,color,filler,D,50,color40.jpg,color60.jpg,GoalB,NULL
1687288176,e010b8e0fd77694db780a7c8d682cd00,PennController,26,0,experiment,NULL,PennController,25,_Header_,End,1687288156117,5bfb724acad1240001e8f657,5bfb724acad1240001e8f657,23,color,filler,D,50,color40.jpg,color60.jpg,GoalB,NULL
1687288176,e010b8e0fd77694db780a7c8d682cd00,PennController,26,0,experiment,NULL,Canvas,canvas6,Print,NA,1687288162838,5bfb724acad1240001e8f657,5bfb724acad1240001e8f657,23,color,filler,D,50,color40.jpg,color60.jpg,GoalB,NULL
1687288176,e010b8e0fd77694db780a7c8d682cd00,PennController,26,0,experiment,NULL,Video,progression,buffer,0.001398,1687288159637,5bfb724acad1240001e8f657,5bfb724acad1240001e8f657,23,color,filler,D,50,color40.jpg,color60.jpg,GoalB,NULL
1687288176,e010b8e0fd77694db780a7c8d682cd00,PennController,26,0,experiment,NULL,Selector,choice,Selection,option2,1687288165778,5bfb724acad1240001e8f657,5bfb724acad1240001e8f657,23,color,filler,D,50,color40.jpg,color60.jpg,GoalB,option2;option1
1687288176,e010b8e0fd77694db780a7c8d682cd00,PennController,26,0,experiment,NULL,PennController,25,_Trial_,End,1687288165779,5bfb724acad1240001e8f657,5bfb724acad1240001e8f657,23,color,filler,D,50,color40.jpg,color60.jpg,GoalB,NULL
1687288176,e010b8e0fd77694db780a7c8d682cd00,PennController,15,0,experiment,NULL,PennController,14,_Trial_,Start,1687288165779,5bfb724acad1240001e8f657,5bfb724acad1240001e8f657,12,erase,critical,D,75,erase66.jpg,erase84.jpg,high,NULL
1687288176,e010b8e0fd77694db780a7c8d682cd00,PennController,15,0,experiment,NULL,PennController,14,_Header_,Start,1687288165779,5bfb724acad1240001e8f657,5bfb724acad1240001e8f657,12,erase,critical,D,75,erase66.jpg,erase84.jpg,high,NULL
1687288176,e010b8e0fd77694db780a7c8d682cd00,PennController,15,0,experiment,NULL,PennController,14,_Header_,End,1687288165779,5bfb724acad1240001e8f657,5bfb724acad1240001e8f657,12,erase,critical,D,75,erase66.jpg,erase84.jpg,high,NULL
1687288176,e010b8e0fd77694db780a7c8d682cd00,PennController,15,0,experiment,NULL,Canvas,canvas6,Print,NA,1687288175508,5bfb724acad1240001e8f657,5bfb724acad1240001e8f657,12,erase,critical,D,75,erase66.jpg,erase84.jpg,high,NULL
1687288176,e010b8e0fd77694db780a7c8d682cd00,PennController,15,0,experiment,NULL,Video,progression,buffer,0.00614,1687288169314,5bfb724acad1240001e8f657,5bfb724acad1240001e8f657,12,erase,critical,D,75,erase66.jpg,erase84.jpg,high,NULL
1687288176,e010b8e0fd77694db780a7c8d682cd00,PennController,15,0,experiment,NULL,Selector,choice,Selection,option2,1687288177047,5bfb724acad1240001e8f657,5bfb724acad1240001e8f657,12,erase,critical,D,75,erase66.jpg,erase84.jpg,high,option1;option2
1687288176,e010b8e0fd77694db780a7c8d682cd00,PennController,15,0,experiment,NULL,PennController,14,_Trial_,End,1687288177048,5bfb724acad1240001e8f657,5bfb724acad1240001e8f657,12,erase,critical,D,75,erase66.jpg,erase84.jpg,high,NULL
