#
# Results on Tuesday June 20 2023 18:57:08 UTC
# USER AGENT: Mozilla/5.0 (Windows NT 10.0; Win64; x64) AppleWebKit/537.36 (KHTML, like Gecko) Chrome/114.0.0.0 Safari/537.36 Edg/114.0.1823.51
# Design number was non-random = 3
#
# Columns below this comment are as follows:
# 1. Results reception time.
# 2. MD5 hash of participant's IP address.
# 3. Controller name.
# 4. Order number of item.
# 5. Inner element number.
# 6. Label.
# 7. Latin Square Group.
# 8. PennElementType.
# 9. PennElementName.
# 10. Parameter.
# 11. Value.
# 12. EventTime.
# 13. PROLIFIC_ID.
# 14. Comments.
1687287428,62d14bf09b1bee045d8c5ba1af966277,PennController,2,0,consent,NULL,PennController,0,_Trial_,Start,1687287049607,6481bcfae0e56c51d8be4de7,NULL
1687287428,62d14bf09b1bee045d8c5ba1af966277,PennController,2,0,consent,NULL,PennController,0,_Header_,Start,1687287049607,6481bcfae0e56c51d8be4de7,NULL
1687287428,62d14bf09b1bee045d8c5ba1af966277,PennController,2,0,consent,NULL,PennController,0,_Header_,End,1687287049607,6481bcfae0e56c51d8be4de7,NULL
1687287428,62d14bf09b1bee045d8c5ba1af966277,PennController,2,0,consent,NULL,PennController,0,_Trial_,End,1687287117536,6481bcfae0e56c51d8be4de7,NULL
# Columns below this comment are as follows:
# 14. ID.
# 15. Comments.
1687287428,62d14bf09b1bee045d8c5ba1af966277,PennController,3,0,intro,NULL,PennController,1,_Trial_,Start,1687287117538,6481bcfae0e56c51d8be4de7,6481bcfae0e56c51d8be4de7,NULL
1687287428,62d14bf09b1bee045d8c5ba1af966277,PennController,3,0,intro,NULL,PennController,1,_Header_,Start,1687287117538,6481bcfae0e56c51d8be4de7,6481bcfae0e56c51d8be4de7,NULL
1687287428,62d14bf09b1bee045d8c5ba1af966277,PennController,3,0,intro,NULL,PennController,1,_Header_,End,1687287117538,6481bcfae0e56c51d8be4de7,6481bcfae0e56c51d8be4de7,NULL
1687287428,62d14bf09b1bee045d8c5ba1af966277,PennController,3,0,intro,NULL,PennController,1,_Trial_,End,1687287124530,6481bcfae0e56c51d8be4de7,6481bcfae0e56c51d8be4de7,NULL
# Columns below this comment are as follows:
# 15. item_number.
# 16. item.
# 17. type.
# 18. Group.
# 19. prog.
# 20. prev_image.
# 21. next_image.
# 22. height.
# 23. Comments.
1687287428,62d14bf09b1bee045d8c5ba1af966277,PennController,11,0,experiment,NULL,PennController,10,_Trial_,Start,1687287124531,6481bcfae0e56c51d8be4de7,6481bcfae0e56c51d8be4de7,8,cucumber,critical,D,50,cucumber42.jpg,cucumber60.jpg,high,NULL
1687287428,62d14bf09b1bee045d8c5ba1af966277,PennController,11,0,experiment,NULL,PennController,10,_Header_,Start,1687287124531,6481bcfae0e56c51d8be4de7,6481bcfae0e56c51d8be4de7,8,cucumber,critical,D,50,cucumber42.jpg,cucumber60.jpg,high,NULL
1687287428,62d14bf09b1bee045d8c5ba1af966277,PennController,11,0,experiment,NULL,PennController,10,_Header_,End,1687287124531,6481bcfae0e56c51d8be4de7,6481bcfae0e56c51d8be4de7,8,cucumber,critical,D,50,cucumber42.jpg,cucumber60.jpg,high,NULL
1687287428,62d14bf09b1bee045d8c5ba1af966277,PennController,11,0,experiment,NULL,Canvas,canvas6,Print,NA,1687287132627,6481bcfae0e56c51d8be4de7,6481bcfae0e56c51d8be4de7,8,cucumber,critical,D,50,cucumber42.jpg,cucumber60.jpg,high,NULL
1687287428,62d14bf09b1bee045d8c5ba1af966277,PennController,11,0,experiment,NULL,Video,progression,buffer,0.00156,1687287128058,6481bcfae0e56c51d8be4de7,6481bcfae0e56c51d8be4de7,8,cucumber,critical,D,50,cucumber42.jpg,cucumber60.jpg,high,NULL
1687287428,62d14bf09b1bee045d8c5ba1af966277,PennController,11,0,experiment,NULL,Selector,choice,Selection,option2,1687287136779,6481bcfae0e56c51d8be4de7,6481bcfae0e56c51d8be4de7,8,cucumber,critical,D,50,cucumber42.jpg,cucumber60.jpg,high,option2;option1
1687287428,62d14bf09b1bee045d8c5ba1af966277,PennController,11,0,experiment,NULL,PennController,10,_Trial_,End,1687287136780,6481bcfae0e56c51d8be4de7,6481bcfae0e56c51d8be4de7,8,cucumber,critical,D,50,cucumber42.jpg,cucumber60.jpg,high,NULL
1687287428,62d14bf09b1bee045d8c5ba1af966277,PennController,22,0,experiment,NULL,PennController,21,_Trial_,Start,1687287136781,6481bcfae0e56c51d8be4de7,6481bcfae0e56c51d8be4de7,19,cup,filler,D,25,cup15.jpg,cup35.jpg,GoalB,NULL
1687287428,62d14bf09b1bee045d8c5ba1af966277,PennController,22,0,experiment,NULL,PennController,21,_Header_,Start,1687287136781,6481bcfae0e56c51d8be4de7,6481bcfae0e56c51d8be4de7,19,cup,filler,D,25,cup15.jpg,cup35.jpg,GoalB,NULL
1687287428,62d14bf09b1bee045d8c5ba1af966277,PennController,22,0,experiment,NULL,PennController,21,_Header_,End,1687287136781,6481bcfae0e56c51d8be4de7,6481bcfae0e56c51d8be4de7,19,cup,filler,D,25,cup15.jpg,cup35.jpg,GoalB,NULL
1687287428,62d14bf09b1bee045d8c5ba1af966277,PennController,22,0,experiment,NULL,Canvas,canvas6,Print,NA,1687287142468,6481bcfae0e56c51d8be4de7,6481bcfae0e56c51d8be4de7,19,cup,filler,D,25,cup15.jpg,cup35.jpg,GoalB,NULL
1687287428,62d14bf09b1bee045d8c5ba1af966277,PennController,22,0,experiment,NULL,Video,progression,buffer,0.001673,1687287140294,6481bcfae0e56c51d8be4de7,6481bcfae0e56c51d8be4de7,19,cup,filler,D,25,cup15.jpg,cup35.jpg,GoalB,NULL
1687287428,62d14bf09b1bee045d8c5ba1af966277,PennController,22,0,experiment,NULL,Selector,choice,Selection,option1,1687287144243,6481bcfae0e56c51d8be4de7,6481bcfae0e56c51d8be4de7,19,cup,filler,D,25,cup15.jpg,cup35.jpg,GoalB,option1;option2
1687287428,62d14bf09b1bee045d8c5ba1af966277,PennController,22,0,experiment,NULL,PennController,21,_Trial_,End,1687287144244,6481bcfae0e56c51d8be4de7,6481bcfae0e56c51d8be4de7,19,cup,filler,D,25,cup15.jpg,cup35.jpg,GoalB,NULL
1687287428,62d14bf09b1bee045d8c5ba1af966277,PennController,25,0,experiment,NULL,PennController,24,_Trial_,Start,1687287144245,6481bcfae0e56c51d8be4de7,6481bcfae0e56c51d8be4de7,22,wall,filler,D,25,wall15.jpg,wall35.jpg,GoalA,NULL
1687287428,62d14bf09b1bee045d8c5ba1af966277,PennController,25,0,experiment,NULL,PennController,24,_Header_,Start,1687287144245,6481bcfae0e56c51d8be4de7,6481bcfae0e56c51d8be4de7,22,wall,filler,D,25,wall15.jpg,wall35.jpg,GoalA,NULL
1687287428,62d14bf09b1bee045d8c5ba1af966277,PennController,25,0,experiment,NULL,PennController,24,_Header_,End,1687287144245,6481bcfae0e56c51d8be4de7,6481bcfae0e56c51d8be4de7,22,wall,filler,D,25,wall15.jpg,wall35.jpg,GoalA,NULL
1687287428,62d14bf09b1bee045d8c5ba1af966277,PennController,25,0,experiment,NULL,Canvas,canvas6,Print,NA,1687287149938,6481bcfae0e56c51d8be4de7,6481bcfae0e56c51d8be4de7,22,wall,filler,D,25,wall15.jpg,wall35.jpg,GoalA,NULL
1687287428,62d14bf09b1bee045d8c5ba1af966277,PennController,25,0,experiment,NULL,Video,progression,buffer,0.002512,1687287147760,6481bcfae0e56c51d8be4de7,6481bcfae0e56c51d8be4de7,22,wall,filler,D,25,wall15.jpg,wall35.jpg,GoalA,NULL
1687287428,62d14bf09b1bee045d8c5ba1af966277,PennController,25,0,experiment,NULL,Selector,choice,Selection,option2,1687287152105,6481bcfae0e56c51d8be4de7,6481bcfae0e56c51d8be4de7,22,wall,filler,D,25,wall15.jpg,wall35.jpg,GoalA,option2;option1
1687287428,62d14bf09b1bee045d8c5ba1af966277,PennController,25,0,experiment,NULL,PennController,24,_Trial_,End,1687287152106,6481bcfae0e56c51d8be4de7,6481bcfae0e56c51d8be4de7,22,wall,filler,D,25,wall15.jpg,wall35.jpg,GoalA,NULL
1687287428,62d14bf09b1bee045d8c5ba1af966277,PennController,15,0,experiment,NULL,PennController,14,_Trial_,Start,1687287152107,6481bcfae0e56c51d8be4de7,6481bcfae0e56c51d8be4de7,12,erase,critical,D,75,erase66.jpg,erase84.jpg,high,NULL
1687287428,62d14bf09b1bee045d8c5ba1af966277,PennController,15,0,experiment,NULL,PennController,14,_Header_,Start,1687287152107,6481bcfae0e56c51d8be4de7,6481bcfae0e56c51d8be4de7,12,erase,critical,D,75,erase66.jpg,erase84.jpg,high,NULL
1687287428,62d14bf09b1bee045d8c5ba1af966277,PennController,15,0,experiment,NULL,PennController,14,_Header_,End,1687287152107,6481bcfae0e56c51d8be4de7,6481bcfae0e56c51d8be4de7,12,erase,critical,D,75,erase66.jpg,erase84.jpg,high,NULL
1687287428,62d14bf09b1bee045d8c5ba1af966277,PennController,15,0,experiment,NULL,Canvas,canvas6,Print,NA,1687287161805,6481bcfae0e56c51d8be4de7,6481bcfae0e56c51d8be4de7,12,erase,critical,D,75,erase66.jpg,erase84.jpg,high,NULL
1687287428,62d14bf09b1bee045d8c5ba1af966277,PennController,15,0,experiment,NULL,Video,progression,buffer,0.001355,1687287155625,6481bcfae0e56c51d8be4de7,6481bcfae0e56c51d8be4de7,12,erase,critical,D,75,erase66.jpg,erase84.jpg,high,NULL
1687287428,62d14bf09b1bee045d8c5ba1af966277,PennController,15,0,experiment,NULL,Selector,choice,Selection,option1,1687287164871,6481bcfae0e56c51d8be4de7,6481bcfae0e56c51d8be4de7,12,erase,critical,D,75,erase66.jpg,erase84.jpg,high,option1;option2
1687287428,62d14bf09b1bee045d8c5ba1af966277,PennController,15,0,experiment,NULL,PennController,14,_Trial_,End,1687287164872,6481bcfae0e56c51d8be4de7,6481bcfae0e56c51d8be4de7,12,erase,critical,D,75,erase66.jpg,erase84.jpg,high,NULL
1687287428,62d14bf09b1bee045d8c5ba1af966277,PennController,28,0,experiment,NULL,PennController,27,_Trial_,Start,1687287164872,6481bcfae0e56c51d8be4de7,6481bcfae0e56c51d8be4de7,25,house,filler,D,25,house15.jpg,house35.jpg,GoalB,NULL
1687287428,62d14bf09b1bee045d8c5ba1af966277,PennController,28,0,experiment,NULL,PennController,27,_Header_,Start,1687287164872,6481bcfae0e56c51d8be4de7,6481bcfae0e56c51d8be4de7,25,house,filler,D,25,house15.jpg,house35.jpg,GoalB,NULL
1687287428,62d14bf09b1bee045d8c5ba1af966277,PennController,28,0,experiment,NULL,PennController,27,_Header_,End,1687287164872,6481bcfae0e56c51d8be4de7,6481bcfae0e56c51d8be4de7,25,house,filler,D,25,house15.jpg,house35.jpg,GoalB,NULL
1687287428,62d14bf09b1bee045d8c5ba1af966277,PennController,28,0,experiment,NULL,Canvas,canvas6,Print,NA,1687287170571,6481bcfae0e56c51d8be4de7,6481bcfae0e56c51d8be4de7,25,house,filler,D,25,house15.jpg,house35.jpg,GoalB,NULL
1687287428,62d14bf09b1bee045d8c5ba1af966277,PennController,28,0,experiment,NULL,Video,progression,buffer,0.001313,1687287168387,6481bcfae0e56c51d8be4de7,6481bcfae0e56c51d8be4de7,25,house,filler,D,25,house15.jpg,house35.jpg,GoalB,NULL
1687287428,62d14bf09b1bee045d8c5ba1af966277,PennController,28,0,experiment,NULL,Selector,choice,Selection,option1,1687287172707,6481bcfae0e56c51d8be4de7,6481bcfae0e56c51d8be4de7,25,house,filler,D,25,house15.jpg,house35.jpg,GoalB,option1;option2
1687287428,62d14bf09b1bee045d8c5ba1af966277,PennController,28,0,experiment,NULL,PennController,27,_Trial_,End,1687287172708,6481bcfae0e56c51d8be4de7,6481bcfae0e56c51d8be4de7,25,house,filler,D,25,house15.jpg,house35.jpg,GoalB,NULL
1687287428,62d14bf09b1bee045d8c5ba1af966277,PennController,26,0,experiment,NULL,PennController,25,_Trial_,Start,1687287172709,6481bcfae0e56c51d8be4de7,6481bcfae0e56c51d8be4de7,23,color,filler,D,50,color40.jpg,color60.jpg,GoalB,NULL
1687287428,62d14bf09b1bee045d8c5ba1af966277,PennController,26,0,experiment,NULL,PennController,25,_Header_,Start,1687287172709,6481bcfae0e56c51d8be4de7,6481bcfae0e56c51d8be4de7,23,color,filler,D,50,color40.jpg,color60.jpg,GoalB,NULL
1687287428,62d14bf09b1bee045d8c5ba1af966277,PennController,26,0,experiment,NULL,PennController,25,_Header_,End,1687287172709,6481bcfae0e56c51d8be4de7,6481bcfae0e56c51d8be4de7,23,color,filler,D,50,color40.jpg,color60.jpg,GoalB,NULL
1687287428,62d14bf09b1bee045d8c5ba1af966277,PennController,26,0,experiment,NULL,Canvas,canvas6,Print,NA,1687287179396,6481bcfae0e56c51d8be4de7,6481bcfae0e56c51d8be4de7,23,color,filler,D,50,color40.jpg,color60.jpg,GoalB,NULL
1687287428,62d14bf09b1bee045d8c5ba1af966277,PennController,26,0,experiment,NULL,Video,progression,buffer,0.001974,1687287176222,6481bcfae0e56c51d8be4de7,6481bcfae0e56c51d8be4de7,23,color,filler,D,50,color40.jpg,color60.jpg,GoalB,NULL
1687287428,62d14bf09b1bee045d8c5ba1af966277,PennController,26,0,experiment,NULL,Selector,choice,Selection,option1,1687287182395,6481bcfae0e56c51d8be4de7,6481bcfae0e56c51d8be4de7,23,color,filler,D,50,color40.jpg,color60.jpg,GoalB,option2;option1
1687287428,62d14bf09b1bee045d8c5ba1af966277,PennController,26,0,experiment,NULL,PennController,25,_Trial_,End,1687287182396,6481bcfae0e56c51d8be4de7,6481bcfae0e56c51d8be4de7,23,color,filler,D,50,color40.jpg,color60.jpg,GoalB,NULL
1687287428,62d14bf09b1bee045d8c5ba1af966277,PennController,30,0,experiment,NULL,PennController,29,_Trial_,Start,1687287182397,6481bcfae0e56c51d8be4de7,6481bcfae0e56c51d8be4de7,27,square,filler,D,75,square65.jpg,square85.jpg,GoalB,NULL
1687287428,62d14bf09b1bee045d8c5ba1af966277,PennController,30,0,experiment,NULL,PennController,29,_Header_,Start,1687287182397,6481bcfae0e56c51d8be4de7,6481bcfae0e56c51d8be4de7,27,square,filler,D,75,square65.jpg,square85.jpg,GoalB,NULL
1687287428,62d14bf09b1bee045d8c5ba1af966277,PennController,30,0,experiment,NULL,PennController,29,_Header_,End,1687287182397,6481bcfae0e56c51d8be4de7,6481bcfae0e56c51d8be4de7,27,square,filler,D,75,square65.jpg,square85.jpg,GoalB,NULL
1687287428,62d14bf09b1bee045d8c5ba1af966277,PennController,30,0,experiment,NULL,Canvas,canvas6,Print,NA,1687287190949,6481bcfae0e56c51d8be4de7,6481bcfae0e56c51d8be4de7,27,square,filler,D,75,square65.jpg,square85.jpg,GoalB,NULL
1687287428,62d14bf09b1bee045d8c5ba1af966277,PennController,30,0,experiment,NULL,Video,progression,buffer,0.00284,1687287185953,6481bcfae0e56c51d8be4de7,6481bcfae0e56c51d8be4de7,27,square,filler,D,75,square65.jpg,square85.jpg,GoalB,NULL
1687287428,62d14bf09b1bee045d8c5ba1af966277,PennController,30,0,experiment,NULL,Selector,choice,Selection,option1,1687287197387,6481bcfae0e56c51d8be4de7,6481bcfae0e56c51d8be4de7,27,square,filler,D,75,square65.jpg,square85.jpg,GoalB,option1;option2
1687287428,62d14bf09b1bee045d8c5ba1af966277,PennController,30,0,experiment,NULL,PennController,29,_Trial_,End,1687287197388,6481bcfae0e56c51d8be4de7,6481bcfae0e56c51d8be4de7,27,square,filler,D,75,square65.jpg,square85.jpg,GoalB,NULL
1687287428,62d14bf09b1bee045d8c5ba1af966277,PennController,10,0,experiment,NULL,PennController,9,_Trial_,Start,1687287197389,6481bcfae0e56c51d8be4de7,6481bcfae0e56c51d8be4de7,7,stack,critical,D,25,stack15.jpg,stack35.jpg,high,NULL
1687287428,62d14bf09b1bee045d8c5ba1af966277,PennController,10,0,experiment,NULL,PennController,9,_Header_,Start,1687287197389,6481bcfae0e56c51d8be4de7,6481bcfae0e56c51d8be4de7,7,stack,critical,D,25,stack15.jpg,stack35.jpg,high,NULL
1687287428,62d14bf09b1bee045d8c5ba1af966277,PennController,10,0,experiment,NULL,PennController,9,_Header_,End,1687287197389,6481bcfae0e56c51d8be4de7,6481bcfae0e56c51d8be4de7,7,stack,critical,D,25,stack15.jpg,stack35.jpg,high,NULL
1687287428,62d14bf09b1bee045d8c5ba1af966277,PennController,10,0,experiment,NULL,Canvas,canvas6,Print,NA,1687287203077,6481bcfae0e56c51d8be4de7,6481bcfae0e56c51d8be4de7,7,stack,critical,D,25,stack15.jpg,stack35.jpg,high,NULL
1687287428,62d14bf09b1bee045d8c5ba1af966277,PennController,10,0,experiment,NULL,Video,progression,buffer,0.001238,1687287200905,6481bcfae0e56c51d8be4de7,6481bcfae0e56c51d8be4de7,7,stack,critical,D,25,stack15.jpg,stack35.jpg,high,NULL
1687287428,62d14bf09b1bee045d8c5ba1af966277,PennController,10,0,experiment,NULL,Selector,choice,Selection,option1,1687287204327,6481bcfae0e56c51d8be4de7,6481bcfae0e56c51d8be4de7,7,stack,critical,D,25,stack15.jpg,stack35.jpg,high,option1;option2
1687287428,62d14bf09b1bee045d8c5ba1af966277,PennController,10,0,experiment,NULL,PennController,9,_Trial_,End,1687287204328,6481bcfae0e56c51d8be4de7,6481bcfae0e56c51d8be4de7,7,stack,critical,D,25,stack15.jpg,stack35.jpg,high,NULL
1687287428,62d14bf09b1bee045d8c5ba1af966277,PennController,27,0,experiment,NULL,PennController,26,_Trial_,Start,1687287204329,6481bcfae0e56c51d8be4de7,6481bcfae0e56c51d8be4de7,24,match,filler,D,75,match65.jpg,match85.jpg,GoalA,NULL
1687287428,62d14bf09b1bee045d8c5ba1af966277,PennController,27,0,experiment,NULL,PennController,26,_Header_,Start,1687287204329,6481bcfae0e56c51d8be4de7,6481bcfae0e56c51d8be4de7,24,match,filler,D,75,match65.jpg,match85.jpg,GoalA,NULL
1687287428,62d14bf09b1bee045d8c5ba1af966277,PennController,27,0,experiment,NULL,PennController,26,_Header_,End,1687287204329,6481bcfae0e56c51d8be4de7,6481bcfae0e56c51d8be4de7,24,match,filler,D,75,match65.jpg,match85.jpg,GoalA,NULL
1687287428,62d14bf09b1bee045d8c5ba1af966277,PennController,27,0,experiment,NULL,Canvas,canvas6,Print,NA,1687287212023,6481bcfae0e56c51d8be4de7,6481bcfae0e56c51d8be4de7,24,match,filler,D,75,match65.jpg,match85.jpg,GoalA,NULL
1687287428,62d14bf09b1bee045d8c5ba1af966277,PennController,27,0,experiment,NULL,Video,progression,buffer,0.00213,1687287207843,6481bcfae0e56c51d8be4de7,6481bcfae0e56c51d8be4de7,24,match,filler,D,75,match65.jpg,match85.jpg,GoalA,NULL
1687287428,62d14bf09b1bee045d8c5ba1af966277,PennController,27,0,experiment,NULL,Selector,choice,Selection,option2,1687287213483,6481bcfae0e56c51d8be4de7,6481bcfae0e56c51d8be4de7,24,match,filler,D,75,match65.jpg,match85.jpg,GoalA,option2;option1
1687287428,62d14bf09b1bee045d8c5ba1af966277,PennController,27,0,experiment,NULL,PennController,26,_Trial_,End,1687287213484,6481bcfae0e56c51d8be4de7,6481bcfae0e56c51d8be4de7,24,match,filler,D,75,match65.jpg,match85.jpg,GoalA,NULL
1687287428,62d14bf09b1bee045d8c5ba1af966277,PennController,4,0,experiment,NULL,PennController,3,_Trial_,Start,1687287213485,6481bcfae0e56c51d8be4de7,6481bcfae0e56c51d8be4de7,1,vase,critical,D,25,vase15.jpg,vase35.jpg,high,NULL
1687287428,62d14bf09b1bee045d8c5ba1af966277,PennController,4,0,experiment,NULL,PennController,3,_Header_,Start,1687287213485,6481bcfae0e56c51d8be4de7,6481bcfae0e56c51d8be4de7,1,vase,critical,D,25,vase15.jpg,vase35.jpg,high,NULL
1687287428,62d14bf09b1bee045d8c5ba1af966277,PennController,4,0,experiment,NULL,PennController,3,_Header_,End,1687287213485,6481bcfae0e56c51d8be4de7,6481bcfae0e56c51d8be4de7,1,vase,critical,D,25,vase15.jpg,vase35.jpg,high,NULL
1687287428,62d14bf09b1bee045d8c5ba1af966277,PennController,4,0,experiment,NULL,Canvas,canvas6,Print,NA,1687287219175,6481bcfae0e56c51d8be4de7,6481bcfae0e56c51d8be4de7,1,vase,critical,D,25,vase15.jpg,vase35.jpg,high,NULL
1687287428,62d14bf09b1bee045d8c5ba1af966277,PennController,4,0,experiment,NULL,Video,progression,buffer,0.001327,1687287217000,6481bcfae0e56c51d8be4de7,6481bcfae0e56c51d8be4de7,1,vase,critical,D,25,vase15.jpg,vase35.jpg,high,NULL
1687287428,62d14bf09b1bee045d8c5ba1af966277,PennController,4,0,experiment,NULL,Selector,choice,Selection,option2,1687287220344,6481bcfae0e56c51d8be4de7,6481bcfae0e56c51d8be4de7,1,vase,critical,D,25,vase15.jpg,vase35.jpg,high,option1;option2
1687287428,62d14bf09b1bee045d8c5ba1af966277,PennController,4,0,experiment,NULL,PennController,3,_Trial_,End,1687287220345,6481bcfae0e56c51d8be4de7,6481bcfae0e56c51d8be4de7,1,vase,critical,D,25,vase15.jpg,vase35.jpg,high,NULL
1687287428,62d14bf09b1bee045d8c5ba1af966277,PennController,29,0,experiment,NULL,PennController,28,_Trial_,Start,1687287220345,6481bcfae0e56c51d8be4de7,6481bcfae0e56c51d8be4de7,26,sandwich,filler,D,50,sandwich40.jpg,sandwich60.jpg,GoalA,NULL
1687287428,62d14bf09b1bee045d8c5ba1af966277,PennController,29,0,experiment,NULL,PennController,28,_Header_,Start,1687287220345,6481bcfae0e56c51d8be4de7,6481bcfae0e56c51d8be4de7,26,sandwich,filler,D,50,sandwich40.jpg,sandwich60.jpg,GoalA,NULL
1687287428,62d14bf09b1bee045d8c5ba1af966277,PennController,29,0,experiment,NULL,PennController,28,_Header_,End,1687287220345,6481bcfae0e56c51d8be4de7,6481bcfae0e56c51d8be4de7,26,sandwich,filler,D,50,sandwich40.jpg,sandwich60.jpg,GoalA,NULL
1687287428,62d14bf09b1bee045d8c5ba1af966277,PennController,29,0,experiment,NULL,Canvas,canvas6,Print,NA,1687287227042,6481bcfae0e56c51d8be4de7,6481bcfae0e56c51d8be4de7,26,sandwich,filler,D,50,sandwich40.jpg,sandwich60.jpg,GoalA,NULL
1687287428,62d14bf09b1bee045d8c5ba1af966277,PennController,29,0,experiment,NULL,Video,progression,buffer,0.002635,1687287223866,6481bcfae0e56c51d8be4de7,6481bcfae0e56c51d8be4de7,26,sandwich,filler,D,50,sandwich40.jpg,sandwich60.jpg,GoalA,NULL
1687287428,62d14bf09b1bee045d8c5ba1af966277,PennController,29,0,experiment,NULL,Selector,choice,Selection,option1,1687287228696,6481bcfae0e56c51d8be4de7,6481bcfae0e56c51d8be4de7,26,sandwich,filler,D,50,sandwich40.jpg,sandwich60.jpg,GoalA,option2;option1
1687287428,62d14bf09b1bee045d8c5ba1af966277,PennController,29,0,experiment,NULL,PennController,28,_Trial_,End,1687287228697,6481bcfae0e56c51d8be4de7,6481bcfae0e56c51d8be4de7,26,sandwich,filler,D,50,sandwich40.jpg,sandwich60.jpg,GoalA,NULL
1687287428,62d14bf09b1bee045d8c5ba1af966277,PennController,8,0,experiment,NULL,PennController,7,_Trial_,Start,1687287228698,6481bcfae0e56c51d8be4de7,6481bcfae0e56c51d8be4de7,5,book,critical,D,50,book40.jpg,book60.jpg,high,NULL
1687287428,62d14bf09b1bee045d8c5ba1af966277,PennController,8,0,experiment,NULL,PennController,7,_Header_,Start,1687287228698,6481bcfae0e56c51d8be4de7,6481bcfae0e56c51d8be4de7,5,book,critical,D,50,book40.jpg,book60.jpg,high,NULL
1687287428,62d14bf09b1bee045d8c5ba1af966277,PennController,8,0,experiment,NULL,PennController,7,_Header_,End,1687287228698,6481bcfae0e56c51d8be4de7,6481bcfae0e56c51d8be4de7,5,book,critical,D,50,book40.jpg,book60.jpg,high,NULL
1687287428,62d14bf09b1bee045d8c5ba1af966277,PennController,8,0,experiment,NULL,Canvas,canvas6,Print,NA,1687287235390,6481bcfae0e56c51d8be4de7,6481bcfae0e56c51d8be4de7,5,book,critical,D,50,book40.jpg,book60.jpg,high,NULL
1687287428,62d14bf09b1bee045d8c5ba1af966277,PennController,8,0,experiment,NULL,Video,progression,buffer,0.002357,1687287232209,6481bcfae0e56c51d8be4de7,6481bcfae0e56c51d8be4de7,5,book,critical,D,50,book40.jpg,book60.jpg,high,NULL
1687287428,62d14bf09b1bee045d8c5ba1af966277,PennController,8,0,experiment,NULL,Selector,choice,Selection,option1,1687287241284,6481bcfae0e56c51d8be4de7,6481bcfae0e56c51d8be4de7,5,book,critical,D,50,book40.jpg,book60.jpg,high,option2;option1
1687287428,62d14bf09b1bee045d8c5ba1af966277,PennController,8,0,experiment,NULL,PennController,7,_Trial_,End,1687287241285,6481bcfae0e56c51d8be4de7,6481bcfae0e56c51d8be4de7,5,book,critical,D,50,book40.jpg,book60.jpg,high,NULL
1687287428,62d14bf09b1bee045d8c5ba1af966277,PennController,7,0,experiment,NULL,PennController,6,_Trial_,Start,1687287241285,6481bcfae0e56c51d8be4de7,6481bcfae0e56c51d8be4de7,4,candy,critical,D,25,candy15.jpg,candy35.jpg,high,NULL
1687287428,62d14bf09b1bee045d8c5ba1af966277,PennController,7,0,experiment,NULL,PennController,6,_Header_,Start,1687287241285,6481bcfae0e56c51d8be4de7,6481bcfae0e56c51d8be4de7,4,candy,critical,D,25,candy15.jpg,candy35.jpg,high,NULL
1687287428,62d14bf09b1bee045d8c5ba1af966277,PennController,7,0,experiment,NULL,PennController,6,_Header_,End,1687287241285,6481bcfae0e56c51d8be4de7,6481bcfae0e56c51d8be4de7,4,candy,critical,D,25,candy15.jpg,candy35.jpg,high,NULL
1687287428,62d14bf09b1bee045d8c5ba1af966277,PennController,7,0,experiment,NULL,Canvas,canvas6,Print,NA,1687287246980,6481bcfae0e56c51d8be4de7,6481bcfae0e56c51d8be4de7,4,candy,critical,D,25,candy15.jpg,candy35.jpg,high,NULL
1687287428,62d14bf09b1bee045d8c5ba1af966277,PennController,7,0,experiment,NULL,Video,progression,buffer,0.001723,1687287244800,6481bcfae0e56c51d8be4de7,6481bcfae0e56c51d8be4de7,4,candy,critical,D,25,candy15.jpg,candy35.jpg,high,NULL
1687287428,62d14bf09b1bee045d8c5ba1af966277,PennController,7,0,experiment,NULL,Selector,choice,Selection,option1,1687287249326,6481bcfae0e56c51d8be4de7,6481bcfae0e56c51d8be4de7,4,candy,critical,D,25,candy15.jpg,candy35.jpg,high,option2;option1
1687287428,62d14bf09b1bee045d8c5ba1af966277,PennController,7,0,experiment,NULL,PennController,6,_Trial_,End,1687287249327,6481bcfae0e56c51d8be4de7,6481bcfae0e56c51d8be4de7,4,candy,critical,D,25,candy15.jpg,candy35.jpg,high,NULL
1687287428,62d14bf09b1bee045d8c5ba1af966277,PennController,19,0,experiment,NULL,PennController,18,_Trial_,Start,1687287249327,6481bcfae0e56c51d8be4de7,6481bcfae0e56c51d8be4de7,16,blinds,critical,D,25,blinds15.jpg,blinds33.jpg,high,NULL
1687287428,62d14bf09b1bee045d8c5ba1af966277,PennController,19,0,experiment,NULL,PennController,18,_Header_,Start,1687287249327,6481bcfae0e56c51d8be4de7,6481bcfae0e56c51d8be4de7,16,blinds,critical,D,25,blinds15.jpg,blinds33.jpg,high,NULL
1687287428,62d14bf09b1bee045d8c5ba1af966277,PennController,19,0,experiment,NULL,PennController,18,_Header_,End,1687287249327,6481bcfae0e56c51d8be4de7,6481bcfae0e56c51d8be4de7,16,blinds,critical,D,25,blinds15.jpg,blinds33.jpg,high,NULL
1687287428,62d14bf09b1bee045d8c5ba1af966277,PennController,19,0,experiment,NULL,Canvas,canvas6,Print,NA,1687287255622,6481bcfae0e56c51d8be4de7,6481bcfae0e56c51d8be4de7,16,blinds,critical,D,25,blinds15.jpg,blinds33.jpg,high,NULL
1687287428,62d14bf09b1bee045d8c5ba1af966277,PennController,19,0,experiment,NULL,Video,progression,buffer,0.001287,1687287252846,6481bcfae0e56c51d8be4de7,6481bcfae0e56c51d8be4de7,16,blinds,critical,D,25,blinds15.jpg,blinds33.jpg,high,NULL
1687287428,62d14bf09b1bee045d8c5ba1af966277,PennController,19,0,experiment,NULL,Selector,choice,Selection,option1,1687287256759,6481bcfae0e56c51d8be4de7,6481bcfae0e56c51d8be4de7,16,blinds,critical,D,25,blinds15.jpg,blinds33.jpg,high,option2;option1
1687287428,62d14bf09b1bee045d8c5ba1af966277,PennController,19,0,experiment,NULL,PennController,18,_Trial_,End,1687287256760,6481bcfae0e56c51d8be4de7,6481bcfae0e56c51d8be4de7,16,blinds,critical,D,25,blinds15.jpg,blinds33.jpg,high,NULL
1687287428,62d14bf09b1bee045d8c5ba1af966277,PennController,31,0,experiment,NULL,PennController,30,_Trial_,Start,1687287256760,6481bcfae0e56c51d8be4de7,6481bcfae0e56c51d8be4de7,28,sort,filler,D,25,sort15.jpg,sort35.jpg,GoalA,NULL
1687287428,62d14bf09b1bee045d8c5ba1af966277,PennController,31,0,experiment,NULL,PennController,30,_Header_,Start,1687287256760,6481bcfae0e56c51d8be4de7,6481bcfae0e56c51d8be4de7,28,sort,filler,D,25,sort15.jpg,sort35.jpg,GoalA,NULL
1687287428,62d14bf09b1bee045d8c5ba1af966277,PennController,31,0,experiment,NULL,PennController,30,_Header_,End,1687287256760,6481bcfae0e56c51d8be4de7,6481bcfae0e56c51d8be4de7,28,sort,filler,D,25,sort15.jpg,sort35.jpg,GoalA,NULL
1687287428,62d14bf09b1bee045d8c5ba1af966277,PennController,31,0,experiment,NULL,Canvas,canvas6,Print,NA,1687287262451,6481bcfae0e56c51d8be4de7,6481bcfae0e56c51d8be4de7,28,sort,filler,D,25,sort15.jpg,sort35.jpg,GoalA,NULL
1687287428,62d14bf09b1bee045d8c5ba1af966277,PennController,31,0,experiment,NULL,Video,progression,buffer,0.002015,1687287260271,6481bcfae0e56c51d8be4de7,6481bcfae0e56c51d8be4de7,28,sort,filler,D,25,sort15.jpg,sort35.jpg,GoalA,NULL
1687287428,62d14bf09b1bee045d8c5ba1af966277,PennController,31,0,experiment,NULL,Selector,choice,Selection,option1,1687287263449,6481bcfae0e56c51d8be4de7,6481bcfae0e56c51d8be4de7,28,sort,filler,D,25,sort15.jpg,sort35.jpg,GoalA,option1;option2
1687287428,62d14bf09b1bee045d8c5ba1af966277,PennController,31,0,experiment,NULL,PennController,30,_Trial_,End,1687287263450,6481bcfae0e56c51d8be4de7,6481bcfae0e56c51d8be4de7,28,sort,filler,D,25,sort15.jpg,sort35.jpg,GoalA,NULL
1687287428,62d14bf09b1bee045d8c5ba1af966277,PennController,23,0,experiment,NULL,PennController,22,_Trial_,Start,1687287263450,6481bcfae0e56c51d8be4de7,6481bcfae0e56c51d8be4de7,20,cat,filler,D,50,cat40.jpg,cat60.jpg,GoalA,NULL
1687287428,62d14bf09b1bee045d8c5ba1af966277,PennController,23,0,experiment,NULL,PennController,22,_Header_,Start,1687287263450,6481bcfae0e56c51d8be4de7,6481bcfae0e56c51d8be4de7,20,cat,filler,D,50,cat40.jpg,cat60.jpg,GoalA,NULL
1687287428,62d14bf09b1bee045d8c5ba1af966277,PennController,23,0,experiment,NULL,PennController,22,_Header_,End,1687287263450,6481bcfae0e56c51d8be4de7,6481bcfae0e56c51d8be4de7,20,cat,filler,D,50,cat40.jpg,cat60.jpg,GoalA,NULL
1687287428,62d14bf09b1bee045d8c5ba1af966277,PennController,23,0,experiment,NULL,Canvas,canvas6,Print,NA,1687287270146,6481bcfae0e56c51d8be4de7,6481bcfae0e56c51d8be4de7,20,cat,filler,D,50,cat40.jpg,cat60.jpg,GoalA,NULL
1687287428,62d14bf09b1bee045d8c5ba1af966277,PennController,23,0,experiment,NULL,Video,progression,buffer,0.001534,1687287266966,6481bcfae0e56c51d8be4de7,6481bcfae0e56c51d8be4de7,20,cat,filler,D,50,cat40.jpg,cat60.jpg,GoalA,NULL
1687287428,62d14bf09b1bee045d8c5ba1af966277,PennController,23,0,experiment,NULL,Selector,choice,Selection,option1,1687287271552,6481bcfae0e56c51d8be4de7,6481bcfae0e56c51d8be4de7,20,cat,filler,D,50,cat40.jpg,cat60.jpg,GoalA,option2;option1
1687287428,62d14bf09b1bee045d8c5ba1af966277,PennController,23,0,experiment,NULL,PennController,22,_Trial_,End,1687287271553,6481bcfae0e56c51d8be4de7,6481bcfae0e56c51d8be4de7,20,cat,filler,D,50,cat40.jpg,cat60.jpg,GoalA,NULL
1687287428,62d14bf09b1bee045d8c5ba1af966277,PennController,32,0,experiment,NULL,PennController,31,_Trial_,Start,1687287271554,6481bcfae0e56c51d8be4de7,6481bcfae0e56c51d8be4de7,29,frog,filler,D,50,frog40.jpg,frog60.jpg,GoalB,NULL
1687287428,62d14bf09b1bee045d8c5ba1af966277,PennController,32,0,experiment,NULL,PennController,31,_Header_,Start,1687287271554,6481bcfae0e56c51d8be4de7,6481bcfae0e56c51d8be4de7,29,frog,filler,D,50,frog40.jpg,frog60.jpg,GoalB,NULL
1687287428,62d14bf09b1bee045d8c5ba1af966277,PennController,32,0,experiment,NULL,PennController,31,_Header_,End,1687287271554,6481bcfae0e56c51d8be4de7,6481bcfae0e56c51d8be4de7,29,frog,filler,D,50,frog40.jpg,frog60.jpg,GoalB,NULL
1687287428,62d14bf09b1bee045d8c5ba1af966277,PennController,32,0,experiment,NULL,Canvas,canvas6,Print,NA,1687287278240,6481bcfae0e56c51d8be4de7,6481bcfae0e56c51d8be4de7,29,frog,filler,D,50,frog40.jpg,frog60.jpg,GoalB,NULL
1687287428,62d14bf09b1bee045d8c5ba1af966277,PennController,32,0,experiment,NULL,Video,progression,buffer,0.0012,1687287275067,6481bcfae0e56c51d8be4de7,6481bcfae0e56c51d8be4de7,29,frog,filler,D,50,frog40.jpg,frog60.jpg,GoalB,NULL
1687287428,62d14bf09b1bee045d8c5ba1af966277,PennController,32,0,experiment,NULL,Selector,choice,Selection,option1,1687287279354,6481bcfae0e56c51d8be4de7,6481bcfae0e56c51d8be4de7,29,frog,filler,D,50,frog40.jpg,frog60.jpg,GoalB,option2;option1
1687287428,62d14bf09b1bee045d8c5ba1af966277,PennController,32,0,experiment,NULL,PennController,31,_Trial_,End,1687287279355,6481bcfae0e56c51d8be4de7,6481bcfae0e56c51d8be4de7,29,frog,filler,D,50,frog40.jpg,frog60.jpg,GoalB,NULL
1687287428,62d14bf09b1bee045d8c5ba1af966277,PennController,16,0,experiment,NULL,PennController,15,_Trial_,Start,1687287279355,6481bcfae0e56c51d8be4de7,6481bcfae0e56c51d8be4de7,13,mix,critical,D,25,mix15.jpg,mix35.jpg,high,NULL
1687287428,62d14bf09b1bee045d8c5ba1af966277,PennController,16,0,experiment,NULL,PennController,15,_Header_,Start,1687287279355,6481bcfae0e56c51d8be4de7,6481bcfae0e56c51d8be4de7,13,mix,critical,D,25,mix15.jpg,mix35.jpg,high,NULL
1687287428,62d14bf09b1bee045d8c5ba1af966277,PennController,16,0,experiment,NULL,PennController,15,_Header_,End,1687287279355,6481bcfae0e56c51d8be4de7,6481bcfae0e56c51d8be4de7,13,mix,critical,D,25,mix15.jpg,mix35.jpg,high,NULL
1687287428,62d14bf09b1bee045d8c5ba1af966277,PennController,16,0,experiment,NULL,Canvas,canvas6,Print,NA,1687287285055,6481bcfae0e56c51d8be4de7,6481bcfae0e56c51d8be4de7,13,mix,critical,D,25,mix15.jpg,mix35.jpg,high,NULL
1687287428,62d14bf09b1bee045d8c5ba1af966277,PennController,16,0,experiment,NULL,Video,progression,buffer,0.001507,1687287282876,6481bcfae0e56c51d8be4de7,6481bcfae0e56c51d8be4de7,13,mix,critical,D,25,mix15.jpg,mix35.jpg,high,NULL
1687287428,62d14bf09b1bee045d8c5ba1af966277,PennController,16,0,experiment,NULL,Selector,choice,Selection,option1,1687287286648,6481bcfae0e56c51d8be4de7,6481bcfae0e56c51d8be4de7,13,mix,critical,D,25,mix15.jpg,mix35.jpg,high,option1;option2
1687287428,62d14bf09b1bee045d8c5ba1af966277,PennController,16,0,experiment,NULL,PennController,15,_Trial_,End,1687287286649,6481bcfae0e56c51d8be4de7,6481bcfae0e56c51d8be4de7,13,mix,critical,D,25,mix15.jpg,mix35.jpg,high,NULL
1687287428,62d14bf09b1bee045d8c5ba1af966277,PennController,20,0,experiment,NULL,PennController,19,_Trial_,Start,1687287286650,6481bcfae0e56c51d8be4de7,6481bcfae0e56c51d8be4de7,17,roll,critical,D,50,roll40.jpg,roll60.jpg,high,NULL
1687287428,62d14bf09b1bee045d8c5ba1af966277,PennController,20,0,experiment,NULL,PennController,19,_Header_,Start,1687287286650,6481bcfae0e56c51d8be4de7,6481bcfae0e56c51d8be4de7,17,roll,critical,D,50,roll40.jpg,roll60.jpg,high,NULL
1687287428,62d14bf09b1bee045d8c5ba1af966277,PennController,20,0,experiment,NULL,PennController,19,_Header_,End,1687287286650,6481bcfae0e56c51d8be4de7,6481bcfae0e56c51d8be4de7,17,roll,critical,D,50,roll40.jpg,roll60.jpg,high,NULL
1687287428,62d14bf09b1bee045d8c5ba1af966277,PennController,20,0,experiment,NULL,Canvas,canvas6,Print,NA,1687287293362,6481bcfae0e56c51d8be4de7,6481bcfae0e56c51d8be4de7,17,roll,critical,D,50,roll40.jpg,roll60.jpg,high,NULL
1687287428,62d14bf09b1bee045d8c5ba1af966277,PennController,20,0,experiment,NULL,Video,progression,buffer,0,1687287290167,6481bcfae0e56c51d8be4de7,6481bcfae0e56c51d8be4de7,17,roll,critical,D,50,roll40.jpg,roll60.jpg,high,NULL
1687287428,62d14bf09b1bee045d8c5ba1af966277,PennController,20,0,experiment,NULL,Selector,choice,Selection,option1,1687287323722,6481bcfae0e56c51d8be4de7,6481bcfae0e56c51d8be4de7,17,roll,critical,D,50,roll40.jpg,roll60.jpg,high,option1;option2
1687287428,62d14bf09b1bee045d8c5ba1af966277,PennController,20,0,experiment,NULL,PennController,19,_Trial_,End,1687287323723,6481bcfae0e56c51d8be4de7,6481bcfae0e56c51d8be4de7,17,roll,critical,D,50,roll40.jpg,roll60.jpg,high,NULL
1687287428,62d14bf09b1bee045d8c5ba1af966277,PennController,6,0,experiment,NULL,PennController,5,_Trial_,Start,1687287323724,6481bcfae0e56c51d8be4de7,6481bcfae0e56c51d8be4de7,3,clean,critical,D,75,clean65.jpg,clean85.jpg,high,NULL
1687287428,62d14bf09b1bee045d8c5ba1af966277,PennController,6,0,experiment,NULL,PennController,5,_Header_,Start,1687287323724,6481bcfae0e56c51d8be4de7,6481bcfae0e56c51d8be4de7,3,clean,critical,D,75,clean65.jpg,clean85.jpg,high,NULL
1687287428,62d14bf09b1bee045d8c5ba1af966277,PennController,6,0,experiment,NULL,PennController,5,_Header_,End,1687287323724,6481bcfae0e56c51d8be4de7,6481bcfae0e56c51d8be4de7,3,clean,critical,D,75,clean65.jpg,clean85.jpg,high,NULL
1687287428,62d14bf09b1bee045d8c5ba1af966277,PennController,6,0,experiment,NULL,Canvas,canvas6,Print,NA,1687287331409,6481bcfae0e56c51d8be4de7,6481bcfae0e56c51d8be4de7,3,clean,critical,D,75,clean65.jpg,clean85.jpg,high,NULL
1687287428,62d14bf09b1bee045d8c5ba1af966277,PennController,6,0,experiment,NULL,Video,progression,buffer,0.001221,1687287327237,6481bcfae0e56c51d8be4de7,6481bcfae0e56c51d8be4de7,3,clean,critical,D,75,clean65.jpg,clean85.jpg,high,NULL
1687287428,62d14bf09b1bee045d8c5ba1af966277,PennController,6,0,experiment,NULL,Selector,choice,Selection,option2,1687287333304,6481bcfae0e56c51d8be4de7,6481bcfae0e56c51d8be4de7,3,clean,critical,D,75,clean65.jpg,clean85.jpg,high,option1;option2
1687287428,62d14bf09b1bee045d8c5ba1af966277,PennController,6,0,experiment,NULL,PennController,5,_Trial_,End,1687287333305,6481bcfae0e56c51d8be4de7,6481bcfae0e56c51d8be4de7,3,clean,critical,D,75,clean65.jpg,clean85.jpg,high,NULL
1687287428,62d14bf09b1bee045d8c5ba1af966277,PennController,14,0,experiment,NULL,PennController,13,_Trial_,Start,1687287333305,6481bcfae0e56c51d8be4de7,6481bcfae0e56c51d8be4de7,11,beads,critical,D,50,beads40.jpg,beads60.jpg,high,NULL
1687287428,62d14bf09b1bee045d8c5ba1af966277,PennController,14,0,experiment,NULL,PennController,13,_Header_,Start,1687287333305,6481bcfae0e56c51d8be4de7,6481bcfae0e56c51d8be4de7,11,beads,critical,D,50,beads40.jpg,beads60.jpg,high,NULL
1687287428,62d14bf09b1bee045d8c5ba1af966277,PennController,14,0,experiment,NULL,PennController,13,_Header_,End,1687287333305,6481bcfae0e56c51d8be4de7,6481bcfae0e56c51d8be4de7,11,beads,critical,D,50,beads40.jpg,beads60.jpg,high,NULL
1687287428,62d14bf09b1bee045d8c5ba1af966277,PennController,14,0,experiment,NULL,Canvas,canvas6,Print,NA,1687287339997,6481bcfae0e56c51d8be4de7,6481bcfae0e56c51d8be4de7,11,beads,critical,D,50,beads40.jpg,beads60.jpg,high,NULL
1687287428,62d14bf09b1bee045d8c5ba1af966277,PennController,14,0,experiment,NULL,Video,progression,buffer,0.001218,1687287336822,6481bcfae0e56c51d8be4de7,6481bcfae0e56c51d8be4de7,11,beads,critical,D,50,beads40.jpg,beads60.jpg,high,NULL
1687287428,62d14bf09b1bee045d8c5ba1af966277,PennController,14,0,experiment,NULL,Selector,choice,Selection,option1,1687287354304,6481bcfae0e56c51d8be4de7,6481bcfae0e56c51d8be4de7,11,beads,critical,D,50,beads40.jpg,beads60.jpg,high,option2;option1
1687287428,62d14bf09b1bee045d8c5ba1af966277,PennController,14,0,experiment,NULL,PennController,13,_Trial_,End,1687287354305,6481bcfae0e56c51d8be4de7,6481bcfae0e56c51d8be4de7,11,beads,critical,D,50,beads40.jpg,beads60.jpg,high,NULL
1687287428,62d14bf09b1bee045d8c5ba1af966277,PennController,13,0,experiment,NULL,PennController,12,_Trial_,Start,1687287354306,6481bcfae0e56c51d8be4de7,6481bcfae0e56c51d8be4de7,10,train,critical,D,25,train15.jpg,train35.jpg,high,NULL
1687287428,62d14bf09b1bee045d8c5ba1af966277,PennController,13,0,experiment,NULL,PennController,12,_Header_,Start,1687287354306,6481bcfae0e56c51d8be4de7,6481bcfae0e56c51d8be4de7,10,train,critical,D,25,train15.jpg,train35.jpg,high,NULL
1687287428,62d14bf09b1bee045d8c5ba1af966277,PennController,13,0,experiment,NULL,PennController,12,_Header_,End,1687287354306,6481bcfae0e56c51d8be4de7,6481bcfae0e56c51d8be4de7,10,train,critical,D,25,train15.jpg,train35.jpg,high,NULL
1687287428,62d14bf09b1bee045d8c5ba1af966277,PennController,13,0,experiment,NULL,Canvas,canvas6,Print,NA,1687287360004,6481bcfae0e56c51d8be4de7,6481bcfae0e56c51d8be4de7,10,train,critical,D,25,train15.jpg,train35.jpg,high,NULL
1687287428,62d14bf09b1bee045d8c5ba1af966277,PennController,13,0,experiment,NULL,Video,progression,buffer,0.002352,1687287357824,6481bcfae0e56c51d8be4de7,6481bcfae0e56c51d8be4de7,10,train,critical,D,25,train15.jpg,train35.jpg,high,NULL
1687287428,62d14bf09b1bee045d8c5ba1af966277,PennController,13,0,experiment,NULL,Selector,choice,Selection,option1,1687287361463,6481bcfae0e56c51d8be4de7,6481bcfae0e56c51d8be4de7,10,train,critical,D,25,train15.jpg,train35.jpg,high,option2;option1
1687287428,62d14bf09b1bee045d8c5ba1af966277,PennController,13,0,experiment,NULL,PennController,12,_Trial_,End,1687287361464,6481bcfae0e56c51d8be4de7,6481bcfae0e56c51d8be4de7,10,train,critical,D,25,train15.jpg,train35.jpg,high,NULL
1687287428,62d14bf09b1bee045d8c5ba1af966277,PennController,24,0,experiment,NULL,PennController,23,_Trial_,Start,1687287361465,6481bcfae0e56c51d8be4de7,6481bcfae0e56c51d8be4de7,21,visit,filler,D,75,visit65.jpg,visit85.jpg,GoalB,NULL
1687287428,62d14bf09b1bee045d8c5ba1af966277,PennController,24,0,experiment,NULL,PennController,23,_Header_,Start,1687287361465,6481bcfae0e56c51d8be4de7,6481bcfae0e56c51d8be4de7,21,visit,filler,D,75,visit65.jpg,visit85.jpg,GoalB,NULL
1687287428,62d14bf09b1bee045d8c5ba1af966277,PennController,24,0,experiment,NULL,PennController,23,_Header_,End,1687287361465,6481bcfae0e56c51d8be4de7,6481bcfae0e56c51d8be4de7,21,visit,filler,D,75,visit65.jpg,visit85.jpg,GoalB,NULL
1687287428,62d14bf09b1bee045d8c5ba1af966277,PennController,24,0,experiment,NULL,Canvas,canvas6,Print,NA,1687287369150,6481bcfae0e56c51d8be4de7,6481bcfae0e56c51d8be4de7,21,visit,filler,D,75,visit65.jpg,visit85.jpg,GoalB,NULL
1687287428,62d14bf09b1bee045d8c5ba1af966277,PennController,24,0,experiment,NULL,Video,progression,buffer,0.00153,1687287364980,6481bcfae0e56c51d8be4de7,6481bcfae0e56c51d8be4de7,21,visit,filler,D,75,visit65.jpg,visit85.jpg,GoalB,NULL
1687287428,62d14bf09b1bee045d8c5ba1af966277,PennController,24,0,experiment,NULL,Selector,choice,Selection,option1,1687287372317,6481bcfae0e56c51d8be4de7,6481bcfae0e56c51d8be4de7,21,visit,filler,D,75,visit65.jpg,visit85.jpg,GoalB,option1;option2
1687287428,62d14bf09b1bee045d8c5ba1af966277,PennController,24,0,experiment,NULL,PennController,23,_Trial_,End,1687287372317,6481bcfae0e56c51d8be4de7,6481bcfae0e56c51d8be4de7,21,visit,filler,D,75,visit65.jpg,visit85.jpg,GoalB,NULL
1687287428,62d14bf09b1bee045d8c5ba1af966277,PennController,12,0,experiment,NULL,PennController,11,_Trial_,Start,1687287372319,6481bcfae0e56c51d8be4de7,6481bcfae0e56c51d8be4de7,9,cake,critical,D,75,cake66.jpg,cake84.jpg,high,NULL
1687287428,62d14bf09b1bee045d8c5ba1af966277,PennController,12,0,experiment,NULL,PennController,11,_Header_,Start,1687287372319,6481bcfae0e56c51d8be4de7,6481bcfae0e56c51d8be4de7,9,cake,critical,D,75,cake66.jpg,cake84.jpg,high,NULL
1687287428,62d14bf09b1bee045d8c5ba1af966277,PennController,12,0,experiment,NULL,PennController,11,_Header_,End,1687287372319,6481bcfae0e56c51d8be4de7,6481bcfae0e56c51d8be4de7,9,cake,critical,D,75,cake66.jpg,cake84.jpg,high,NULL
1687287428,62d14bf09b1bee045d8c5ba1af966277,PennController,12,0,experiment,NULL,Canvas,canvas6,Print,NA,1687287382005,6481bcfae0e56c51d8be4de7,6481bcfae0e56c51d8be4de7,9,cake,critical,D,75,cake66.jpg,cake84.jpg,high,NULL
1687287428,62d14bf09b1bee045d8c5ba1af966277,PennController,12,0,experiment,NULL,Video,progression,buffer,0.001464,1687287375832,6481bcfae0e56c51d8be4de7,6481bcfae0e56c51d8be4de7,9,cake,critical,D,75,cake66.jpg,cake84.jpg,high,NULL
1687287428,62d14bf09b1bee045d8c5ba1af966277,PennController,12,0,experiment,NULL,Selector,choice,Selection,option2,1687287383142,6481bcfae0e56c51d8be4de7,6481bcfae0e56c51d8be4de7,9,cake,critical,D,75,cake66.jpg,cake84.jpg,high,option1;option2
1687287428,62d14bf09b1bee045d8c5ba1af966277,PennController,12,0,experiment,NULL,PennController,11,_Trial_,End,1687287383142,6481bcfae0e56c51d8be4de7,6481bcfae0e56c51d8be4de7,9,cake,critical,D,75,cake66.jpg,cake84.jpg,high,NULL
1687287428,62d14bf09b1bee045d8c5ba1af966277,PennController,17,0,experiment,NULL,PennController,16,_Trial_,Start,1687287383143,6481bcfae0e56c51d8be4de7,6481bcfae0e56c51d8be4de7,14,cover,critical,D,50,cover42.jpg,cover60.jpg,high,NULL
1687287428,62d14bf09b1bee045d8c5ba1af966277,PennController,17,0,experiment,NULL,PennController,16,_Header_,Start,1687287383143,6481bcfae0e56c51d8be4de7,6481bcfae0e56c51d8be4de7,14,cover,critical,D,50,cover42.jpg,cover60.jpg,high,NULL
1687287428,62d14bf09b1bee045d8c5ba1af966277,PennController,17,0,experiment,NULL,PennController,16,_Header_,End,1687287383143,6481bcfae0e56c51d8be4de7,6481bcfae0e56c51d8be4de7,14,cover,critical,D,50,cover42.jpg,cover60.jpg,high,NULL
1687287428,62d14bf09b1bee045d8c5ba1af966277,PennController,17,0,experiment,NULL,Canvas,canvas6,Print,NA,1687287391233,6481bcfae0e56c51d8be4de7,6481bcfae0e56c51d8be4de7,14,cover,critical,D,50,cover42.jpg,cover60.jpg,high,NULL
1687287428,62d14bf09b1bee045d8c5ba1af966277,PennController,17,0,experiment,NULL,Video,progression,buffer,0.00257,1687287386658,6481bcfae0e56c51d8be4de7,6481bcfae0e56c51d8be4de7,14,cover,critical,D,50,cover42.jpg,cover60.jpg,high,NULL
1687287428,62d14bf09b1bee045d8c5ba1af966277,PennController,17,0,experiment,NULL,Selector,choice,Selection,option1,1687287392425,6481bcfae0e56c51d8be4de7,6481bcfae0e56c51d8be4de7,14,cover,critical,D,50,cover42.jpg,cover60.jpg,high,option2;option1
1687287428,62d14bf09b1bee045d8c5ba1af966277,PennController,17,0,experiment,NULL,PennController,16,_Trial_,End,1687287392426,6481bcfae0e56c51d8be4de7,6481bcfae0e56c51d8be4de7,14,cover,critical,D,50,cover42.jpg,cover60.jpg,high,NULL
1687287428,62d14bf09b1bee045d8c5ba1af966277,PennController,18,0,experiment,NULL,PennController,17,_Trial_,Start,1687287392426,6481bcfae0e56c51d8be4de7,6481bcfae0e56c51d8be4de7,15,zip,critical,D,75,zip65.jpg,zip85.jpg,high,NULL
1687287428,62d14bf09b1bee045d8c5ba1af966277,PennController,18,0,experiment,NULL,PennController,17,_Header_,Start,1687287392426,6481bcfae0e56c51d8be4de7,6481bcfae0e56c51d8be4de7,15,zip,critical,D,75,zip65.jpg,zip85.jpg,high,NULL
1687287428,62d14bf09b1bee045d8c5ba1af966277,PennController,18,0,experiment,NULL,PennController,17,_Header_,End,1687287392426,6481bcfae0e56c51d8be4de7,6481bcfae0e56c51d8be4de7,15,zip,critical,D,75,zip65.jpg,zip85.jpg,high,NULL
1687287428,62d14bf09b1bee045d8c5ba1af966277,PennController,18,0,experiment,NULL,Canvas,canvas6,Print,NA,1687287399314,6481bcfae0e56c51d8be4de7,6481bcfae0e56c51d8be4de7,15,zip,critical,D,75,zip65.jpg,zip85.jpg,high,NULL
1687287428,62d14bf09b1bee045d8c5ba1af966277,PennController,18,0,experiment,NULL,Video,progression,buffer,0.001336,1687287395941,6481bcfae0e56c51d8be4de7,6481bcfae0e56c51d8be4de7,15,zip,critical,D,75,zip65.jpg,zip85.jpg,high,NULL
1687287428,62d14bf09b1bee045d8c5ba1af966277,PennController,18,0,experiment,NULL,Selector,choice,Selection,option1,1687287400647,6481bcfae0e56c51d8be4de7,6481bcfae0e56c51d8be4de7,15,zip,critical,D,75,zip65.jpg,zip85.jpg,high,option2;option1
1687287428,62d14bf09b1bee045d8c5ba1af966277,PennController,18,0,experiment,NULL,PennController,17,_Trial_,End,1687287400647,6481bcfae0e56c51d8be4de7,6481bcfae0e56c51d8be4de7,15,zip,critical,D,75,zip65.jpg,zip85.jpg,high,NULL
1687287428,62d14bf09b1bee045d8c5ba1af966277,PennController,5,0,experiment,NULL,PennController,4,_Trial_,Start,1687287400648,6481bcfae0e56c51d8be4de7,6481bcfae0e56c51d8be4de7,2,door,critical,D,50,door40.jpg,door60.jpg,high,NULL
1687287428,62d14bf09b1bee045d8c5ba1af966277,PennController,5,0,experiment,NULL,PennController,4,_Header_,Start,1687287400648,6481bcfae0e56c51d8be4de7,6481bcfae0e56c51d8be4de7,2,door,critical,D,50,door40.jpg,door60.jpg,high,NULL
1687287428,62d14bf09b1bee045d8c5ba1af966277,PennController,5,0,experiment,NULL,PennController,4,_Header_,End,1687287400648,6481bcfae0e56c51d8be4de7,6481bcfae0e56c51d8be4de7,2,door,critical,D,50,door40.jpg,door60.jpg,high,NULL
1687287428,62d14bf09b1bee045d8c5ba1af966277,PennController,5,0,experiment,NULL,Canvas,canvas6,Print,NA,1687287407332,6481bcfae0e56c51d8be4de7,6481bcfae0e56c51d8be4de7,2,door,critical,D,50,door40.jpg,door60.jpg,high,NULL
1687287428,62d14bf09b1bee045d8c5ba1af966277,PennController,5,0,experiment,NULL,Video,progression,buffer,0.001286,1687287404159,6481bcfae0e56c51d8be4de7,6481bcfae0e56c51d8be4de7,2,door,critical,D,50,door40.jpg,door60.jpg,high,NULL
1687287428,62d14bf09b1bee045d8c5ba1af966277,PennController,5,0,experiment,NULL,Selector,choice,Selection,option1,1687287408579,6481bcfae0e56c51d8be4de7,6481bcfae0e56c51d8be4de7,2,door,critical,D,50,door40.jpg,door60.jpg,high,option2;option1
1687287428,62d14bf09b1bee045d8c5ba1af966277,PennController,5,0,experiment,NULL,PennController,4,_Trial_,End,1687287408580,6481bcfae0e56c51d8be4de7,6481bcfae0e56c51d8be4de7,2,door,critical,D,50,door40.jpg,door60.jpg,high,NULL
1687287428,62d14bf09b1bee045d8c5ba1af966277,PennController,9,0,experiment,NULL,PennController,8,_Trial_,Start,1687287408580,6481bcfae0e56c51d8be4de7,6481bcfae0e56c51d8be4de7,6,flower,critical,D,75,flower65.jpg,flower85.jpg,high,NULL
1687287428,62d14bf09b1bee045d8c5ba1af966277,PennController,9,0,experiment,NULL,PennController,8,_Header_,Start,1687287408580,6481bcfae0e56c51d8be4de7,6481bcfae0e56c51d8be4de7,6,flower,critical,D,75,flower65.jpg,flower85.jpg,high,NULL
1687287428,62d14bf09b1bee045d8c5ba1af966277,PennController,9,0,experiment,NULL,PennController,8,_Header_,End,1687287408580,6481bcfae0e56c51d8be4de7,6481bcfae0e56c51d8be4de7,6,flower,critical,D,75,flower65.jpg,flower85.jpg,high,NULL
1687287428,62d14bf09b1bee045d8c5ba1af966277,PennController,9,0,experiment,NULL,Canvas,canvas6,Print,NA,1687287416268,6481bcfae0e56c51d8be4de7,6481bcfae0e56c51d8be4de7,6,flower,critical,D,75,flower65.jpg,flower85.jpg,high,NULL
1687287428,62d14bf09b1bee045d8c5ba1af966277,PennController,9,0,experiment,NULL,Video,progression,buffer,0.001216,1687287412095,6481bcfae0e56c51d8be4de7,6481bcfae0e56c51d8be4de7,6,flower,critical,D,75,flower65.jpg,flower85.jpg,high,NULL
1687287428,62d14bf09b1bee045d8c5ba1af966277,PennController,9,0,experiment,NULL,Selector,choice,Selection,option1,1687287417720,6481bcfae0e56c51d8be4de7,6481bcfae0e56c51d8be4de7,6,flower,critical,D,75,flower65.jpg,flower85.jpg,high,option1;option2
1687287428,62d14bf09b1bee045d8c5ba1af966277,PennController,9,0,experiment,NULL,PennController,8,_Trial_,End,1687287417721,6481bcfae0e56c51d8be4de7,6481bcfae0e56c51d8be4de7,6,flower,critical,D,75,flower65.jpg,flower85.jpg,high,NULL
1687287428,62d14bf09b1bee045d8c5ba1af966277,PennController,21,0,experiment,NULL,PennController,20,_Trial_,Start,1687287417722,6481bcfae0e56c51d8be4de7,6481bcfae0e56c51d8be4de7,18,ball,critical,D,75,ball65.jpg,ball85.jpg,high,NULL
1687287428,62d14bf09b1bee045d8c5ba1af966277,PennController,21,0,experiment,NULL,PennController,20,_Header_,Start,1687287417722,6481bcfae0e56c51d8be4de7,6481bcfae0e56c51d8be4de7,18,ball,critical,D,75,ball65.jpg,ball85.jpg,high,NULL
1687287428,62d14bf09b1bee045d8c5ba1af966277,PennController,21,0,experiment,NULL,PennController,20,_Header_,End,1687287417722,6481bcfae0e56c51d8be4de7,6481bcfae0e56c51d8be4de7,18,ball,critical,D,75,ball65.jpg,ball85.jpg,high,NULL
1687287428,62d14bf09b1bee045d8c5ba1af966277,PennController,21,0,experiment,NULL,Canvas,canvas6,Print,NA,1687287425415,6481bcfae0e56c51d8be4de7,6481bcfae0e56c51d8be4de7,18,ball,critical,D,75,ball65.jpg,ball85.jpg,high,NULL
1687287428,62d14bf09b1bee045d8c5ba1af966277,PennController,21,0,experiment,NULL,Video,progression,buffer,0.001524,1687287421238,6481bcfae0e56c51d8be4de7,6481bcfae0e56c51d8be4de7,18,ball,critical,D,75,ball65.jpg,ball85.jpg,high,NULL
1687287428,62d14bf09b1bee045d8c5ba1af966277,PennController,21,0,experiment,NULL,Selector,choice,Selection,option2,1687287427830,6481bcfae0e56c51d8be4de7,6481bcfae0e56c51d8be4de7,18,ball,critical,D,75,ball65.jpg,ball85.jpg,high,option1;option2
1687287428,62d14bf09b1bee045d8c5ba1af966277,PennController,21,0,experiment,NULL,PennController,20,_Trial_,End,1687287427831,6481bcfae0e56c51d8be4de7,6481bcfae0e56c51d8be4de7,18,ball,critical,D,75,ball65.jpg,ball85.jpg,high,NULL
