#
# Results on Thursday June 22 2023 05:18:34 UTC
# USER AGENT: Mozilla/5.0 (Windows NT 10.0; Win64; x64; rv:109.0) Gecko/20100101 Firefox/114.0
# Design number was non-random = 80
#
# Columns below this comment are as follows:
# 1. Results reception time.
# 2. MD5 hash of participant's IP address.
# 3. Controller name.
# 4. Order number of item.
# 5. Inner element number.
# 6. Label.
# 7. Latin Square Group.
# 8. PennElementType.
# 9. PennElementName.
# 10. Parameter.
# 11. Value.
# 12. EventTime.
# 13. PROLIFIC_ID.
# 14. Comments.
1687411114,f8793d627559f0fc1ff4495db5e97b75,PennController,3,0,consent,NULL,PennController,0,_Trial_,Start,1687410864374,5d49d17b3dad1f0001e2aba1,NULL
1687411114,f8793d627559f0fc1ff4495db5e97b75,PennController,3,0,consent,NULL,PennController,0,_Header_,Start,1687410864374,5d49d17b3dad1f0001e2aba1,NULL
1687411114,f8793d627559f0fc1ff4495db5e97b75,PennController,3,0,consent,NULL,PennController,0,_Header_,End,1687410864374,5d49d17b3dad1f0001e2aba1,NULL
1687411114,f8793d627559f0fc1ff4495db5e97b75,PennController,3,0,consent,NULL,PennController,0,_Trial_,End,1687410868959,5d49d17b3dad1f0001e2aba1,NULL
# Columns below this comment are as follows:
# 14. ID.
# 15. Comments.
1687411114,f8793d627559f0fc1ff4495db5e97b75,PennController,4,0,intro,NULL,PennController,1,_Trial_,Start,1687410868960,5d49d17b3dad1f0001e2aba1,5d49d17b3dad1f0001e2aba1,NULL
1687411114,f8793d627559f0fc1ff4495db5e97b75,PennController,4,0,intro,NULL,PennController,1,_Header_,Start,1687410868960,5d49d17b3dad1f0001e2aba1,5d49d17b3dad1f0001e2aba1,NULL
1687411114,f8793d627559f0fc1ff4495db5e97b75,PennController,4,0,intro,NULL,PennController,1,_Header_,End,1687410868960,5d49d17b3dad1f0001e2aba1,5d49d17b3dad1f0001e2aba1,NULL
1687411114,f8793d627559f0fc1ff4495db5e97b75,PennController,4,0,intro,NULL,PennController,1,_Trial_,End,1687410877570,5d49d17b3dad1f0001e2aba1,5d49d17b3dad1f0001e2aba1,NULL
# Columns below this comment are as follows:
# 15. item_number.
# 16. item.
# 17. type.
# 18. Group.
# 19. prog.
# 20. prev_image.
# 21. next_image.
# 22. height.
# 23. Comments.
1687411114,f8793d627559f0fc1ff4495db5e97b75,PennController,5,0,experiment,NULL,PennController,3,_Trial_,Start,1687410877572,5d49d17b3dad1f0001e2aba1,5d49d17b3dad1f0001e2aba1,1,vase,critical,E,50,vase40.jpg,vase60.jpg,high,NULL
1687411114,f8793d627559f0fc1ff4495db5e97b75,PennController,5,0,experiment,NULL,PennController,3,_Header_,Start,1687410877572,5d49d17b3dad1f0001e2aba1,5d49d17b3dad1f0001e2aba1,1,vase,critical,E,50,vase40.jpg,vase60.jpg,high,NULL
1687411114,f8793d627559f0fc1ff4495db5e97b75,PennController,5,0,experiment,NULL,PennController,3,_Header_,End,1687410877572,5d49d17b3dad1f0001e2aba1,5d49d17b3dad1f0001e2aba1,1,vase,critical,E,50,vase40.jpg,vase60.jpg,high,NULL
1687411114,f8793d627559f0fc1ff4495db5e97b75,PennController,5,0,experiment,NULL,Video,progression,buffer,0,1687410881116,5d49d17b3dad1f0001e2aba1,5d49d17b3dad1f0001e2aba1,1,vase,critical,E,50,vase40.jpg,vase60.jpg,high,NULL
1687411114,f8793d627559f0fc1ff4495db5e97b75,PennController,5,0,experiment,NULL,Canvas,canvas6,Print,NA,1687410884345,5d49d17b3dad1f0001e2aba1,5d49d17b3dad1f0001e2aba1,1,vase,critical,E,50,vase40.jpg,vase60.jpg,high,NULL
1687411114,f8793d627559f0fc1ff4495db5e97b75,PennController,5,0,experiment,NULL,Selector,choice,Selection,option2,1687410885954,5d49d17b3dad1f0001e2aba1,5d49d17b3dad1f0001e2aba1,1,vase,critical,E,50,vase40.jpg,vase60.jpg,high,option2;option1
1687411114,f8793d627559f0fc1ff4495db5e97b75,PennController,5,0,experiment,NULL,PennController,3,_Trial_,End,1687410885955,5d49d17b3dad1f0001e2aba1,5d49d17b3dad1f0001e2aba1,1,vase,critical,E,50,vase40.jpg,vase60.jpg,high,NULL
1687411114,f8793d627559f0fc1ff4495db5e97b75,PennController,23,0,experiment,NULL,PennController,21,_Trial_,Start,1687410885956,5d49d17b3dad1f0001e2aba1,5d49d17b3dad1f0001e2aba1,19,cup,filler,E,50,cup40.jpg,cup60.jpg,GoalB,NULL
1687411114,f8793d627559f0fc1ff4495db5e97b75,PennController,23,0,experiment,NULL,PennController,21,_Header_,Start,1687410885956,5d49d17b3dad1f0001e2aba1,5d49d17b3dad1f0001e2aba1,19,cup,filler,E,50,cup40.jpg,cup60.jpg,GoalB,NULL
1687411114,f8793d627559f0fc1ff4495db5e97b75,PennController,23,0,experiment,NULL,PennController,21,_Header_,End,1687410885956,5d49d17b3dad1f0001e2aba1,5d49d17b3dad1f0001e2aba1,19,cup,filler,E,50,cup40.jpg,cup60.jpg,GoalB,NULL
1687411114,f8793d627559f0fc1ff4495db5e97b75,PennController,23,0,experiment,NULL,Video,progression,buffer,0,1687410889484,5d49d17b3dad1f0001e2aba1,5d49d17b3dad1f0001e2aba1,19,cup,filler,E,50,cup40.jpg,cup60.jpg,GoalB,NULL
1687411114,f8793d627559f0fc1ff4495db5e97b75,PennController,23,0,experiment,NULL,Canvas,canvas6,Print,NA,1687410892708,5d49d17b3dad1f0001e2aba1,5d49d17b3dad1f0001e2aba1,19,cup,filler,E,50,cup40.jpg,cup60.jpg,GoalB,NULL
1687411114,f8793d627559f0fc1ff4495db5e97b75,PennController,23,0,experiment,NULL,Selector,choice,Selection,option2,1687410894885,5d49d17b3dad1f0001e2aba1,5d49d17b3dad1f0001e2aba1,19,cup,filler,E,50,cup40.jpg,cup60.jpg,GoalB,option2;option1
1687411114,f8793d627559f0fc1ff4495db5e97b75,PennController,23,0,experiment,NULL,PennController,21,_Trial_,End,1687410894887,5d49d17b3dad1f0001e2aba1,5d49d17b3dad1f0001e2aba1,19,cup,filler,E,50,cup40.jpg,cup60.jpg,GoalB,NULL
1687411114,f8793d627559f0fc1ff4495db5e97b75,PennController,11,0,experiment,NULL,PennController,9,_Trial_,Start,1687410894887,5d49d17b3dad1f0001e2aba1,5d49d17b3dad1f0001e2aba1,7,stack,critical,E,50,stack40.jpg,stack60.jpg,high,NULL
1687411114,f8793d627559f0fc1ff4495db5e97b75,PennController,11,0,experiment,NULL,PennController,9,_Header_,Start,1687410894887,5d49d17b3dad1f0001e2aba1,5d49d17b3dad1f0001e2aba1,7,stack,critical,E,50,stack40.jpg,stack60.jpg,high,NULL
1687411114,f8793d627559f0fc1ff4495db5e97b75,PennController,11,0,experiment,NULL,PennController,9,_Header_,End,1687410894887,5d49d17b3dad1f0001e2aba1,5d49d17b3dad1f0001e2aba1,7,stack,critical,E,50,stack40.jpg,stack60.jpg,high,NULL
1687411114,f8793d627559f0fc1ff4495db5e97b75,PennController,11,0,experiment,NULL,Video,progression,buffer,0,1687410898412,5d49d17b3dad1f0001e2aba1,5d49d17b3dad1f0001e2aba1,7,stack,critical,E,50,stack40.jpg,stack60.jpg,high,NULL
1687411114,f8793d627559f0fc1ff4495db5e97b75,PennController,11,0,experiment,NULL,Canvas,canvas6,Print,NA,1687410901640,5d49d17b3dad1f0001e2aba1,5d49d17b3dad1f0001e2aba1,7,stack,critical,E,50,stack40.jpg,stack60.jpg,high,NULL
1687411114,f8793d627559f0fc1ff4495db5e97b75,PennController,11,0,experiment,NULL,Selector,choice,Selection,option2,1687410903738,5d49d17b3dad1f0001e2aba1,5d49d17b3dad1f0001e2aba1,7,stack,critical,E,50,stack40.jpg,stack60.jpg,high,option2;option1
1687411114,f8793d627559f0fc1ff4495db5e97b75,PennController,11,0,experiment,NULL,PennController,9,_Trial_,End,1687410903739,5d49d17b3dad1f0001e2aba1,5d49d17b3dad1f0001e2aba1,7,stack,critical,E,50,stack40.jpg,stack60.jpg,high,NULL
1687411114,f8793d627559f0fc1ff4495db5e97b75,PennController,30,0,experiment,NULL,PennController,28,_Trial_,Start,1687410903740,5d49d17b3dad1f0001e2aba1,5d49d17b3dad1f0001e2aba1,26,sandwich,filler,E,75,sandwich65.jpg,sandwich85.jpg,GoalA,NULL
1687411114,f8793d627559f0fc1ff4495db5e97b75,PennController,30,0,experiment,NULL,PennController,28,_Header_,Start,1687410903740,5d49d17b3dad1f0001e2aba1,5d49d17b3dad1f0001e2aba1,26,sandwich,filler,E,75,sandwich65.jpg,sandwich85.jpg,GoalA,NULL
1687411114,f8793d627559f0fc1ff4495db5e97b75,PennController,30,0,experiment,NULL,PennController,28,_Header_,End,1687410903740,5d49d17b3dad1f0001e2aba1,5d49d17b3dad1f0001e2aba1,26,sandwich,filler,E,75,sandwich65.jpg,sandwich85.jpg,GoalA,NULL
1687411114,f8793d627559f0fc1ff4495db5e97b75,PennController,30,0,experiment,NULL,Video,progression,buffer,0,1687410907267,5d49d17b3dad1f0001e2aba1,5d49d17b3dad1f0001e2aba1,26,sandwich,filler,E,75,sandwich65.jpg,sandwich85.jpg,GoalA,NULL
1687411114,f8793d627559f0fc1ff4495db5e97b75,PennController,30,0,experiment,NULL,Canvas,canvas6,Print,NA,1687410911500,5d49d17b3dad1f0001e2aba1,5d49d17b3dad1f0001e2aba1,26,sandwich,filler,E,75,sandwich65.jpg,sandwich85.jpg,GoalA,NULL
1687411114,f8793d627559f0fc1ff4495db5e97b75,PennController,30,0,experiment,NULL,Selector,choice,Selection,option2,1687410912592,5d49d17b3dad1f0001e2aba1,5d49d17b3dad1f0001e2aba1,26,sandwich,filler,E,75,sandwich65.jpg,sandwich85.jpg,GoalA,option2;option1
1687411114,f8793d627559f0fc1ff4495db5e97b75,PennController,30,0,experiment,NULL,PennController,28,_Trial_,End,1687410912592,5d49d17b3dad1f0001e2aba1,5d49d17b3dad1f0001e2aba1,26,sandwich,filler,E,75,sandwich65.jpg,sandwich85.jpg,GoalA,NULL
1687411114,f8793d627559f0fc1ff4495db5e97b75,PennController,24,0,experiment,NULL,PennController,22,_Trial_,Start,1687410912594,5d49d17b3dad1f0001e2aba1,5d49d17b3dad1f0001e2aba1,20,cat,filler,E,75,cat65.jpg,cat85.jpg,GoalA,NULL
1687411114,f8793d627559f0fc1ff4495db5e97b75,PennController,24,0,experiment,NULL,PennController,22,_Header_,Start,1687410912594,5d49d17b3dad1f0001e2aba1,5d49d17b3dad1f0001e2aba1,20,cat,filler,E,75,cat65.jpg,cat85.jpg,GoalA,NULL
1687411114,f8793d627559f0fc1ff4495db5e97b75,PennController,24,0,experiment,NULL,PennController,22,_Header_,End,1687410912594,5d49d17b3dad1f0001e2aba1,5d49d17b3dad1f0001e2aba1,20,cat,filler,E,75,cat65.jpg,cat85.jpg,GoalA,NULL
1687411114,f8793d627559f0fc1ff4495db5e97b75,PennController,24,0,experiment,NULL,Video,progression,buffer,0,1687410916121,5d49d17b3dad1f0001e2aba1,5d49d17b3dad1f0001e2aba1,20,cat,filler,E,75,cat65.jpg,cat85.jpg,GoalA,NULL
1687411114,f8793d627559f0fc1ff4495db5e97b75,PennController,24,0,experiment,NULL,Canvas,canvas6,Print,NA,1687410920341,5d49d17b3dad1f0001e2aba1,5d49d17b3dad1f0001e2aba1,20,cat,filler,E,75,cat65.jpg,cat85.jpg,GoalA,NULL
1687411114,f8793d627559f0fc1ff4495db5e97b75,PennController,24,0,experiment,NULL,Selector,choice,Selection,option2,1687410921614,5d49d17b3dad1f0001e2aba1,5d49d17b3dad1f0001e2aba1,20,cat,filler,E,75,cat65.jpg,cat85.jpg,GoalA,option2;option1
1687411114,f8793d627559f0fc1ff4495db5e97b75,PennController,24,0,experiment,NULL,PennController,22,_Trial_,End,1687410921614,5d49d17b3dad1f0001e2aba1,5d49d17b3dad1f0001e2aba1,20,cat,filler,E,75,cat65.jpg,cat85.jpg,GoalA,NULL
1687411114,f8793d627559f0fc1ff4495db5e97b75,PennController,25,0,experiment,NULL,PennController,23,_Trial_,Start,1687410921616,5d49d17b3dad1f0001e2aba1,5d49d17b3dad1f0001e2aba1,21,visit,filler,E,25,visit15.jpg,visit35.jpg,GoalB,NULL
1687411114,f8793d627559f0fc1ff4495db5e97b75,PennController,25,0,experiment,NULL,PennController,23,_Header_,Start,1687410921616,5d49d17b3dad1f0001e2aba1,5d49d17b3dad1f0001e2aba1,21,visit,filler,E,25,visit15.jpg,visit35.jpg,GoalB,NULL
1687411114,f8793d627559f0fc1ff4495db5e97b75,PennController,25,0,experiment,NULL,PennController,23,_Header_,End,1687410921616,5d49d17b3dad1f0001e2aba1,5d49d17b3dad1f0001e2aba1,21,visit,filler,E,25,visit15.jpg,visit35.jpg,GoalB,NULL
1687411114,f8793d627559f0fc1ff4495db5e97b75,PennController,25,0,experiment,NULL,Video,progression,buffer,0,1687410925137,5d49d17b3dad1f0001e2aba1,5d49d17b3dad1f0001e2aba1,21,visit,filler,E,25,visit15.jpg,visit35.jpg,GoalB,NULL
1687411114,f8793d627559f0fc1ff4495db5e97b75,PennController,25,0,experiment,NULL,Canvas,canvas6,Print,NA,1687410927392,5d49d17b3dad1f0001e2aba1,5d49d17b3dad1f0001e2aba1,21,visit,filler,E,25,visit15.jpg,visit35.jpg,GoalB,NULL
1687411114,f8793d627559f0fc1ff4495db5e97b75,PennController,25,0,experiment,NULL,Selector,choice,Selection,option1,1687410928757,5d49d17b3dad1f0001e2aba1,5d49d17b3dad1f0001e2aba1,21,visit,filler,E,25,visit15.jpg,visit35.jpg,GoalB,option1;option2
1687411114,f8793d627559f0fc1ff4495db5e97b75,PennController,25,0,experiment,NULL,PennController,23,_Trial_,End,1687410928758,5d49d17b3dad1f0001e2aba1,5d49d17b3dad1f0001e2aba1,21,visit,filler,E,25,visit15.jpg,visit35.jpg,GoalB,NULL
1687411114,f8793d627559f0fc1ff4495db5e97b75,PennController,27,0,experiment,NULL,PennController,25,_Trial_,Start,1687410928759,5d49d17b3dad1f0001e2aba1,5d49d17b3dad1f0001e2aba1,23,color,filler,E,75,color65.jpg,color85.jpg,GoalB,NULL
1687411114,f8793d627559f0fc1ff4495db5e97b75,PennController,27,0,experiment,NULL,PennController,25,_Header_,Start,1687410928759,5d49d17b3dad1f0001e2aba1,5d49d17b3dad1f0001e2aba1,23,color,filler,E,75,color65.jpg,color85.jpg,GoalB,NULL
1687411114,f8793d627559f0fc1ff4495db5e97b75,PennController,27,0,experiment,NULL,PennController,25,_Header_,End,1687410928759,5d49d17b3dad1f0001e2aba1,5d49d17b3dad1f0001e2aba1,23,color,filler,E,75,color65.jpg,color85.jpg,GoalB,NULL
1687411114,f8793d627559f0fc1ff4495db5e97b75,PennController,27,0,experiment,NULL,Video,progression,buffer,0,1687410932300,5d49d17b3dad1f0001e2aba1,5d49d17b3dad1f0001e2aba1,23,color,filler,E,75,color65.jpg,color85.jpg,GoalB,NULL
1687411114,f8793d627559f0fc1ff4495db5e97b75,PennController,27,0,experiment,NULL,Canvas,canvas6,Print,NA,1687410936545,5d49d17b3dad1f0001e2aba1,5d49d17b3dad1f0001e2aba1,23,color,filler,E,75,color65.jpg,color85.jpg,GoalB,NULL
1687411114,f8793d627559f0fc1ff4495db5e97b75,PennController,27,0,experiment,NULL,Selector,choice,Selection,option1,1687410937847,5d49d17b3dad1f0001e2aba1,5d49d17b3dad1f0001e2aba1,23,color,filler,E,75,color65.jpg,color85.jpg,GoalB,option1;option2
1687411114,f8793d627559f0fc1ff4495db5e97b75,PennController,27,0,experiment,NULL,PennController,25,_Trial_,End,1687410937848,5d49d17b3dad1f0001e2aba1,5d49d17b3dad1f0001e2aba1,23,color,filler,E,75,color65.jpg,color85.jpg,GoalB,NULL
1687411114,f8793d627559f0fc1ff4495db5e97b75,PennController,22,0,experiment,NULL,PennController,20,_Trial_,Start,1687410937850,5d49d17b3dad1f0001e2aba1,5d49d17b3dad1f0001e2aba1,18,ball,critical,E,25,ball15.jpg,ball35.jpg,high,NULL
1687411114,f8793d627559f0fc1ff4495db5e97b75,PennController,22,0,experiment,NULL,PennController,20,_Header_,Start,1687410937850,5d49d17b3dad1f0001e2aba1,5d49d17b3dad1f0001e2aba1,18,ball,critical,E,25,ball15.jpg,ball35.jpg,high,NULL
1687411114,f8793d627559f0fc1ff4495db5e97b75,PennController,22,0,experiment,NULL,PennController,20,_Header_,End,1687410937850,5d49d17b3dad1f0001e2aba1,5d49d17b3dad1f0001e2aba1,18,ball,critical,E,25,ball15.jpg,ball35.jpg,high,NULL
1687411114,f8793d627559f0fc1ff4495db5e97b75,PennController,22,0,experiment,NULL,Video,progression,buffer,0,1687410941380,5d49d17b3dad1f0001e2aba1,5d49d17b3dad1f0001e2aba1,18,ball,critical,E,25,ball15.jpg,ball35.jpg,high,NULL
1687411114,f8793d627559f0fc1ff4495db5e97b75,PennController,22,0,experiment,NULL,Canvas,canvas6,Print,NA,1687410943613,5d49d17b3dad1f0001e2aba1,5d49d17b3dad1f0001e2aba1,18,ball,critical,E,25,ball15.jpg,ball35.jpg,high,NULL
1687411114,f8793d627559f0fc1ff4495db5e97b75,PennController,22,0,experiment,NULL,Selector,choice,Selection,option2,1687410944776,5d49d17b3dad1f0001e2aba1,5d49d17b3dad1f0001e2aba1,18,ball,critical,E,25,ball15.jpg,ball35.jpg,high,option2;option1
1687411114,f8793d627559f0fc1ff4495db5e97b75,PennController,22,0,experiment,NULL,PennController,20,_Trial_,End,1687410944777,5d49d17b3dad1f0001e2aba1,5d49d17b3dad1f0001e2aba1,18,ball,critical,E,25,ball15.jpg,ball35.jpg,high,NULL
1687411114,f8793d627559f0fc1ff4495db5e97b75,PennController,21,0,experiment,NULL,PennController,19,_Trial_,Start,1687410944778,5d49d17b3dad1f0001e2aba1,5d49d17b3dad1f0001e2aba1,17,roll,critical,E,75,roll65.jpg,roll85.jpg,high,NULL
1687411114,f8793d627559f0fc1ff4495db5e97b75,PennController,21,0,experiment,NULL,PennController,19,_Header_,Start,1687410944778,5d49d17b3dad1f0001e2aba1,5d49d17b3dad1f0001e2aba1,17,roll,critical,E,75,roll65.jpg,roll85.jpg,high,NULL
1687411114,f8793d627559f0fc1ff4495db5e97b75,PennController,21,0,experiment,NULL,PennController,19,_Header_,End,1687410944778,5d49d17b3dad1f0001e2aba1,5d49d17b3dad1f0001e2aba1,17,roll,critical,E,75,roll65.jpg,roll85.jpg,high,NULL
1687411114,f8793d627559f0fc1ff4495db5e97b75,PennController,21,0,experiment,NULL,Video,progression,buffer,0,1687410948314,5d49d17b3dad1f0001e2aba1,5d49d17b3dad1f0001e2aba1,17,roll,critical,E,75,roll65.jpg,roll85.jpg,high,NULL
1687411114,f8793d627559f0fc1ff4495db5e97b75,PennController,21,0,experiment,NULL,Canvas,canvas6,Print,NA,1687410952550,5d49d17b3dad1f0001e2aba1,5d49d17b3dad1f0001e2aba1,17,roll,critical,E,75,roll65.jpg,roll85.jpg,high,NULL
1687411114,f8793d627559f0fc1ff4495db5e97b75,PennController,21,0,experiment,NULL,Selector,choice,Selection,option2,1687410955553,5d49d17b3dad1f0001e2aba1,5d49d17b3dad1f0001e2aba1,17,roll,critical,E,75,roll65.jpg,roll85.jpg,high,option2;option1
1687411114,f8793d627559f0fc1ff4495db5e97b75,PennController,21,0,experiment,NULL,PennController,19,_Trial_,End,1687410955554,5d49d17b3dad1f0001e2aba1,5d49d17b3dad1f0001e2aba1,17,roll,critical,E,75,roll65.jpg,roll85.jpg,high,NULL
1687411114,f8793d627559f0fc1ff4495db5e97b75,PennController,12,0,experiment,NULL,PennController,10,_Trial_,Start,1687410955555,5d49d17b3dad1f0001e2aba1,5d49d17b3dad1f0001e2aba1,8,cucumber,critical,E,75,cucumber66.jpg,cucumber84.jpg,high,NULL
1687411114,f8793d627559f0fc1ff4495db5e97b75,PennController,12,0,experiment,NULL,PennController,10,_Header_,Start,1687410955555,5d49d17b3dad1f0001e2aba1,5d49d17b3dad1f0001e2aba1,8,cucumber,critical,E,75,cucumber66.jpg,cucumber84.jpg,high,NULL
1687411114,f8793d627559f0fc1ff4495db5e97b75,PennController,12,0,experiment,NULL,PennController,10,_Header_,End,1687410955555,5d49d17b3dad1f0001e2aba1,5d49d17b3dad1f0001e2aba1,8,cucumber,critical,E,75,cucumber66.jpg,cucumber84.jpg,high,NULL
1687411114,f8793d627559f0fc1ff4495db5e97b75,PennController,12,0,experiment,NULL,Video,progression,buffer,0,1687410959095,5d49d17b3dad1f0001e2aba1,5d49d17b3dad1f0001e2aba1,8,cucumber,critical,E,75,cucumber66.jpg,cucumber84.jpg,high,NULL
1687411114,f8793d627559f0fc1ff4495db5e97b75,PennController,12,0,experiment,NULL,Canvas,canvas6,Print,NA,1687410965328,5d49d17b3dad1f0001e2aba1,5d49d17b3dad1f0001e2aba1,8,cucumber,critical,E,75,cucumber66.jpg,cucumber84.jpg,high,NULL
1687411114,f8793d627559f0fc1ff4495db5e97b75,PennController,12,0,experiment,NULL,Selector,choice,Selection,option2,1687410967612,5d49d17b3dad1f0001e2aba1,5d49d17b3dad1f0001e2aba1,8,cucumber,critical,E,75,cucumber66.jpg,cucumber84.jpg,high,option1;option2
1687411114,f8793d627559f0fc1ff4495db5e97b75,PennController,12,0,experiment,NULL,PennController,10,_Trial_,End,1687410967613,5d49d17b3dad1f0001e2aba1,5d49d17b3dad1f0001e2aba1,8,cucumber,critical,E,75,cucumber66.jpg,cucumber84.jpg,high,NULL
1687411114,f8793d627559f0fc1ff4495db5e97b75,PennController,19,0,experiment,NULL,PennController,17,_Trial_,Start,1687410967614,5d49d17b3dad1f0001e2aba1,5d49d17b3dad1f0001e2aba1,15,zip,critical,E,25,zip15.jpg,zip35.jpg,high,NULL
1687411114,f8793d627559f0fc1ff4495db5e97b75,PennController,19,0,experiment,NULL,PennController,17,_Header_,Start,1687410967614,5d49d17b3dad1f0001e2aba1,5d49d17b3dad1f0001e2aba1,15,zip,critical,E,25,zip15.jpg,zip35.jpg,high,NULL
1687411114,f8793d627559f0fc1ff4495db5e97b75,PennController,19,0,experiment,NULL,PennController,17,_Header_,End,1687410967614,5d49d17b3dad1f0001e2aba1,5d49d17b3dad1f0001e2aba1,15,zip,critical,E,25,zip15.jpg,zip35.jpg,high,NULL
1687411114,f8793d627559f0fc1ff4495db5e97b75,PennController,19,0,experiment,NULL,Video,progression,buffer,0,1687410971135,5d49d17b3dad1f0001e2aba1,5d49d17b3dad1f0001e2aba1,15,zip,critical,E,25,zip15.jpg,zip35.jpg,high,NULL
1687411114,f8793d627559f0fc1ff4495db5e97b75,PennController,19,0,experiment,NULL,Canvas,canvas6,Print,NA,1687410973367,5d49d17b3dad1f0001e2aba1,5d49d17b3dad1f0001e2aba1,15,zip,critical,E,25,zip15.jpg,zip35.jpg,high,NULL
1687411114,f8793d627559f0fc1ff4495db5e97b75,PennController,19,0,experiment,NULL,Selector,choice,Selection,option1,1687410974486,5d49d17b3dad1f0001e2aba1,5d49d17b3dad1f0001e2aba1,15,zip,critical,E,25,zip15.jpg,zip35.jpg,high,option1;option2
1687411114,f8793d627559f0fc1ff4495db5e97b75,PennController,19,0,experiment,NULL,PennController,17,_Trial_,End,1687410974486,5d49d17b3dad1f0001e2aba1,5d49d17b3dad1f0001e2aba1,15,zip,critical,E,25,zip15.jpg,zip35.jpg,high,NULL
1687411114,f8793d627559f0fc1ff4495db5e97b75,PennController,8,0,experiment,NULL,PennController,6,_Trial_,Start,1687410974487,5d49d17b3dad1f0001e2aba1,5d49d17b3dad1f0001e2aba1,4,candy,critical,E,50,candy40.jpg,candy60.jpg,high,NULL
1687411114,f8793d627559f0fc1ff4495db5e97b75,PennController,8,0,experiment,NULL,PennController,6,_Header_,Start,1687410974487,5d49d17b3dad1f0001e2aba1,5d49d17b3dad1f0001e2aba1,4,candy,critical,E,50,candy40.jpg,candy60.jpg,high,NULL
1687411114,f8793d627559f0fc1ff4495db5e97b75,PennController,8,0,experiment,NULL,PennController,6,_Header_,End,1687410974487,5d49d17b3dad1f0001e2aba1,5d49d17b3dad1f0001e2aba1,4,candy,critical,E,50,candy40.jpg,candy60.jpg,high,NULL
1687411114,f8793d627559f0fc1ff4495db5e97b75,PennController,8,0,experiment,NULL,Video,progression,buffer,0,1687410978031,5d49d17b3dad1f0001e2aba1,5d49d17b3dad1f0001e2aba1,4,candy,critical,E,50,candy40.jpg,candy60.jpg,high,NULL
1687411114,f8793d627559f0fc1ff4495db5e97b75,PennController,8,0,experiment,NULL,Canvas,canvas6,Print,NA,1687410981265,5d49d17b3dad1f0001e2aba1,5d49d17b3dad1f0001e2aba1,4,candy,critical,E,50,candy40.jpg,candy60.jpg,high,NULL
1687411114,f8793d627559f0fc1ff4495db5e97b75,PennController,8,0,experiment,NULL,Selector,choice,Selection,option1,1687410982529,5d49d17b3dad1f0001e2aba1,5d49d17b3dad1f0001e2aba1,4,candy,critical,E,50,candy40.jpg,candy60.jpg,high,option1;option2
1687411114,f8793d627559f0fc1ff4495db5e97b75,PennController,8,0,experiment,NULL,PennController,6,_Trial_,End,1687410982530,5d49d17b3dad1f0001e2aba1,5d49d17b3dad1f0001e2aba1,4,candy,critical,E,50,candy40.jpg,candy60.jpg,high,NULL
1687411114,f8793d627559f0fc1ff4495db5e97b75,PennController,6,0,experiment,NULL,PennController,4,_Trial_,Start,1687410982531,5d49d17b3dad1f0001e2aba1,5d49d17b3dad1f0001e2aba1,2,door,critical,E,75,door65.jpg,door85.jpg,high,NULL
1687411114,f8793d627559f0fc1ff4495db5e97b75,PennController,6,0,experiment,NULL,PennController,4,_Header_,Start,1687410982531,5d49d17b3dad1f0001e2aba1,5d49d17b3dad1f0001e2aba1,2,door,critical,E,75,door65.jpg,door85.jpg,high,NULL
1687411114,f8793d627559f0fc1ff4495db5e97b75,PennController,6,0,experiment,NULL,PennController,4,_Header_,End,1687410982531,5d49d17b3dad1f0001e2aba1,5d49d17b3dad1f0001e2aba1,2,door,critical,E,75,door65.jpg,door85.jpg,high,NULL
1687411114,f8793d627559f0fc1ff4495db5e97b75,PennController,6,0,experiment,NULL,Video,progression,buffer,0,1687410986058,5d49d17b3dad1f0001e2aba1,5d49d17b3dad1f0001e2aba1,2,door,critical,E,75,door65.jpg,door85.jpg,high,NULL
1687411114,f8793d627559f0fc1ff4495db5e97b75,PennController,6,0,experiment,NULL,Canvas,canvas6,Print,NA,1687410990280,5d49d17b3dad1f0001e2aba1,5d49d17b3dad1f0001e2aba1,2,door,critical,E,75,door65.jpg,door85.jpg,high,NULL
1687411114,f8793d627559f0fc1ff4495db5e97b75,PennController,6,0,experiment,NULL,Selector,choice,Selection,option1,1687410991405,5d49d17b3dad1f0001e2aba1,5d49d17b3dad1f0001e2aba1,2,door,critical,E,75,door65.jpg,door85.jpg,high,option1;option2
1687411114,f8793d627559f0fc1ff4495db5e97b75,PennController,6,0,experiment,NULL,PennController,4,_Trial_,End,1687410991406,5d49d17b3dad1f0001e2aba1,5d49d17b3dad1f0001e2aba1,2,door,critical,E,75,door65.jpg,door85.jpg,high,NULL
1687411114,f8793d627559f0fc1ff4495db5e97b75,PennController,9,0,experiment,NULL,PennController,7,_Trial_,Start,1687410991407,5d49d17b3dad1f0001e2aba1,5d49d17b3dad1f0001e2aba1,5,book,critical,E,75,book65.jpg,book85.jpg,high,NULL
1687411114,f8793d627559f0fc1ff4495db5e97b75,PennController,9,0,experiment,NULL,PennController,7,_Header_,Start,1687410991407,5d49d17b3dad1f0001e2aba1,5d49d17b3dad1f0001e2aba1,5,book,critical,E,75,book65.jpg,book85.jpg,high,NULL
1687411114,f8793d627559f0fc1ff4495db5e97b75,PennController,9,0,experiment,NULL,PennController,7,_Header_,End,1687410991407,5d49d17b3dad1f0001e2aba1,5d49d17b3dad1f0001e2aba1,5,book,critical,E,75,book65.jpg,book85.jpg,high,NULL
1687411114,f8793d627559f0fc1ff4495db5e97b75,PennController,9,0,experiment,NULL,Video,progression,buffer,0,1687410994934,5d49d17b3dad1f0001e2aba1,5d49d17b3dad1f0001e2aba1,5,book,critical,E,75,book65.jpg,book85.jpg,high,NULL
1687411114,f8793d627559f0fc1ff4495db5e97b75,PennController,9,0,experiment,NULL,Canvas,canvas6,Print,NA,1687410999163,5d49d17b3dad1f0001e2aba1,5d49d17b3dad1f0001e2aba1,5,book,critical,E,75,book65.jpg,book85.jpg,high,NULL
1687411114,f8793d627559f0fc1ff4495db5e97b75,PennController,9,0,experiment,NULL,Selector,choice,Selection,option1,1687411001867,5d49d17b3dad1f0001e2aba1,5d49d17b3dad1f0001e2aba1,5,book,critical,E,75,book65.jpg,book85.jpg,high,option1;option2
1687411114,f8793d627559f0fc1ff4495db5e97b75,PennController,9,0,experiment,NULL,PennController,7,_Trial_,End,1687411001867,5d49d17b3dad1f0001e2aba1,5d49d17b3dad1f0001e2aba1,5,book,critical,E,75,book65.jpg,book85.jpg,high,NULL
1687411114,f8793d627559f0fc1ff4495db5e97b75,PennController,20,0,experiment,NULL,PennController,18,_Trial_,Start,1687411001868,5d49d17b3dad1f0001e2aba1,5d49d17b3dad1f0001e2aba1,16,blinds,critical,E,50,blinds42.jpg,blinds60.jpg,high,NULL
1687411114,f8793d627559f0fc1ff4495db5e97b75,PennController,20,0,experiment,NULL,PennController,18,_Header_,Start,1687411001868,5d49d17b3dad1f0001e2aba1,5d49d17b3dad1f0001e2aba1,16,blinds,critical,E,50,blinds42.jpg,blinds60.jpg,high,NULL
1687411114,f8793d627559f0fc1ff4495db5e97b75,PennController,20,0,experiment,NULL,PennController,18,_Header_,End,1687411001868,5d49d17b3dad1f0001e2aba1,5d49d17b3dad1f0001e2aba1,16,blinds,critical,E,50,blinds42.jpg,blinds60.jpg,high,NULL
1687411114,f8793d627559f0fc1ff4495db5e97b75,PennController,20,0,experiment,NULL,Video,progression,buffer,0,1687411005410,5d49d17b3dad1f0001e2aba1,5d49d17b3dad1f0001e2aba1,16,blinds,critical,E,50,blinds42.jpg,blinds60.jpg,high,NULL
1687411114,f8793d627559f0fc1ff4495db5e97b75,PennController,20,0,experiment,NULL,Canvas,canvas6,Print,NA,1687411010050,5d49d17b3dad1f0001e2aba1,5d49d17b3dad1f0001e2aba1,16,blinds,critical,E,50,blinds42.jpg,blinds60.jpg,high,NULL
1687411114,f8793d627559f0fc1ff4495db5e97b75,PennController,20,0,experiment,NULL,Selector,choice,Selection,option2,1687411011823,5d49d17b3dad1f0001e2aba1,5d49d17b3dad1f0001e2aba1,16,blinds,critical,E,50,blinds42.jpg,blinds60.jpg,high,option1;option2
1687411114,f8793d627559f0fc1ff4495db5e97b75,PennController,20,0,experiment,NULL,PennController,18,_Trial_,End,1687411011824,5d49d17b3dad1f0001e2aba1,5d49d17b3dad1f0001e2aba1,16,blinds,critical,E,50,blinds42.jpg,blinds60.jpg,high,NULL
1687411114,f8793d627559f0fc1ff4495db5e97b75,PennController,33,0,experiment,NULL,PennController,31,_Trial_,Start,1687411011824,5d49d17b3dad1f0001e2aba1,5d49d17b3dad1f0001e2aba1,29,frog,filler,E,75,frog65.jpg,frog85.jpg,GoalB,NULL
1687411114,f8793d627559f0fc1ff4495db5e97b75,PennController,33,0,experiment,NULL,PennController,31,_Header_,Start,1687411011824,5d49d17b3dad1f0001e2aba1,5d49d17b3dad1f0001e2aba1,29,frog,filler,E,75,frog65.jpg,frog85.jpg,GoalB,NULL
1687411114,f8793d627559f0fc1ff4495db5e97b75,PennController,33,0,experiment,NULL,PennController,31,_Header_,End,1687411011824,5d49d17b3dad1f0001e2aba1,5d49d17b3dad1f0001e2aba1,29,frog,filler,E,75,frog65.jpg,frog85.jpg,GoalB,NULL
1687411114,f8793d627559f0fc1ff4495db5e97b75,PennController,33,0,experiment,NULL,Video,progression,buffer,0,1687411015342,5d49d17b3dad1f0001e2aba1,5d49d17b3dad1f0001e2aba1,29,frog,filler,E,75,frog65.jpg,frog85.jpg,GoalB,NULL
1687411114,f8793d627559f0fc1ff4495db5e97b75,PennController,33,0,experiment,NULL,Canvas,canvas6,Print,NA,1687411019565,5d49d17b3dad1f0001e2aba1,5d49d17b3dad1f0001e2aba1,29,frog,filler,E,75,frog65.jpg,frog85.jpg,GoalB,NULL
1687411114,f8793d627559f0fc1ff4495db5e97b75,PennController,33,0,experiment,NULL,Selector,choice,Selection,option2,1687411021745,5d49d17b3dad1f0001e2aba1,5d49d17b3dad1f0001e2aba1,29,frog,filler,E,75,frog65.jpg,frog85.jpg,GoalB,option2;option1
1687411114,f8793d627559f0fc1ff4495db5e97b75,PennController,33,0,experiment,NULL,PennController,31,_Trial_,End,1687411021746,5d49d17b3dad1f0001e2aba1,5d49d17b3dad1f0001e2aba1,29,frog,filler,E,75,frog65.jpg,frog85.jpg,GoalB,NULL
1687411114,f8793d627559f0fc1ff4495db5e97b75,PennController,29,0,experiment,NULL,PennController,27,_Trial_,Start,1687411021747,5d49d17b3dad1f0001e2aba1,5d49d17b3dad1f0001e2aba1,25,house,filler,E,50,house40.jpg,house60.jpg,GoalB,NULL
1687411114,f8793d627559f0fc1ff4495db5e97b75,PennController,29,0,experiment,NULL,PennController,27,_Header_,Start,1687411021747,5d49d17b3dad1f0001e2aba1,5d49d17b3dad1f0001e2aba1,25,house,filler,E,50,house40.jpg,house60.jpg,GoalB,NULL
1687411114,f8793d627559f0fc1ff4495db5e97b75,PennController,29,0,experiment,NULL,PennController,27,_Header_,End,1687411021747,5d49d17b3dad1f0001e2aba1,5d49d17b3dad1f0001e2aba1,25,house,filler,E,50,house40.jpg,house60.jpg,GoalB,NULL
1687411114,f8793d627559f0fc1ff4495db5e97b75,PennController,29,0,experiment,NULL,Video,progression,buffer,0,1687411025272,5d49d17b3dad1f0001e2aba1,5d49d17b3dad1f0001e2aba1,25,house,filler,E,50,house40.jpg,house60.jpg,GoalB,NULL
1687411114,f8793d627559f0fc1ff4495db5e97b75,PennController,29,0,experiment,NULL,Canvas,canvas6,Print,NA,1687411028508,5d49d17b3dad1f0001e2aba1,5d49d17b3dad1f0001e2aba1,25,house,filler,E,50,house40.jpg,house60.jpg,GoalB,NULL
1687411114,f8793d627559f0fc1ff4495db5e97b75,PennController,29,0,experiment,NULL,Selector,choice,Selection,option1,1687411030384,5d49d17b3dad1f0001e2aba1,5d49d17b3dad1f0001e2aba1,25,house,filler,E,50,house40.jpg,house60.jpg,GoalB,option2;option1
1687411114,f8793d627559f0fc1ff4495db5e97b75,PennController,29,0,experiment,NULL,PennController,27,_Trial_,End,1687411030384,5d49d17b3dad1f0001e2aba1,5d49d17b3dad1f0001e2aba1,25,house,filler,E,50,house40.jpg,house60.jpg,GoalB,NULL
1687411114,f8793d627559f0fc1ff4495db5e97b75,PennController,13,0,experiment,NULL,PennController,11,_Trial_,Start,1687411030386,5d49d17b3dad1f0001e2aba1,5d49d17b3dad1f0001e2aba1,9,cake,critical,E,25,cake15.jpg,cake33.jpg,high,NULL
1687411114,f8793d627559f0fc1ff4495db5e97b75,PennController,13,0,experiment,NULL,PennController,11,_Header_,Start,1687411030386,5d49d17b3dad1f0001e2aba1,5d49d17b3dad1f0001e2aba1,9,cake,critical,E,25,cake15.jpg,cake33.jpg,high,NULL
1687411114,f8793d627559f0fc1ff4495db5e97b75,PennController,13,0,experiment,NULL,PennController,11,_Header_,End,1687411030386,5d49d17b3dad1f0001e2aba1,5d49d17b3dad1f0001e2aba1,9,cake,critical,E,25,cake15.jpg,cake33.jpg,high,NULL
1687411114,f8793d627559f0fc1ff4495db5e97b75,PennController,13,0,experiment,NULL,Video,progression,buffer,0,1687411033909,5d49d17b3dad1f0001e2aba1,5d49d17b3dad1f0001e2aba1,9,cake,critical,E,25,cake15.jpg,cake33.jpg,high,NULL
1687411114,f8793d627559f0fc1ff4495db5e97b75,PennController,13,0,experiment,NULL,Canvas,canvas6,Print,NA,1687411036757,5d49d17b3dad1f0001e2aba1,5d49d17b3dad1f0001e2aba1,9,cake,critical,E,25,cake15.jpg,cake33.jpg,high,NULL
1687411114,f8793d627559f0fc1ff4495db5e97b75,PennController,13,0,experiment,NULL,Selector,choice,Selection,option2,1687411038585,5d49d17b3dad1f0001e2aba1,5d49d17b3dad1f0001e2aba1,9,cake,critical,E,25,cake15.jpg,cake33.jpg,high,option1;option2
1687411114,f8793d627559f0fc1ff4495db5e97b75,PennController,13,0,experiment,NULL,PennController,11,_Trial_,End,1687411038586,5d49d17b3dad1f0001e2aba1,5d49d17b3dad1f0001e2aba1,9,cake,critical,E,25,cake15.jpg,cake33.jpg,high,NULL
1687411114,f8793d627559f0fc1ff4495db5e97b75,PennController,32,0,experiment,NULL,PennController,30,_Trial_,Start,1687411038586,5d49d17b3dad1f0001e2aba1,5d49d17b3dad1f0001e2aba1,28,sort,filler,E,50,sort40.jpg,sort60.jpg,GoalA,NULL
1687411114,f8793d627559f0fc1ff4495db5e97b75,PennController,32,0,experiment,NULL,PennController,30,_Header_,Start,1687411038586,5d49d17b3dad1f0001e2aba1,5d49d17b3dad1f0001e2aba1,28,sort,filler,E,50,sort40.jpg,sort60.jpg,GoalA,NULL
1687411114,f8793d627559f0fc1ff4495db5e97b75,PennController,32,0,experiment,NULL,PennController,30,_Header_,End,1687411038586,5d49d17b3dad1f0001e2aba1,5d49d17b3dad1f0001e2aba1,28,sort,filler,E,50,sort40.jpg,sort60.jpg,GoalA,NULL
1687411114,f8793d627559f0fc1ff4495db5e97b75,PennController,32,0,experiment,NULL,Video,progression,buffer,0,1687411042105,5d49d17b3dad1f0001e2aba1,5d49d17b3dad1f0001e2aba1,28,sort,filler,E,50,sort40.jpg,sort60.jpg,GoalA,NULL
1687411114,f8793d627559f0fc1ff4495db5e97b75,PennController,32,0,experiment,NULL,Canvas,canvas6,Print,NA,1687411045340,5d49d17b3dad1f0001e2aba1,5d49d17b3dad1f0001e2aba1,28,sort,filler,E,50,sort40.jpg,sort60.jpg,GoalA,NULL
1687411114,f8793d627559f0fc1ff4495db5e97b75,PennController,32,0,experiment,NULL,Selector,choice,Selection,option2,1687411046482,5d49d17b3dad1f0001e2aba1,5d49d17b3dad1f0001e2aba1,28,sort,filler,E,50,sort40.jpg,sort60.jpg,GoalA,option2;option1
1687411114,f8793d627559f0fc1ff4495db5e97b75,PennController,32,0,experiment,NULL,PennController,30,_Trial_,End,1687411046483,5d49d17b3dad1f0001e2aba1,5d49d17b3dad1f0001e2aba1,28,sort,filler,E,50,sort40.jpg,sort60.jpg,GoalA,NULL
1687411114,f8793d627559f0fc1ff4495db5e97b75,PennController,17,0,experiment,NULL,PennController,15,_Trial_,Start,1687411046483,5d49d17b3dad1f0001e2aba1,5d49d17b3dad1f0001e2aba1,13,mix,critical,E,50,mix40.jpg,mix60.jpg,high,NULL
1687411114,f8793d627559f0fc1ff4495db5e97b75,PennController,17,0,experiment,NULL,PennController,15,_Header_,Start,1687411046483,5d49d17b3dad1f0001e2aba1,5d49d17b3dad1f0001e2aba1,13,mix,critical,E,50,mix40.jpg,mix60.jpg,high,NULL
1687411114,f8793d627559f0fc1ff4495db5e97b75,PennController,17,0,experiment,NULL,PennController,15,_Header_,End,1687411046483,5d49d17b3dad1f0001e2aba1,5d49d17b3dad1f0001e2aba1,13,mix,critical,E,50,mix40.jpg,mix60.jpg,high,NULL
1687411114,f8793d627559f0fc1ff4495db5e97b75,PennController,17,0,experiment,NULL,Video,progression,buffer,0,1687411050013,5d49d17b3dad1f0001e2aba1,5d49d17b3dad1f0001e2aba1,13,mix,critical,E,50,mix40.jpg,mix60.jpg,high,NULL
1687411114,f8793d627559f0fc1ff4495db5e97b75,PennController,17,0,experiment,NULL,Canvas,canvas6,Print,NA,1687411053255,5d49d17b3dad1f0001e2aba1,5d49d17b3dad1f0001e2aba1,13,mix,critical,E,50,mix40.jpg,mix60.jpg,high,NULL
1687411114,f8793d627559f0fc1ff4495db5e97b75,PennController,17,0,experiment,NULL,Selector,choice,Selection,option1,1687411055358,5d49d17b3dad1f0001e2aba1,5d49d17b3dad1f0001e2aba1,13,mix,critical,E,50,mix40.jpg,mix60.jpg,high,option2;option1
1687411114,f8793d627559f0fc1ff4495db5e97b75,PennController,17,0,experiment,NULL,PennController,15,_Trial_,End,1687411055359,5d49d17b3dad1f0001e2aba1,5d49d17b3dad1f0001e2aba1,13,mix,critical,E,50,mix40.jpg,mix60.jpg,high,NULL
1687411114,f8793d627559f0fc1ff4495db5e97b75,PennController,14,0,experiment,NULL,PennController,12,_Trial_,Start,1687411055360,5d49d17b3dad1f0001e2aba1,5d49d17b3dad1f0001e2aba1,10,train,critical,E,50,train40.jpg,train60.jpg,high,NULL
1687411114,f8793d627559f0fc1ff4495db5e97b75,PennController,14,0,experiment,NULL,PennController,12,_Header_,Start,1687411055360,5d49d17b3dad1f0001e2aba1,5d49d17b3dad1f0001e2aba1,10,train,critical,E,50,train40.jpg,train60.jpg,high,NULL
1687411114,f8793d627559f0fc1ff4495db5e97b75,PennController,14,0,experiment,NULL,PennController,12,_Header_,End,1687411055360,5d49d17b3dad1f0001e2aba1,5d49d17b3dad1f0001e2aba1,10,train,critical,E,50,train40.jpg,train60.jpg,high,NULL
1687411114,f8793d627559f0fc1ff4495db5e97b75,PennController,14,0,experiment,NULL,Video,progression,buffer,0,1687411058905,5d49d17b3dad1f0001e2aba1,5d49d17b3dad1f0001e2aba1,10,train,critical,E,50,train40.jpg,train60.jpg,high,NULL
1687411114,f8793d627559f0fc1ff4495db5e97b75,PennController,14,0,experiment,NULL,Canvas,canvas6,Print,NA,1687411062140,5d49d17b3dad1f0001e2aba1,5d49d17b3dad1f0001e2aba1,10,train,critical,E,50,train40.jpg,train60.jpg,high,NULL
1687411114,f8793d627559f0fc1ff4495db5e97b75,PennController,14,0,experiment,NULL,Selector,choice,Selection,option2,1687411063783,5d49d17b3dad1f0001e2aba1,5d49d17b3dad1f0001e2aba1,10,train,critical,E,50,train40.jpg,train60.jpg,high,option1;option2
1687411114,f8793d627559f0fc1ff4495db5e97b75,PennController,14,0,experiment,NULL,PennController,12,_Trial_,End,1687411063784,5d49d17b3dad1f0001e2aba1,5d49d17b3dad1f0001e2aba1,10,train,critical,E,50,train40.jpg,train60.jpg,high,NULL
1687411114,f8793d627559f0fc1ff4495db5e97b75,PennController,28,0,experiment,NULL,PennController,26,_Trial_,Start,1687411063785,5d49d17b3dad1f0001e2aba1,5d49d17b3dad1f0001e2aba1,24,match,filler,E,25,match15.jpg,match35.jpg,GoalA,NULL
1687411114,f8793d627559f0fc1ff4495db5e97b75,PennController,28,0,experiment,NULL,PennController,26,_Header_,Start,1687411063785,5d49d17b3dad1f0001e2aba1,5d49d17b3dad1f0001e2aba1,24,match,filler,E,25,match15.jpg,match35.jpg,GoalA,NULL
1687411114,f8793d627559f0fc1ff4495db5e97b75,PennController,28,0,experiment,NULL,PennController,26,_Header_,End,1687411063785,5d49d17b3dad1f0001e2aba1,5d49d17b3dad1f0001e2aba1,24,match,filler,E,25,match15.jpg,match35.jpg,GoalA,NULL
1687411114,f8793d627559f0fc1ff4495db5e97b75,PennController,28,0,experiment,NULL,Video,progression,buffer,0,1687411067317,5d49d17b3dad1f0001e2aba1,5d49d17b3dad1f0001e2aba1,24,match,filler,E,25,match15.jpg,match35.jpg,GoalA,NULL
1687411114,f8793d627559f0fc1ff4495db5e97b75,PennController,28,0,experiment,NULL,Canvas,canvas6,Print,NA,1687411069541,5d49d17b3dad1f0001e2aba1,5d49d17b3dad1f0001e2aba1,24,match,filler,E,25,match15.jpg,match35.jpg,GoalA,NULL
1687411114,f8793d627559f0fc1ff4495db5e97b75,PennController,28,0,experiment,NULL,Selector,choice,Selection,option2,1687411070826,5d49d17b3dad1f0001e2aba1,5d49d17b3dad1f0001e2aba1,24,match,filler,E,25,match15.jpg,match35.jpg,GoalA,option2;option1
1687411114,f8793d627559f0fc1ff4495db5e97b75,PennController,28,0,experiment,NULL,PennController,26,_Trial_,End,1687411070826,5d49d17b3dad1f0001e2aba1,5d49d17b3dad1f0001e2aba1,24,match,filler,E,25,match15.jpg,match35.jpg,GoalA,NULL
1687411114,f8793d627559f0fc1ff4495db5e97b75,PennController,7,0,experiment,NULL,PennController,5,_Trial_,Start,1687411070827,5d49d17b3dad1f0001e2aba1,5d49d17b3dad1f0001e2aba1,3,clean,critical,E,25,clean15.jpg,clean35.jpg,high,NULL
1687411114,f8793d627559f0fc1ff4495db5e97b75,PennController,7,0,experiment,NULL,PennController,5,_Header_,Start,1687411070827,5d49d17b3dad1f0001e2aba1,5d49d17b3dad1f0001e2aba1,3,clean,critical,E,25,clean15.jpg,clean35.jpg,high,NULL
1687411114,f8793d627559f0fc1ff4495db5e97b75,PennController,7,0,experiment,NULL,PennController,5,_Header_,End,1687411070827,5d49d17b3dad1f0001e2aba1,5d49d17b3dad1f0001e2aba1,3,clean,critical,E,25,clean15.jpg,clean35.jpg,high,NULL
1687411114,f8793d627559f0fc1ff4495db5e97b75,PennController,7,0,experiment,NULL,Video,progression,buffer,0,1687411074353,5d49d17b3dad1f0001e2aba1,5d49d17b3dad1f0001e2aba1,3,clean,critical,E,25,clean15.jpg,clean35.jpg,high,NULL
1687411114,f8793d627559f0fc1ff4495db5e97b75,PennController,7,0,experiment,NULL,Canvas,canvas6,Print,NA,1687411076587,5d49d17b3dad1f0001e2aba1,5d49d17b3dad1f0001e2aba1,3,clean,critical,E,25,clean15.jpg,clean35.jpg,high,NULL
1687411114,f8793d627559f0fc1ff4495db5e97b75,PennController,7,0,experiment,NULL,Selector,choice,Selection,option2,1687411077958,5d49d17b3dad1f0001e2aba1,5d49d17b3dad1f0001e2aba1,3,clean,critical,E,25,clean15.jpg,clean35.jpg,high,option2;option1
1687411114,f8793d627559f0fc1ff4495db5e97b75,PennController,7,0,experiment,NULL,PennController,5,_Trial_,End,1687411077959,5d49d17b3dad1f0001e2aba1,5d49d17b3dad1f0001e2aba1,3,clean,critical,E,25,clean15.jpg,clean35.jpg,high,NULL
1687411114,f8793d627559f0fc1ff4495db5e97b75,PennController,31,0,experiment,NULL,PennController,29,_Trial_,Start,1687411077959,5d49d17b3dad1f0001e2aba1,5d49d17b3dad1f0001e2aba1,27,square,filler,E,25,square15.jpg,square35.jpg,GoalB,NULL
1687411114,f8793d627559f0fc1ff4495db5e97b75,PennController,31,0,experiment,NULL,PennController,29,_Header_,Start,1687411077959,5d49d17b3dad1f0001e2aba1,5d49d17b3dad1f0001e2aba1,27,square,filler,E,25,square15.jpg,square35.jpg,GoalB,NULL
1687411114,f8793d627559f0fc1ff4495db5e97b75,PennController,31,0,experiment,NULL,PennController,29,_Header_,End,1687411077959,5d49d17b3dad1f0001e2aba1,5d49d17b3dad1f0001e2aba1,27,square,filler,E,25,square15.jpg,square35.jpg,GoalB,NULL
1687411114,f8793d627559f0fc1ff4495db5e97b75,PennController,31,0,experiment,NULL,Video,progression,buffer,0,1687411081490,5d49d17b3dad1f0001e2aba1,5d49d17b3dad1f0001e2aba1,27,square,filler,E,25,square15.jpg,square35.jpg,GoalB,NULL
1687411114,f8793d627559f0fc1ff4495db5e97b75,PennController,31,0,experiment,NULL,Canvas,canvas6,Print,NA,1687411083733,5d49d17b3dad1f0001e2aba1,5d49d17b3dad1f0001e2aba1,27,square,filler,E,25,square15.jpg,square35.jpg,GoalB,NULL
1687411114,f8793d627559f0fc1ff4495db5e97b75,PennController,31,0,experiment,NULL,Selector,choice,Selection,option2,1687411085315,5d49d17b3dad1f0001e2aba1,5d49d17b3dad1f0001e2aba1,27,square,filler,E,25,square15.jpg,square35.jpg,GoalB,option2;option1
1687411114,f8793d627559f0fc1ff4495db5e97b75,PennController,31,0,experiment,NULL,PennController,29,_Trial_,End,1687411085315,5d49d17b3dad1f0001e2aba1,5d49d17b3dad1f0001e2aba1,27,square,filler,E,25,square15.jpg,square35.jpg,GoalB,NULL
1687411114,f8793d627559f0fc1ff4495db5e97b75,PennController,26,0,experiment,NULL,PennController,24,_Trial_,Start,1687411085316,5d49d17b3dad1f0001e2aba1,5d49d17b3dad1f0001e2aba1,22,wall,filler,E,50,wall40.jpg,wall60.jpg,GoalA,NULL
1687411114,f8793d627559f0fc1ff4495db5e97b75,PennController,26,0,experiment,NULL,PennController,24,_Header_,Start,1687411085316,5d49d17b3dad1f0001e2aba1,5d49d17b3dad1f0001e2aba1,22,wall,filler,E,50,wall40.jpg,wall60.jpg,GoalA,NULL
1687411114,f8793d627559f0fc1ff4495db5e97b75,PennController,26,0,experiment,NULL,PennController,24,_Header_,End,1687411085316,5d49d17b3dad1f0001e2aba1,5d49d17b3dad1f0001e2aba1,22,wall,filler,E,50,wall40.jpg,wall60.jpg,GoalA,NULL
1687411114,f8793d627559f0fc1ff4495db5e97b75,PennController,26,0,experiment,NULL,Video,progression,buffer,0,1687411088843,5d49d17b3dad1f0001e2aba1,5d49d17b3dad1f0001e2aba1,22,wall,filler,E,50,wall40.jpg,wall60.jpg,GoalA,NULL
1687411114,f8793d627559f0fc1ff4495db5e97b75,PennController,26,0,experiment,NULL,Canvas,canvas6,Print,NA,1687411092068,5d49d17b3dad1f0001e2aba1,5d49d17b3dad1f0001e2aba1,22,wall,filler,E,50,wall40.jpg,wall60.jpg,GoalA,NULL
1687411114,f8793d627559f0fc1ff4495db5e97b75,PennController,26,0,experiment,NULL,Selector,choice,Selection,option1,1687411093426,5d49d17b3dad1f0001e2aba1,5d49d17b3dad1f0001e2aba1,22,wall,filler,E,50,wall40.jpg,wall60.jpg,GoalA,option1;option2
1687411114,f8793d627559f0fc1ff4495db5e97b75,PennController,26,0,experiment,NULL,PennController,24,_Trial_,End,1687411093426,5d49d17b3dad1f0001e2aba1,5d49d17b3dad1f0001e2aba1,22,wall,filler,E,50,wall40.jpg,wall60.jpg,GoalA,NULL
1687411114,f8793d627559f0fc1ff4495db5e97b75,PennController,10,0,experiment,NULL,PennController,8,_Trial_,Start,1687411093427,5d49d17b3dad1f0001e2aba1,5d49d17b3dad1f0001e2aba1,6,flower,critical,E,25,flower15.jpg,flower35.jpg,high,NULL
1687411114,f8793d627559f0fc1ff4495db5e97b75,PennController,10,0,experiment,NULL,PennController,8,_Header_,Start,1687411093427,5d49d17b3dad1f0001e2aba1,5d49d17b3dad1f0001e2aba1,6,flower,critical,E,25,flower15.jpg,flower35.jpg,high,NULL
1687411114,f8793d627559f0fc1ff4495db5e97b75,PennController,10,0,experiment,NULL,PennController,8,_Header_,End,1687411093427,5d49d17b3dad1f0001e2aba1,5d49d17b3dad1f0001e2aba1,6,flower,critical,E,25,flower15.jpg,flower35.jpg,high,NULL
1687411114,f8793d627559f0fc1ff4495db5e97b75,PennController,10,0,experiment,NULL,Video,progression,buffer,0,1687411096953,5d49d17b3dad1f0001e2aba1,5d49d17b3dad1f0001e2aba1,6,flower,critical,E,25,flower15.jpg,flower35.jpg,high,NULL
1687411114,f8793d627559f0fc1ff4495db5e97b75,PennController,10,0,experiment,NULL,Canvas,canvas6,Print,NA,1687411099179,5d49d17b3dad1f0001e2aba1,5d49d17b3dad1f0001e2aba1,6,flower,critical,E,25,flower15.jpg,flower35.jpg,high,NULL
1687411114,f8793d627559f0fc1ff4495db5e97b75,PennController,10,0,experiment,NULL,Selector,choice,Selection,option2,1687411100209,5d49d17b3dad1f0001e2aba1,5d49d17b3dad1f0001e2aba1,6,flower,critical,E,25,flower15.jpg,flower35.jpg,high,option2;option1
1687411114,f8793d627559f0fc1ff4495db5e97b75,PennController,10,0,experiment,NULL,PennController,8,_Trial_,End,1687411100210,5d49d17b3dad1f0001e2aba1,5d49d17b3dad1f0001e2aba1,6,flower,critical,E,25,flower15.jpg,flower35.jpg,high,NULL
1687411114,f8793d627559f0fc1ff4495db5e97b75,PennController,18,0,experiment,NULL,PennController,16,_Trial_,Start,1687411100210,5d49d17b3dad1f0001e2aba1,5d49d17b3dad1f0001e2aba1,14,cover,critical,E,75,cover66.jpg,cover84.jpg,high,NULL
1687411114,f8793d627559f0fc1ff4495db5e97b75,PennController,18,0,experiment,NULL,PennController,16,_Header_,Start,1687411100210,5d49d17b3dad1f0001e2aba1,5d49d17b3dad1f0001e2aba1,14,cover,critical,E,75,cover66.jpg,cover84.jpg,high,NULL
1687411114,f8793d627559f0fc1ff4495db5e97b75,PennController,18,0,experiment,NULL,PennController,16,_Header_,End,1687411100210,5d49d17b3dad1f0001e2aba1,5d49d17b3dad1f0001e2aba1,14,cover,critical,E,75,cover66.jpg,cover84.jpg,high,NULL
1687411114,f8793d627559f0fc1ff4495db5e97b75,PennController,18,0,experiment,NULL,Video,progression,buffer,0,1687411103725,5d49d17b3dad1f0001e2aba1,5d49d17b3dad1f0001e2aba1,14,cover,critical,E,75,cover66.jpg,cover84.jpg,high,NULL
1687411114,f8793d627559f0fc1ff4495db5e97b75,PennController,18,0,experiment,NULL,Canvas,canvas6,Print,NA,1687411109961,5d49d17b3dad1f0001e2aba1,5d49d17b3dad1f0001e2aba1,14,cover,critical,E,75,cover66.jpg,cover84.jpg,high,NULL
1687411114,f8793d627559f0fc1ff4495db5e97b75,PennController,18,0,experiment,NULL,Selector,choice,Selection,option2,1687411111189,5d49d17b3dad1f0001e2aba1,5d49d17b3dad1f0001e2aba1,14,cover,critical,E,75,cover66.jpg,cover84.jpg,high,option1;option2
1687411114,f8793d627559f0fc1ff4495db5e97b75,PennController,18,0,experiment,NULL,PennController,16,_Trial_,End,1687411111189,5d49d17b3dad1f0001e2aba1,5d49d17b3dad1f0001e2aba1,14,cover,critical,E,75,cover66.jpg,cover84.jpg,high,NULL
1687411114,f8793d627559f0fc1ff4495db5e97b75,PennController,15,0,experiment,NULL,PennController,13,_Trial_,Start,1687411111190,5d49d17b3dad1f0001e2aba1,5d49d17b3dad1f0001e2aba1,11,beads,critical,E,75,beads65.jpg,beads85.jpg,high,NULL
1687411114,f8793d627559f0fc1ff4495db5e97b75,PennController,15,0,experiment,NULL,PennController,13,_Header_,Start,1687411111190,5d49d17b3dad1f0001e2aba1,5d49d17b3dad1f0001e2aba1,11,beads,critical,E,75,beads65.jpg,beads85.jpg,high,NULL
1687411114,f8793d627559f0fc1ff4495db5e97b75,PennController,15,0,experiment,NULL,PennController,13,_Header_,End,1687411111190,5d49d17b3dad1f0001e2aba1,5d49d17b3dad1f0001e2aba1,11,beads,critical,E,75,beads65.jpg,beads85.jpg,high,NULL
1687411114,f8793d627559f0fc1ff4495db5e97b75,PennController,15,0,experiment,NULL,Video,progression,buffer,0,1687411114727,5d49d17b3dad1f0001e2aba1,5d49d17b3dad1f0001e2aba1,11,beads,critical,E,75,beads65.jpg,beads85.jpg,high,NULL
1687411114,f8793d627559f0fc1ff4495db5e97b75,PennController,15,0,experiment,NULL,Canvas,canvas6,Print,NA,1687411118962,5d49d17b3dad1f0001e2aba1,5d49d17b3dad1f0001e2aba1,11,beads,critical,E,75,beads65.jpg,beads85.jpg,high,NULL
1687411114,f8793d627559f0fc1ff4495db5e97b75,PennController,15,0,experiment,NULL,Selector,choice,Selection,option2,1687411120098,5d49d17b3dad1f0001e2aba1,5d49d17b3dad1f0001e2aba1,11,beads,critical,E,75,beads65.jpg,beads85.jpg,high,option1;option2
1687411114,f8793d627559f0fc1ff4495db5e97b75,PennController,15,0,experiment,NULL,PennController,13,_Trial_,End,1687411120099,5d49d17b3dad1f0001e2aba1,5d49d17b3dad1f0001e2aba1,11,beads,critical,E,75,beads65.jpg,beads85.jpg,high,NULL
1687411114,f8793d627559f0fc1ff4495db5e97b75,PennController,16,0,experiment,NULL,PennController,14,_Trial_,Start,1687411120099,5d49d17b3dad1f0001e2aba1,5d49d17b3dad1f0001e2aba1,12,erase,critical,E,25,erase15.jpg,erase33.jpg,high,NULL
1687411114,f8793d627559f0fc1ff4495db5e97b75,PennController,16,0,experiment,NULL,PennController,14,_Header_,Start,1687411120099,5d49d17b3dad1f0001e2aba1,5d49d17b3dad1f0001e2aba1,12,erase,critical,E,25,erase15.jpg,erase33.jpg,high,NULL
1687411114,f8793d627559f0fc1ff4495db5e97b75,PennController,16,0,experiment,NULL,PennController,14,_Header_,End,1687411120099,5d49d17b3dad1f0001e2aba1,5d49d17b3dad1f0001e2aba1,12,erase,critical,E,25,erase15.jpg,erase33.jpg,high,NULL
1687411114,f8793d627559f0fc1ff4495db5e97b75,PennController,16,0,experiment,NULL,Video,progression,buffer,0,1687411123643,5d49d17b3dad1f0001e2aba1,5d49d17b3dad1f0001e2aba1,12,erase,critical,E,25,erase15.jpg,erase33.jpg,high,NULL
1687411114,f8793d627559f0fc1ff4495db5e97b75,PennController,16,0,experiment,NULL,Canvas,canvas6,Print,NA,1687411126472,5d49d17b3dad1f0001e2aba1,5d49d17b3dad1f0001e2aba1,12,erase,critical,E,25,erase15.jpg,erase33.jpg,high,NULL
1687411114,f8793d627559f0fc1ff4495db5e97b75,PennController,16,0,experiment,NULL,Selector,choice,Selection,option2,1687411128096,5d49d17b3dad1f0001e2aba1,5d49d17b3dad1f0001e2aba1,12,erase,critical,E,25,erase15.jpg,erase33.jpg,high,option2;option1
1687411114,f8793d627559f0fc1ff4495db5e97b75,PennController,16,0,experiment,NULL,PennController,14,_Trial_,End,1687411128097,5d49d17b3dad1f0001e2aba1,5d49d17b3dad1f0001e2aba1,12,erase,critical,E,25,erase15.jpg,erase33.jpg,high,NULL
