#
# Results on Thursday June 22 2023 05:11:29 UTC
# USER AGENT: Mozilla/5.0 (Windows NT 10.0; Win64; x64) AppleWebKit/537.36 (KHTML, like Gecko) Chrome/114.0.0.0 Safari/537.36
# Design number was non-random = 77
#
# Columns below this comment are as follows:
# 1. Results reception time.
# 2. MD5 hash of participant's IP address.
# 3. Controller name.
# 4. Order number of item.
# 5. Inner element number.
# 6. Label.
# 7. Latin Square Group.
# 8. PennElementType.
# 9. PennElementName.
# 10. Parameter.
# 11. Value.
# 12. EventTime.
# 13. PROLIFIC_ID.
# 14. Comments.
1687410689,e55e23d159ee702632d849a7b1b6265b,PennController,3,0,consent,NULL,PennController,0,_Trial_,Start,1687410247542,613f59d7f0f631a278aca6e8,NULL
1687410689,e55e23d159ee702632d849a7b1b6265b,PennController,3,0,consent,NULL,PennController,0,_Header_,Start,1687410247542,613f59d7f0f631a278aca6e8,NULL
1687410689,e55e23d159ee702632d849a7b1b6265b,PennController,3,0,consent,NULL,PennController,0,_Header_,End,1687410247542,613f59d7f0f631a278aca6e8,NULL
1687410689,e55e23d159ee702632d849a7b1b6265b,PennController,3,0,consent,NULL,PennController,0,_Trial_,End,1687410264471,613f59d7f0f631a278aca6e8,NULL
# Columns below this comment are as follows:
# 14. ID.
# 15. Comments.
1687410689,e55e23d159ee702632d849a7b1b6265b,PennController,4,0,intro,NULL,PennController,1,_Trial_,Start,1687410264477,613f59d7f0f631a278aca6e8,613f59d7f0f631a278aca6e8,NULL
1687410689,e55e23d159ee702632d849a7b1b6265b,PennController,4,0,intro,NULL,PennController,1,_Header_,Start,1687410264477,613f59d7f0f631a278aca6e8,613f59d7f0f631a278aca6e8,NULL
1687410689,e55e23d159ee702632d849a7b1b6265b,PennController,4,0,intro,NULL,PennController,1,_Header_,End,1687410264477,613f59d7f0f631a278aca6e8,613f59d7f0f631a278aca6e8,NULL
1687410689,e55e23d159ee702632d849a7b1b6265b,PennController,4,0,intro,NULL,PennController,1,_Trial_,End,1687410376429,613f59d7f0f631a278aca6e8,613f59d7f0f631a278aca6e8,NULL
# Columns below this comment are as follows:
# 15. item_number.
# 16. item.
# 17. type.
# 18. Group.
# 19. prog.
# 20. prev_image.
# 21. next_image.
# 22. height.
# 23. Comments.
1687410689,e55e23d159ee702632d849a7b1b6265b,PennController,33,0,experiment,NULL,PennController,31,_Trial_,Start,1687410376432,613f59d7f0f631a278aca6e8,613f59d7f0f631a278aca6e8,29,frog,filler,E,75,frog65.jpg,frog85.jpg,GoalB,NULL
1687410689,e55e23d159ee702632d849a7b1b6265b,PennController,33,0,experiment,NULL,PennController,31,_Header_,Start,1687410376432,613f59d7f0f631a278aca6e8,613f59d7f0f631a278aca6e8,29,frog,filler,E,75,frog65.jpg,frog85.jpg,GoalB,NULL
1687410689,e55e23d159ee702632d849a7b1b6265b,PennController,33,0,experiment,NULL,PennController,31,_Header_,End,1687410376432,613f59d7f0f631a278aca6e8,613f59d7f0f631a278aca6e8,29,frog,filler,E,75,frog65.jpg,frog85.jpg,GoalB,NULL
1687410689,e55e23d159ee702632d849a7b1b6265b,PennController,33,0,experiment,NULL,Canvas,canvas6,Print,NA,1687410384314,613f59d7f0f631a278aca6e8,613f59d7f0f631a278aca6e8,29,frog,filler,E,75,frog65.jpg,frog85.jpg,GoalB,NULL
1687410689,e55e23d159ee702632d849a7b1b6265b,PennController,33,0,experiment,NULL,Video,progression,buffer,0.017453,1687410380115,613f59d7f0f631a278aca6e8,613f59d7f0f631a278aca6e8,29,frog,filler,E,75,frog65.jpg,frog85.jpg,GoalB,NULL
1687410689,e55e23d159ee702632d849a7b1b6265b,PennController,33,0,experiment,NULL,Selector,choice,Selection,option1,1687410394688,613f59d7f0f631a278aca6e8,613f59d7f0f631a278aca6e8,29,frog,filler,E,75,frog65.jpg,frog85.jpg,GoalB,option1;option2
1687410689,e55e23d159ee702632d849a7b1b6265b,PennController,33,0,experiment,NULL,PennController,31,_Trial_,End,1687410394699,613f59d7f0f631a278aca6e8,613f59d7f0f631a278aca6e8,29,frog,filler,E,75,frog65.jpg,frog85.jpg,GoalB,NULL
1687410689,e55e23d159ee702632d849a7b1b6265b,PennController,12,0,experiment,NULL,PennController,10,_Trial_,Start,1687410394708,613f59d7f0f631a278aca6e8,613f59d7f0f631a278aca6e8,8,cucumber,critical,E,75,cucumber66.jpg,cucumber84.jpg,high,NULL
1687410689,e55e23d159ee702632d849a7b1b6265b,PennController,12,0,experiment,NULL,PennController,10,_Header_,Start,1687410394708,613f59d7f0f631a278aca6e8,613f59d7f0f631a278aca6e8,8,cucumber,critical,E,75,cucumber66.jpg,cucumber84.jpg,high,NULL
1687410689,e55e23d159ee702632d849a7b1b6265b,PennController,12,0,experiment,NULL,PennController,10,_Header_,End,1687410394709,613f59d7f0f631a278aca6e8,613f59d7f0f631a278aca6e8,8,cucumber,critical,E,75,cucumber66.jpg,cucumber84.jpg,high,NULL
1687410689,e55e23d159ee702632d849a7b1b6265b,PennController,12,0,experiment,NULL,Canvas,canvas6,Print,NA,1687410404405,613f59d7f0f631a278aca6e8,613f59d7f0f631a278aca6e8,8,cucumber,critical,E,75,cucumber66.jpg,cucumber84.jpg,high,NULL
1687410689,e55e23d159ee702632d849a7b1b6265b,PennController,12,0,experiment,NULL,Video,progression,buffer,0.023415,1687410398290,613f59d7f0f631a278aca6e8,613f59d7f0f631a278aca6e8,8,cucumber,critical,E,75,cucumber66.jpg,cucumber84.jpg,high,NULL
1687410689,e55e23d159ee702632d849a7b1b6265b,PennController,12,0,experiment,NULL,Selector,choice,Selection,option2,1687410412358,613f59d7f0f631a278aca6e8,613f59d7f0f631a278aca6e8,8,cucumber,critical,E,75,cucumber66.jpg,cucumber84.jpg,high,option2;option1
1687410689,e55e23d159ee702632d849a7b1b6265b,PennController,12,0,experiment,NULL,PennController,10,_Trial_,End,1687410412367,613f59d7f0f631a278aca6e8,613f59d7f0f631a278aca6e8,8,cucumber,critical,E,75,cucumber66.jpg,cucumber84.jpg,high,NULL
1687410689,e55e23d159ee702632d849a7b1b6265b,PennController,25,0,experiment,NULL,PennController,23,_Trial_,Start,1687410412375,613f59d7f0f631a278aca6e8,613f59d7f0f631a278aca6e8,21,visit,filler,E,25,visit15.jpg,visit35.jpg,GoalB,NULL
1687410689,e55e23d159ee702632d849a7b1b6265b,PennController,25,0,experiment,NULL,PennController,23,_Header_,Start,1687410412375,613f59d7f0f631a278aca6e8,613f59d7f0f631a278aca6e8,21,visit,filler,E,25,visit15.jpg,visit35.jpg,GoalB,NULL
1687410689,e55e23d159ee702632d849a7b1b6265b,PennController,25,0,experiment,NULL,PennController,23,_Header_,End,1687410412375,613f59d7f0f631a278aca6e8,613f59d7f0f631a278aca6e8,21,visit,filler,E,25,visit15.jpg,visit35.jpg,GoalB,NULL
1687410689,e55e23d159ee702632d849a7b1b6265b,PennController,25,0,experiment,NULL,Canvas,canvas6,Print,NA,1687410418154,613f59d7f0f631a278aca6e8,613f59d7f0f631a278aca6e8,21,visit,filler,E,25,visit15.jpg,visit35.jpg,GoalB,NULL
1687410689,e55e23d159ee702632d849a7b1b6265b,PennController,25,0,experiment,NULL,Video,progression,buffer,0.028831,1687410415974,613f59d7f0f631a278aca6e8,613f59d7f0f631a278aca6e8,21,visit,filler,E,25,visit15.jpg,visit35.jpg,GoalB,NULL
1687410689,e55e23d159ee702632d849a7b1b6265b,PennController,25,0,experiment,NULL,Selector,choice,Selection,option2,1687410420795,613f59d7f0f631a278aca6e8,613f59d7f0f631a278aca6e8,21,visit,filler,E,25,visit15.jpg,visit35.jpg,GoalB,option1;option2
1687410689,e55e23d159ee702632d849a7b1b6265b,PennController,25,0,experiment,NULL,PennController,23,_Trial_,End,1687410420804,613f59d7f0f631a278aca6e8,613f59d7f0f631a278aca6e8,21,visit,filler,E,25,visit15.jpg,visit35.jpg,GoalB,NULL
1687410689,e55e23d159ee702632d849a7b1b6265b,PennController,32,0,experiment,NULL,PennController,30,_Trial_,Start,1687410420809,613f59d7f0f631a278aca6e8,613f59d7f0f631a278aca6e8,28,sort,filler,E,50,sort40.jpg,sort60.jpg,GoalA,NULL
1687410689,e55e23d159ee702632d849a7b1b6265b,PennController,32,0,experiment,NULL,PennController,30,_Header_,Start,1687410420809,613f59d7f0f631a278aca6e8,613f59d7f0f631a278aca6e8,28,sort,filler,E,50,sort40.jpg,sort60.jpg,GoalA,NULL
1687410689,e55e23d159ee702632d849a7b1b6265b,PennController,32,0,experiment,NULL,PennController,30,_Header_,End,1687410420809,613f59d7f0f631a278aca6e8,613f59d7f0f631a278aca6e8,28,sort,filler,E,50,sort40.jpg,sort60.jpg,GoalA,NULL
1687410689,e55e23d159ee702632d849a7b1b6265b,PennController,32,0,experiment,NULL,Canvas,canvas6,Print,NA,1687410427548,613f59d7f0f631a278aca6e8,613f59d7f0f631a278aca6e8,28,sort,filler,E,50,sort40.jpg,sort60.jpg,GoalA,NULL
1687410689,e55e23d159ee702632d849a7b1b6265b,PennController,32,0,experiment,NULL,Video,progression,buffer,0.01891,1687410424396,613f59d7f0f631a278aca6e8,613f59d7f0f631a278aca6e8,28,sort,filler,E,50,sort40.jpg,sort60.jpg,GoalA,NULL
1687410689,e55e23d159ee702632d849a7b1b6265b,PennController,32,0,experiment,NULL,Selector,choice,Selection,option2,1687410431219,613f59d7f0f631a278aca6e8,613f59d7f0f631a278aca6e8,28,sort,filler,E,50,sort40.jpg,sort60.jpg,GoalA,option1;option2
1687410689,e55e23d159ee702632d849a7b1b6265b,PennController,32,0,experiment,NULL,PennController,30,_Trial_,End,1687410431226,613f59d7f0f631a278aca6e8,613f59d7f0f631a278aca6e8,28,sort,filler,E,50,sort40.jpg,sort60.jpg,GoalA,NULL
1687410689,e55e23d159ee702632d849a7b1b6265b,PennController,18,0,experiment,NULL,PennController,16,_Trial_,Start,1687410431232,613f59d7f0f631a278aca6e8,613f59d7f0f631a278aca6e8,14,cover,critical,E,75,cover66.jpg,cover84.jpg,high,NULL
1687410689,e55e23d159ee702632d849a7b1b6265b,PennController,18,0,experiment,NULL,PennController,16,_Header_,Start,1687410431232,613f59d7f0f631a278aca6e8,613f59d7f0f631a278aca6e8,14,cover,critical,E,75,cover66.jpg,cover84.jpg,high,NULL
1687410689,e55e23d159ee702632d849a7b1b6265b,PennController,18,0,experiment,NULL,PennController,16,_Header_,End,1687410431232,613f59d7f0f631a278aca6e8,613f59d7f0f631a278aca6e8,14,cover,critical,E,75,cover66.jpg,cover84.jpg,high,NULL
1687410689,e55e23d159ee702632d849a7b1b6265b,PennController,18,0,experiment,NULL,Canvas,canvas6,Print,NA,1687410440943,613f59d7f0f631a278aca6e8,613f59d7f0f631a278aca6e8,14,cover,critical,E,75,cover66.jpg,cover84.jpg,high,NULL
1687410689,e55e23d159ee702632d849a7b1b6265b,PennController,18,0,experiment,NULL,Video,progression,buffer,0.02217,1687410434828,613f59d7f0f631a278aca6e8,613f59d7f0f631a278aca6e8,14,cover,critical,E,75,cover66.jpg,cover84.jpg,high,NULL
1687410689,e55e23d159ee702632d849a7b1b6265b,PennController,18,0,experiment,NULL,Selector,choice,Selection,option1,1687410444906,613f59d7f0f631a278aca6e8,613f59d7f0f631a278aca6e8,14,cover,critical,E,75,cover66.jpg,cover84.jpg,high,option1;option2
1687410689,e55e23d159ee702632d849a7b1b6265b,PennController,18,0,experiment,NULL,PennController,16,_Trial_,End,1687410444913,613f59d7f0f631a278aca6e8,613f59d7f0f631a278aca6e8,14,cover,critical,E,75,cover66.jpg,cover84.jpg,high,NULL
1687410689,e55e23d159ee702632d849a7b1b6265b,PennController,13,0,experiment,NULL,PennController,11,_Trial_,Start,1687410444920,613f59d7f0f631a278aca6e8,613f59d7f0f631a278aca6e8,9,cake,critical,E,25,cake15.jpg,cake33.jpg,high,NULL
1687410689,e55e23d159ee702632d849a7b1b6265b,PennController,13,0,experiment,NULL,PennController,11,_Header_,Start,1687410444920,613f59d7f0f631a278aca6e8,613f59d7f0f631a278aca6e8,9,cake,critical,E,25,cake15.jpg,cake33.jpg,high,NULL
1687410689,e55e23d159ee702632d849a7b1b6265b,PennController,13,0,experiment,NULL,PennController,11,_Header_,End,1687410444920,613f59d7f0f631a278aca6e8,613f59d7f0f631a278aca6e8,9,cake,critical,E,25,cake15.jpg,cake33.jpg,high,NULL
1687410689,e55e23d159ee702632d849a7b1b6265b,PennController,13,0,experiment,NULL,Canvas,canvas6,Print,NA,1687410451257,613f59d7f0f631a278aca6e8,613f59d7f0f631a278aca6e8,9,cake,critical,E,25,cake15.jpg,cake33.jpg,high,NULL
1687410689,e55e23d159ee702632d849a7b1b6265b,PennController,13,0,experiment,NULL,Video,progression,buffer,0.021589,1687410448508,613f59d7f0f631a278aca6e8,613f59d7f0f631a278aca6e8,9,cake,critical,E,25,cake15.jpg,cake33.jpg,high,NULL
1687410689,e55e23d159ee702632d849a7b1b6265b,PennController,13,0,experiment,NULL,Selector,choice,Selection,option1,1687410454129,613f59d7f0f631a278aca6e8,613f59d7f0f631a278aca6e8,9,cake,critical,E,25,cake15.jpg,cake33.jpg,high,option2;option1
1687410689,e55e23d159ee702632d849a7b1b6265b,PennController,13,0,experiment,NULL,PennController,11,_Trial_,End,1687410454136,613f59d7f0f631a278aca6e8,613f59d7f0f631a278aca6e8,9,cake,critical,E,25,cake15.jpg,cake33.jpg,high,NULL
1687410689,e55e23d159ee702632d849a7b1b6265b,PennController,29,0,experiment,NULL,PennController,27,_Trial_,Start,1687410454142,613f59d7f0f631a278aca6e8,613f59d7f0f631a278aca6e8,25,house,filler,E,50,house40.jpg,house60.jpg,GoalB,NULL
1687410689,e55e23d159ee702632d849a7b1b6265b,PennController,29,0,experiment,NULL,PennController,27,_Header_,Start,1687410454142,613f59d7f0f631a278aca6e8,613f59d7f0f631a278aca6e8,25,house,filler,E,50,house40.jpg,house60.jpg,GoalB,NULL
1687410689,e55e23d159ee702632d849a7b1b6265b,PennController,29,0,experiment,NULL,PennController,27,_Header_,End,1687410454142,613f59d7f0f631a278aca6e8,613f59d7f0f631a278aca6e8,25,house,filler,E,50,house40.jpg,house60.jpg,GoalB,NULL
1687410689,e55e23d159ee702632d849a7b1b6265b,PennController,29,0,experiment,NULL,Canvas,canvas6,Print,NA,1687410460818,613f59d7f0f631a278aca6e8,613f59d7f0f631a278aca6e8,25,house,filler,E,50,house40.jpg,house60.jpg,GoalB,NULL
1687410689,e55e23d159ee702632d849a7b1b6265b,PennController,29,0,experiment,NULL,Video,progression,buffer,0.02148,1687410457718,613f59d7f0f631a278aca6e8,613f59d7f0f631a278aca6e8,25,house,filler,E,50,house40.jpg,house60.jpg,GoalB,NULL
1687410689,e55e23d159ee702632d849a7b1b6265b,PennController,29,0,experiment,NULL,Selector,choice,Selection,option1,1687410462703,613f59d7f0f631a278aca6e8,613f59d7f0f631a278aca6e8,25,house,filler,E,50,house40.jpg,house60.jpg,GoalB,option1;option2
1687410689,e55e23d159ee702632d849a7b1b6265b,PennController,29,0,experiment,NULL,PennController,27,_Trial_,End,1687410462709,613f59d7f0f631a278aca6e8,613f59d7f0f631a278aca6e8,25,house,filler,E,50,house40.jpg,house60.jpg,GoalB,NULL
1687410689,e55e23d159ee702632d849a7b1b6265b,PennController,10,0,experiment,NULL,PennController,8,_Trial_,Start,1687410462716,613f59d7f0f631a278aca6e8,613f59d7f0f631a278aca6e8,6,flower,critical,E,25,flower15.jpg,flower35.jpg,high,NULL
1687410689,e55e23d159ee702632d849a7b1b6265b,PennController,10,0,experiment,NULL,PennController,8,_Header_,Start,1687410462716,613f59d7f0f631a278aca6e8,613f59d7f0f631a278aca6e8,6,flower,critical,E,25,flower15.jpg,flower35.jpg,high,NULL
1687410689,e55e23d159ee702632d849a7b1b6265b,PennController,10,0,experiment,NULL,PennController,8,_Header_,End,1687410462716,613f59d7f0f631a278aca6e8,613f59d7f0f631a278aca6e8,6,flower,critical,E,25,flower15.jpg,flower35.jpg,high,NULL
1687410689,e55e23d159ee702632d849a7b1b6265b,PennController,10,0,experiment,NULL,Canvas,canvas6,Print,NA,1687410468457,613f59d7f0f631a278aca6e8,613f59d7f0f631a278aca6e8,6,flower,critical,E,25,flower15.jpg,flower35.jpg,high,NULL
1687410689,e55e23d159ee702632d849a7b1b6265b,PennController,10,0,experiment,NULL,Video,progression,buffer,0.035229,1687410466318,613f59d7f0f631a278aca6e8,613f59d7f0f631a278aca6e8,6,flower,critical,E,25,flower15.jpg,flower35.jpg,high,NULL
1687410689,e55e23d159ee702632d849a7b1b6265b,PennController,10,0,experiment,NULL,Selector,choice,Selection,option2,1687410470227,613f59d7f0f631a278aca6e8,613f59d7f0f631a278aca6e8,6,flower,critical,E,25,flower15.jpg,flower35.jpg,high,option2;option1
1687410689,e55e23d159ee702632d849a7b1b6265b,PennController,10,0,experiment,NULL,PennController,8,_Trial_,End,1687410470234,613f59d7f0f631a278aca6e8,613f59d7f0f631a278aca6e8,6,flower,critical,E,25,flower15.jpg,flower35.jpg,high,NULL
1687410689,e55e23d159ee702632d849a7b1b6265b,PennController,22,0,experiment,NULL,PennController,20,_Trial_,Start,1687410470239,613f59d7f0f631a278aca6e8,613f59d7f0f631a278aca6e8,18,ball,critical,E,25,ball15.jpg,ball35.jpg,high,NULL
1687410689,e55e23d159ee702632d849a7b1b6265b,PennController,22,0,experiment,NULL,PennController,20,_Header_,Start,1687410470239,613f59d7f0f631a278aca6e8,613f59d7f0f631a278aca6e8,18,ball,critical,E,25,ball15.jpg,ball35.jpg,high,NULL
1687410689,e55e23d159ee702632d849a7b1b6265b,PennController,22,0,experiment,NULL,PennController,20,_Header_,End,1687410470239,613f59d7f0f631a278aca6e8,613f59d7f0f631a278aca6e8,18,ball,critical,E,25,ball15.jpg,ball35.jpg,high,NULL
1687410689,e55e23d159ee702632d849a7b1b6265b,PennController,22,0,experiment,NULL,Canvas,canvas6,Print,NA,1687410475972,613f59d7f0f631a278aca6e8,613f59d7f0f631a278aca6e8,18,ball,critical,E,25,ball15.jpg,ball35.jpg,high,NULL
1687410689,e55e23d159ee702632d849a7b1b6265b,PennController,22,0,experiment,NULL,Video,progression,buffer,0.025852,1687410473830,613f59d7f0f631a278aca6e8,613f59d7f0f631a278aca6e8,18,ball,critical,E,25,ball15.jpg,ball35.jpg,high,NULL
1687410689,e55e23d159ee702632d849a7b1b6265b,PennController,22,0,experiment,NULL,Selector,choice,Selection,option2,1687410480526,613f59d7f0f631a278aca6e8,613f59d7f0f631a278aca6e8,18,ball,critical,E,25,ball15.jpg,ball35.jpg,high,option1;option2
1687410689,e55e23d159ee702632d849a7b1b6265b,PennController,22,0,experiment,NULL,PennController,20,_Trial_,End,1687410480535,613f59d7f0f631a278aca6e8,613f59d7f0f631a278aca6e8,18,ball,critical,E,25,ball15.jpg,ball35.jpg,high,NULL
1687410689,e55e23d159ee702632d849a7b1b6265b,PennController,28,0,experiment,NULL,PennController,26,_Trial_,Start,1687410480541,613f59d7f0f631a278aca6e8,613f59d7f0f631a278aca6e8,24,match,filler,E,25,match15.jpg,match35.jpg,GoalA,NULL
1687410689,e55e23d159ee702632d849a7b1b6265b,PennController,28,0,experiment,NULL,PennController,26,_Header_,Start,1687410480541,613f59d7f0f631a278aca6e8,613f59d7f0f631a278aca6e8,24,match,filler,E,25,match15.jpg,match35.jpg,GoalA,NULL
1687410689,e55e23d159ee702632d849a7b1b6265b,PennController,28,0,experiment,NULL,PennController,26,_Header_,End,1687410480541,613f59d7f0f631a278aca6e8,613f59d7f0f631a278aca6e8,24,match,filler,E,25,match15.jpg,match35.jpg,GoalA,NULL
1687410689,e55e23d159ee702632d849a7b1b6265b,PennController,28,0,experiment,NULL,Canvas,canvas6,Print,NA,1687410486252,613f59d7f0f631a278aca6e8,613f59d7f0f631a278aca6e8,24,match,filler,E,25,match15.jpg,match35.jpg,GoalA,NULL
1687410689,e55e23d159ee702632d849a7b1b6265b,PennController,28,0,experiment,NULL,Video,progression,buffer,0.02278,1687410484125,613f59d7f0f631a278aca6e8,613f59d7f0f631a278aca6e8,24,match,filler,E,25,match15.jpg,match35.jpg,GoalA,NULL
1687410689,e55e23d159ee702632d849a7b1b6265b,PennController,28,0,experiment,NULL,Selector,choice,Selection,option1,1687410488655,613f59d7f0f631a278aca6e8,613f59d7f0f631a278aca6e8,24,match,filler,E,25,match15.jpg,match35.jpg,GoalA,option2;option1
1687410689,e55e23d159ee702632d849a7b1b6265b,PennController,28,0,experiment,NULL,PennController,26,_Trial_,End,1687410488661,613f59d7f0f631a278aca6e8,613f59d7f0f631a278aca6e8,24,match,filler,E,25,match15.jpg,match35.jpg,GoalA,NULL
1687410689,e55e23d159ee702632d849a7b1b6265b,PennController,6,0,experiment,NULL,PennController,4,_Trial_,Start,1687410488670,613f59d7f0f631a278aca6e8,613f59d7f0f631a278aca6e8,2,door,critical,E,75,door65.jpg,door85.jpg,high,NULL
1687410689,e55e23d159ee702632d849a7b1b6265b,PennController,6,0,experiment,NULL,PennController,4,_Header_,Start,1687410488670,613f59d7f0f631a278aca6e8,613f59d7f0f631a278aca6e8,2,door,critical,E,75,door65.jpg,door85.jpg,high,NULL
1687410689,e55e23d159ee702632d849a7b1b6265b,PennController,6,0,experiment,NULL,PennController,4,_Header_,End,1687410488670,613f59d7f0f631a278aca6e8,613f59d7f0f631a278aca6e8,2,door,critical,E,75,door65.jpg,door85.jpg,high,NULL
1687410689,e55e23d159ee702632d849a7b1b6265b,PennController,6,0,experiment,NULL,Canvas,canvas6,Print,NA,1687410496393,613f59d7f0f631a278aca6e8,613f59d7f0f631a278aca6e8,2,door,critical,E,75,door65.jpg,door85.jpg,high,NULL
1687410689,e55e23d159ee702632d849a7b1b6265b,PennController,6,0,experiment,NULL,Video,progression,buffer,0,1687410492269,613f59d7f0f631a278aca6e8,613f59d7f0f631a278aca6e8,2,door,critical,E,75,door65.jpg,door85.jpg,high,NULL
1687410689,e55e23d159ee702632d849a7b1b6265b,PennController,6,0,experiment,NULL,Selector,choice,Selection,option1,1687410501237,613f59d7f0f631a278aca6e8,613f59d7f0f631a278aca6e8,2,door,critical,E,75,door65.jpg,door85.jpg,high,option2;option1
1687410689,e55e23d159ee702632d849a7b1b6265b,PennController,6,0,experiment,NULL,PennController,4,_Trial_,End,1687410501245,613f59d7f0f631a278aca6e8,613f59d7f0f631a278aca6e8,2,door,critical,E,75,door65.jpg,door85.jpg,high,NULL
1687410689,e55e23d159ee702632d849a7b1b6265b,PennController,20,0,experiment,NULL,PennController,18,_Trial_,Start,1687410501249,613f59d7f0f631a278aca6e8,613f59d7f0f631a278aca6e8,16,blinds,critical,E,50,blinds42.jpg,blinds60.jpg,high,NULL
1687410689,e55e23d159ee702632d849a7b1b6265b,PennController,20,0,experiment,NULL,PennController,18,_Header_,Start,1687410501249,613f59d7f0f631a278aca6e8,613f59d7f0f631a278aca6e8,16,blinds,critical,E,50,blinds42.jpg,blinds60.jpg,high,NULL
1687410689,e55e23d159ee702632d849a7b1b6265b,PennController,20,0,experiment,NULL,PennController,18,_Header_,End,1687410501249,613f59d7f0f631a278aca6e8,613f59d7f0f631a278aca6e8,16,blinds,critical,E,50,blinds42.jpg,blinds60.jpg,high,NULL
1687410689,e55e23d159ee702632d849a7b1b6265b,PennController,20,0,experiment,NULL,Canvas,canvas6,Print,NA,1687410509325,613f59d7f0f631a278aca6e8,613f59d7f0f631a278aca6e8,16,blinds,critical,E,50,blinds42.jpg,blinds60.jpg,high,NULL
1687410689,e55e23d159ee702632d849a7b1b6265b,PennController,20,0,experiment,NULL,Video,progression,buffer,0.021678,1687410504833,613f59d7f0f631a278aca6e8,613f59d7f0f631a278aca6e8,16,blinds,critical,E,50,blinds42.jpg,blinds60.jpg,high,NULL
1687410689,e55e23d159ee702632d849a7b1b6265b,PennController,20,0,experiment,NULL,Selector,choice,Selection,option2,1687410511500,613f59d7f0f631a278aca6e8,613f59d7f0f631a278aca6e8,16,blinds,critical,E,50,blinds42.jpg,blinds60.jpg,high,option1;option2
1687410689,e55e23d159ee702632d849a7b1b6265b,PennController,20,0,experiment,NULL,PennController,18,_Trial_,End,1687410511507,613f59d7f0f631a278aca6e8,613f59d7f0f631a278aca6e8,16,blinds,critical,E,50,blinds42.jpg,blinds60.jpg,high,NULL
1687410689,e55e23d159ee702632d849a7b1b6265b,PennController,26,0,experiment,NULL,PennController,24,_Trial_,Start,1687410511514,613f59d7f0f631a278aca6e8,613f59d7f0f631a278aca6e8,22,wall,filler,E,50,wall40.jpg,wall60.jpg,GoalA,NULL
1687410689,e55e23d159ee702632d849a7b1b6265b,PennController,26,0,experiment,NULL,PennController,24,_Header_,Start,1687410511514,613f59d7f0f631a278aca6e8,613f59d7f0f631a278aca6e8,22,wall,filler,E,50,wall40.jpg,wall60.jpg,GoalA,NULL
1687410689,e55e23d159ee702632d849a7b1b6265b,PennController,26,0,experiment,NULL,PennController,24,_Header_,End,1687410511514,613f59d7f0f631a278aca6e8,613f59d7f0f631a278aca6e8,22,wall,filler,E,50,wall40.jpg,wall60.jpg,GoalA,NULL
1687410689,e55e23d159ee702632d849a7b1b6265b,PennController,26,0,experiment,NULL,Canvas,canvas6,Print,NA,1687410518205,613f59d7f0f631a278aca6e8,613f59d7f0f631a278aca6e8,22,wall,filler,E,50,wall40.jpg,wall60.jpg,GoalA,NULL
1687410689,e55e23d159ee702632d849a7b1b6265b,PennController,26,0,experiment,NULL,Video,progression,buffer,0.031968,1687410515105,613f59d7f0f631a278aca6e8,613f59d7f0f631a278aca6e8,22,wall,filler,E,50,wall40.jpg,wall60.jpg,GoalA,NULL
1687410689,e55e23d159ee702632d849a7b1b6265b,PennController,26,0,experiment,NULL,Selector,choice,Selection,option2,1687410520665,613f59d7f0f631a278aca6e8,613f59d7f0f631a278aca6e8,22,wall,filler,E,50,wall40.jpg,wall60.jpg,GoalA,option2;option1
1687410689,e55e23d159ee702632d849a7b1b6265b,PennController,26,0,experiment,NULL,PennController,24,_Trial_,End,1687410520671,613f59d7f0f631a278aca6e8,613f59d7f0f631a278aca6e8,22,wall,filler,E,50,wall40.jpg,wall60.jpg,GoalA,NULL
1687410689,e55e23d159ee702632d849a7b1b6265b,PennController,7,0,experiment,NULL,PennController,5,_Trial_,Start,1687410520676,613f59d7f0f631a278aca6e8,613f59d7f0f631a278aca6e8,3,clean,critical,E,25,clean15.jpg,clean35.jpg,high,NULL
1687410689,e55e23d159ee702632d849a7b1b6265b,PennController,7,0,experiment,NULL,PennController,5,_Header_,Start,1687410520676,613f59d7f0f631a278aca6e8,613f59d7f0f631a278aca6e8,3,clean,critical,E,25,clean15.jpg,clean35.jpg,high,NULL
1687410689,e55e23d159ee702632d849a7b1b6265b,PennController,7,0,experiment,NULL,PennController,5,_Header_,End,1687410520676,613f59d7f0f631a278aca6e8,613f59d7f0f631a278aca6e8,3,clean,critical,E,25,clean15.jpg,clean35.jpg,high,NULL
1687410689,e55e23d159ee702632d849a7b1b6265b,PennController,7,0,experiment,NULL,Canvas,canvas6,Print,NA,1687410526407,613f59d7f0f631a278aca6e8,613f59d7f0f631a278aca6e8,3,clean,critical,E,25,clean15.jpg,clean35.jpg,high,NULL
1687410689,e55e23d159ee702632d849a7b1b6265b,PennController,7,0,experiment,NULL,Video,progression,buffer,0.021519,1687410524253,613f59d7f0f631a278aca6e8,613f59d7f0f631a278aca6e8,3,clean,critical,E,25,clean15.jpg,clean35.jpg,high,NULL
1687410689,e55e23d159ee702632d849a7b1b6265b,PennController,7,0,experiment,NULL,Selector,choice,Selection,option2,1687410534954,613f59d7f0f631a278aca6e8,613f59d7f0f631a278aca6e8,3,clean,critical,E,25,clean15.jpg,clean35.jpg,high,option2;option1
1687410689,e55e23d159ee702632d849a7b1b6265b,PennController,7,0,experiment,NULL,PennController,5,_Trial_,End,1687410534962,613f59d7f0f631a278aca6e8,613f59d7f0f631a278aca6e8,3,clean,critical,E,25,clean15.jpg,clean35.jpg,high,NULL
1687410689,e55e23d159ee702632d849a7b1b6265b,PennController,16,0,experiment,NULL,PennController,14,_Trial_,Start,1687410534969,613f59d7f0f631a278aca6e8,613f59d7f0f631a278aca6e8,12,erase,critical,E,25,erase15.jpg,erase33.jpg,high,NULL
1687410689,e55e23d159ee702632d849a7b1b6265b,PennController,16,0,experiment,NULL,PennController,14,_Header_,Start,1687410534969,613f59d7f0f631a278aca6e8,613f59d7f0f631a278aca6e8,12,erase,critical,E,25,erase15.jpg,erase33.jpg,high,NULL
1687410689,e55e23d159ee702632d849a7b1b6265b,PennController,16,0,experiment,NULL,PennController,14,_Header_,End,1687410534969,613f59d7f0f631a278aca6e8,613f59d7f0f631a278aca6e8,12,erase,critical,E,25,erase15.jpg,erase33.jpg,high,NULL
1687410689,e55e23d159ee702632d849a7b1b6265b,PennController,16,0,experiment,NULL,Canvas,canvas6,Print,NA,1687410541275,613f59d7f0f631a278aca6e8,613f59d7f0f631a278aca6e8,12,erase,critical,E,25,erase15.jpg,erase33.jpg,high,NULL
1687410689,e55e23d159ee702632d849a7b1b6265b,PennController,16,0,experiment,NULL,Video,progression,buffer,0.026006,1687410538566,613f59d7f0f631a278aca6e8,613f59d7f0f631a278aca6e8,12,erase,critical,E,25,erase15.jpg,erase33.jpg,high,NULL
1687410689,e55e23d159ee702632d849a7b1b6265b,PennController,16,0,experiment,NULL,Selector,choice,Selection,option1,1687410544442,613f59d7f0f631a278aca6e8,613f59d7f0f631a278aca6e8,12,erase,critical,E,25,erase15.jpg,erase33.jpg,high,option2;option1
1687410689,e55e23d159ee702632d849a7b1b6265b,PennController,16,0,experiment,NULL,PennController,14,_Trial_,End,1687410544452,613f59d7f0f631a278aca6e8,613f59d7f0f631a278aca6e8,12,erase,critical,E,25,erase15.jpg,erase33.jpg,high,NULL
1687410689,e55e23d159ee702632d849a7b1b6265b,PennController,30,0,experiment,NULL,PennController,28,_Trial_,Start,1687410544456,613f59d7f0f631a278aca6e8,613f59d7f0f631a278aca6e8,26,sandwich,filler,E,75,sandwich65.jpg,sandwich85.jpg,GoalA,NULL
1687410689,e55e23d159ee702632d849a7b1b6265b,PennController,30,0,experiment,NULL,PennController,28,_Header_,Start,1687410544456,613f59d7f0f631a278aca6e8,613f59d7f0f631a278aca6e8,26,sandwich,filler,E,75,sandwich65.jpg,sandwich85.jpg,GoalA,NULL
1687410689,e55e23d159ee702632d849a7b1b6265b,PennController,30,0,experiment,NULL,PennController,28,_Header_,End,1687410544456,613f59d7f0f631a278aca6e8,613f59d7f0f631a278aca6e8,26,sandwich,filler,E,75,sandwich65.jpg,sandwich85.jpg,GoalA,NULL
1687410689,e55e23d159ee702632d849a7b1b6265b,PennController,30,0,experiment,NULL,Canvas,canvas6,Print,NA,1687410552115,613f59d7f0f631a278aca6e8,613f59d7f0f631a278aca6e8,26,sandwich,filler,E,75,sandwich65.jpg,sandwich85.jpg,GoalA,NULL
1687410689,e55e23d159ee702632d849a7b1b6265b,PennController,30,0,experiment,NULL,Video,progression,buffer,0.027649,1687410548049,613f59d7f0f631a278aca6e8,613f59d7f0f631a278aca6e8,26,sandwich,filler,E,75,sandwich65.jpg,sandwich85.jpg,GoalA,NULL
1687410689,e55e23d159ee702632d849a7b1b6265b,PennController,30,0,experiment,NULL,Selector,choice,Selection,option1,1687410554070,613f59d7f0f631a278aca6e8,613f59d7f0f631a278aca6e8,26,sandwich,filler,E,75,sandwich65.jpg,sandwich85.jpg,GoalA,option1;option2
1687410689,e55e23d159ee702632d849a7b1b6265b,PennController,30,0,experiment,NULL,PennController,28,_Trial_,End,1687410554076,613f59d7f0f631a278aca6e8,613f59d7f0f631a278aca6e8,26,sandwich,filler,E,75,sandwich65.jpg,sandwich85.jpg,GoalA,NULL
1687410689,e55e23d159ee702632d849a7b1b6265b,PennController,19,0,experiment,NULL,PennController,17,_Trial_,Start,1687410554083,613f59d7f0f631a278aca6e8,613f59d7f0f631a278aca6e8,15,zip,critical,E,25,zip15.jpg,zip35.jpg,high,NULL
1687410689,e55e23d159ee702632d849a7b1b6265b,PennController,19,0,experiment,NULL,PennController,17,_Header_,Start,1687410554083,613f59d7f0f631a278aca6e8,613f59d7f0f631a278aca6e8,15,zip,critical,E,25,zip15.jpg,zip35.jpg,high,NULL
1687410689,e55e23d159ee702632d849a7b1b6265b,PennController,19,0,experiment,NULL,PennController,17,_Header_,End,1687410554083,613f59d7f0f631a278aca6e8,613f59d7f0f631a278aca6e8,15,zip,critical,E,25,zip15.jpg,zip35.jpg,high,NULL
1687410689,e55e23d159ee702632d849a7b1b6265b,PennController,19,0,experiment,NULL,Canvas,canvas6,Print,NA,1687410559776,613f59d7f0f631a278aca6e8,613f59d7f0f631a278aca6e8,15,zip,critical,E,25,zip15.jpg,zip35.jpg,high,NULL
1687410689,e55e23d159ee702632d849a7b1b6265b,PennController,19,0,experiment,NULL,Video,progression,buffer,0.022644,1687410557669,613f59d7f0f631a278aca6e8,613f59d7f0f631a278aca6e8,15,zip,critical,E,25,zip15.jpg,zip35.jpg,high,NULL
1687410689,e55e23d159ee702632d849a7b1b6265b,PennController,19,0,experiment,NULL,Selector,choice,Selection,option1,1687410564108,613f59d7f0f631a278aca6e8,613f59d7f0f631a278aca6e8,15,zip,critical,E,25,zip15.jpg,zip35.jpg,high,option2;option1
1687410689,e55e23d159ee702632d849a7b1b6265b,PennController,19,0,experiment,NULL,PennController,17,_Trial_,End,1687410564115,613f59d7f0f631a278aca6e8,613f59d7f0f631a278aca6e8,15,zip,critical,E,25,zip15.jpg,zip35.jpg,high,NULL
1687410689,e55e23d159ee702632d849a7b1b6265b,PennController,27,0,experiment,NULL,PennController,25,_Trial_,Start,1687410564119,613f59d7f0f631a278aca6e8,613f59d7f0f631a278aca6e8,23,color,filler,E,75,color65.jpg,color85.jpg,GoalB,NULL
1687410689,e55e23d159ee702632d849a7b1b6265b,PennController,27,0,experiment,NULL,PennController,25,_Header_,Start,1687410564119,613f59d7f0f631a278aca6e8,613f59d7f0f631a278aca6e8,23,color,filler,E,75,color65.jpg,color85.jpg,GoalB,NULL
1687410689,e55e23d159ee702632d849a7b1b6265b,PennController,27,0,experiment,NULL,PennController,25,_Header_,End,1687410564119,613f59d7f0f631a278aca6e8,613f59d7f0f631a278aca6e8,23,color,filler,E,75,color65.jpg,color85.jpg,GoalB,NULL
1687410689,e55e23d159ee702632d849a7b1b6265b,PennController,27,0,experiment,NULL,Canvas,canvas6,Print,NA,1687410571773,613f59d7f0f631a278aca6e8,613f59d7f0f631a278aca6e8,23,color,filler,E,75,color65.jpg,color85.jpg,GoalB,NULL
1687410689,e55e23d159ee702632d849a7b1b6265b,PennController,27,0,experiment,NULL,Video,progression,buffer,0.022193,1687410567699,613f59d7f0f631a278aca6e8,613f59d7f0f631a278aca6e8,23,color,filler,E,75,color65.jpg,color85.jpg,GoalB,NULL
1687410689,e55e23d159ee702632d849a7b1b6265b,PennController,27,0,experiment,NULL,Selector,choice,Selection,option2,1687410575951,613f59d7f0f631a278aca6e8,613f59d7f0f631a278aca6e8,23,color,filler,E,75,color65.jpg,color85.jpg,GoalB,option1;option2
1687410689,e55e23d159ee702632d849a7b1b6265b,PennController,27,0,experiment,NULL,PennController,25,_Trial_,End,1687410575958,613f59d7f0f631a278aca6e8,613f59d7f0f631a278aca6e8,23,color,filler,E,75,color65.jpg,color85.jpg,GoalB,NULL
1687410689,e55e23d159ee702632d849a7b1b6265b,PennController,31,0,experiment,NULL,PennController,29,_Trial_,Start,1687410575963,613f59d7f0f631a278aca6e8,613f59d7f0f631a278aca6e8,27,square,filler,E,25,square15.jpg,square35.jpg,GoalB,NULL
1687410689,e55e23d159ee702632d849a7b1b6265b,PennController,31,0,experiment,NULL,PennController,29,_Header_,Start,1687410575963,613f59d7f0f631a278aca6e8,613f59d7f0f631a278aca6e8,27,square,filler,E,25,square15.jpg,square35.jpg,GoalB,NULL
1687410689,e55e23d159ee702632d849a7b1b6265b,PennController,31,0,experiment,NULL,PennController,29,_Header_,End,1687410575963,613f59d7f0f631a278aca6e8,613f59d7f0f631a278aca6e8,27,square,filler,E,25,square15.jpg,square35.jpg,GoalB,NULL
1687410689,e55e23d159ee702632d849a7b1b6265b,PennController,31,0,experiment,NULL,Canvas,canvas6,Print,NA,1687410581692,613f59d7f0f631a278aca6e8,613f59d7f0f631a278aca6e8,27,square,filler,E,25,square15.jpg,square35.jpg,GoalB,NULL
1687410689,e55e23d159ee702632d849a7b1b6265b,PennController,31,0,experiment,NULL,Video,progression,buffer,0.026291,1687410579553,613f59d7f0f631a278aca6e8,613f59d7f0f631a278aca6e8,27,square,filler,E,25,square15.jpg,square35.jpg,GoalB,NULL
1687410689,e55e23d159ee702632d849a7b1b6265b,PennController,31,0,experiment,NULL,Selector,choice,Selection,option2,1687410584081,613f59d7f0f631a278aca6e8,613f59d7f0f631a278aca6e8,27,square,filler,E,25,square15.jpg,square35.jpg,GoalB,option2;option1
1687410689,e55e23d159ee702632d849a7b1b6265b,PennController,31,0,experiment,NULL,PennController,29,_Trial_,End,1687410584086,613f59d7f0f631a278aca6e8,613f59d7f0f631a278aca6e8,27,square,filler,E,25,square15.jpg,square35.jpg,GoalB,NULL
1687410689,e55e23d159ee702632d849a7b1b6265b,PennController,24,0,experiment,NULL,PennController,22,_Trial_,Start,1687410584096,613f59d7f0f631a278aca6e8,613f59d7f0f631a278aca6e8,20,cat,filler,E,75,cat65.jpg,cat85.jpg,GoalA,NULL
1687410689,e55e23d159ee702632d849a7b1b6265b,PennController,24,0,experiment,NULL,PennController,22,_Header_,Start,1687410584096,613f59d7f0f631a278aca6e8,613f59d7f0f631a278aca6e8,20,cat,filler,E,75,cat65.jpg,cat85.jpg,GoalA,NULL
1687410689,e55e23d159ee702632d849a7b1b6265b,PennController,24,0,experiment,NULL,PennController,22,_Header_,End,1687410584096,613f59d7f0f631a278aca6e8,613f59d7f0f631a278aca6e8,20,cat,filler,E,75,cat65.jpg,cat85.jpg,GoalA,NULL
1687410689,e55e23d159ee702632d849a7b1b6265b,PennController,24,0,experiment,NULL,Canvas,canvas6,Print,NA,1687410591791,613f59d7f0f631a278aca6e8,613f59d7f0f631a278aca6e8,20,cat,filler,E,75,cat65.jpg,cat85.jpg,GoalA,NULL
1687410689,e55e23d159ee702632d849a7b1b6265b,PennController,24,0,experiment,NULL,Video,progression,buffer,0.024454,1687410587683,613f59d7f0f631a278aca6e8,613f59d7f0f631a278aca6e8,20,cat,filler,E,75,cat65.jpg,cat85.jpg,GoalA,NULL
1687410689,e55e23d159ee702632d849a7b1b6265b,PennController,24,0,experiment,NULL,Selector,choice,Selection,option2,1687410594834,613f59d7f0f631a278aca6e8,613f59d7f0f631a278aca6e8,20,cat,filler,E,75,cat65.jpg,cat85.jpg,GoalA,option1;option2
1687410689,e55e23d159ee702632d849a7b1b6265b,PennController,24,0,experiment,NULL,PennController,22,_Trial_,End,1687410594841,613f59d7f0f631a278aca6e8,613f59d7f0f631a278aca6e8,20,cat,filler,E,75,cat65.jpg,cat85.jpg,GoalA,NULL
1687410689,e55e23d159ee702632d849a7b1b6265b,PennController,9,0,experiment,NULL,PennController,7,_Trial_,Start,1687410594846,613f59d7f0f631a278aca6e8,613f59d7f0f631a278aca6e8,5,book,critical,E,75,book65.jpg,book85.jpg,high,NULL
1687410689,e55e23d159ee702632d849a7b1b6265b,PennController,9,0,experiment,NULL,PennController,7,_Header_,Start,1687410594846,613f59d7f0f631a278aca6e8,613f59d7f0f631a278aca6e8,5,book,critical,E,75,book65.jpg,book85.jpg,high,NULL
1687410689,e55e23d159ee702632d849a7b1b6265b,PennController,9,0,experiment,NULL,PennController,7,_Header_,End,1687410594846,613f59d7f0f631a278aca6e8,613f59d7f0f631a278aca6e8,5,book,critical,E,75,book65.jpg,book85.jpg,high,NULL
1687410689,e55e23d159ee702632d849a7b1b6265b,PennController,9,0,experiment,NULL,Canvas,canvas6,Print,NA,1687410602541,613f59d7f0f631a278aca6e8,613f59d7f0f631a278aca6e8,5,book,critical,E,75,book65.jpg,book85.jpg,high,NULL
1687410689,e55e23d159ee702632d849a7b1b6265b,PennController,9,0,experiment,NULL,Video,progression,buffer,0.022997,1687410598436,613f59d7f0f631a278aca6e8,613f59d7f0f631a278aca6e8,5,book,critical,E,75,book65.jpg,book85.jpg,high,NULL
1687410689,e55e23d159ee702632d849a7b1b6265b,PennController,9,0,experiment,NULL,Selector,choice,Selection,option1,1687410604865,613f59d7f0f631a278aca6e8,613f59d7f0f631a278aca6e8,5,book,critical,E,75,book65.jpg,book85.jpg,high,option1;option2
1687410689,e55e23d159ee702632d849a7b1b6265b,PennController,9,0,experiment,NULL,PennController,7,_Trial_,End,1687410604871,613f59d7f0f631a278aca6e8,613f59d7f0f631a278aca6e8,5,book,critical,E,75,book65.jpg,book85.jpg,high,NULL
1687410689,e55e23d159ee702632d849a7b1b6265b,PennController,14,0,experiment,NULL,PennController,12,_Trial_,Start,1687410604877,613f59d7f0f631a278aca6e8,613f59d7f0f631a278aca6e8,10,train,critical,E,50,train40.jpg,train60.jpg,high,NULL
1687410689,e55e23d159ee702632d849a7b1b6265b,PennController,14,0,experiment,NULL,PennController,12,_Header_,Start,1687410604877,613f59d7f0f631a278aca6e8,613f59d7f0f631a278aca6e8,10,train,critical,E,50,train40.jpg,train60.jpg,high,NULL
1687410689,e55e23d159ee702632d849a7b1b6265b,PennController,14,0,experiment,NULL,PennController,12,_Header_,End,1687410604877,613f59d7f0f631a278aca6e8,613f59d7f0f631a278aca6e8,10,train,critical,E,50,train40.jpg,train60.jpg,high,NULL
1687410689,e55e23d159ee702632d849a7b1b6265b,PennController,14,0,experiment,NULL,Canvas,canvas6,Print,NA,1687410611564,613f59d7f0f631a278aca6e8,613f59d7f0f631a278aca6e8,10,train,critical,E,50,train40.jpg,train60.jpg,high,NULL
1687410689,e55e23d159ee702632d849a7b1b6265b,PennController,14,0,experiment,NULL,Video,progression,buffer,0.024993,1687410608476,613f59d7f0f631a278aca6e8,613f59d7f0f631a278aca6e8,10,train,critical,E,50,train40.jpg,train60.jpg,high,NULL
1687410689,e55e23d159ee702632d849a7b1b6265b,PennController,14,0,experiment,NULL,Selector,choice,Selection,option2,1687410613855,613f59d7f0f631a278aca6e8,613f59d7f0f631a278aca6e8,10,train,critical,E,50,train40.jpg,train60.jpg,high,option2;option1
1687410689,e55e23d159ee702632d849a7b1b6265b,PennController,14,0,experiment,NULL,PennController,12,_Trial_,End,1687410613862,613f59d7f0f631a278aca6e8,613f59d7f0f631a278aca6e8,10,train,critical,E,50,train40.jpg,train60.jpg,high,NULL
1687410689,e55e23d159ee702632d849a7b1b6265b,PennController,17,0,experiment,NULL,PennController,15,_Trial_,Start,1687410613866,613f59d7f0f631a278aca6e8,613f59d7f0f631a278aca6e8,13,mix,critical,E,50,mix40.jpg,mix60.jpg,high,NULL
1687410689,e55e23d159ee702632d849a7b1b6265b,PennController,17,0,experiment,NULL,PennController,15,_Header_,Start,1687410613866,613f59d7f0f631a278aca6e8,613f59d7f0f631a278aca6e8,13,mix,critical,E,50,mix40.jpg,mix60.jpg,high,NULL
1687410689,e55e23d159ee702632d849a7b1b6265b,PennController,17,0,experiment,NULL,PennController,15,_Header_,End,1687410613866,613f59d7f0f631a278aca6e8,613f59d7f0f631a278aca6e8,13,mix,critical,E,50,mix40.jpg,mix60.jpg,high,NULL
1687410689,e55e23d159ee702632d849a7b1b6265b,PennController,17,0,experiment,NULL,Canvas,canvas6,Print,NA,1687410620524,613f59d7f0f631a278aca6e8,613f59d7f0f631a278aca6e8,13,mix,critical,E,50,mix40.jpg,mix60.jpg,high,NULL
1687410689,e55e23d159ee702632d849a7b1b6265b,PennController,17,0,experiment,NULL,Video,progression,buffer,0.024913,1687410617446,613f59d7f0f631a278aca6e8,613f59d7f0f631a278aca6e8,13,mix,critical,E,50,mix40.jpg,mix60.jpg,high,NULL
1687410689,e55e23d159ee702632d849a7b1b6265b,PennController,17,0,experiment,NULL,Selector,choice,Selection,option1,1687410624922,613f59d7f0f631a278aca6e8,613f59d7f0f631a278aca6e8,13,mix,critical,E,50,mix40.jpg,mix60.jpg,high,option2;option1
1687410689,e55e23d159ee702632d849a7b1b6265b,PennController,17,0,experiment,NULL,PennController,15,_Trial_,End,1687410624929,613f59d7f0f631a278aca6e8,613f59d7f0f631a278aca6e8,13,mix,critical,E,50,mix40.jpg,mix60.jpg,high,NULL
1687410689,e55e23d159ee702632d849a7b1b6265b,PennController,11,0,experiment,NULL,PennController,9,_Trial_,Start,1687410624933,613f59d7f0f631a278aca6e8,613f59d7f0f631a278aca6e8,7,stack,critical,E,50,stack40.jpg,stack60.jpg,high,NULL
1687410689,e55e23d159ee702632d849a7b1b6265b,PennController,11,0,experiment,NULL,PennController,9,_Header_,Start,1687410624933,613f59d7f0f631a278aca6e8,613f59d7f0f631a278aca6e8,7,stack,critical,E,50,stack40.jpg,stack60.jpg,high,NULL
1687410689,e55e23d159ee702632d849a7b1b6265b,PennController,11,0,experiment,NULL,PennController,9,_Header_,End,1687410624933,613f59d7f0f631a278aca6e8,613f59d7f0f631a278aca6e8,7,stack,critical,E,50,stack40.jpg,stack60.jpg,high,NULL
1687410689,e55e23d159ee702632d849a7b1b6265b,PennController,11,0,experiment,NULL,Canvas,canvas6,Print,NA,1687410631579,613f59d7f0f631a278aca6e8,613f59d7f0f631a278aca6e8,7,stack,critical,E,50,stack40.jpg,stack60.jpg,high,NULL
1687410689,e55e23d159ee702632d849a7b1b6265b,PennController,11,0,experiment,NULL,Video,progression,buffer,0.021654,1687410628519,613f59d7f0f631a278aca6e8,613f59d7f0f631a278aca6e8,7,stack,critical,E,50,stack40.jpg,stack60.jpg,high,NULL
1687410689,e55e23d159ee702632d849a7b1b6265b,PennController,11,0,experiment,NULL,Selector,choice,Selection,option1,1687410637104,613f59d7f0f631a278aca6e8,613f59d7f0f631a278aca6e8,7,stack,critical,E,50,stack40.jpg,stack60.jpg,high,option1;option2
1687410689,e55e23d159ee702632d849a7b1b6265b,PennController,11,0,experiment,NULL,PennController,9,_Trial_,End,1687410637112,613f59d7f0f631a278aca6e8,613f59d7f0f631a278aca6e8,7,stack,critical,E,50,stack40.jpg,stack60.jpg,high,NULL
1687410689,e55e23d159ee702632d849a7b1b6265b,PennController,5,0,experiment,NULL,PennController,3,_Trial_,Start,1687410637118,613f59d7f0f631a278aca6e8,613f59d7f0f631a278aca6e8,1,vase,critical,E,50,vase40.jpg,vase60.jpg,high,NULL
1687410689,e55e23d159ee702632d849a7b1b6265b,PennController,5,0,experiment,NULL,PennController,3,_Header_,Start,1687410637118,613f59d7f0f631a278aca6e8,613f59d7f0f631a278aca6e8,1,vase,critical,E,50,vase40.jpg,vase60.jpg,high,NULL
1687410689,e55e23d159ee702632d849a7b1b6265b,PennController,5,0,experiment,NULL,PennController,3,_Header_,End,1687410637118,613f59d7f0f631a278aca6e8,613f59d7f0f631a278aca6e8,1,vase,critical,E,50,vase40.jpg,vase60.jpg,high,NULL
1687410689,e55e23d159ee702632d849a7b1b6265b,PennController,5,0,experiment,NULL,Canvas,canvas6,Print,NA,1687410643788,613f59d7f0f631a278aca6e8,613f59d7f0f631a278aca6e8,1,vase,critical,E,50,vase40.jpg,vase60.jpg,high,NULL
1687410689,e55e23d159ee702632d849a7b1b6265b,PennController,5,0,experiment,NULL,Video,progression,buffer,0.028088,1687410640713,613f59d7f0f631a278aca6e8,613f59d7f0f631a278aca6e8,1,vase,critical,E,50,vase40.jpg,vase60.jpg,high,NULL
1687410689,e55e23d159ee702632d849a7b1b6265b,PennController,5,0,experiment,NULL,Selector,choice,Selection,option1,1687410645772,613f59d7f0f631a278aca6e8,613f59d7f0f631a278aca6e8,1,vase,critical,E,50,vase40.jpg,vase60.jpg,high,option1;option2
1687410689,e55e23d159ee702632d849a7b1b6265b,PennController,5,0,experiment,NULL,PennController,3,_Trial_,End,1687410645777,613f59d7f0f631a278aca6e8,613f59d7f0f631a278aca6e8,1,vase,critical,E,50,vase40.jpg,vase60.jpg,high,NULL
1687410689,e55e23d159ee702632d849a7b1b6265b,PennController,15,0,experiment,NULL,PennController,13,_Trial_,Start,1687410645781,613f59d7f0f631a278aca6e8,613f59d7f0f631a278aca6e8,11,beads,critical,E,75,beads65.jpg,beads85.jpg,high,NULL
1687410689,e55e23d159ee702632d849a7b1b6265b,PennController,15,0,experiment,NULL,PennController,13,_Header_,Start,1687410645781,613f59d7f0f631a278aca6e8,613f59d7f0f631a278aca6e8,11,beads,critical,E,75,beads65.jpg,beads85.jpg,high,NULL
1687410689,e55e23d159ee702632d849a7b1b6265b,PennController,15,0,experiment,NULL,PennController,13,_Header_,End,1687410645781,613f59d7f0f631a278aca6e8,613f59d7f0f631a278aca6e8,11,beads,critical,E,75,beads65.jpg,beads85.jpg,high,NULL
1687410689,e55e23d159ee702632d849a7b1b6265b,PennController,15,0,experiment,NULL,Canvas,canvas6,Print,NA,1687410653450,613f59d7f0f631a278aca6e8,613f59d7f0f631a278aca6e8,11,beads,critical,E,75,beads65.jpg,beads85.jpg,high,NULL
1687410689,e55e23d159ee702632d849a7b1b6265b,PennController,15,0,experiment,NULL,Video,progression,buffer,0.031365,1687410649382,613f59d7f0f631a278aca6e8,613f59d7f0f631a278aca6e8,11,beads,critical,E,75,beads65.jpg,beads85.jpg,high,NULL
1687410689,e55e23d159ee702632d849a7b1b6265b,PennController,15,0,experiment,NULL,Selector,choice,Selection,option2,1687410656095,613f59d7f0f631a278aca6e8,613f59d7f0f631a278aca6e8,11,beads,critical,E,75,beads65.jpg,beads85.jpg,high,option1;option2
1687410689,e55e23d159ee702632d849a7b1b6265b,PennController,15,0,experiment,NULL,PennController,13,_Trial_,End,1687410656102,613f59d7f0f631a278aca6e8,613f59d7f0f631a278aca6e8,11,beads,critical,E,75,beads65.jpg,beads85.jpg,high,NULL
1687410689,e55e23d159ee702632d849a7b1b6265b,PennController,23,0,experiment,NULL,PennController,21,_Trial_,Start,1687410656108,613f59d7f0f631a278aca6e8,613f59d7f0f631a278aca6e8,19,cup,filler,E,50,cup40.jpg,cup60.jpg,GoalB,NULL
1687410689,e55e23d159ee702632d849a7b1b6265b,PennController,23,0,experiment,NULL,PennController,21,_Header_,Start,1687410656108,613f59d7f0f631a278aca6e8,613f59d7f0f631a278aca6e8,19,cup,filler,E,50,cup40.jpg,cup60.jpg,GoalB,NULL
1687410689,e55e23d159ee702632d849a7b1b6265b,PennController,23,0,experiment,NULL,PennController,21,_Header_,End,1687410656108,613f59d7f0f631a278aca6e8,613f59d7f0f631a278aca6e8,19,cup,filler,E,50,cup40.jpg,cup60.jpg,GoalB,NULL
1687410689,e55e23d159ee702632d849a7b1b6265b,PennController,23,0,experiment,NULL,Canvas,canvas6,Print,NA,1687410662767,613f59d7f0f631a278aca6e8,613f59d7f0f631a278aca6e8,19,cup,filler,E,50,cup40.jpg,cup60.jpg,GoalB,NULL
1687410689,e55e23d159ee702632d849a7b1b6265b,PennController,23,0,experiment,NULL,Video,progression,buffer,0.027877,1687410659690,613f59d7f0f631a278aca6e8,613f59d7f0f631a278aca6e8,19,cup,filler,E,50,cup40.jpg,cup60.jpg,GoalB,NULL
1687410689,e55e23d159ee702632d849a7b1b6265b,PennController,23,0,experiment,NULL,Selector,choice,Selection,option2,1687410666949,613f59d7f0f631a278aca6e8,613f59d7f0f631a278aca6e8,19,cup,filler,E,50,cup40.jpg,cup60.jpg,GoalB,option2;option1
1687410689,e55e23d159ee702632d849a7b1b6265b,PennController,23,0,experiment,NULL,PennController,21,_Trial_,End,1687410666955,613f59d7f0f631a278aca6e8,613f59d7f0f631a278aca6e8,19,cup,filler,E,50,cup40.jpg,cup60.jpg,GoalB,NULL
1687410689,e55e23d159ee702632d849a7b1b6265b,PennController,21,0,experiment,NULL,PennController,19,_Trial_,Start,1687410666960,613f59d7f0f631a278aca6e8,613f59d7f0f631a278aca6e8,17,roll,critical,E,75,roll65.jpg,roll85.jpg,high,NULL
1687410689,e55e23d159ee702632d849a7b1b6265b,PennController,21,0,experiment,NULL,PennController,19,_Header_,Start,1687410666960,613f59d7f0f631a278aca6e8,613f59d7f0f631a278aca6e8,17,roll,critical,E,75,roll65.jpg,roll85.jpg,high,NULL
1687410689,e55e23d159ee702632d849a7b1b6265b,PennController,21,0,experiment,NULL,PennController,19,_Header_,End,1687410666960,613f59d7f0f631a278aca6e8,613f59d7f0f631a278aca6e8,17,roll,critical,E,75,roll65.jpg,roll85.jpg,high,NULL
1687410689,e55e23d159ee702632d849a7b1b6265b,PennController,21,0,experiment,NULL,Canvas,canvas6,Print,NA,1687410674587,613f59d7f0f631a278aca6e8,613f59d7f0f631a278aca6e8,17,roll,critical,E,75,roll65.jpg,roll85.jpg,high,NULL
1687410689,e55e23d159ee702632d849a7b1b6265b,PennController,21,0,experiment,NULL,Video,progression,buffer,0.027734,1687410670542,613f59d7f0f631a278aca6e8,613f59d7f0f631a278aca6e8,17,roll,critical,E,75,roll65.jpg,roll85.jpg,high,NULL
1687410689,e55e23d159ee702632d849a7b1b6265b,PennController,21,0,experiment,NULL,Selector,choice,Selection,option2,1687410679594,613f59d7f0f631a278aca6e8,613f59d7f0f631a278aca6e8,17,roll,critical,E,75,roll65.jpg,roll85.jpg,high,option1;option2
1687410689,e55e23d159ee702632d849a7b1b6265b,PennController,21,0,experiment,NULL,PennController,19,_Trial_,End,1687410679601,613f59d7f0f631a278aca6e8,613f59d7f0f631a278aca6e8,17,roll,critical,E,75,roll65.jpg,roll85.jpg,high,NULL
1687410689,e55e23d159ee702632d849a7b1b6265b,PennController,8,0,experiment,NULL,PennController,6,_Trial_,Start,1687410679607,613f59d7f0f631a278aca6e8,613f59d7f0f631a278aca6e8,4,candy,critical,E,50,candy40.jpg,candy60.jpg,high,NULL
1687410689,e55e23d159ee702632d849a7b1b6265b,PennController,8,0,experiment,NULL,PennController,6,_Header_,Start,1687410679607,613f59d7f0f631a278aca6e8,613f59d7f0f631a278aca6e8,4,candy,critical,E,50,candy40.jpg,candy60.jpg,high,NULL
1687410689,e55e23d159ee702632d849a7b1b6265b,PennController,8,0,experiment,NULL,PennController,6,_Header_,End,1687410679607,613f59d7f0f631a278aca6e8,613f59d7f0f631a278aca6e8,4,candy,critical,E,50,candy40.jpg,candy60.jpg,high,NULL
1687410689,e55e23d159ee702632d849a7b1b6265b,PennController,8,0,experiment,NULL,Canvas,canvas6,Print,NA,1687410686249,613f59d7f0f631a278aca6e8,613f59d7f0f631a278aca6e8,4,candy,critical,E,50,candy40.jpg,candy60.jpg,high,NULL
1687410689,e55e23d159ee702632d849a7b1b6265b,PennController,8,0,experiment,NULL,Video,progression,buffer,0.030633,1687410683195,613f59d7f0f631a278aca6e8,613f59d7f0f631a278aca6e8,4,candy,critical,E,50,candy40.jpg,candy60.jpg,high,NULL
1687410689,e55e23d159ee702632d849a7b1b6265b,PennController,8,0,experiment,NULL,Selector,choice,Selection,option2,1687410688570,613f59d7f0f631a278aca6e8,613f59d7f0f631a278aca6e8,4,candy,critical,E,50,candy40.jpg,candy60.jpg,high,option1;option2
1687410689,e55e23d159ee702632d849a7b1b6265b,PennController,8,0,experiment,NULL,PennController,6,_Trial_,End,1687410688576,613f59d7f0f631a278aca6e8,613f59d7f0f631a278aca6e8,4,candy,critical,E,50,candy40.jpg,candy60.jpg,high,NULL
