#
# Results on Tuesday June 20 2023 18:53:28 UTC
# USER AGENT: Mozilla/5.0 (Macintosh; Intel Mac OS X 10_15_7) AppleWebKit/605.1.15 (KHTML, like Gecko) Version/15.6.1 Safari/605.1.15
# Design number was non-random = 3
#
# Columns below this comment are as follows:
# 1. Results reception time.
# 2. MD5 hash of participant's IP address.
# 3. Controller name.
# 4. Order number of item.
# 5. Inner element number.
# 6. Label.
# 7. Latin Square Group.
# 8. PennElementType.
# 9. PennElementName.
# 10. Parameter.
# 11. Value.
# 12. EventTime.
# 13. PROLIFIC_ID.
# 14. Comments.
1687287208,cf8834485db7c4bde190a07ffa255e26,PennController,2,0,consent,NULL,PennController,0,_Header_,End,1687286919294,5e8f05d79eeb7a1c82401b30,NULL
1687287208,cf8834485db7c4bde190a07ffa255e26,PennController,2,0,consent,NULL,PennController,0,_Header_,Start,1687286919294,5e8f05d79eeb7a1c82401b30,NULL
1687287208,cf8834485db7c4bde190a07ffa255e26,PennController,2,0,consent,NULL,PennController,0,_Trial_,Start,1687286919294,5e8f05d79eeb7a1c82401b30,NULL
1687287208,cf8834485db7c4bde190a07ffa255e26,PennController,2,0,consent,NULL,PennController,0,_Trial_,End,1687286922803,5e8f05d79eeb7a1c82401b30,NULL
# Columns below this comment are as follows:
# 14. ID.
# 15. Comments.
1687287208,cf8834485db7c4bde190a07ffa255e26,PennController,3,0,intro,NULL,PennController,1,_Header_,End,1687286922805,5e8f05d79eeb7a1c82401b30,5e8f05d79eeb7a1c82401b30,NULL
1687287208,cf8834485db7c4bde190a07ffa255e26,PennController,3,0,intro,NULL,PennController,1,_Header_,Start,1687286922805,5e8f05d79eeb7a1c82401b30,5e8f05d79eeb7a1c82401b30,NULL
1687287208,cf8834485db7c4bde190a07ffa255e26,PennController,3,0,intro,NULL,PennController,1,_Trial_,Start,1687286922805,5e8f05d79eeb7a1c82401b30,5e8f05d79eeb7a1c82401b30,NULL
1687287208,cf8834485db7c4bde190a07ffa255e26,PennController,3,0,intro,NULL,PennController,1,_Trial_,End,1687286927999,5e8f05d79eeb7a1c82401b30,5e8f05d79eeb7a1c82401b30,NULL
# Columns below this comment are as follows:
# 15. item_number.
# 16. item.
# 17. type.
# 18. Group.
# 19. prog.
# 20. prev_image.
# 21. next_image.
# 22. height.
# 23. Comments.
1687287208,cf8834485db7c4bde190a07ffa255e26,PennController,30,0,experiment,NULL,PennController,29,_Header_,End,1687286928003,5e8f05d79eeb7a1c82401b30,5e8f05d79eeb7a1c82401b30,27,square,filler,D,75,square65.jpg,square85.jpg,GoalB,NULL
1687287208,cf8834485db7c4bde190a07ffa255e26,PennController,30,0,experiment,NULL,PennController,29,_Header_,Start,1687286928003,5e8f05d79eeb7a1c82401b30,5e8f05d79eeb7a1c82401b30,27,square,filler,D,75,square65.jpg,square85.jpg,GoalB,NULL
1687287208,cf8834485db7c4bde190a07ffa255e26,PennController,30,0,experiment,NULL,PennController,29,_Trial_,Start,1687286928003,5e8f05d79eeb7a1c82401b30,5e8f05d79eeb7a1c82401b30,27,square,filler,D,75,square65.jpg,square85.jpg,GoalB,NULL
1687287208,cf8834485db7c4bde190a07ffa255e26,PennController,30,0,experiment,NULL,Canvas,canvas6,Print,NA,1687286935762,5e8f05d79eeb7a1c82401b30,5e8f05d79eeb7a1c82401b30,27,square,filler,D,75,square65.jpg,square85.jpg,GoalB,NULL
1687287208,cf8834485db7c4bde190a07ffa255e26,PennController,30,0,experiment,NULL,Selector,choice,Selection,option2,1687286938413,5e8f05d79eeb7a1c82401b30,5e8f05d79eeb7a1c82401b30,27,square,filler,D,75,square65.jpg,square85.jpg,GoalB,option2;option1
1687287208,cf8834485db7c4bde190a07ffa255e26,PennController,30,0,experiment,NULL,PennController,29,_Trial_,End,1687286938417,5e8f05d79eeb7a1c82401b30,5e8f05d79eeb7a1c82401b30,27,square,filler,D,75,square65.jpg,square85.jpg,GoalB,NULL
1687287208,cf8834485db7c4bde190a07ffa255e26,PennController,21,0,experiment,NULL,PennController,20,_Header_,End,1687286938418,5e8f05d79eeb7a1c82401b30,5e8f05d79eeb7a1c82401b30,18,ball,critical,D,75,ball65.jpg,ball85.jpg,high,NULL
1687287208,cf8834485db7c4bde190a07ffa255e26,PennController,21,0,experiment,NULL,PennController,20,_Header_,Start,1687286938418,5e8f05d79eeb7a1c82401b30,5e8f05d79eeb7a1c82401b30,18,ball,critical,D,75,ball65.jpg,ball85.jpg,high,NULL
1687287208,cf8834485db7c4bde190a07ffa255e26,PennController,21,0,experiment,NULL,PennController,20,_Trial_,Start,1687286938418,5e8f05d79eeb7a1c82401b30,5e8f05d79eeb7a1c82401b30,18,ball,critical,D,75,ball65.jpg,ball85.jpg,high,NULL
1687287208,cf8834485db7c4bde190a07ffa255e26,PennController,21,0,experiment,NULL,Canvas,canvas6,Print,NA,1687286946173,5e8f05d79eeb7a1c82401b30,5e8f05d79eeb7a1c82401b30,18,ball,critical,D,75,ball65.jpg,ball85.jpg,high,NULL
1687287208,cf8834485db7c4bde190a07ffa255e26,PennController,21,0,experiment,NULL,Selector,choice,Selection,option1,1687286947995,5e8f05d79eeb7a1c82401b30,5e8f05d79eeb7a1c82401b30,18,ball,critical,D,75,ball65.jpg,ball85.jpg,high,option1;option2
1687287208,cf8834485db7c4bde190a07ffa255e26,PennController,21,0,experiment,NULL,PennController,20,_Trial_,End,1687286947999,5e8f05d79eeb7a1c82401b30,5e8f05d79eeb7a1c82401b30,18,ball,critical,D,75,ball65.jpg,ball85.jpg,high,NULL
1687287208,cf8834485db7c4bde190a07ffa255e26,PennController,23,0,experiment,NULL,PennController,22,_Header_,End,1687286948001,5e8f05d79eeb7a1c82401b30,5e8f05d79eeb7a1c82401b30,20,cat,filler,D,50,cat40.jpg,cat60.jpg,GoalA,NULL
1687287208,cf8834485db7c4bde190a07ffa255e26,PennController,23,0,experiment,NULL,PennController,22,_Header_,Start,1687286948001,5e8f05d79eeb7a1c82401b30,5e8f05d79eeb7a1c82401b30,20,cat,filler,D,50,cat40.jpg,cat60.jpg,GoalA,NULL
1687287208,cf8834485db7c4bde190a07ffa255e26,PennController,23,0,experiment,NULL,PennController,22,_Trial_,Start,1687286948001,5e8f05d79eeb7a1c82401b30,5e8f05d79eeb7a1c82401b30,20,cat,filler,D,50,cat40.jpg,cat60.jpg,GoalA,NULL
1687287208,cf8834485db7c4bde190a07ffa255e26,PennController,23,0,experiment,NULL,Canvas,canvas6,Print,NA,1687286954753,5e8f05d79eeb7a1c82401b30,5e8f05d79eeb7a1c82401b30,20,cat,filler,D,50,cat40.jpg,cat60.jpg,GoalA,NULL
1687287208,cf8834485db7c4bde190a07ffa255e26,PennController,23,0,experiment,NULL,Selector,choice,Selection,option2,1687286957728,5e8f05d79eeb7a1c82401b30,5e8f05d79eeb7a1c82401b30,20,cat,filler,D,50,cat40.jpg,cat60.jpg,GoalA,option2;option1
1687287208,cf8834485db7c4bde190a07ffa255e26,PennController,23,0,experiment,NULL,PennController,22,_Trial_,End,1687286957731,5e8f05d79eeb7a1c82401b30,5e8f05d79eeb7a1c82401b30,20,cat,filler,D,50,cat40.jpg,cat60.jpg,GoalA,NULL
1687287208,cf8834485db7c4bde190a07ffa255e26,PennController,8,0,experiment,NULL,PennController,7,_Header_,End,1687286957734,5e8f05d79eeb7a1c82401b30,5e8f05d79eeb7a1c82401b30,5,book,critical,D,50,book40.jpg,book60.jpg,high,NULL
1687287208,cf8834485db7c4bde190a07ffa255e26,PennController,8,0,experiment,NULL,PennController,7,_Header_,Start,1687286957734,5e8f05d79eeb7a1c82401b30,5e8f05d79eeb7a1c82401b30,5,book,critical,D,50,book40.jpg,book60.jpg,high,NULL
1687287208,cf8834485db7c4bde190a07ffa255e26,PennController,8,0,experiment,NULL,PennController,7,_Trial_,Start,1687286957734,5e8f05d79eeb7a1c82401b30,5e8f05d79eeb7a1c82401b30,5,book,critical,D,50,book40.jpg,book60.jpg,high,NULL
1687287208,cf8834485db7c4bde190a07ffa255e26,PennController,8,0,experiment,NULL,Canvas,canvas6,Print,NA,1687286964486,5e8f05d79eeb7a1c82401b30,5e8f05d79eeb7a1c82401b30,5,book,critical,D,50,book40.jpg,book60.jpg,high,NULL
1687287208,cf8834485db7c4bde190a07ffa255e26,PennController,8,0,experiment,NULL,Selector,choice,Selection,option1,1687286967178,5e8f05d79eeb7a1c82401b30,5e8f05d79eeb7a1c82401b30,5,book,critical,D,50,book40.jpg,book60.jpg,high,option1;option2
1687287208,cf8834485db7c4bde190a07ffa255e26,PennController,8,0,experiment,NULL,PennController,7,_Trial_,End,1687286967181,5e8f05d79eeb7a1c82401b30,5e8f05d79eeb7a1c82401b30,5,book,critical,D,50,book40.jpg,book60.jpg,high,NULL
1687287208,cf8834485db7c4bde190a07ffa255e26,PennController,24,0,experiment,NULL,PennController,23,_Header_,End,1687286967183,5e8f05d79eeb7a1c82401b30,5e8f05d79eeb7a1c82401b30,21,visit,filler,D,75,visit65.jpg,visit85.jpg,GoalB,NULL
1687287208,cf8834485db7c4bde190a07ffa255e26,PennController,24,0,experiment,NULL,PennController,23,_Header_,Start,1687286967183,5e8f05d79eeb7a1c82401b30,5e8f05d79eeb7a1c82401b30,21,visit,filler,D,75,visit65.jpg,visit85.jpg,GoalB,NULL
1687287208,cf8834485db7c4bde190a07ffa255e26,PennController,24,0,experiment,NULL,PennController,23,_Trial_,Start,1687286967183,5e8f05d79eeb7a1c82401b30,5e8f05d79eeb7a1c82401b30,21,visit,filler,D,75,visit65.jpg,visit85.jpg,GoalB,NULL
1687287208,cf8834485db7c4bde190a07ffa255e26,PennController,24,0,experiment,NULL,Canvas,canvas6,Print,NA,1687286974945,5e8f05d79eeb7a1c82401b30,5e8f05d79eeb7a1c82401b30,21,visit,filler,D,75,visit65.jpg,visit85.jpg,GoalB,NULL
1687287208,cf8834485db7c4bde190a07ffa255e26,PennController,24,0,experiment,NULL,Selector,choice,Selection,option2,1687286978094,5e8f05d79eeb7a1c82401b30,5e8f05d79eeb7a1c82401b30,21,visit,filler,D,75,visit65.jpg,visit85.jpg,GoalB,option2;option1
1687287208,cf8834485db7c4bde190a07ffa255e26,PennController,24,0,experiment,NULL,PennController,23,_Trial_,End,1687286978097,5e8f05d79eeb7a1c82401b30,5e8f05d79eeb7a1c82401b30,21,visit,filler,D,75,visit65.jpg,visit85.jpg,GoalB,NULL
1687287208,cf8834485db7c4bde190a07ffa255e26,PennController,31,0,experiment,NULL,PennController,30,_Header_,End,1687286978100,5e8f05d79eeb7a1c82401b30,5e8f05d79eeb7a1c82401b30,28,sort,filler,D,25,sort15.jpg,sort35.jpg,GoalA,NULL
1687287208,cf8834485db7c4bde190a07ffa255e26,PennController,31,0,experiment,NULL,PennController,30,_Header_,Start,1687286978100,5e8f05d79eeb7a1c82401b30,5e8f05d79eeb7a1c82401b30,28,sort,filler,D,25,sort15.jpg,sort35.jpg,GoalA,NULL
1687287208,cf8834485db7c4bde190a07ffa255e26,PennController,31,0,experiment,NULL,PennController,30,_Trial_,Start,1687286978100,5e8f05d79eeb7a1c82401b30,5e8f05d79eeb7a1c82401b30,28,sort,filler,D,25,sort15.jpg,sort35.jpg,GoalA,NULL
1687287208,cf8834485db7c4bde190a07ffa255e26,PennController,31,0,experiment,NULL,Canvas,canvas6,Print,NA,1687286983859,5e8f05d79eeb7a1c82401b30,5e8f05d79eeb7a1c82401b30,28,sort,filler,D,25,sort15.jpg,sort35.jpg,GoalA,NULL
1687287208,cf8834485db7c4bde190a07ffa255e26,PennController,31,0,experiment,NULL,Selector,choice,Selection,option1,1687286987162,5e8f05d79eeb7a1c82401b30,5e8f05d79eeb7a1c82401b30,28,sort,filler,D,25,sort15.jpg,sort35.jpg,GoalA,option2;option1
1687287208,cf8834485db7c4bde190a07ffa255e26,PennController,31,0,experiment,NULL,PennController,30,_Trial_,End,1687286987166,5e8f05d79eeb7a1c82401b30,5e8f05d79eeb7a1c82401b30,28,sort,filler,D,25,sort15.jpg,sort35.jpg,GoalA,NULL
1687287208,cf8834485db7c4bde190a07ffa255e26,PennController,15,0,experiment,NULL,PennController,14,_Header_,End,1687286987169,5e8f05d79eeb7a1c82401b30,5e8f05d79eeb7a1c82401b30,12,erase,critical,D,75,erase66.jpg,erase84.jpg,high,NULL
1687287208,cf8834485db7c4bde190a07ffa255e26,PennController,15,0,experiment,NULL,PennController,14,_Header_,Start,1687286987169,5e8f05d79eeb7a1c82401b30,5e8f05d79eeb7a1c82401b30,12,erase,critical,D,75,erase66.jpg,erase84.jpg,high,NULL
1687287208,cf8834485db7c4bde190a07ffa255e26,PennController,15,0,experiment,NULL,PennController,14,_Trial_,Start,1687286987169,5e8f05d79eeb7a1c82401b30,5e8f05d79eeb7a1c82401b30,12,erase,critical,D,75,erase66.jpg,erase84.jpg,high,NULL
1687287208,cf8834485db7c4bde190a07ffa255e26,PennController,15,0,experiment,NULL,Canvas,canvas6,Print,NA,1687286996923,5e8f05d79eeb7a1c82401b30,5e8f05d79eeb7a1c82401b30,12,erase,critical,D,75,erase66.jpg,erase84.jpg,high,NULL
1687287208,cf8834485db7c4bde190a07ffa255e26,PennController,15,0,experiment,NULL,Selector,choice,Selection,option2,1687286998961,5e8f05d79eeb7a1c82401b30,5e8f05d79eeb7a1c82401b30,12,erase,critical,D,75,erase66.jpg,erase84.jpg,high,option2;option1
1687287208,cf8834485db7c4bde190a07ffa255e26,PennController,15,0,experiment,NULL,PennController,14,_Trial_,End,1687286998965,5e8f05d79eeb7a1c82401b30,5e8f05d79eeb7a1c82401b30,12,erase,critical,D,75,erase66.jpg,erase84.jpg,high,NULL
1687287208,cf8834485db7c4bde190a07ffa255e26,PennController,13,0,experiment,NULL,PennController,12,_Header_,End,1687286998968,5e8f05d79eeb7a1c82401b30,5e8f05d79eeb7a1c82401b30,10,train,critical,D,25,train15.jpg,train35.jpg,high,NULL
1687287208,cf8834485db7c4bde190a07ffa255e26,PennController,13,0,experiment,NULL,PennController,12,_Header_,Start,1687286998968,5e8f05d79eeb7a1c82401b30,5e8f05d79eeb7a1c82401b30,10,train,critical,D,25,train15.jpg,train35.jpg,high,NULL
1687287208,cf8834485db7c4bde190a07ffa255e26,PennController,13,0,experiment,NULL,PennController,12,_Trial_,Start,1687286998968,5e8f05d79eeb7a1c82401b30,5e8f05d79eeb7a1c82401b30,10,train,critical,D,25,train15.jpg,train35.jpg,high,NULL
1687287208,cf8834485db7c4bde190a07ffa255e26,PennController,13,0,experiment,NULL,Canvas,canvas6,Print,NA,1687287004723,5e8f05d79eeb7a1c82401b30,5e8f05d79eeb7a1c82401b30,10,train,critical,D,25,train15.jpg,train35.jpg,high,NULL
1687287208,cf8834485db7c4bde190a07ffa255e26,PennController,13,0,experiment,NULL,Selector,choice,Selection,option1,1687287006661,5e8f05d79eeb7a1c82401b30,5e8f05d79eeb7a1c82401b30,10,train,critical,D,25,train15.jpg,train35.jpg,high,option2;option1
1687287208,cf8834485db7c4bde190a07ffa255e26,PennController,13,0,experiment,NULL,PennController,12,_Trial_,End,1687287006665,5e8f05d79eeb7a1c82401b30,5e8f05d79eeb7a1c82401b30,10,train,critical,D,25,train15.jpg,train35.jpg,high,NULL
1687287208,cf8834485db7c4bde190a07ffa255e26,PennController,18,0,experiment,NULL,PennController,17,_Header_,End,1687287006668,5e8f05d79eeb7a1c82401b30,5e8f05d79eeb7a1c82401b30,15,zip,critical,D,75,zip65.jpg,zip85.jpg,high,NULL
1687287208,cf8834485db7c4bde190a07ffa255e26,PennController,18,0,experiment,NULL,PennController,17,_Header_,Start,1687287006668,5e8f05d79eeb7a1c82401b30,5e8f05d79eeb7a1c82401b30,15,zip,critical,D,75,zip65.jpg,zip85.jpg,high,NULL
1687287208,cf8834485db7c4bde190a07ffa255e26,PennController,18,0,experiment,NULL,PennController,17,_Trial_,Start,1687287006668,5e8f05d79eeb7a1c82401b30,5e8f05d79eeb7a1c82401b30,15,zip,critical,D,75,zip65.jpg,zip85.jpg,high,NULL
1687287208,cf8834485db7c4bde190a07ffa255e26,PennController,18,0,experiment,NULL,Canvas,canvas6,Print,NA,1687287013618,5e8f05d79eeb7a1c82401b30,5e8f05d79eeb7a1c82401b30,15,zip,critical,D,75,zip65.jpg,zip85.jpg,high,NULL
1687287208,cf8834485db7c4bde190a07ffa255e26,PennController,18,0,experiment,NULL,Selector,choice,Selection,option1,1687287019210,5e8f05d79eeb7a1c82401b30,5e8f05d79eeb7a1c82401b30,15,zip,critical,D,75,zip65.jpg,zip85.jpg,high,option2;option1
1687287208,cf8834485db7c4bde190a07ffa255e26,PennController,18,0,experiment,NULL,PennController,17,_Trial_,End,1687287019213,5e8f05d79eeb7a1c82401b30,5e8f05d79eeb7a1c82401b30,15,zip,critical,D,75,zip65.jpg,zip85.jpg,high,NULL
1687287208,cf8834485db7c4bde190a07ffa255e26,PennController,27,0,experiment,NULL,PennController,26,_Header_,End,1687287019215,5e8f05d79eeb7a1c82401b30,5e8f05d79eeb7a1c82401b30,24,match,filler,D,75,match65.jpg,match85.jpg,GoalA,NULL
1687287208,cf8834485db7c4bde190a07ffa255e26,PennController,27,0,experiment,NULL,PennController,26,_Header_,Start,1687287019215,5e8f05d79eeb7a1c82401b30,5e8f05d79eeb7a1c82401b30,24,match,filler,D,75,match65.jpg,match85.jpg,GoalA,NULL
1687287208,cf8834485db7c4bde190a07ffa255e26,PennController,27,0,experiment,NULL,PennController,26,_Trial_,Start,1687287019215,5e8f05d79eeb7a1c82401b30,5e8f05d79eeb7a1c82401b30,24,match,filler,D,75,match65.jpg,match85.jpg,GoalA,NULL
1687287208,cf8834485db7c4bde190a07ffa255e26,PennController,27,0,experiment,NULL,Canvas,canvas6,Print,NA,1687287026963,5e8f05d79eeb7a1c82401b30,5e8f05d79eeb7a1c82401b30,24,match,filler,D,75,match65.jpg,match85.jpg,GoalA,NULL
1687287208,cf8834485db7c4bde190a07ffa255e26,PennController,27,0,experiment,NULL,Selector,choice,Selection,option2,1687287028991,5e8f05d79eeb7a1c82401b30,5e8f05d79eeb7a1c82401b30,24,match,filler,D,75,match65.jpg,match85.jpg,GoalA,option2;option1
1687287208,cf8834485db7c4bde190a07ffa255e26,PennController,27,0,experiment,NULL,PennController,26,_Trial_,End,1687287028994,5e8f05d79eeb7a1c82401b30,5e8f05d79eeb7a1c82401b30,24,match,filler,D,75,match65.jpg,match85.jpg,GoalA,NULL
1687287208,cf8834485db7c4bde190a07ffa255e26,PennController,29,0,experiment,NULL,PennController,28,_Header_,End,1687287028997,5e8f05d79eeb7a1c82401b30,5e8f05d79eeb7a1c82401b30,26,sandwich,filler,D,50,sandwich40.jpg,sandwich60.jpg,GoalA,NULL
1687287208,cf8834485db7c4bde190a07ffa255e26,PennController,29,0,experiment,NULL,PennController,28,_Header_,Start,1687287028997,5e8f05d79eeb7a1c82401b30,5e8f05d79eeb7a1c82401b30,26,sandwich,filler,D,50,sandwich40.jpg,sandwich60.jpg,GoalA,NULL
1687287208,cf8834485db7c4bde190a07ffa255e26,PennController,29,0,experiment,NULL,PennController,28,_Trial_,Start,1687287028997,5e8f05d79eeb7a1c82401b30,5e8f05d79eeb7a1c82401b30,26,sandwich,filler,D,50,sandwich40.jpg,sandwich60.jpg,GoalA,NULL
1687287208,cf8834485db7c4bde190a07ffa255e26,PennController,29,0,experiment,NULL,Canvas,canvas6,Print,NA,1687287035751,5e8f05d79eeb7a1c82401b30,5e8f05d79eeb7a1c82401b30,26,sandwich,filler,D,50,sandwich40.jpg,sandwich60.jpg,GoalA,NULL
1687287208,cf8834485db7c4bde190a07ffa255e26,PennController,29,0,experiment,NULL,Selector,choice,Selection,option1,1687287037558,5e8f05d79eeb7a1c82401b30,5e8f05d79eeb7a1c82401b30,26,sandwich,filler,D,50,sandwich40.jpg,sandwich60.jpg,GoalA,option2;option1
1687287208,cf8834485db7c4bde190a07ffa255e26,PennController,29,0,experiment,NULL,PennController,28,_Trial_,End,1687287037560,5e8f05d79eeb7a1c82401b30,5e8f05d79eeb7a1c82401b30,26,sandwich,filler,D,50,sandwich40.jpg,sandwich60.jpg,GoalA,NULL
1687287208,cf8834485db7c4bde190a07ffa255e26,PennController,5,0,experiment,NULL,PennController,4,_Header_,End,1687287037563,5e8f05d79eeb7a1c82401b30,5e8f05d79eeb7a1c82401b30,2,door,critical,D,50,door40.jpg,door60.jpg,high,NULL
1687287208,cf8834485db7c4bde190a07ffa255e26,PennController,5,0,experiment,NULL,PennController,4,_Header_,Start,1687287037563,5e8f05d79eeb7a1c82401b30,5e8f05d79eeb7a1c82401b30,2,door,critical,D,50,door40.jpg,door60.jpg,high,NULL
1687287208,cf8834485db7c4bde190a07ffa255e26,PennController,5,0,experiment,NULL,PennController,4,_Trial_,Start,1687287037563,5e8f05d79eeb7a1c82401b30,5e8f05d79eeb7a1c82401b30,2,door,critical,D,50,door40.jpg,door60.jpg,high,NULL
1687287208,cf8834485db7c4bde190a07ffa255e26,PennController,5,0,experiment,NULL,Canvas,canvas6,Print,NA,1687287044313,5e8f05d79eeb7a1c82401b30,5e8f05d79eeb7a1c82401b30,2,door,critical,D,50,door40.jpg,door60.jpg,high,NULL
1687287208,cf8834485db7c4bde190a07ffa255e26,PennController,5,0,experiment,NULL,Selector,choice,Selection,option1,1687287049427,5e8f05d79eeb7a1c82401b30,5e8f05d79eeb7a1c82401b30,2,door,critical,D,50,door40.jpg,door60.jpg,high,option1;option2
1687287208,cf8834485db7c4bde190a07ffa255e26,PennController,5,0,experiment,NULL,PennController,4,_Trial_,End,1687287049429,5e8f05d79eeb7a1c82401b30,5e8f05d79eeb7a1c82401b30,2,door,critical,D,50,door40.jpg,door60.jpg,high,NULL
1687287208,cf8834485db7c4bde190a07ffa255e26,PennController,26,0,experiment,NULL,PennController,25,_Header_,End,1687287049431,5e8f05d79eeb7a1c82401b30,5e8f05d79eeb7a1c82401b30,23,color,filler,D,50,color40.jpg,color60.jpg,GoalB,NULL
1687287208,cf8834485db7c4bde190a07ffa255e26,PennController,26,0,experiment,NULL,PennController,25,_Header_,Start,1687287049431,5e8f05d79eeb7a1c82401b30,5e8f05d79eeb7a1c82401b30,23,color,filler,D,50,color40.jpg,color60.jpg,GoalB,NULL
1687287208,cf8834485db7c4bde190a07ffa255e26,PennController,26,0,experiment,NULL,PennController,25,_Trial_,Start,1687287049431,5e8f05d79eeb7a1c82401b30,5e8f05d79eeb7a1c82401b30,23,color,filler,D,50,color40.jpg,color60.jpg,GoalB,NULL
1687287208,cf8834485db7c4bde190a07ffa255e26,PennController,26,0,experiment,NULL,Canvas,canvas6,Print,NA,1687287056181,5e8f05d79eeb7a1c82401b30,5e8f05d79eeb7a1c82401b30,23,color,filler,D,50,color40.jpg,color60.jpg,GoalB,NULL
1687287208,cf8834485db7c4bde190a07ffa255e26,PennController,26,0,experiment,NULL,Selector,choice,Selection,option2,1687287059174,5e8f05d79eeb7a1c82401b30,5e8f05d79eeb7a1c82401b30,23,color,filler,D,50,color40.jpg,color60.jpg,GoalB,option1;option2
1687287208,cf8834485db7c4bde190a07ffa255e26,PennController,26,0,experiment,NULL,PennController,25,_Trial_,End,1687287059178,5e8f05d79eeb7a1c82401b30,5e8f05d79eeb7a1c82401b30,23,color,filler,D,50,color40.jpg,color60.jpg,GoalB,NULL
1687287208,cf8834485db7c4bde190a07ffa255e26,PennController,17,0,experiment,NULL,PennController,16,_Header_,End,1687287059180,5e8f05d79eeb7a1c82401b30,5e8f05d79eeb7a1c82401b30,14,cover,critical,D,50,cover42.jpg,cover60.jpg,high,NULL
1687287208,cf8834485db7c4bde190a07ffa255e26,PennController,17,0,experiment,NULL,PennController,16,_Header_,Start,1687287059180,5e8f05d79eeb7a1c82401b30,5e8f05d79eeb7a1c82401b30,14,cover,critical,D,50,cover42.jpg,cover60.jpg,high,NULL
1687287208,cf8834485db7c4bde190a07ffa255e26,PennController,17,0,experiment,NULL,PennController,16,_Trial_,Start,1687287059180,5e8f05d79eeb7a1c82401b30,5e8f05d79eeb7a1c82401b30,14,cover,critical,D,50,cover42.jpg,cover60.jpg,high,NULL
1687287208,cf8834485db7c4bde190a07ffa255e26,PennController,17,0,experiment,NULL,Canvas,canvas6,Print,NA,1687287067328,5e8f05d79eeb7a1c82401b30,5e8f05d79eeb7a1c82401b30,14,cover,critical,D,50,cover42.jpg,cover60.jpg,high,NULL
1687287208,cf8834485db7c4bde190a07ffa255e26,PennController,17,0,experiment,NULL,Selector,choice,Selection,option1,1687287071227,5e8f05d79eeb7a1c82401b30,5e8f05d79eeb7a1c82401b30,14,cover,critical,D,50,cover42.jpg,cover60.jpg,high,option1;option2
1687287208,cf8834485db7c4bde190a07ffa255e26,PennController,17,0,experiment,NULL,PennController,16,_Trial_,End,1687287071229,5e8f05d79eeb7a1c82401b30,5e8f05d79eeb7a1c82401b30,14,cover,critical,D,50,cover42.jpg,cover60.jpg,high,NULL
1687287208,cf8834485db7c4bde190a07ffa255e26,PennController,16,0,experiment,NULL,PennController,15,_Header_,End,1687287071231,5e8f05d79eeb7a1c82401b30,5e8f05d79eeb7a1c82401b30,13,mix,critical,D,25,mix15.jpg,mix35.jpg,high,NULL
1687287208,cf8834485db7c4bde190a07ffa255e26,PennController,16,0,experiment,NULL,PennController,15,_Header_,Start,1687287071231,5e8f05d79eeb7a1c82401b30,5e8f05d79eeb7a1c82401b30,13,mix,critical,D,25,mix15.jpg,mix35.jpg,high,NULL
1687287208,cf8834485db7c4bde190a07ffa255e26,PennController,16,0,experiment,NULL,PennController,15,_Trial_,Start,1687287071231,5e8f05d79eeb7a1c82401b30,5e8f05d79eeb7a1c82401b30,13,mix,critical,D,25,mix15.jpg,mix35.jpg,high,NULL
1687287208,cf8834485db7c4bde190a07ffa255e26,PennController,16,0,experiment,NULL,Canvas,canvas6,Print,NA,1687287076986,5e8f05d79eeb7a1c82401b30,5e8f05d79eeb7a1c82401b30,13,mix,critical,D,25,mix15.jpg,mix35.jpg,high,NULL
1687287208,cf8834485db7c4bde190a07ffa255e26,PennController,16,0,experiment,NULL,Selector,choice,Selection,option1,1687287080074,5e8f05d79eeb7a1c82401b30,5e8f05d79eeb7a1c82401b30,13,mix,critical,D,25,mix15.jpg,mix35.jpg,high,option2;option1
1687287208,cf8834485db7c4bde190a07ffa255e26,PennController,16,0,experiment,NULL,PennController,15,_Trial_,End,1687287080077,5e8f05d79eeb7a1c82401b30,5e8f05d79eeb7a1c82401b30,13,mix,critical,D,25,mix15.jpg,mix35.jpg,high,NULL
1687287208,cf8834485db7c4bde190a07ffa255e26,PennController,6,0,experiment,NULL,PennController,5,_Header_,End,1687287080079,5e8f05d79eeb7a1c82401b30,5e8f05d79eeb7a1c82401b30,3,clean,critical,D,75,clean65.jpg,clean85.jpg,high,NULL
1687287208,cf8834485db7c4bde190a07ffa255e26,PennController,6,0,experiment,NULL,PennController,5,_Header_,Start,1687287080079,5e8f05d79eeb7a1c82401b30,5e8f05d79eeb7a1c82401b30,3,clean,critical,D,75,clean65.jpg,clean85.jpg,high,NULL
1687287208,cf8834485db7c4bde190a07ffa255e26,PennController,6,0,experiment,NULL,PennController,5,_Trial_,Start,1687287080079,5e8f05d79eeb7a1c82401b30,5e8f05d79eeb7a1c82401b30,3,clean,critical,D,75,clean65.jpg,clean85.jpg,high,NULL
1687287208,cf8834485db7c4bde190a07ffa255e26,PennController,6,0,experiment,NULL,Canvas,canvas6,Print,NA,1687287087836,5e8f05d79eeb7a1c82401b30,5e8f05d79eeb7a1c82401b30,3,clean,critical,D,75,clean65.jpg,clean85.jpg,high,NULL
1687287208,cf8834485db7c4bde190a07ffa255e26,PennController,6,0,experiment,NULL,Selector,choice,Selection,option1,1687287090324,5e8f05d79eeb7a1c82401b30,5e8f05d79eeb7a1c82401b30,3,clean,critical,D,75,clean65.jpg,clean85.jpg,high,option1;option2
1687287208,cf8834485db7c4bde190a07ffa255e26,PennController,6,0,experiment,NULL,PennController,5,_Trial_,End,1687287090326,5e8f05d79eeb7a1c82401b30,5e8f05d79eeb7a1c82401b30,3,clean,critical,D,75,clean65.jpg,clean85.jpg,high,NULL
1687287208,cf8834485db7c4bde190a07ffa255e26,PennController,19,0,experiment,NULL,PennController,18,_Header_,End,1687287090329,5e8f05d79eeb7a1c82401b30,5e8f05d79eeb7a1c82401b30,16,blinds,critical,D,25,blinds15.jpg,blinds33.jpg,high,NULL
1687287208,cf8834485db7c4bde190a07ffa255e26,PennController,19,0,experiment,NULL,PennController,18,_Header_,Start,1687287090329,5e8f05d79eeb7a1c82401b30,5e8f05d79eeb7a1c82401b30,16,blinds,critical,D,25,blinds15.jpg,blinds33.jpg,high,NULL
1687287208,cf8834485db7c4bde190a07ffa255e26,PennController,19,0,experiment,NULL,PennController,18,_Trial_,Start,1687287090329,5e8f05d79eeb7a1c82401b30,5e8f05d79eeb7a1c82401b30,16,blinds,critical,D,25,blinds15.jpg,blinds33.jpg,high,NULL
1687287208,cf8834485db7c4bde190a07ffa255e26,PennController,19,0,experiment,NULL,Canvas,canvas6,Print,NA,1687287096683,5e8f05d79eeb7a1c82401b30,5e8f05d79eeb7a1c82401b30,16,blinds,critical,D,25,blinds15.jpg,blinds33.jpg,high,NULL
1687287208,cf8834485db7c4bde190a07ffa255e26,PennController,19,0,experiment,NULL,Selector,choice,Selection,option2,1687287098390,5e8f05d79eeb7a1c82401b30,5e8f05d79eeb7a1c82401b30,16,blinds,critical,D,25,blinds15.jpg,blinds33.jpg,high,option2;option1
1687287208,cf8834485db7c4bde190a07ffa255e26,PennController,19,0,experiment,NULL,PennController,18,_Trial_,End,1687287098393,5e8f05d79eeb7a1c82401b30,5e8f05d79eeb7a1c82401b30,16,blinds,critical,D,25,blinds15.jpg,blinds33.jpg,high,NULL
1687287208,cf8834485db7c4bde190a07ffa255e26,PennController,22,0,experiment,NULL,PennController,21,_Header_,End,1687287098395,5e8f05d79eeb7a1c82401b30,5e8f05d79eeb7a1c82401b30,19,cup,filler,D,25,cup15.jpg,cup35.jpg,GoalB,NULL
1687287208,cf8834485db7c4bde190a07ffa255e26,PennController,22,0,experiment,NULL,PennController,21,_Header_,Start,1687287098395,5e8f05d79eeb7a1c82401b30,5e8f05d79eeb7a1c82401b30,19,cup,filler,D,25,cup15.jpg,cup35.jpg,GoalB,NULL
1687287208,cf8834485db7c4bde190a07ffa255e26,PennController,22,0,experiment,NULL,PennController,21,_Trial_,Start,1687287098395,5e8f05d79eeb7a1c82401b30,5e8f05d79eeb7a1c82401b30,19,cup,filler,D,25,cup15.jpg,cup35.jpg,GoalB,NULL
1687287208,cf8834485db7c4bde190a07ffa255e26,PennController,22,0,experiment,NULL,Canvas,canvas6,Print,NA,1687287104147,5e8f05d79eeb7a1c82401b30,5e8f05d79eeb7a1c82401b30,19,cup,filler,D,25,cup15.jpg,cup35.jpg,GoalB,NULL
1687287208,cf8834485db7c4bde190a07ffa255e26,PennController,22,0,experiment,NULL,Selector,choice,Selection,option2,1687287107023,5e8f05d79eeb7a1c82401b30,5e8f05d79eeb7a1c82401b30,19,cup,filler,D,25,cup15.jpg,cup35.jpg,GoalB,option2;option1
1687287208,cf8834485db7c4bde190a07ffa255e26,PennController,22,0,experiment,NULL,PennController,21,_Trial_,End,1687287107026,5e8f05d79eeb7a1c82401b30,5e8f05d79eeb7a1c82401b30,19,cup,filler,D,25,cup15.jpg,cup35.jpg,GoalB,NULL
1687287208,cf8834485db7c4bde190a07ffa255e26,PennController,14,0,experiment,NULL,PennController,13,_Header_,End,1687287107028,5e8f05d79eeb7a1c82401b30,5e8f05d79eeb7a1c82401b30,11,beads,critical,D,50,beads40.jpg,beads60.jpg,high,NULL
1687287208,cf8834485db7c4bde190a07ffa255e26,PennController,14,0,experiment,NULL,PennController,13,_Header_,Start,1687287107028,5e8f05d79eeb7a1c82401b30,5e8f05d79eeb7a1c82401b30,11,beads,critical,D,50,beads40.jpg,beads60.jpg,high,NULL
1687287208,cf8834485db7c4bde190a07ffa255e26,PennController,14,0,experiment,NULL,PennController,13,_Trial_,Start,1687287107028,5e8f05d79eeb7a1c82401b30,5e8f05d79eeb7a1c82401b30,11,beads,critical,D,50,beads40.jpg,beads60.jpg,high,NULL
1687287208,cf8834485db7c4bde190a07ffa255e26,PennController,14,0,experiment,NULL,Canvas,canvas6,Print,NA,1687287113790,5e8f05d79eeb7a1c82401b30,5e8f05d79eeb7a1c82401b30,11,beads,critical,D,50,beads40.jpg,beads60.jpg,high,NULL
1687287208,cf8834485db7c4bde190a07ffa255e26,PennController,14,0,experiment,NULL,Selector,choice,Selection,option1,1687287116724,5e8f05d79eeb7a1c82401b30,5e8f05d79eeb7a1c82401b30,11,beads,critical,D,50,beads40.jpg,beads60.jpg,high,option2;option1
1687287208,cf8834485db7c4bde190a07ffa255e26,PennController,14,0,experiment,NULL,PennController,13,_Trial_,End,1687287116728,5e8f05d79eeb7a1c82401b30,5e8f05d79eeb7a1c82401b30,11,beads,critical,D,50,beads40.jpg,beads60.jpg,high,NULL
1687287208,cf8834485db7c4bde190a07ffa255e26,PennController,11,0,experiment,NULL,PennController,10,_Header_,End,1687287116731,5e8f05d79eeb7a1c82401b30,5e8f05d79eeb7a1c82401b30,8,cucumber,critical,D,50,cucumber42.jpg,cucumber60.jpg,high,NULL
1687287208,cf8834485db7c4bde190a07ffa255e26,PennController,11,0,experiment,NULL,PennController,10,_Header_,Start,1687287116731,5e8f05d79eeb7a1c82401b30,5e8f05d79eeb7a1c82401b30,8,cucumber,critical,D,50,cucumber42.jpg,cucumber60.jpg,high,NULL
1687287208,cf8834485db7c4bde190a07ffa255e26,PennController,11,0,experiment,NULL,PennController,10,_Trial_,Start,1687287116731,5e8f05d79eeb7a1c82401b30,5e8f05d79eeb7a1c82401b30,8,cucumber,critical,D,50,cucumber42.jpg,cucumber60.jpg,high,NULL
1687287208,cf8834485db7c4bde190a07ffa255e26,PennController,11,0,experiment,NULL,Canvas,canvas6,Print,NA,1687287124883,5e8f05d79eeb7a1c82401b30,5e8f05d79eeb7a1c82401b30,8,cucumber,critical,D,50,cucumber42.jpg,cucumber60.jpg,high,NULL
1687287208,cf8834485db7c4bde190a07ffa255e26,PennController,11,0,experiment,NULL,Selector,choice,Selection,option2,1687287127225,5e8f05d79eeb7a1c82401b30,5e8f05d79eeb7a1c82401b30,8,cucumber,critical,D,50,cucumber42.jpg,cucumber60.jpg,high,option1;option2
1687287208,cf8834485db7c4bde190a07ffa255e26,PennController,11,0,experiment,NULL,PennController,10,_Trial_,End,1687287127227,5e8f05d79eeb7a1c82401b30,5e8f05d79eeb7a1c82401b30,8,cucumber,critical,D,50,cucumber42.jpg,cucumber60.jpg,high,NULL
1687287208,cf8834485db7c4bde190a07ffa255e26,PennController,7,0,experiment,NULL,PennController,6,_Header_,End,1687287127228,5e8f05d79eeb7a1c82401b30,5e8f05d79eeb7a1c82401b30,4,candy,critical,D,25,candy15.jpg,candy35.jpg,high,NULL
1687287208,cf8834485db7c4bde190a07ffa255e26,PennController,7,0,experiment,NULL,PennController,6,_Header_,Start,1687287127228,5e8f05d79eeb7a1c82401b30,5e8f05d79eeb7a1c82401b30,4,candy,critical,D,25,candy15.jpg,candy35.jpg,high,NULL
1687287208,cf8834485db7c4bde190a07ffa255e26,PennController,7,0,experiment,NULL,PennController,6,_Trial_,Start,1687287127228,5e8f05d79eeb7a1c82401b30,5e8f05d79eeb7a1c82401b30,4,candy,critical,D,25,candy15.jpg,candy35.jpg,high,NULL
1687287208,cf8834485db7c4bde190a07ffa255e26,PennController,7,0,experiment,NULL,Canvas,canvas6,Print,NA,1687287132980,5e8f05d79eeb7a1c82401b30,5e8f05d79eeb7a1c82401b30,4,candy,critical,D,25,candy15.jpg,candy35.jpg,high,NULL
1687287208,cf8834485db7c4bde190a07ffa255e26,PennController,7,0,experiment,NULL,Selector,choice,Selection,option1,1687287135023,5e8f05d79eeb7a1c82401b30,5e8f05d79eeb7a1c82401b30,4,candy,critical,D,25,candy15.jpg,candy35.jpg,high,option2;option1
1687287208,cf8834485db7c4bde190a07ffa255e26,PennController,7,0,experiment,NULL,PennController,6,_Trial_,End,1687287135024,5e8f05d79eeb7a1c82401b30,5e8f05d79eeb7a1c82401b30,4,candy,critical,D,25,candy15.jpg,candy35.jpg,high,NULL
1687287208,cf8834485db7c4bde190a07ffa255e26,PennController,10,0,experiment,NULL,PennController,9,_Header_,End,1687287135025,5e8f05d79eeb7a1c82401b30,5e8f05d79eeb7a1c82401b30,7,stack,critical,D,25,stack15.jpg,stack35.jpg,high,NULL
1687287208,cf8834485db7c4bde190a07ffa255e26,PennController,10,0,experiment,NULL,PennController,9,_Header_,Start,1687287135025,5e8f05d79eeb7a1c82401b30,5e8f05d79eeb7a1c82401b30,7,stack,critical,D,25,stack15.jpg,stack35.jpg,high,NULL
1687287208,cf8834485db7c4bde190a07ffa255e26,PennController,10,0,experiment,NULL,PennController,9,_Trial_,Start,1687287135025,5e8f05d79eeb7a1c82401b30,5e8f05d79eeb7a1c82401b30,7,stack,critical,D,25,stack15.jpg,stack35.jpg,high,NULL
1687287208,cf8834485db7c4bde190a07ffa255e26,PennController,10,0,experiment,NULL,Canvas,canvas6,Print,NA,1687287140768,5e8f05d79eeb7a1c82401b30,5e8f05d79eeb7a1c82401b30,7,stack,critical,D,25,stack15.jpg,stack35.jpg,high,NULL
1687287208,cf8834485db7c4bde190a07ffa255e26,PennController,10,0,experiment,NULL,Selector,choice,Selection,option1,1687287142876,5e8f05d79eeb7a1c82401b30,5e8f05d79eeb7a1c82401b30,7,stack,critical,D,25,stack15.jpg,stack35.jpg,high,option2;option1
1687287208,cf8834485db7c4bde190a07ffa255e26,PennController,10,0,experiment,NULL,PennController,9,_Trial_,End,1687287142879,5e8f05d79eeb7a1c82401b30,5e8f05d79eeb7a1c82401b30,7,stack,critical,D,25,stack15.jpg,stack35.jpg,high,NULL
1687287208,cf8834485db7c4bde190a07ffa255e26,PennController,4,0,experiment,NULL,PennController,3,_Header_,End,1687287142882,5e8f05d79eeb7a1c82401b30,5e8f05d79eeb7a1c82401b30,1,vase,critical,D,25,vase15.jpg,vase35.jpg,high,NULL
1687287208,cf8834485db7c4bde190a07ffa255e26,PennController,4,0,experiment,NULL,PennController,3,_Header_,Start,1687287142882,5e8f05d79eeb7a1c82401b30,5e8f05d79eeb7a1c82401b30,1,vase,critical,D,25,vase15.jpg,vase35.jpg,high,NULL
1687287208,cf8834485db7c4bde190a07ffa255e26,PennController,4,0,experiment,NULL,PennController,3,_Trial_,Start,1687287142882,5e8f05d79eeb7a1c82401b30,5e8f05d79eeb7a1c82401b30,1,vase,critical,D,25,vase15.jpg,vase35.jpg,high,NULL
1687287208,cf8834485db7c4bde190a07ffa255e26,PennController,4,0,experiment,NULL,Canvas,canvas6,Print,NA,1687287148630,5e8f05d79eeb7a1c82401b30,5e8f05d79eeb7a1c82401b30,1,vase,critical,D,25,vase15.jpg,vase35.jpg,high,NULL
1687287208,cf8834485db7c4bde190a07ffa255e26,PennController,4,0,experiment,NULL,Selector,choice,Selection,option1,1687287150876,5e8f05d79eeb7a1c82401b30,5e8f05d79eeb7a1c82401b30,1,vase,critical,D,25,vase15.jpg,vase35.jpg,high,option2;option1
1687287208,cf8834485db7c4bde190a07ffa255e26,PennController,4,0,experiment,NULL,PennController,3,_Trial_,End,1687287150879,5e8f05d79eeb7a1c82401b30,5e8f05d79eeb7a1c82401b30,1,vase,critical,D,25,vase15.jpg,vase35.jpg,high,NULL
1687287208,cf8834485db7c4bde190a07ffa255e26,PennController,12,0,experiment,NULL,PennController,11,_Header_,End,1687287150881,5e8f05d79eeb7a1c82401b30,5e8f05d79eeb7a1c82401b30,9,cake,critical,D,75,cake66.jpg,cake84.jpg,high,NULL
1687287208,cf8834485db7c4bde190a07ffa255e26,PennController,12,0,experiment,NULL,PennController,11,_Header_,Start,1687287150881,5e8f05d79eeb7a1c82401b30,5e8f05d79eeb7a1c82401b30,9,cake,critical,D,75,cake66.jpg,cake84.jpg,high,NULL
1687287208,cf8834485db7c4bde190a07ffa255e26,PennController,12,0,experiment,NULL,PennController,11,_Trial_,Start,1687287150881,5e8f05d79eeb7a1c82401b30,5e8f05d79eeb7a1c82401b30,9,cake,critical,D,75,cake66.jpg,cake84.jpg,high,NULL
1687287208,cf8834485db7c4bde190a07ffa255e26,PennController,12,0,experiment,NULL,Canvas,canvas6,Print,NA,1687287160629,5e8f05d79eeb7a1c82401b30,5e8f05d79eeb7a1c82401b30,9,cake,critical,D,75,cake66.jpg,cake84.jpg,high,NULL
1687287208,cf8834485db7c4bde190a07ffa255e26,PennController,12,0,experiment,NULL,Selector,choice,Selection,option1,1687287162290,5e8f05d79eeb7a1c82401b30,5e8f05d79eeb7a1c82401b30,9,cake,critical,D,75,cake66.jpg,cake84.jpg,high,option2;option1
1687287208,cf8834485db7c4bde190a07ffa255e26,PennController,12,0,experiment,NULL,PennController,11,_Trial_,End,1687287162293,5e8f05d79eeb7a1c82401b30,5e8f05d79eeb7a1c82401b30,9,cake,critical,D,75,cake66.jpg,cake84.jpg,high,NULL
1687287208,cf8834485db7c4bde190a07ffa255e26,PennController,9,0,experiment,NULL,PennController,8,_Header_,End,1687287162295,5e8f05d79eeb7a1c82401b30,5e8f05d79eeb7a1c82401b30,6,flower,critical,D,75,flower65.jpg,flower85.jpg,high,NULL
1687287208,cf8834485db7c4bde190a07ffa255e26,PennController,9,0,experiment,NULL,PennController,8,_Header_,Start,1687287162295,5e8f05d79eeb7a1c82401b30,5e8f05d79eeb7a1c82401b30,6,flower,critical,D,75,flower65.jpg,flower85.jpg,high,NULL
1687287208,cf8834485db7c4bde190a07ffa255e26,PennController,9,0,experiment,NULL,PennController,8,_Trial_,Start,1687287162295,5e8f05d79eeb7a1c82401b30,5e8f05d79eeb7a1c82401b30,6,flower,critical,D,75,flower65.jpg,flower85.jpg,high,NULL
1687287208,cf8834485db7c4bde190a07ffa255e26,PennController,9,0,experiment,NULL,Canvas,canvas6,Print,NA,1687287170046,5e8f05d79eeb7a1c82401b30,5e8f05d79eeb7a1c82401b30,6,flower,critical,D,75,flower65.jpg,flower85.jpg,high,NULL
1687287208,cf8834485db7c4bde190a07ffa255e26,PennController,9,0,experiment,NULL,Selector,choice,Selection,option1,1687287171906,5e8f05d79eeb7a1c82401b30,5e8f05d79eeb7a1c82401b30,6,flower,critical,D,75,flower65.jpg,flower85.jpg,high,option2;option1
1687287208,cf8834485db7c4bde190a07ffa255e26,PennController,9,0,experiment,NULL,PennController,8,_Trial_,End,1687287171909,5e8f05d79eeb7a1c82401b30,5e8f05d79eeb7a1c82401b30,6,flower,critical,D,75,flower65.jpg,flower85.jpg,high,NULL
1687287208,cf8834485db7c4bde190a07ffa255e26,PennController,28,0,experiment,NULL,PennController,27,_Header_,End,1687287171911,5e8f05d79eeb7a1c82401b30,5e8f05d79eeb7a1c82401b30,25,house,filler,D,25,house15.jpg,house35.jpg,GoalB,NULL
1687287208,cf8834485db7c4bde190a07ffa255e26,PennController,28,0,experiment,NULL,PennController,27,_Header_,Start,1687287171911,5e8f05d79eeb7a1c82401b30,5e8f05d79eeb7a1c82401b30,25,house,filler,D,25,house15.jpg,house35.jpg,GoalB,NULL
1687287208,cf8834485db7c4bde190a07ffa255e26,PennController,28,0,experiment,NULL,PennController,27,_Trial_,Start,1687287171911,5e8f05d79eeb7a1c82401b30,5e8f05d79eeb7a1c82401b30,25,house,filler,D,25,house15.jpg,house35.jpg,GoalB,NULL
1687287208,cf8834485db7c4bde190a07ffa255e26,PennController,28,0,experiment,NULL,Canvas,canvas6,Print,NA,1687287177653,5e8f05d79eeb7a1c82401b30,5e8f05d79eeb7a1c82401b30,25,house,filler,D,25,house15.jpg,house35.jpg,GoalB,NULL
1687287208,cf8834485db7c4bde190a07ffa255e26,PennController,28,0,experiment,NULL,Selector,choice,Selection,option1,1687287180943,5e8f05d79eeb7a1c82401b30,5e8f05d79eeb7a1c82401b30,25,house,filler,D,25,house15.jpg,house35.jpg,GoalB,option2;option1
1687287208,cf8834485db7c4bde190a07ffa255e26,PennController,28,0,experiment,NULL,PennController,27,_Trial_,End,1687287180946,5e8f05d79eeb7a1c82401b30,5e8f05d79eeb7a1c82401b30,25,house,filler,D,25,house15.jpg,house35.jpg,GoalB,NULL
1687287208,cf8834485db7c4bde190a07ffa255e26,PennController,20,0,experiment,NULL,PennController,19,_Header_,End,1687287180947,5e8f05d79eeb7a1c82401b30,5e8f05d79eeb7a1c82401b30,17,roll,critical,D,50,roll40.jpg,roll60.jpg,high,NULL
1687287208,cf8834485db7c4bde190a07ffa255e26,PennController,20,0,experiment,NULL,PennController,19,_Header_,Start,1687287180947,5e8f05d79eeb7a1c82401b30,5e8f05d79eeb7a1c82401b30,17,roll,critical,D,50,roll40.jpg,roll60.jpg,high,NULL
1687287208,cf8834485db7c4bde190a07ffa255e26,PennController,20,0,experiment,NULL,PennController,19,_Trial_,Start,1687287180947,5e8f05d79eeb7a1c82401b30,5e8f05d79eeb7a1c82401b30,17,roll,critical,D,50,roll40.jpg,roll60.jpg,high,NULL
1687287208,cf8834485db7c4bde190a07ffa255e26,PennController,20,0,experiment,NULL,Canvas,canvas6,Print,NA,1687287187700,5e8f05d79eeb7a1c82401b30,5e8f05d79eeb7a1c82401b30,17,roll,critical,D,50,roll40.jpg,roll60.jpg,high,NULL
1687287208,cf8834485db7c4bde190a07ffa255e26,PennController,20,0,experiment,NULL,Selector,choice,Selection,option1,1687287189758,5e8f05d79eeb7a1c82401b30,5e8f05d79eeb7a1c82401b30,17,roll,critical,D,50,roll40.jpg,roll60.jpg,high,option2;option1
1687287208,cf8834485db7c4bde190a07ffa255e26,PennController,20,0,experiment,NULL,PennController,19,_Trial_,End,1687287189761,5e8f05d79eeb7a1c82401b30,5e8f05d79eeb7a1c82401b30,17,roll,critical,D,50,roll40.jpg,roll60.jpg,high,NULL
1687287208,cf8834485db7c4bde190a07ffa255e26,PennController,32,0,experiment,NULL,PennController,31,_Header_,End,1687287189763,5e8f05d79eeb7a1c82401b30,5e8f05d79eeb7a1c82401b30,29,frog,filler,D,50,frog40.jpg,frog60.jpg,GoalB,NULL
1687287208,cf8834485db7c4bde190a07ffa255e26,PennController,32,0,experiment,NULL,PennController,31,_Header_,Start,1687287189763,5e8f05d79eeb7a1c82401b30,5e8f05d79eeb7a1c82401b30,29,frog,filler,D,50,frog40.jpg,frog60.jpg,GoalB,NULL
1687287208,cf8834485db7c4bde190a07ffa255e26,PennController,32,0,experiment,NULL,PennController,31,_Trial_,Start,1687287189763,5e8f05d79eeb7a1c82401b30,5e8f05d79eeb7a1c82401b30,29,frog,filler,D,50,frog40.jpg,frog60.jpg,GoalB,NULL
1687287208,cf8834485db7c4bde190a07ffa255e26,PennController,32,0,experiment,NULL,Canvas,canvas6,Print,NA,1687287196514,5e8f05d79eeb7a1c82401b30,5e8f05d79eeb7a1c82401b30,29,frog,filler,D,50,frog40.jpg,frog60.jpg,GoalB,NULL
1687287208,cf8834485db7c4bde190a07ffa255e26,PennController,32,0,experiment,NULL,Selector,choice,Selection,option1,1687287198176,5e8f05d79eeb7a1c82401b30,5e8f05d79eeb7a1c82401b30,29,frog,filler,D,50,frog40.jpg,frog60.jpg,GoalB,option2;option1
1687287208,cf8834485db7c4bde190a07ffa255e26,PennController,32,0,experiment,NULL,PennController,31,_Trial_,End,1687287198178,5e8f05d79eeb7a1c82401b30,5e8f05d79eeb7a1c82401b30,29,frog,filler,D,50,frog40.jpg,frog60.jpg,GoalB,NULL
1687287208,cf8834485db7c4bde190a07ffa255e26,PennController,25,0,experiment,NULL,PennController,24,_Header_,End,1687287198181,5e8f05d79eeb7a1c82401b30,5e8f05d79eeb7a1c82401b30,22,wall,filler,D,25,wall15.jpg,wall35.jpg,GoalA,NULL
1687287208,cf8834485db7c4bde190a07ffa255e26,PennController,25,0,experiment,NULL,PennController,24,_Header_,Start,1687287198181,5e8f05d79eeb7a1c82401b30,5e8f05d79eeb7a1c82401b30,22,wall,filler,D,25,wall15.jpg,wall35.jpg,GoalA,NULL
1687287208,cf8834485db7c4bde190a07ffa255e26,PennController,25,0,experiment,NULL,PennController,24,_Trial_,Start,1687287198181,5e8f05d79eeb7a1c82401b30,5e8f05d79eeb7a1c82401b30,22,wall,filler,D,25,wall15.jpg,wall35.jpg,GoalA,NULL
1687287208,cf8834485db7c4bde190a07ffa255e26,PennController,25,0,experiment,NULL,Canvas,canvas6,Print,NA,1687287203934,5e8f05d79eeb7a1c82401b30,5e8f05d79eeb7a1c82401b30,22,wall,filler,D,25,wall15.jpg,wall35.jpg,GoalA,NULL
1687287208,cf8834485db7c4bde190a07ffa255e26,PennController,25,0,experiment,NULL,Selector,choice,Selection,option1,1687287205876,5e8f05d79eeb7a1c82401b30,5e8f05d79eeb7a1c82401b30,22,wall,filler,D,25,wall15.jpg,wall35.jpg,GoalA,option1;option2
1687287208,cf8834485db7c4bde190a07ffa255e26,PennController,25,0,experiment,NULL,PennController,24,_Trial_,End,1687287205878,5e8f05d79eeb7a1c82401b30,5e8f05d79eeb7a1c82401b30,22,wall,filler,D,25,wall15.jpg,wall35.jpg,GoalA,NULL
