#
# Results on Tuesday June 20 2023 18:56:56 UTC
# USER AGENT: Mozilla/5.0 (Macintosh; Intel Mac OS X 10_15_7) AppleWebKit/537.36 (KHTML, like Gecko) Chrome/114.0.0.0 Safari/537.36
# Design number was non-random = 3
#
# Columns below this comment are as follows:
# 1. Results reception time.
# 2. MD5 hash of participant's IP address.
# 3. Controller name.
# 4. Order number of item.
# 5. Inner element number.
# 6. Label.
# 7. Latin Square Group.
# 8. PennElementType.
# 9. PennElementName.
# 10. Parameter.
# 11. Value.
# 12. EventTime.
# 13. PROLIFIC_ID.
# 14. Comments.
1687287416,86bf619bd2124df4691d08faf5e9d2a9,PennController,2,0,consent,NULL,PennController,0,_Trial_,Start,1687287072659,5a6a206f3fb6420001c2d9ef,NULL
1687287416,86bf619bd2124df4691d08faf5e9d2a9,PennController,2,0,consent,NULL,PennController,0,_Header_,Start,1687287072659,5a6a206f3fb6420001c2d9ef,NULL
1687287416,86bf619bd2124df4691d08faf5e9d2a9,PennController,2,0,consent,NULL,PennController,0,_Header_,End,1687287072660,5a6a206f3fb6420001c2d9ef,NULL
1687287416,86bf619bd2124df4691d08faf5e9d2a9,PennController,2,0,consent,NULL,PennController,0,_Trial_,End,1687287099744,5a6a206f3fb6420001c2d9ef,NULL
# Columns below this comment are as follows:
# 14. ID.
# 15. Comments.
1687287416,86bf619bd2124df4691d08faf5e9d2a9,PennController,3,0,intro,NULL,PennController,1,_Trial_,Start,1687287099747,5a6a206f3fb6420001c2d9ef,5a6a206f3fb6420001c2d9ef,NULL
1687287416,86bf619bd2124df4691d08faf5e9d2a9,PennController,3,0,intro,NULL,PennController,1,_Header_,Start,1687287099747,5a6a206f3fb6420001c2d9ef,5a6a206f3fb6420001c2d9ef,NULL
1687287416,86bf619bd2124df4691d08faf5e9d2a9,PennController,3,0,intro,NULL,PennController,1,_Header_,End,1687287099747,5a6a206f3fb6420001c2d9ef,5a6a206f3fb6420001c2d9ef,NULL
1687287416,86bf619bd2124df4691d08faf5e9d2a9,PennController,3,0,intro,NULL,PennController,1,_Trial_,End,1687287117078,5a6a206f3fb6420001c2d9ef,5a6a206f3fb6420001c2d9ef,NULL
# Columns below this comment are as follows:
# 15. item_number.
# 16. item.
# 17. type.
# 18. Group.
# 19. prog.
# 20. prev_image.
# 21. next_image.
# 22. height.
# 23. Comments.
1687287416,86bf619bd2124df4691d08faf5e9d2a9,PennController,18,0,experiment,NULL,PennController,17,_Trial_,Start,1687287117083,5a6a206f3fb6420001c2d9ef,5a6a206f3fb6420001c2d9ef,15,zip,critical,D,75,zip65.jpg,zip85.jpg,high,NULL
1687287416,86bf619bd2124df4691d08faf5e9d2a9,PennController,18,0,experiment,NULL,PennController,17,_Header_,Start,1687287117083,5a6a206f3fb6420001c2d9ef,5a6a206f3fb6420001c2d9ef,15,zip,critical,D,75,zip65.jpg,zip85.jpg,high,NULL
1687287416,86bf619bd2124df4691d08faf5e9d2a9,PennController,18,0,experiment,NULL,PennController,17,_Header_,End,1687287117083,5a6a206f3fb6420001c2d9ef,5a6a206f3fb6420001c2d9ef,15,zip,critical,D,75,zip65.jpg,zip85.jpg,high,NULL
1687287416,86bf619bd2124df4691d08faf5e9d2a9,PennController,18,0,experiment,NULL,Canvas,canvas6,Print,NA,1687287123992,5a6a206f3fb6420001c2d9ef,5a6a206f3fb6420001c2d9ef,15,zip,critical,D,75,zip65.jpg,zip85.jpg,high,NULL
1687287416,86bf619bd2124df4691d08faf5e9d2a9,PennController,18,0,experiment,NULL,Video,progression,buffer,0.003426,1687287120623,5a6a206f3fb6420001c2d9ef,5a6a206f3fb6420001c2d9ef,15,zip,critical,D,75,zip65.jpg,zip85.jpg,high,NULL
1687287416,86bf619bd2124df4691d08faf5e9d2a9,PennController,18,0,experiment,NULL,Selector,choice,Selection,option2,1687287130683,5a6a206f3fb6420001c2d9ef,5a6a206f3fb6420001c2d9ef,15,zip,critical,D,75,zip65.jpg,zip85.jpg,high,option1;option2
1687287416,86bf619bd2124df4691d08faf5e9d2a9,PennController,18,0,experiment,NULL,PennController,17,_Trial_,End,1687287130685,5a6a206f3fb6420001c2d9ef,5a6a206f3fb6420001c2d9ef,15,zip,critical,D,75,zip65.jpg,zip85.jpg,high,NULL
1687287416,86bf619bd2124df4691d08faf5e9d2a9,PennController,25,0,experiment,NULL,PennController,24,_Trial_,Start,1687287130687,5a6a206f3fb6420001c2d9ef,5a6a206f3fb6420001c2d9ef,22,wall,filler,D,25,wall15.jpg,wall35.jpg,GoalA,NULL
1687287416,86bf619bd2124df4691d08faf5e9d2a9,PennController,25,0,experiment,NULL,PennController,24,_Header_,Start,1687287130687,5a6a206f3fb6420001c2d9ef,5a6a206f3fb6420001c2d9ef,22,wall,filler,D,25,wall15.jpg,wall35.jpg,GoalA,NULL
1687287416,86bf619bd2124df4691d08faf5e9d2a9,PennController,25,0,experiment,NULL,PennController,24,_Header_,End,1687287130687,5a6a206f3fb6420001c2d9ef,5a6a206f3fb6420001c2d9ef,22,wall,filler,D,25,wall15.jpg,wall35.jpg,GoalA,NULL
1687287416,86bf619bd2124df4691d08faf5e9d2a9,PennController,25,0,experiment,NULL,Canvas,canvas6,Print,NA,1687287136391,5a6a206f3fb6420001c2d9ef,5a6a206f3fb6420001c2d9ef,22,wall,filler,D,25,wall15.jpg,wall35.jpg,GoalA,NULL
1687287416,86bf619bd2124df4691d08faf5e9d2a9,PennController,25,0,experiment,NULL,Video,progression,buffer,0.016614,1687287134231,5a6a206f3fb6420001c2d9ef,5a6a206f3fb6420001c2d9ef,22,wall,filler,D,25,wall15.jpg,wall35.jpg,GoalA,NULL
1687287416,86bf619bd2124df4691d08faf5e9d2a9,PennController,25,0,experiment,NULL,Selector,choice,Selection,option2,1687287141628,5a6a206f3fb6420001c2d9ef,5a6a206f3fb6420001c2d9ef,22,wall,filler,D,25,wall15.jpg,wall35.jpg,GoalA,option1;option2
1687287416,86bf619bd2124df4691d08faf5e9d2a9,PennController,25,0,experiment,NULL,PennController,24,_Trial_,End,1687287141629,5a6a206f3fb6420001c2d9ef,5a6a206f3fb6420001c2d9ef,22,wall,filler,D,25,wall15.jpg,wall35.jpg,GoalA,NULL
1687287416,86bf619bd2124df4691d08faf5e9d2a9,PennController,30,0,experiment,NULL,PennController,29,_Trial_,Start,1687287141632,5a6a206f3fb6420001c2d9ef,5a6a206f3fb6420001c2d9ef,27,square,filler,D,75,square65.jpg,square85.jpg,GoalB,NULL
1687287416,86bf619bd2124df4691d08faf5e9d2a9,PennController,30,0,experiment,NULL,PennController,29,_Header_,Start,1687287141632,5a6a206f3fb6420001c2d9ef,5a6a206f3fb6420001c2d9ef,27,square,filler,D,75,square65.jpg,square85.jpg,GoalB,NULL
1687287416,86bf619bd2124df4691d08faf5e9d2a9,PennController,30,0,experiment,NULL,PennController,29,_Header_,End,1687287141632,5a6a206f3fb6420001c2d9ef,5a6a206f3fb6420001c2d9ef,27,square,filler,D,75,square65.jpg,square85.jpg,GoalB,NULL
1687287416,86bf619bd2124df4691d08faf5e9d2a9,PennController,30,0,experiment,NULL,Canvas,canvas6,Print,NA,1687287149337,5a6a206f3fb6420001c2d9ef,5a6a206f3fb6420001c2d9ef,27,square,filler,D,75,square65.jpg,square85.jpg,GoalB,NULL
1687287416,86bf619bd2124df4691d08faf5e9d2a9,PennController,30,0,experiment,NULL,Video,progression,buffer,0.009127,1687287145168,5a6a206f3fb6420001c2d9ef,5a6a206f3fb6420001c2d9ef,27,square,filler,D,75,square65.jpg,square85.jpg,GoalB,NULL
1687287416,86bf619bd2124df4691d08faf5e9d2a9,PennController,30,0,experiment,NULL,Selector,choice,Selection,option1,1687287151031,5a6a206f3fb6420001c2d9ef,5a6a206f3fb6420001c2d9ef,27,square,filler,D,75,square65.jpg,square85.jpg,GoalB,option2;option1
1687287416,86bf619bd2124df4691d08faf5e9d2a9,PennController,30,0,experiment,NULL,PennController,29,_Trial_,End,1687287151033,5a6a206f3fb6420001c2d9ef,5a6a206f3fb6420001c2d9ef,27,square,filler,D,75,square65.jpg,square85.jpg,GoalB,NULL
1687287416,86bf619bd2124df4691d08faf5e9d2a9,PennController,7,0,experiment,NULL,PennController,6,_Trial_,Start,1687287151034,5a6a206f3fb6420001c2d9ef,5a6a206f3fb6420001c2d9ef,4,candy,critical,D,25,candy15.jpg,candy35.jpg,high,NULL
1687287416,86bf619bd2124df4691d08faf5e9d2a9,PennController,7,0,experiment,NULL,PennController,6,_Header_,Start,1687287151034,5a6a206f3fb6420001c2d9ef,5a6a206f3fb6420001c2d9ef,4,candy,critical,D,25,candy15.jpg,candy35.jpg,high,NULL
1687287416,86bf619bd2124df4691d08faf5e9d2a9,PennController,7,0,experiment,NULL,PennController,6,_Header_,End,1687287151034,5a6a206f3fb6420001c2d9ef,5a6a206f3fb6420001c2d9ef,4,candy,critical,D,25,candy15.jpg,candy35.jpg,high,NULL
1687287416,86bf619bd2124df4691d08faf5e9d2a9,PennController,7,0,experiment,NULL,Canvas,canvas6,Print,NA,1687287156732,5a6a206f3fb6420001c2d9ef,5a6a206f3fb6420001c2d9ef,4,candy,critical,D,25,candy15.jpg,candy35.jpg,high,NULL
1687287416,86bf619bd2124df4691d08faf5e9d2a9,PennController,7,0,experiment,NULL,Video,progression,buffer,0.003883,1687287154564,5a6a206f3fb6420001c2d9ef,5a6a206f3fb6420001c2d9ef,4,candy,critical,D,25,candy15.jpg,candy35.jpg,high,NULL
1687287416,86bf619bd2124df4691d08faf5e9d2a9,PennController,7,0,experiment,NULL,Selector,choice,Selection,option2,1687287159655,5a6a206f3fb6420001c2d9ef,5a6a206f3fb6420001c2d9ef,4,candy,critical,D,25,candy15.jpg,candy35.jpg,high,option1;option2
1687287416,86bf619bd2124df4691d08faf5e9d2a9,PennController,7,0,experiment,NULL,PennController,6,_Trial_,End,1687287159657,5a6a206f3fb6420001c2d9ef,5a6a206f3fb6420001c2d9ef,4,candy,critical,D,25,candy15.jpg,candy35.jpg,high,NULL
1687287416,86bf619bd2124df4691d08faf5e9d2a9,PennController,19,0,experiment,NULL,PennController,18,_Trial_,Start,1687287159659,5a6a206f3fb6420001c2d9ef,5a6a206f3fb6420001c2d9ef,16,blinds,critical,D,25,blinds15.jpg,blinds33.jpg,high,NULL
1687287416,86bf619bd2124df4691d08faf5e9d2a9,PennController,19,0,experiment,NULL,PennController,18,_Header_,Start,1687287159659,5a6a206f3fb6420001c2d9ef,5a6a206f3fb6420001c2d9ef,16,blinds,critical,D,25,blinds15.jpg,blinds33.jpg,high,NULL
1687287416,86bf619bd2124df4691d08faf5e9d2a9,PennController,19,0,experiment,NULL,PennController,18,_Header_,End,1687287159659,5a6a206f3fb6420001c2d9ef,5a6a206f3fb6420001c2d9ef,16,blinds,critical,D,25,blinds15.jpg,blinds33.jpg,high,NULL
1687287416,86bf619bd2124df4691d08faf5e9d2a9,PennController,19,0,experiment,NULL,Canvas,canvas6,Print,NA,1687287165954,5a6a206f3fb6420001c2d9ef,5a6a206f3fb6420001c2d9ef,16,blinds,critical,D,25,blinds15.jpg,blinds33.jpg,high,NULL
1687287416,86bf619bd2124df4691d08faf5e9d2a9,PennController,19,0,experiment,NULL,Video,progression,buffer,0,1687287163187,5a6a206f3fb6420001c2d9ef,5a6a206f3fb6420001c2d9ef,16,blinds,critical,D,25,blinds15.jpg,blinds33.jpg,high,NULL
1687287416,86bf619bd2124df4691d08faf5e9d2a9,PennController,19,0,experiment,NULL,Selector,choice,Selection,option1,1687287168079,5a6a206f3fb6420001c2d9ef,5a6a206f3fb6420001c2d9ef,16,blinds,critical,D,25,blinds15.jpg,blinds33.jpg,high,option1;option2
1687287416,86bf619bd2124df4691d08faf5e9d2a9,PennController,19,0,experiment,NULL,PennController,18,_Trial_,End,1687287168081,5a6a206f3fb6420001c2d9ef,5a6a206f3fb6420001c2d9ef,16,blinds,critical,D,25,blinds15.jpg,blinds33.jpg,high,NULL
1687287416,86bf619bd2124df4691d08faf5e9d2a9,PennController,29,0,experiment,NULL,PennController,28,_Trial_,Start,1687287168082,5a6a206f3fb6420001c2d9ef,5a6a206f3fb6420001c2d9ef,26,sandwich,filler,D,50,sandwich40.jpg,sandwich60.jpg,GoalA,NULL
1687287416,86bf619bd2124df4691d08faf5e9d2a9,PennController,29,0,experiment,NULL,PennController,28,_Header_,Start,1687287168082,5a6a206f3fb6420001c2d9ef,5a6a206f3fb6420001c2d9ef,26,sandwich,filler,D,50,sandwich40.jpg,sandwich60.jpg,GoalA,NULL
1687287416,86bf619bd2124df4691d08faf5e9d2a9,PennController,29,0,experiment,NULL,PennController,28,_Header_,End,1687287168082,5a6a206f3fb6420001c2d9ef,5a6a206f3fb6420001c2d9ef,26,sandwich,filler,D,50,sandwich40.jpg,sandwich60.jpg,GoalA,NULL
1687287416,86bf619bd2124df4691d08faf5e9d2a9,PennController,29,0,experiment,NULL,Canvas,canvas6,Print,NA,1687287174776,5a6a206f3fb6420001c2d9ef,5a6a206f3fb6420001c2d9ef,26,sandwich,filler,D,50,sandwich40.jpg,sandwich60.jpg,GoalA,NULL
1687287416,86bf619bd2124df4691d08faf5e9d2a9,PennController,29,0,experiment,NULL,Video,progression,buffer,0.002588,1687287171609,5a6a206f3fb6420001c2d9ef,5a6a206f3fb6420001c2d9ef,26,sandwich,filler,D,50,sandwich40.jpg,sandwich60.jpg,GoalA,NULL
1687287416,86bf619bd2124df4691d08faf5e9d2a9,PennController,29,0,experiment,NULL,Selector,choice,Selection,option1,1687287176469,5a6a206f3fb6420001c2d9ef,5a6a206f3fb6420001c2d9ef,26,sandwich,filler,D,50,sandwich40.jpg,sandwich60.jpg,GoalA,option2;option1
1687287416,86bf619bd2124df4691d08faf5e9d2a9,PennController,29,0,experiment,NULL,PennController,28,_Trial_,End,1687287176471,5a6a206f3fb6420001c2d9ef,5a6a206f3fb6420001c2d9ef,26,sandwich,filler,D,50,sandwich40.jpg,sandwich60.jpg,GoalA,NULL
1687287416,86bf619bd2124df4691d08faf5e9d2a9,PennController,24,0,experiment,NULL,PennController,23,_Trial_,Start,1687287176472,5a6a206f3fb6420001c2d9ef,5a6a206f3fb6420001c2d9ef,21,visit,filler,D,75,visit65.jpg,visit85.jpg,GoalB,NULL
1687287416,86bf619bd2124df4691d08faf5e9d2a9,PennController,24,0,experiment,NULL,PennController,23,_Header_,Start,1687287176472,5a6a206f3fb6420001c2d9ef,5a6a206f3fb6420001c2d9ef,21,visit,filler,D,75,visit65.jpg,visit85.jpg,GoalB,NULL
1687287416,86bf619bd2124df4691d08faf5e9d2a9,PennController,24,0,experiment,NULL,PennController,23,_Header_,End,1687287176472,5a6a206f3fb6420001c2d9ef,5a6a206f3fb6420001c2d9ef,21,visit,filler,D,75,visit65.jpg,visit85.jpg,GoalB,NULL
1687287416,86bf619bd2124df4691d08faf5e9d2a9,PennController,24,0,experiment,NULL,Canvas,canvas6,Print,NA,1687287184156,5a6a206f3fb6420001c2d9ef,5a6a206f3fb6420001c2d9ef,21,visit,filler,D,75,visit65.jpg,visit85.jpg,GoalB,NULL
1687287416,86bf619bd2124df4691d08faf5e9d2a9,PennController,24,0,experiment,NULL,Video,progression,buffer,0.003422,1687287179995,5a6a206f3fb6420001c2d9ef,5a6a206f3fb6420001c2d9ef,21,visit,filler,D,75,visit65.jpg,visit85.jpg,GoalB,NULL
1687287416,86bf619bd2124df4691d08faf5e9d2a9,PennController,24,0,experiment,NULL,Selector,choice,Selection,option2,1687287187295,5a6a206f3fb6420001c2d9ef,5a6a206f3fb6420001c2d9ef,21,visit,filler,D,75,visit65.jpg,visit85.jpg,GoalB,option1;option2
1687287416,86bf619bd2124df4691d08faf5e9d2a9,PennController,24,0,experiment,NULL,PennController,23,_Trial_,End,1687287187297,5a6a206f3fb6420001c2d9ef,5a6a206f3fb6420001c2d9ef,21,visit,filler,D,75,visit65.jpg,visit85.jpg,GoalB,NULL
1687287416,86bf619bd2124df4691d08faf5e9d2a9,PennController,4,0,experiment,NULL,PennController,3,_Trial_,Start,1687287187298,5a6a206f3fb6420001c2d9ef,5a6a206f3fb6420001c2d9ef,1,vase,critical,D,25,vase15.jpg,vase35.jpg,high,NULL
1687287416,86bf619bd2124df4691d08faf5e9d2a9,PennController,4,0,experiment,NULL,PennController,3,_Header_,Start,1687287187298,5a6a206f3fb6420001c2d9ef,5a6a206f3fb6420001c2d9ef,1,vase,critical,D,25,vase15.jpg,vase35.jpg,high,NULL
1687287416,86bf619bd2124df4691d08faf5e9d2a9,PennController,4,0,experiment,NULL,PennController,3,_Header_,End,1687287187298,5a6a206f3fb6420001c2d9ef,5a6a206f3fb6420001c2d9ef,1,vase,critical,D,25,vase15.jpg,vase35.jpg,high,NULL
1687287416,86bf619bd2124df4691d08faf5e9d2a9,PennController,4,0,experiment,NULL,Canvas,canvas6,Print,NA,1687287192994,5a6a206f3fb6420001c2d9ef,5a6a206f3fb6420001c2d9ef,1,vase,critical,D,25,vase15.jpg,vase35.jpg,high,NULL
1687287416,86bf619bd2124df4691d08faf5e9d2a9,PennController,4,0,experiment,NULL,Video,progression,buffer,0.004246,1687287190828,5a6a206f3fb6420001c2d9ef,5a6a206f3fb6420001c2d9ef,1,vase,critical,D,25,vase15.jpg,vase35.jpg,high,NULL
1687287416,86bf619bd2124df4691d08faf5e9d2a9,PennController,4,0,experiment,NULL,Selector,choice,Selection,option2,1687287195777,5a6a206f3fb6420001c2d9ef,5a6a206f3fb6420001c2d9ef,1,vase,critical,D,25,vase15.jpg,vase35.jpg,high,option2;option1
1687287416,86bf619bd2124df4691d08faf5e9d2a9,PennController,4,0,experiment,NULL,PennController,3,_Trial_,End,1687287195778,5a6a206f3fb6420001c2d9ef,5a6a206f3fb6420001c2d9ef,1,vase,critical,D,25,vase15.jpg,vase35.jpg,high,NULL
1687287416,86bf619bd2124df4691d08faf5e9d2a9,PennController,27,0,experiment,NULL,PennController,26,_Trial_,Start,1687287195779,5a6a206f3fb6420001c2d9ef,5a6a206f3fb6420001c2d9ef,24,match,filler,D,75,match65.jpg,match85.jpg,GoalA,NULL
1687287416,86bf619bd2124df4691d08faf5e9d2a9,PennController,27,0,experiment,NULL,PennController,26,_Header_,Start,1687287195779,5a6a206f3fb6420001c2d9ef,5a6a206f3fb6420001c2d9ef,24,match,filler,D,75,match65.jpg,match85.jpg,GoalA,NULL
1687287416,86bf619bd2124df4691d08faf5e9d2a9,PennController,27,0,experiment,NULL,PennController,26,_Header_,End,1687287195779,5a6a206f3fb6420001c2d9ef,5a6a206f3fb6420001c2d9ef,24,match,filler,D,75,match65.jpg,match85.jpg,GoalA,NULL
1687287416,86bf619bd2124df4691d08faf5e9d2a9,PennController,27,0,experiment,NULL,Canvas,canvas6,Print,NA,1687287203470,5a6a206f3fb6420001c2d9ef,5a6a206f3fb6420001c2d9ef,24,match,filler,D,75,match65.jpg,match85.jpg,GoalA,NULL
1687287416,86bf619bd2124df4691d08faf5e9d2a9,PennController,27,0,experiment,NULL,Video,progression,buffer,0.002806,1687287199303,5a6a206f3fb6420001c2d9ef,5a6a206f3fb6420001c2d9ef,24,match,filler,D,75,match65.jpg,match85.jpg,GoalA,NULL
1687287416,86bf619bd2124df4691d08faf5e9d2a9,PennController,27,0,experiment,NULL,Selector,choice,Selection,option2,1687287205914,5a6a206f3fb6420001c2d9ef,5a6a206f3fb6420001c2d9ef,24,match,filler,D,75,match65.jpg,match85.jpg,GoalA,option2;option1
1687287416,86bf619bd2124df4691d08faf5e9d2a9,PennController,27,0,experiment,NULL,PennController,26,_Trial_,End,1687287205915,5a6a206f3fb6420001c2d9ef,5a6a206f3fb6420001c2d9ef,24,match,filler,D,75,match65.jpg,match85.jpg,GoalA,NULL
1687287416,86bf619bd2124df4691d08faf5e9d2a9,PennController,6,0,experiment,NULL,PennController,5,_Trial_,Start,1687287205918,5a6a206f3fb6420001c2d9ef,5a6a206f3fb6420001c2d9ef,3,clean,critical,D,75,clean65.jpg,clean85.jpg,high,NULL
1687287416,86bf619bd2124df4691d08faf5e9d2a9,PennController,6,0,experiment,NULL,PennController,5,_Header_,Start,1687287205918,5a6a206f3fb6420001c2d9ef,5a6a206f3fb6420001c2d9ef,3,clean,critical,D,75,clean65.jpg,clean85.jpg,high,NULL
1687287416,86bf619bd2124df4691d08faf5e9d2a9,PennController,6,0,experiment,NULL,PennController,5,_Header_,End,1687287205918,5a6a206f3fb6420001c2d9ef,5a6a206f3fb6420001c2d9ef,3,clean,critical,D,75,clean65.jpg,clean85.jpg,high,NULL
1687287416,86bf619bd2124df4691d08faf5e9d2a9,PennController,6,0,experiment,NULL,Canvas,canvas6,Print,NA,1687287213605,5a6a206f3fb6420001c2d9ef,5a6a206f3fb6420001c2d9ef,3,clean,critical,D,75,clean65.jpg,clean85.jpg,high,NULL
1687287416,86bf619bd2124df4691d08faf5e9d2a9,PennController,6,0,experiment,NULL,Video,progression,buffer,0.003276,1687287209440,5a6a206f3fb6420001c2d9ef,5a6a206f3fb6420001c2d9ef,3,clean,critical,D,75,clean65.jpg,clean85.jpg,high,NULL
1687287416,86bf619bd2124df4691d08faf5e9d2a9,PennController,6,0,experiment,NULL,Selector,choice,Selection,option2,1687287216633,5a6a206f3fb6420001c2d9ef,5a6a206f3fb6420001c2d9ef,3,clean,critical,D,75,clean65.jpg,clean85.jpg,high,option1;option2
1687287416,86bf619bd2124df4691d08faf5e9d2a9,PennController,6,0,experiment,NULL,PennController,5,_Trial_,End,1687287216634,5a6a206f3fb6420001c2d9ef,5a6a206f3fb6420001c2d9ef,3,clean,critical,D,75,clean65.jpg,clean85.jpg,high,NULL
1687287416,86bf619bd2124df4691d08faf5e9d2a9,PennController,5,0,experiment,NULL,PennController,4,_Trial_,Start,1687287216636,5a6a206f3fb6420001c2d9ef,5a6a206f3fb6420001c2d9ef,2,door,critical,D,50,door40.jpg,door60.jpg,high,NULL
1687287416,86bf619bd2124df4691d08faf5e9d2a9,PennController,5,0,experiment,NULL,PennController,4,_Header_,Start,1687287216636,5a6a206f3fb6420001c2d9ef,5a6a206f3fb6420001c2d9ef,2,door,critical,D,50,door40.jpg,door60.jpg,high,NULL
1687287416,86bf619bd2124df4691d08faf5e9d2a9,PennController,5,0,experiment,NULL,PennController,4,_Header_,End,1687287216636,5a6a206f3fb6420001c2d9ef,5a6a206f3fb6420001c2d9ef,2,door,critical,D,50,door40.jpg,door60.jpg,high,NULL
1687287416,86bf619bd2124df4691d08faf5e9d2a9,PennController,5,0,experiment,NULL,Canvas,canvas6,Print,NA,1687287223326,5a6a206f3fb6420001c2d9ef,5a6a206f3fb6420001c2d9ef,2,door,critical,D,50,door40.jpg,door60.jpg,high,NULL
1687287416,86bf619bd2124df4691d08faf5e9d2a9,PennController,5,0,experiment,NULL,Video,progression,buffer,0.003993,1687287220160,5a6a206f3fb6420001c2d9ef,5a6a206f3fb6420001c2d9ef,2,door,critical,D,50,door40.jpg,door60.jpg,high,NULL
1687287416,86bf619bd2124df4691d08faf5e9d2a9,PennController,5,0,experiment,NULL,Selector,choice,Selection,option2,1687287228544,5a6a206f3fb6420001c2d9ef,5a6a206f3fb6420001c2d9ef,2,door,critical,D,50,door40.jpg,door60.jpg,high,option1;option2
1687287416,86bf619bd2124df4691d08faf5e9d2a9,PennController,5,0,experiment,NULL,PennController,4,_Trial_,End,1687287228547,5a6a206f3fb6420001c2d9ef,5a6a206f3fb6420001c2d9ef,2,door,critical,D,50,door40.jpg,door60.jpg,high,NULL
1687287416,86bf619bd2124df4691d08faf5e9d2a9,PennController,26,0,experiment,NULL,PennController,25,_Trial_,Start,1687287228549,5a6a206f3fb6420001c2d9ef,5a6a206f3fb6420001c2d9ef,23,color,filler,D,50,color40.jpg,color60.jpg,GoalB,NULL
1687287416,86bf619bd2124df4691d08faf5e9d2a9,PennController,26,0,experiment,NULL,PennController,25,_Header_,Start,1687287228549,5a6a206f3fb6420001c2d9ef,5a6a206f3fb6420001c2d9ef,23,color,filler,D,50,color40.jpg,color60.jpg,GoalB,NULL
1687287416,86bf619bd2124df4691d08faf5e9d2a9,PennController,26,0,experiment,NULL,PennController,25,_Header_,End,1687287228549,5a6a206f3fb6420001c2d9ef,5a6a206f3fb6420001c2d9ef,23,color,filler,D,50,color40.jpg,color60.jpg,GoalB,NULL
1687287416,86bf619bd2124df4691d08faf5e9d2a9,PennController,26,0,experiment,NULL,Canvas,canvas6,Print,NA,1687287235246,5a6a206f3fb6420001c2d9ef,5a6a206f3fb6420001c2d9ef,23,color,filler,D,50,color40.jpg,color60.jpg,GoalB,NULL
1687287416,86bf619bd2124df4691d08faf5e9d2a9,PennController,26,0,experiment,NULL,Video,progression,buffer,0.006574,1687287232079,5a6a206f3fb6420001c2d9ef,5a6a206f3fb6420001c2d9ef,23,color,filler,D,50,color40.jpg,color60.jpg,GoalB,NULL
1687287416,86bf619bd2124df4691d08faf5e9d2a9,PennController,26,0,experiment,NULL,Selector,choice,Selection,option2,1687287238937,5a6a206f3fb6420001c2d9ef,5a6a206f3fb6420001c2d9ef,23,color,filler,D,50,color40.jpg,color60.jpg,GoalB,option1;option2
1687287416,86bf619bd2124df4691d08faf5e9d2a9,PennController,26,0,experiment,NULL,PennController,25,_Trial_,End,1687287238939,5a6a206f3fb6420001c2d9ef,5a6a206f3fb6420001c2d9ef,23,color,filler,D,50,color40.jpg,color60.jpg,GoalB,NULL
1687287416,86bf619bd2124df4691d08faf5e9d2a9,PennController,28,0,experiment,NULL,PennController,27,_Trial_,Start,1687287238940,5a6a206f3fb6420001c2d9ef,5a6a206f3fb6420001c2d9ef,25,house,filler,D,25,house15.jpg,house35.jpg,GoalB,NULL
1687287416,86bf619bd2124df4691d08faf5e9d2a9,PennController,28,0,experiment,NULL,PennController,27,_Header_,Start,1687287238940,5a6a206f3fb6420001c2d9ef,5a6a206f3fb6420001c2d9ef,25,house,filler,D,25,house15.jpg,house35.jpg,GoalB,NULL
1687287416,86bf619bd2124df4691d08faf5e9d2a9,PennController,28,0,experiment,NULL,PennController,27,_Header_,End,1687287238940,5a6a206f3fb6420001c2d9ef,5a6a206f3fb6420001c2d9ef,25,house,filler,D,25,house15.jpg,house35.jpg,GoalB,NULL
1687287416,86bf619bd2124df4691d08faf5e9d2a9,PennController,28,0,experiment,NULL,Canvas,canvas6,Print,NA,1687287244634,5a6a206f3fb6420001c2d9ef,5a6a206f3fb6420001c2d9ef,25,house,filler,D,25,house15.jpg,house35.jpg,GoalB,NULL
1687287416,86bf619bd2124df4691d08faf5e9d2a9,PennController,28,0,experiment,NULL,Video,progression,buffer,0.002659,1687287242468,5a6a206f3fb6420001c2d9ef,5a6a206f3fb6420001c2d9ef,25,house,filler,D,25,house15.jpg,house35.jpg,GoalB,NULL
1687287416,86bf619bd2124df4691d08faf5e9d2a9,PennController,28,0,experiment,NULL,Selector,choice,Selection,option2,1687287247096,5a6a206f3fb6420001c2d9ef,5a6a206f3fb6420001c2d9ef,25,house,filler,D,25,house15.jpg,house35.jpg,GoalB,option2;option1
1687287416,86bf619bd2124df4691d08faf5e9d2a9,PennController,28,0,experiment,NULL,PennController,27,_Trial_,End,1687287247098,5a6a206f3fb6420001c2d9ef,5a6a206f3fb6420001c2d9ef,25,house,filler,D,25,house15.jpg,house35.jpg,GoalB,NULL
1687287416,86bf619bd2124df4691d08faf5e9d2a9,PennController,8,0,experiment,NULL,PennController,7,_Trial_,Start,1687287247100,5a6a206f3fb6420001c2d9ef,5a6a206f3fb6420001c2d9ef,5,book,critical,D,50,book40.jpg,book60.jpg,high,NULL
1687287416,86bf619bd2124df4691d08faf5e9d2a9,PennController,8,0,experiment,NULL,PennController,7,_Header_,Start,1687287247100,5a6a206f3fb6420001c2d9ef,5a6a206f3fb6420001c2d9ef,5,book,critical,D,50,book40.jpg,book60.jpg,high,NULL
1687287416,86bf619bd2124df4691d08faf5e9d2a9,PennController,8,0,experiment,NULL,PennController,7,_Header_,End,1687287247100,5a6a206f3fb6420001c2d9ef,5a6a206f3fb6420001c2d9ef,5,book,critical,D,50,book40.jpg,book60.jpg,high,NULL
1687287416,86bf619bd2124df4691d08faf5e9d2a9,PennController,8,0,experiment,NULL,Canvas,canvas6,Print,NA,1687287253806,5a6a206f3fb6420001c2d9ef,5a6a206f3fb6420001c2d9ef,5,book,critical,D,50,book40.jpg,book60.jpg,high,NULL
1687287416,86bf619bd2124df4691d08faf5e9d2a9,PennController,8,0,experiment,NULL,Video,progression,buffer,0.003667,1687287250629,5a6a206f3fb6420001c2d9ef,5a6a206f3fb6420001c2d9ef,5,book,critical,D,50,book40.jpg,book60.jpg,high,NULL
1687287416,86bf619bd2124df4691d08faf5e9d2a9,PennController,8,0,experiment,NULL,Selector,choice,Selection,option2,1687287255532,5a6a206f3fb6420001c2d9ef,5a6a206f3fb6420001c2d9ef,5,book,critical,D,50,book40.jpg,book60.jpg,high,option2;option1
1687287416,86bf619bd2124df4691d08faf5e9d2a9,PennController,8,0,experiment,NULL,PennController,7,_Trial_,End,1687287255533,5a6a206f3fb6420001c2d9ef,5a6a206f3fb6420001c2d9ef,5,book,critical,D,50,book40.jpg,book60.jpg,high,NULL
1687287416,86bf619bd2124df4691d08faf5e9d2a9,PennController,20,0,experiment,NULL,PennController,19,_Trial_,Start,1687287255534,5a6a206f3fb6420001c2d9ef,5a6a206f3fb6420001c2d9ef,17,roll,critical,D,50,roll40.jpg,roll60.jpg,high,NULL
1687287416,86bf619bd2124df4691d08faf5e9d2a9,PennController,20,0,experiment,NULL,PennController,19,_Header_,Start,1687287255534,5a6a206f3fb6420001c2d9ef,5a6a206f3fb6420001c2d9ef,17,roll,critical,D,50,roll40.jpg,roll60.jpg,high,NULL
1687287416,86bf619bd2124df4691d08faf5e9d2a9,PennController,20,0,experiment,NULL,PennController,19,_Header_,End,1687287255534,5a6a206f3fb6420001c2d9ef,5a6a206f3fb6420001c2d9ef,17,roll,critical,D,50,roll40.jpg,roll60.jpg,high,NULL
1687287416,86bf619bd2124df4691d08faf5e9d2a9,PennController,20,0,experiment,NULL,Canvas,canvas6,Print,NA,1687287262277,5a6a206f3fb6420001c2d9ef,5a6a206f3fb6420001c2d9ef,17,roll,critical,D,50,roll40.jpg,roll60.jpg,high,NULL
1687287416,86bf619bd2124df4691d08faf5e9d2a9,PennController,20,0,experiment,NULL,Video,progression,buffer,0,1687287259066,5a6a206f3fb6420001c2d9ef,5a6a206f3fb6420001c2d9ef,17,roll,critical,D,50,roll40.jpg,roll60.jpg,high,NULL
1687287416,86bf619bd2124df4691d08faf5e9d2a9,PennController,20,0,experiment,NULL,Selector,choice,Selection,option1,1687287264464,5a6a206f3fb6420001c2d9ef,5a6a206f3fb6420001c2d9ef,17,roll,critical,D,50,roll40.jpg,roll60.jpg,high,option1;option2
1687287416,86bf619bd2124df4691d08faf5e9d2a9,PennController,20,0,experiment,NULL,PennController,19,_Trial_,End,1687287264465,5a6a206f3fb6420001c2d9ef,5a6a206f3fb6420001c2d9ef,17,roll,critical,D,50,roll40.jpg,roll60.jpg,high,NULL
1687287416,86bf619bd2124df4691d08faf5e9d2a9,PennController,17,0,experiment,NULL,PennController,16,_Trial_,Start,1687287264466,5a6a206f3fb6420001c2d9ef,5a6a206f3fb6420001c2d9ef,14,cover,critical,D,50,cover42.jpg,cover60.jpg,high,NULL
1687287416,86bf619bd2124df4691d08faf5e9d2a9,PennController,17,0,experiment,NULL,PennController,16,_Header_,Start,1687287264466,5a6a206f3fb6420001c2d9ef,5a6a206f3fb6420001c2d9ef,14,cover,critical,D,50,cover42.jpg,cover60.jpg,high,NULL
1687287416,86bf619bd2124df4691d08faf5e9d2a9,PennController,17,0,experiment,NULL,PennController,16,_Header_,End,1687287264466,5a6a206f3fb6420001c2d9ef,5a6a206f3fb6420001c2d9ef,14,cover,critical,D,50,cover42.jpg,cover60.jpg,high,NULL
1687287416,86bf619bd2124df4691d08faf5e9d2a9,PennController,17,0,experiment,NULL,Canvas,canvas6,Print,NA,1687287272556,5a6a206f3fb6420001c2d9ef,5a6a206f3fb6420001c2d9ef,14,cover,critical,D,50,cover42.jpg,cover60.jpg,high,NULL
1687287416,86bf619bd2124df4691d08faf5e9d2a9,PennController,17,0,experiment,NULL,Video,progression,buffer,0.002986,1687287267992,5a6a206f3fb6420001c2d9ef,5a6a206f3fb6420001c2d9ef,14,cover,critical,D,50,cover42.jpg,cover60.jpg,high,NULL
1687287416,86bf619bd2124df4691d08faf5e9d2a9,PennController,17,0,experiment,NULL,Selector,choice,Selection,option2,1687287277148,5a6a206f3fb6420001c2d9ef,5a6a206f3fb6420001c2d9ef,14,cover,critical,D,50,cover42.jpg,cover60.jpg,high,option1;option2
1687287416,86bf619bd2124df4691d08faf5e9d2a9,PennController,17,0,experiment,NULL,PennController,16,_Trial_,End,1687287277149,5a6a206f3fb6420001c2d9ef,5a6a206f3fb6420001c2d9ef,14,cover,critical,D,50,cover42.jpg,cover60.jpg,high,NULL
1687287416,86bf619bd2124df4691d08faf5e9d2a9,PennController,15,0,experiment,NULL,PennController,14,_Trial_,Start,1687287277153,5a6a206f3fb6420001c2d9ef,5a6a206f3fb6420001c2d9ef,12,erase,critical,D,75,erase66.jpg,erase84.jpg,high,NULL
1687287416,86bf619bd2124df4691d08faf5e9d2a9,PennController,15,0,experiment,NULL,PennController,14,_Header_,Start,1687287277153,5a6a206f3fb6420001c2d9ef,5a6a206f3fb6420001c2d9ef,12,erase,critical,D,75,erase66.jpg,erase84.jpg,high,NULL
1687287416,86bf619bd2124df4691d08faf5e9d2a9,PennController,15,0,experiment,NULL,PennController,14,_Header_,End,1687287277153,5a6a206f3fb6420001c2d9ef,5a6a206f3fb6420001c2d9ef,12,erase,critical,D,75,erase66.jpg,erase84.jpg,high,NULL
1687287416,86bf619bd2124df4691d08faf5e9d2a9,PennController,15,0,experiment,NULL,Canvas,canvas6,Print,NA,1687287286847,5a6a206f3fb6420001c2d9ef,5a6a206f3fb6420001c2d9ef,12,erase,critical,D,75,erase66.jpg,erase84.jpg,high,NULL
1687287416,86bf619bd2124df4691d08faf5e9d2a9,PennController,15,0,experiment,NULL,Video,progression,buffer,0.003207,1687287280680,5a6a206f3fb6420001c2d9ef,5a6a206f3fb6420001c2d9ef,12,erase,critical,D,75,erase66.jpg,erase84.jpg,high,NULL
1687287416,86bf619bd2124df4691d08faf5e9d2a9,PennController,15,0,experiment,NULL,Selector,choice,Selection,option2,1687287288973,5a6a206f3fb6420001c2d9ef,5a6a206f3fb6420001c2d9ef,12,erase,critical,D,75,erase66.jpg,erase84.jpg,high,option2;option1
1687287416,86bf619bd2124df4691d08faf5e9d2a9,PennController,15,0,experiment,NULL,PennController,14,_Trial_,End,1687287288976,5a6a206f3fb6420001c2d9ef,5a6a206f3fb6420001c2d9ef,12,erase,critical,D,75,erase66.jpg,erase84.jpg,high,NULL
1687287416,86bf619bd2124df4691d08faf5e9d2a9,PennController,10,0,experiment,NULL,PennController,9,_Trial_,Start,1687287288977,5a6a206f3fb6420001c2d9ef,5a6a206f3fb6420001c2d9ef,7,stack,critical,D,25,stack15.jpg,stack35.jpg,high,NULL
1687287416,86bf619bd2124df4691d08faf5e9d2a9,PennController,10,0,experiment,NULL,PennController,9,_Header_,Start,1687287288977,5a6a206f3fb6420001c2d9ef,5a6a206f3fb6420001c2d9ef,7,stack,critical,D,25,stack15.jpg,stack35.jpg,high,NULL
1687287416,86bf619bd2124df4691d08faf5e9d2a9,PennController,10,0,experiment,NULL,PennController,9,_Header_,End,1687287288977,5a6a206f3fb6420001c2d9ef,5a6a206f3fb6420001c2d9ef,7,stack,critical,D,25,stack15.jpg,stack35.jpg,high,NULL
1687287416,86bf619bd2124df4691d08faf5e9d2a9,PennController,10,0,experiment,NULL,Canvas,canvas6,Print,NA,1687287294667,5a6a206f3fb6420001c2d9ef,5a6a206f3fb6420001c2d9ef,7,stack,critical,D,25,stack15.jpg,stack35.jpg,high,NULL
1687287416,86bf619bd2124df4691d08faf5e9d2a9,PennController,10,0,experiment,NULL,Video,progression,buffer,0.003738,1687287292502,5a6a206f3fb6420001c2d9ef,5a6a206f3fb6420001c2d9ef,7,stack,critical,D,25,stack15.jpg,stack35.jpg,high,NULL
1687287416,86bf619bd2124df4691d08faf5e9d2a9,PennController,10,0,experiment,NULL,Selector,choice,Selection,option1,1687287296498,5a6a206f3fb6420001c2d9ef,5a6a206f3fb6420001c2d9ef,7,stack,critical,D,25,stack15.jpg,stack35.jpg,high,option2;option1
1687287416,86bf619bd2124df4691d08faf5e9d2a9,PennController,10,0,experiment,NULL,PennController,9,_Trial_,End,1687287296499,5a6a206f3fb6420001c2d9ef,5a6a206f3fb6420001c2d9ef,7,stack,critical,D,25,stack15.jpg,stack35.jpg,high,NULL
1687287416,86bf619bd2124df4691d08faf5e9d2a9,PennController,21,0,experiment,NULL,PennController,20,_Trial_,Start,1687287296502,5a6a206f3fb6420001c2d9ef,5a6a206f3fb6420001c2d9ef,18,ball,critical,D,75,ball65.jpg,ball85.jpg,high,NULL
1687287416,86bf619bd2124df4691d08faf5e9d2a9,PennController,21,0,experiment,NULL,PennController,20,_Header_,Start,1687287296502,5a6a206f3fb6420001c2d9ef,5a6a206f3fb6420001c2d9ef,18,ball,critical,D,75,ball65.jpg,ball85.jpg,high,NULL
1687287416,86bf619bd2124df4691d08faf5e9d2a9,PennController,21,0,experiment,NULL,PennController,20,_Header_,End,1687287296502,5a6a206f3fb6420001c2d9ef,5a6a206f3fb6420001c2d9ef,18,ball,critical,D,75,ball65.jpg,ball85.jpg,high,NULL
1687287416,86bf619bd2124df4691d08faf5e9d2a9,PennController,21,0,experiment,NULL,Canvas,canvas6,Print,NA,1687287304204,5a6a206f3fb6420001c2d9ef,5a6a206f3fb6420001c2d9ef,18,ball,critical,D,75,ball65.jpg,ball85.jpg,high,NULL
1687287416,86bf619bd2124df4691d08faf5e9d2a9,PennController,21,0,experiment,NULL,Video,progression,buffer,0,1687287300022,5a6a206f3fb6420001c2d9ef,5a6a206f3fb6420001c2d9ef,18,ball,critical,D,75,ball65.jpg,ball85.jpg,high,NULL
1687287416,86bf619bd2124df4691d08faf5e9d2a9,PennController,21,0,experiment,NULL,Selector,choice,Selection,option2,1687287306932,5a6a206f3fb6420001c2d9ef,5a6a206f3fb6420001c2d9ef,18,ball,critical,D,75,ball65.jpg,ball85.jpg,high,option1;option2
1687287416,86bf619bd2124df4691d08faf5e9d2a9,PennController,21,0,experiment,NULL,PennController,20,_Trial_,End,1687287306933,5a6a206f3fb6420001c2d9ef,5a6a206f3fb6420001c2d9ef,18,ball,critical,D,75,ball65.jpg,ball85.jpg,high,NULL
1687287416,86bf619bd2124df4691d08faf5e9d2a9,PennController,23,0,experiment,NULL,PennController,22,_Trial_,Start,1687287306935,5a6a206f3fb6420001c2d9ef,5a6a206f3fb6420001c2d9ef,20,cat,filler,D,50,cat40.jpg,cat60.jpg,GoalA,NULL
1687287416,86bf619bd2124df4691d08faf5e9d2a9,PennController,23,0,experiment,NULL,PennController,22,_Header_,Start,1687287306935,5a6a206f3fb6420001c2d9ef,5a6a206f3fb6420001c2d9ef,20,cat,filler,D,50,cat40.jpg,cat60.jpg,GoalA,NULL
1687287416,86bf619bd2124df4691d08faf5e9d2a9,PennController,23,0,experiment,NULL,PennController,22,_Header_,End,1687287306935,5a6a206f3fb6420001c2d9ef,5a6a206f3fb6420001c2d9ef,20,cat,filler,D,50,cat40.jpg,cat60.jpg,GoalA,NULL
1687287416,86bf619bd2124df4691d08faf5e9d2a9,PennController,23,0,experiment,NULL,Canvas,canvas6,Print,NA,1687287313625,5a6a206f3fb6420001c2d9ef,5a6a206f3fb6420001c2d9ef,20,cat,filler,D,50,cat40.jpg,cat60.jpg,GoalA,NULL
1687287416,86bf619bd2124df4691d08faf5e9d2a9,PennController,23,0,experiment,NULL,Video,progression,buffer,0.003353,1687287310460,5a6a206f3fb6420001c2d9ef,5a6a206f3fb6420001c2d9ef,20,cat,filler,D,50,cat40.jpg,cat60.jpg,GoalA,NULL
1687287416,86bf619bd2124df4691d08faf5e9d2a9,PennController,23,0,experiment,NULL,Selector,choice,Selection,option2,1687287314837,5a6a206f3fb6420001c2d9ef,5a6a206f3fb6420001c2d9ef,20,cat,filler,D,50,cat40.jpg,cat60.jpg,GoalA,option1;option2
1687287416,86bf619bd2124df4691d08faf5e9d2a9,PennController,23,0,experiment,NULL,PennController,22,_Trial_,End,1687287314838,5a6a206f3fb6420001c2d9ef,5a6a206f3fb6420001c2d9ef,20,cat,filler,D,50,cat40.jpg,cat60.jpg,GoalA,NULL
1687287416,86bf619bd2124df4691d08faf5e9d2a9,PennController,9,0,experiment,NULL,PennController,8,_Trial_,Start,1687287314839,5a6a206f3fb6420001c2d9ef,5a6a206f3fb6420001c2d9ef,6,flower,critical,D,75,flower65.jpg,flower85.jpg,high,NULL
1687287416,86bf619bd2124df4691d08faf5e9d2a9,PennController,9,0,experiment,NULL,PennController,8,_Header_,Start,1687287314839,5a6a206f3fb6420001c2d9ef,5a6a206f3fb6420001c2d9ef,6,flower,critical,D,75,flower65.jpg,flower85.jpg,high,NULL
1687287416,86bf619bd2124df4691d08faf5e9d2a9,PennController,9,0,experiment,NULL,PennController,8,_Header_,End,1687287314839,5a6a206f3fb6420001c2d9ef,5a6a206f3fb6420001c2d9ef,6,flower,critical,D,75,flower65.jpg,flower85.jpg,high,NULL
1687287416,86bf619bd2124df4691d08faf5e9d2a9,PennController,9,0,experiment,NULL,Canvas,canvas6,Print,NA,1687287322523,5a6a206f3fb6420001c2d9ef,5a6a206f3fb6420001c2d9ef,6,flower,critical,D,75,flower65.jpg,flower85.jpg,high,NULL
1687287416,86bf619bd2124df4691d08faf5e9d2a9,PennController,9,0,experiment,NULL,Video,progression,buffer,0.003104,1687287318362,5a6a206f3fb6420001c2d9ef,5a6a206f3fb6420001c2d9ef,6,flower,critical,D,75,flower65.jpg,flower85.jpg,high,NULL
1687287416,86bf619bd2124df4691d08faf5e9d2a9,PennController,9,0,experiment,NULL,Selector,choice,Selection,option1,1687287325438,5a6a206f3fb6420001c2d9ef,5a6a206f3fb6420001c2d9ef,6,flower,critical,D,75,flower65.jpg,flower85.jpg,high,option1;option2
1687287416,86bf619bd2124df4691d08faf5e9d2a9,PennController,9,0,experiment,NULL,PennController,8,_Trial_,End,1687287325440,5a6a206f3fb6420001c2d9ef,5a6a206f3fb6420001c2d9ef,6,flower,critical,D,75,flower65.jpg,flower85.jpg,high,NULL
1687287416,86bf619bd2124df4691d08faf5e9d2a9,PennController,13,0,experiment,NULL,PennController,12,_Trial_,Start,1687287325441,5a6a206f3fb6420001c2d9ef,5a6a206f3fb6420001c2d9ef,10,train,critical,D,25,train15.jpg,train35.jpg,high,NULL
1687287416,86bf619bd2124df4691d08faf5e9d2a9,PennController,13,0,experiment,NULL,PennController,12,_Header_,Start,1687287325441,5a6a206f3fb6420001c2d9ef,5a6a206f3fb6420001c2d9ef,10,train,critical,D,25,train15.jpg,train35.jpg,high,NULL
1687287416,86bf619bd2124df4691d08faf5e9d2a9,PennController,13,0,experiment,NULL,PennController,12,_Header_,End,1687287325441,5a6a206f3fb6420001c2d9ef,5a6a206f3fb6420001c2d9ef,10,train,critical,D,25,train15.jpg,train35.jpg,high,NULL
1687287416,86bf619bd2124df4691d08faf5e9d2a9,PennController,13,0,experiment,NULL,Canvas,canvas6,Print,NA,1687287331150,5a6a206f3fb6420001c2d9ef,5a6a206f3fb6420001c2d9ef,10,train,critical,D,25,train15.jpg,train35.jpg,high,NULL
1687287416,86bf619bd2124df4691d08faf5e9d2a9,PennController,13,0,experiment,NULL,Video,progression,buffer,0.001263,1687287328974,5a6a206f3fb6420001c2d9ef,5a6a206f3fb6420001c2d9ef,10,train,critical,D,25,train15.jpg,train35.jpg,high,NULL
1687287416,86bf619bd2124df4691d08faf5e9d2a9,PennController,13,0,experiment,NULL,Selector,choice,Selection,option2,1687287342272,5a6a206f3fb6420001c2d9ef,5a6a206f3fb6420001c2d9ef,10,train,critical,D,25,train15.jpg,train35.jpg,high,option1;option2
1687287416,86bf619bd2124df4691d08faf5e9d2a9,PennController,13,0,experiment,NULL,PennController,12,_Trial_,End,1687287342273,5a6a206f3fb6420001c2d9ef,5a6a206f3fb6420001c2d9ef,10,train,critical,D,25,train15.jpg,train35.jpg,high,NULL
1687287416,86bf619bd2124df4691d08faf5e9d2a9,PennController,11,0,experiment,NULL,PennController,10,_Trial_,Start,1687287342276,5a6a206f3fb6420001c2d9ef,5a6a206f3fb6420001c2d9ef,8,cucumber,critical,D,50,cucumber42.jpg,cucumber60.jpg,high,NULL
1687287416,86bf619bd2124df4691d08faf5e9d2a9,PennController,11,0,experiment,NULL,PennController,10,_Header_,Start,1687287342276,5a6a206f3fb6420001c2d9ef,5a6a206f3fb6420001c2d9ef,8,cucumber,critical,D,50,cucumber42.jpg,cucumber60.jpg,high,NULL
1687287416,86bf619bd2124df4691d08faf5e9d2a9,PennController,11,0,experiment,NULL,PennController,10,_Header_,End,1687287342276,5a6a206f3fb6420001c2d9ef,5a6a206f3fb6420001c2d9ef,8,cucumber,critical,D,50,cucumber42.jpg,cucumber60.jpg,high,NULL
1687287416,86bf619bd2124df4691d08faf5e9d2a9,PennController,11,0,experiment,NULL,Canvas,canvas6,Print,NA,1687287350365,5a6a206f3fb6420001c2d9ef,5a6a206f3fb6420001c2d9ef,8,cucumber,critical,D,50,cucumber42.jpg,cucumber60.jpg,high,NULL
1687287416,86bf619bd2124df4691d08faf5e9d2a9,PennController,11,0,experiment,NULL,Video,progression,buffer,0.004564,1687287345799,5a6a206f3fb6420001c2d9ef,5a6a206f3fb6420001c2d9ef,8,cucumber,critical,D,50,cucumber42.jpg,cucumber60.jpg,high,NULL
1687287416,86bf619bd2124df4691d08faf5e9d2a9,PennController,11,0,experiment,NULL,Selector,choice,Selection,option2,1687287352588,5a6a206f3fb6420001c2d9ef,5a6a206f3fb6420001c2d9ef,8,cucumber,critical,D,50,cucumber42.jpg,cucumber60.jpg,high,option2;option1
1687287416,86bf619bd2124df4691d08faf5e9d2a9,PennController,11,0,experiment,NULL,PennController,10,_Trial_,End,1687287352589,5a6a206f3fb6420001c2d9ef,5a6a206f3fb6420001c2d9ef,8,cucumber,critical,D,50,cucumber42.jpg,cucumber60.jpg,high,NULL
1687287416,86bf619bd2124df4691d08faf5e9d2a9,PennController,16,0,experiment,NULL,PennController,15,_Trial_,Start,1687287352589,5a6a206f3fb6420001c2d9ef,5a6a206f3fb6420001c2d9ef,13,mix,critical,D,25,mix15.jpg,mix35.jpg,high,NULL
1687287416,86bf619bd2124df4691d08faf5e9d2a9,PennController,16,0,experiment,NULL,PennController,15,_Header_,Start,1687287352589,5a6a206f3fb6420001c2d9ef,5a6a206f3fb6420001c2d9ef,13,mix,critical,D,25,mix15.jpg,mix35.jpg,high,NULL
1687287416,86bf619bd2124df4691d08faf5e9d2a9,PennController,16,0,experiment,NULL,PennController,15,_Header_,End,1687287352589,5a6a206f3fb6420001c2d9ef,5a6a206f3fb6420001c2d9ef,13,mix,critical,D,25,mix15.jpg,mix35.jpg,high,NULL
1687287416,86bf619bd2124df4691d08faf5e9d2a9,PennController,16,0,experiment,NULL,Canvas,canvas6,Print,NA,1687287358292,5a6a206f3fb6420001c2d9ef,5a6a206f3fb6420001c2d9ef,13,mix,critical,D,25,mix15.jpg,mix35.jpg,high,NULL
1687287416,86bf619bd2124df4691d08faf5e9d2a9,PennController,16,0,experiment,NULL,Video,progression,buffer,0.003741,1687287356112,5a6a206f3fb6420001c2d9ef,5a6a206f3fb6420001c2d9ef,13,mix,critical,D,25,mix15.jpg,mix35.jpg,high,NULL
1687287416,86bf619bd2124df4691d08faf5e9d2a9,PennController,16,0,experiment,NULL,Selector,choice,Selection,option1,1687287360165,5a6a206f3fb6420001c2d9ef,5a6a206f3fb6420001c2d9ef,13,mix,critical,D,25,mix15.jpg,mix35.jpg,high,option2;option1
1687287416,86bf619bd2124df4691d08faf5e9d2a9,PennController,16,0,experiment,NULL,PennController,15,_Trial_,End,1687287360167,5a6a206f3fb6420001c2d9ef,5a6a206f3fb6420001c2d9ef,13,mix,critical,D,25,mix15.jpg,mix35.jpg,high,NULL
1687287416,86bf619bd2124df4691d08faf5e9d2a9,PennController,32,0,experiment,NULL,PennController,31,_Trial_,Start,1687287360169,5a6a206f3fb6420001c2d9ef,5a6a206f3fb6420001c2d9ef,29,frog,filler,D,50,frog40.jpg,frog60.jpg,GoalB,NULL
1687287416,86bf619bd2124df4691d08faf5e9d2a9,PennController,32,0,experiment,NULL,PennController,31,_Header_,Start,1687287360169,5a6a206f3fb6420001c2d9ef,5a6a206f3fb6420001c2d9ef,29,frog,filler,D,50,frog40.jpg,frog60.jpg,GoalB,NULL
1687287416,86bf619bd2124df4691d08faf5e9d2a9,PennController,32,0,experiment,NULL,PennController,31,_Header_,End,1687287360169,5a6a206f3fb6420001c2d9ef,5a6a206f3fb6420001c2d9ef,29,frog,filler,D,50,frog40.jpg,frog60.jpg,GoalB,NULL
1687287416,86bf619bd2124df4691d08faf5e9d2a9,PennController,32,0,experiment,NULL,Canvas,canvas6,Print,NA,1687287366868,5a6a206f3fb6420001c2d9ef,5a6a206f3fb6420001c2d9ef,29,frog,filler,D,50,frog40.jpg,frog60.jpg,GoalB,NULL
1687287416,86bf619bd2124df4691d08faf5e9d2a9,PennController,32,0,experiment,NULL,Video,progression,buffer,0.003578,1687287363692,5a6a206f3fb6420001c2d9ef,5a6a206f3fb6420001c2d9ef,29,frog,filler,D,50,frog40.jpg,frog60.jpg,GoalB,NULL
1687287416,86bf619bd2124df4691d08faf5e9d2a9,PennController,32,0,experiment,NULL,Selector,choice,Selection,option2,1687287371406,5a6a206f3fb6420001c2d9ef,5a6a206f3fb6420001c2d9ef,29,frog,filler,D,50,frog40.jpg,frog60.jpg,GoalB,option2;option1
1687287416,86bf619bd2124df4691d08faf5e9d2a9,PennController,32,0,experiment,NULL,PennController,31,_Trial_,End,1687287371407,5a6a206f3fb6420001c2d9ef,5a6a206f3fb6420001c2d9ef,29,frog,filler,D,50,frog40.jpg,frog60.jpg,GoalB,NULL
1687287416,86bf619bd2124df4691d08faf5e9d2a9,PennController,22,0,experiment,NULL,PennController,21,_Trial_,Start,1687287371409,5a6a206f3fb6420001c2d9ef,5a6a206f3fb6420001c2d9ef,19,cup,filler,D,25,cup15.jpg,cup35.jpg,GoalB,NULL
1687287416,86bf619bd2124df4691d08faf5e9d2a9,PennController,22,0,experiment,NULL,PennController,21,_Header_,Start,1687287371409,5a6a206f3fb6420001c2d9ef,5a6a206f3fb6420001c2d9ef,19,cup,filler,D,25,cup15.jpg,cup35.jpg,GoalB,NULL
1687287416,86bf619bd2124df4691d08faf5e9d2a9,PennController,22,0,experiment,NULL,PennController,21,_Header_,End,1687287371409,5a6a206f3fb6420001c2d9ef,5a6a206f3fb6420001c2d9ef,19,cup,filler,D,25,cup15.jpg,cup35.jpg,GoalB,NULL
1687287416,86bf619bd2124df4691d08faf5e9d2a9,PennController,22,0,experiment,NULL,Canvas,canvas6,Print,NA,1687287377113,5a6a206f3fb6420001c2d9ef,5a6a206f3fb6420001c2d9ef,19,cup,filler,D,25,cup15.jpg,cup35.jpg,GoalB,NULL
1687287416,86bf619bd2124df4691d08faf5e9d2a9,PennController,22,0,experiment,NULL,Video,progression,buffer,0.000044,1687287374939,5a6a206f3fb6420001c2d9ef,5a6a206f3fb6420001c2d9ef,19,cup,filler,D,25,cup15.jpg,cup35.jpg,GoalB,NULL
1687287416,86bf619bd2124df4691d08faf5e9d2a9,PennController,22,0,experiment,NULL,Selector,choice,Selection,option1,1687287383257,5a6a206f3fb6420001c2d9ef,5a6a206f3fb6420001c2d9ef,19,cup,filler,D,25,cup15.jpg,cup35.jpg,GoalB,option1;option2
1687287416,86bf619bd2124df4691d08faf5e9d2a9,PennController,22,0,experiment,NULL,PennController,21,_Trial_,End,1687287383259,5a6a206f3fb6420001c2d9ef,5a6a206f3fb6420001c2d9ef,19,cup,filler,D,25,cup15.jpg,cup35.jpg,GoalB,NULL
1687287416,86bf619bd2124df4691d08faf5e9d2a9,PennController,31,0,experiment,NULL,PennController,30,_Trial_,Start,1687287383260,5a6a206f3fb6420001c2d9ef,5a6a206f3fb6420001c2d9ef,28,sort,filler,D,25,sort15.jpg,sort35.jpg,GoalA,NULL
1687287416,86bf619bd2124df4691d08faf5e9d2a9,PennController,31,0,experiment,NULL,PennController,30,_Header_,Start,1687287383260,5a6a206f3fb6420001c2d9ef,5a6a206f3fb6420001c2d9ef,28,sort,filler,D,25,sort15.jpg,sort35.jpg,GoalA,NULL
1687287416,86bf619bd2124df4691d08faf5e9d2a9,PennController,31,0,experiment,NULL,PennController,30,_Header_,End,1687287383260,5a6a206f3fb6420001c2d9ef,5a6a206f3fb6420001c2d9ef,28,sort,filler,D,25,sort15.jpg,sort35.jpg,GoalA,NULL
1687287416,86bf619bd2124df4691d08faf5e9d2a9,PennController,31,0,experiment,NULL,Canvas,canvas6,Print,NA,1687287388951,5a6a206f3fb6420001c2d9ef,5a6a206f3fb6420001c2d9ef,28,sort,filler,D,25,sort15.jpg,sort35.jpg,GoalA,NULL
1687287416,86bf619bd2124df4691d08faf5e9d2a9,PennController,31,0,experiment,NULL,Video,progression,buffer,0.004374,1687287386788,5a6a206f3fb6420001c2d9ef,5a6a206f3fb6420001c2d9ef,28,sort,filler,D,25,sort15.jpg,sort35.jpg,GoalA,NULL
1687287416,86bf619bd2124df4691d08faf5e9d2a9,PennController,31,0,experiment,NULL,Selector,choice,Selection,option1,1687287394271,5a6a206f3fb6420001c2d9ef,5a6a206f3fb6420001c2d9ef,28,sort,filler,D,25,sort15.jpg,sort35.jpg,GoalA,option2;option1
1687287416,86bf619bd2124df4691d08faf5e9d2a9,PennController,31,0,experiment,NULL,PennController,30,_Trial_,End,1687287394273,5a6a206f3fb6420001c2d9ef,5a6a206f3fb6420001c2d9ef,28,sort,filler,D,25,sort15.jpg,sort35.jpg,GoalA,NULL
1687287416,86bf619bd2124df4691d08faf5e9d2a9,PennController,12,0,experiment,NULL,PennController,11,_Trial_,Start,1687287394275,5a6a206f3fb6420001c2d9ef,5a6a206f3fb6420001c2d9ef,9,cake,critical,D,75,cake66.jpg,cake84.jpg,high,NULL
1687287416,86bf619bd2124df4691d08faf5e9d2a9,PennController,12,0,experiment,NULL,PennController,11,_Header_,Start,1687287394275,5a6a206f3fb6420001c2d9ef,5a6a206f3fb6420001c2d9ef,9,cake,critical,D,75,cake66.jpg,cake84.jpg,high,NULL
1687287416,86bf619bd2124df4691d08faf5e9d2a9,PennController,12,0,experiment,NULL,PennController,11,_Header_,End,1687287394275,5a6a206f3fb6420001c2d9ef,5a6a206f3fb6420001c2d9ef,9,cake,critical,D,75,cake66.jpg,cake84.jpg,high,NULL
1687287416,86bf619bd2124df4691d08faf5e9d2a9,PennController,12,0,experiment,NULL,Canvas,canvas6,Print,NA,1687287403972,5a6a206f3fb6420001c2d9ef,5a6a206f3fb6420001c2d9ef,9,cake,critical,D,75,cake66.jpg,cake84.jpg,high,NULL
1687287416,86bf619bd2124df4691d08faf5e9d2a9,PennController,12,0,experiment,NULL,Video,progression,buffer,0.005569,1687287397801,5a6a206f3fb6420001c2d9ef,5a6a206f3fb6420001c2d9ef,9,cake,critical,D,75,cake66.jpg,cake84.jpg,high,NULL
1687287416,86bf619bd2124df4691d08faf5e9d2a9,PennController,12,0,experiment,NULL,Selector,choice,Selection,option2,1687287407166,5a6a206f3fb6420001c2d9ef,5a6a206f3fb6420001c2d9ef,9,cake,critical,D,75,cake66.jpg,cake84.jpg,high,option2;option1
1687287416,86bf619bd2124df4691d08faf5e9d2a9,PennController,12,0,experiment,NULL,PennController,11,_Trial_,End,1687287407167,5a6a206f3fb6420001c2d9ef,5a6a206f3fb6420001c2d9ef,9,cake,critical,D,75,cake66.jpg,cake84.jpg,high,NULL
1687287416,86bf619bd2124df4691d08faf5e9d2a9,PennController,14,0,experiment,NULL,PennController,13,_Trial_,Start,1687287407168,5a6a206f3fb6420001c2d9ef,5a6a206f3fb6420001c2d9ef,11,beads,critical,D,50,beads40.jpg,beads60.jpg,high,NULL
1687287416,86bf619bd2124df4691d08faf5e9d2a9,PennController,14,0,experiment,NULL,PennController,13,_Header_,Start,1687287407168,5a6a206f3fb6420001c2d9ef,5a6a206f3fb6420001c2d9ef,11,beads,critical,D,50,beads40.jpg,beads60.jpg,high,NULL
1687287416,86bf619bd2124df4691d08faf5e9d2a9,PennController,14,0,experiment,NULL,PennController,13,_Header_,End,1687287407168,5a6a206f3fb6420001c2d9ef,5a6a206f3fb6420001c2d9ef,11,beads,critical,D,50,beads40.jpg,beads60.jpg,high,NULL
1687287416,86bf619bd2124df4691d08faf5e9d2a9,PennController,14,0,experiment,NULL,Canvas,canvas6,Print,NA,1687287413858,5a6a206f3fb6420001c2d9ef,5a6a206f3fb6420001c2d9ef,11,beads,critical,D,50,beads40.jpg,beads60.jpg,high,NULL
1687287416,86bf619bd2124df4691d08faf5e9d2a9,PennController,14,0,experiment,NULL,Video,progression,buffer,0.004499,1687287410693,5a6a206f3fb6420001c2d9ef,5a6a206f3fb6420001c2d9ef,11,beads,critical,D,50,beads40.jpg,beads60.jpg,high,NULL
1687287416,86bf619bd2124df4691d08faf5e9d2a9,PennController,14,0,experiment,NULL,Selector,choice,Selection,option2,1687287415693,5a6a206f3fb6420001c2d9ef,5a6a206f3fb6420001c2d9ef,11,beads,critical,D,50,beads40.jpg,beads60.jpg,high,option2;option1
1687287416,86bf619bd2124df4691d08faf5e9d2a9,PennController,14,0,experiment,NULL,PennController,13,_Trial_,End,1687287415694,5a6a206f3fb6420001c2d9ef,5a6a206f3fb6420001c2d9ef,11,beads,critical,D,50,beads40.jpg,beads60.jpg,high,NULL
