#
# Results on Tuesday June 20 2023 18:51:53 UTC
# USER AGENT: Mozilla/5.0 (Windows NT 10.0; Win64; x64) AppleWebKit/537.36 (KHTML, like Gecko) Chrome/114.0.0.0 Safari/537.36
# Design number was non-random = 3
#
# Columns below this comment are as follows:
# 1. Results reception time.
# 2. MD5 hash of participant's IP address.
# 3. Controller name.
# 4. Order number of item.
# 5. Inner element number.
# 6. Label.
# 7. Latin Square Group.
# 8. PennElementType.
# 9. PennElementName.
# 10. Parameter.
# 11. Value.
# 12. EventTime.
# 13. PROLIFIC_ID.
# 14. Comments.
1687287113,dc7589c45a6d036806031189cebf7db6,PennController,2,0,consent,NULL,PennController,0,_Trial_,Start,1687286815912,6054d018e3ad1cd936afe6a7,NULL
1687287113,dc7589c45a6d036806031189cebf7db6,PennController,2,0,consent,NULL,PennController,0,_Header_,Start,1687286815912,6054d018e3ad1cd936afe6a7,NULL
1687287113,dc7589c45a6d036806031189cebf7db6,PennController,2,0,consent,NULL,PennController,0,_Header_,End,1687286815913,6054d018e3ad1cd936afe6a7,NULL
1687287113,dc7589c45a6d036806031189cebf7db6,PennController,2,0,consent,NULL,PennController,0,_Trial_,End,1687286820959,6054d018e3ad1cd936afe6a7,NULL
# Columns below this comment are as follows:
# 14. ID.
# 15. Comments.
1687287113,dc7589c45a6d036806031189cebf7db6,PennController,3,0,intro,NULL,PennController,1,_Trial_,Start,1687286820977,6054d018e3ad1cd936afe6a7,6054d018e3ad1cd936afe6a7,NULL
1687287113,dc7589c45a6d036806031189cebf7db6,PennController,3,0,intro,NULL,PennController,1,_Header_,Start,1687286820977,6054d018e3ad1cd936afe6a7,6054d018e3ad1cd936afe6a7,NULL
1687287113,dc7589c45a6d036806031189cebf7db6,PennController,3,0,intro,NULL,PennController,1,_Header_,End,1687286820977,6054d018e3ad1cd936afe6a7,6054d018e3ad1cd936afe6a7,NULL
1687287113,dc7589c45a6d036806031189cebf7db6,PennController,3,0,intro,NULL,PennController,1,_Trial_,End,1687286840593,6054d018e3ad1cd936afe6a7,6054d018e3ad1cd936afe6a7,NULL
# Columns below this comment are as follows:
# 15. item_number.
# 16. item.
# 17. type.
# 18. Group.
# 19. prog.
# 20. prev_image.
# 21. next_image.
# 22. height.
# 23. Comments.
1687287113,dc7589c45a6d036806031189cebf7db6,PennController,18,0,experiment,NULL,PennController,17,_Trial_,Start,1687286840594,6054d018e3ad1cd936afe6a7,6054d018e3ad1cd936afe6a7,15,zip,critical,D,75,zip65.jpg,zip85.jpg,high,NULL
1687287113,dc7589c45a6d036806031189cebf7db6,PennController,18,0,experiment,NULL,PennController,17,_Header_,Start,1687286840594,6054d018e3ad1cd936afe6a7,6054d018e3ad1cd936afe6a7,15,zip,critical,D,75,zip65.jpg,zip85.jpg,high,NULL
1687287113,dc7589c45a6d036806031189cebf7db6,PennController,18,0,experiment,NULL,PennController,17,_Header_,End,1687286840594,6054d018e3ad1cd936afe6a7,6054d018e3ad1cd936afe6a7,15,zip,critical,D,75,zip65.jpg,zip85.jpg,high,NULL
1687287113,dc7589c45a6d036806031189cebf7db6,PennController,18,0,experiment,NULL,Canvas,canvas6,Print,NA,1687286847552,6054d018e3ad1cd936afe6a7,6054d018e3ad1cd936afe6a7,15,zip,critical,D,75,zip65.jpg,zip85.jpg,high,NULL
1687287113,dc7589c45a6d036806031189cebf7db6,PennController,18,0,experiment,NULL,Video,progression,buffer,0.005931,1687286844155,6054d018e3ad1cd936afe6a7,6054d018e3ad1cd936afe6a7,15,zip,critical,D,75,zip65.jpg,zip85.jpg,high,NULL
1687287113,dc7589c45a6d036806031189cebf7db6,PennController,18,0,experiment,NULL,Selector,choice,Selection,option2,1687286853675,6054d018e3ad1cd936afe6a7,6054d018e3ad1cd936afe6a7,15,zip,critical,D,75,zip65.jpg,zip85.jpg,high,option1;option2
1687287113,dc7589c45a6d036806031189cebf7db6,PennController,18,0,experiment,NULL,PennController,17,_Trial_,End,1687286853681,6054d018e3ad1cd936afe6a7,6054d018e3ad1cd936afe6a7,15,zip,critical,D,75,zip65.jpg,zip85.jpg,high,NULL
1687287113,dc7589c45a6d036806031189cebf7db6,PennController,19,0,experiment,NULL,PennController,18,_Trial_,Start,1687286853690,6054d018e3ad1cd936afe6a7,6054d018e3ad1cd936afe6a7,16,blinds,critical,D,25,blinds15.jpg,blinds33.jpg,high,NULL
1687287113,dc7589c45a6d036806031189cebf7db6,PennController,19,0,experiment,NULL,PennController,18,_Header_,Start,1687286853690,6054d018e3ad1cd936afe6a7,6054d018e3ad1cd936afe6a7,16,blinds,critical,D,25,blinds15.jpg,blinds33.jpg,high,NULL
1687287113,dc7589c45a6d036806031189cebf7db6,PennController,19,0,experiment,NULL,PennController,18,_Header_,End,1687286853690,6054d018e3ad1cd936afe6a7,6054d018e3ad1cd936afe6a7,16,blinds,critical,D,25,blinds15.jpg,blinds33.jpg,high,NULL
1687287113,dc7589c45a6d036806031189cebf7db6,PennController,19,0,experiment,NULL,Canvas,canvas6,Print,NA,1687286860005,6054d018e3ad1cd936afe6a7,6054d018e3ad1cd936afe6a7,16,blinds,critical,D,25,blinds15.jpg,blinds33.jpg,high,NULL
1687287113,dc7589c45a6d036806031189cebf7db6,PennController,19,0,experiment,NULL,Video,progression,buffer,0.009982,1687286857242,6054d018e3ad1cd936afe6a7,6054d018e3ad1cd936afe6a7,16,blinds,critical,D,25,blinds15.jpg,blinds33.jpg,high,NULL
1687287113,dc7589c45a6d036806031189cebf7db6,PennController,19,0,experiment,NULL,Selector,choice,Selection,option2,1687286861455,6054d018e3ad1cd936afe6a7,6054d018e3ad1cd936afe6a7,16,blinds,critical,D,25,blinds15.jpg,blinds33.jpg,high,option2;option1
1687287113,dc7589c45a6d036806031189cebf7db6,PennController,19,0,experiment,NULL,PennController,18,_Trial_,End,1687286861459,6054d018e3ad1cd936afe6a7,6054d018e3ad1cd936afe6a7,16,blinds,critical,D,25,blinds15.jpg,blinds33.jpg,high,NULL
1687287113,dc7589c45a6d036806031189cebf7db6,PennController,20,0,experiment,NULL,PennController,19,_Trial_,Start,1687286861463,6054d018e3ad1cd936afe6a7,6054d018e3ad1cd936afe6a7,17,roll,critical,D,50,roll40.jpg,roll60.jpg,high,NULL
1687287113,dc7589c45a6d036806031189cebf7db6,PennController,20,0,experiment,NULL,PennController,19,_Header_,Start,1687286861463,6054d018e3ad1cd936afe6a7,6054d018e3ad1cd936afe6a7,17,roll,critical,D,50,roll40.jpg,roll60.jpg,high,NULL
1687287113,dc7589c45a6d036806031189cebf7db6,PennController,20,0,experiment,NULL,PennController,19,_Header_,End,1687286861463,6054d018e3ad1cd936afe6a7,6054d018e3ad1cd936afe6a7,17,roll,critical,D,50,roll40.jpg,roll60.jpg,high,NULL
1687287113,dc7589c45a6d036806031189cebf7db6,PennController,20,0,experiment,NULL,Canvas,canvas6,Print,NA,1687286868187,6054d018e3ad1cd936afe6a7,6054d018e3ad1cd936afe6a7,17,roll,critical,D,50,roll40.jpg,roll60.jpg,high,NULL
1687287113,dc7589c45a6d036806031189cebf7db6,PennController,20,0,experiment,NULL,Video,progression,buffer,0.011385,1687286865014,6054d018e3ad1cd936afe6a7,6054d018e3ad1cd936afe6a7,17,roll,critical,D,50,roll40.jpg,roll60.jpg,high,NULL
1687287113,dc7589c45a6d036806031189cebf7db6,PennController,20,0,experiment,NULL,Selector,choice,Selection,option1,1687286872748,6054d018e3ad1cd936afe6a7,6054d018e3ad1cd936afe6a7,17,roll,critical,D,50,roll40.jpg,roll60.jpg,high,option2;option1
1687287113,dc7589c45a6d036806031189cebf7db6,PennController,20,0,experiment,NULL,PennController,19,_Trial_,End,1687286872752,6054d018e3ad1cd936afe6a7,6054d018e3ad1cd936afe6a7,17,roll,critical,D,50,roll40.jpg,roll60.jpg,high,NULL
1687287113,dc7589c45a6d036806031189cebf7db6,PennController,28,0,experiment,NULL,PennController,27,_Trial_,Start,1687286872759,6054d018e3ad1cd936afe6a7,6054d018e3ad1cd936afe6a7,25,house,filler,D,25,house15.jpg,house35.jpg,GoalB,NULL
1687287113,dc7589c45a6d036806031189cebf7db6,PennController,28,0,experiment,NULL,PennController,27,_Header_,Start,1687286872759,6054d018e3ad1cd936afe6a7,6054d018e3ad1cd936afe6a7,25,house,filler,D,25,house15.jpg,house35.jpg,GoalB,NULL
1687287113,dc7589c45a6d036806031189cebf7db6,PennController,28,0,experiment,NULL,PennController,27,_Header_,End,1687286872759,6054d018e3ad1cd936afe6a7,6054d018e3ad1cd936afe6a7,25,house,filler,D,25,house15.jpg,house35.jpg,GoalB,NULL
1687287113,dc7589c45a6d036806031189cebf7db6,PennController,28,0,experiment,NULL,Canvas,canvas6,Print,NA,1687286878458,6054d018e3ad1cd936afe6a7,6054d018e3ad1cd936afe6a7,25,house,filler,D,25,house15.jpg,house35.jpg,GoalB,NULL
1687287113,dc7589c45a6d036806031189cebf7db6,PennController,28,0,experiment,NULL,Video,progression,buffer,0.003603,1687286876295,6054d018e3ad1cd936afe6a7,6054d018e3ad1cd936afe6a7,25,house,filler,D,25,house15.jpg,house35.jpg,GoalB,NULL
1687287113,dc7589c45a6d036806031189cebf7db6,PennController,28,0,experiment,NULL,Selector,choice,Selection,option2,1687286880495,6054d018e3ad1cd936afe6a7,6054d018e3ad1cd936afe6a7,25,house,filler,D,25,house15.jpg,house35.jpg,GoalB,option1;option2
1687287113,dc7589c45a6d036806031189cebf7db6,PennController,28,0,experiment,NULL,PennController,27,_Trial_,End,1687286880505,6054d018e3ad1cd936afe6a7,6054d018e3ad1cd936afe6a7,25,house,filler,D,25,house15.jpg,house35.jpg,GoalB,NULL
1687287113,dc7589c45a6d036806031189cebf7db6,PennController,27,0,experiment,NULL,PennController,26,_Trial_,Start,1687286880511,6054d018e3ad1cd936afe6a7,6054d018e3ad1cd936afe6a7,24,match,filler,D,75,match65.jpg,match85.jpg,GoalA,NULL
1687287113,dc7589c45a6d036806031189cebf7db6,PennController,27,0,experiment,NULL,PennController,26,_Header_,Start,1687286880511,6054d018e3ad1cd936afe6a7,6054d018e3ad1cd936afe6a7,24,match,filler,D,75,match65.jpg,match85.jpg,GoalA,NULL
1687287113,dc7589c45a6d036806031189cebf7db6,PennController,27,0,experiment,NULL,PennController,26,_Header_,End,1687286880511,6054d018e3ad1cd936afe6a7,6054d018e3ad1cd936afe6a7,24,match,filler,D,75,match65.jpg,match85.jpg,GoalA,NULL
1687287113,dc7589c45a6d036806031189cebf7db6,PennController,27,0,experiment,NULL,Canvas,canvas6,Print,NA,1687286888227,6054d018e3ad1cd936afe6a7,6054d018e3ad1cd936afe6a7,24,match,filler,D,75,match65.jpg,match85.jpg,GoalA,NULL
1687287113,dc7589c45a6d036806031189cebf7db6,PennController,27,0,experiment,NULL,Video,progression,buffer,0.008508,1687286884071,6054d018e3ad1cd936afe6a7,6054d018e3ad1cd936afe6a7,24,match,filler,D,75,match65.jpg,match85.jpg,GoalA,NULL
1687287113,dc7589c45a6d036806031189cebf7db6,PennController,27,0,experiment,NULL,Selector,choice,Selection,option2,1687286891840,6054d018e3ad1cd936afe6a7,6054d018e3ad1cd936afe6a7,24,match,filler,D,75,match65.jpg,match85.jpg,GoalA,option2;option1
1687287113,dc7589c45a6d036806031189cebf7db6,PennController,27,0,experiment,NULL,PennController,26,_Trial_,End,1687286891845,6054d018e3ad1cd936afe6a7,6054d018e3ad1cd936afe6a7,24,match,filler,D,75,match65.jpg,match85.jpg,GoalA,NULL
1687287113,dc7589c45a6d036806031189cebf7db6,PennController,21,0,experiment,NULL,PennController,20,_Trial_,Start,1687286891851,6054d018e3ad1cd936afe6a7,6054d018e3ad1cd936afe6a7,18,ball,critical,D,75,ball65.jpg,ball85.jpg,high,NULL
1687287113,dc7589c45a6d036806031189cebf7db6,PennController,21,0,experiment,NULL,PennController,20,_Header_,Start,1687286891851,6054d018e3ad1cd936afe6a7,6054d018e3ad1cd936afe6a7,18,ball,critical,D,75,ball65.jpg,ball85.jpg,high,NULL
1687287113,dc7589c45a6d036806031189cebf7db6,PennController,21,0,experiment,NULL,PennController,20,_Header_,End,1687286891851,6054d018e3ad1cd936afe6a7,6054d018e3ad1cd936afe6a7,18,ball,critical,D,75,ball65.jpg,ball85.jpg,high,NULL
1687287113,dc7589c45a6d036806031189cebf7db6,PennController,21,0,experiment,NULL,Canvas,canvas6,Print,NA,1687286899482,6054d018e3ad1cd936afe6a7,6054d018e3ad1cd936afe6a7,18,ball,critical,D,75,ball65.jpg,ball85.jpg,high,NULL
1687287113,dc7589c45a6d036806031189cebf7db6,PennController,21,0,experiment,NULL,Video,progression,buffer,0.014596,1687286895402,6054d018e3ad1cd936afe6a7,6054d018e3ad1cd936afe6a7,18,ball,critical,D,75,ball65.jpg,ball85.jpg,high,NULL
1687287113,dc7589c45a6d036806031189cebf7db6,PennController,21,0,experiment,NULL,Selector,choice,Selection,option2,1687286903735,6054d018e3ad1cd936afe6a7,6054d018e3ad1cd936afe6a7,18,ball,critical,D,75,ball65.jpg,ball85.jpg,high,option2;option1
1687287113,dc7589c45a6d036806031189cebf7db6,PennController,21,0,experiment,NULL,PennController,20,_Trial_,End,1687286903739,6054d018e3ad1cd936afe6a7,6054d018e3ad1cd936afe6a7,18,ball,critical,D,75,ball65.jpg,ball85.jpg,high,NULL
1687287113,dc7589c45a6d036806031189cebf7db6,PennController,31,0,experiment,NULL,PennController,30,_Trial_,Start,1687286903744,6054d018e3ad1cd936afe6a7,6054d018e3ad1cd936afe6a7,28,sort,filler,D,25,sort15.jpg,sort35.jpg,GoalA,NULL
1687287113,dc7589c45a6d036806031189cebf7db6,PennController,31,0,experiment,NULL,PennController,30,_Header_,Start,1687286903744,6054d018e3ad1cd936afe6a7,6054d018e3ad1cd936afe6a7,28,sort,filler,D,25,sort15.jpg,sort35.jpg,GoalA,NULL
1687287113,dc7589c45a6d036806031189cebf7db6,PennController,31,0,experiment,NULL,PennController,30,_Header_,End,1687286903744,6054d018e3ad1cd936afe6a7,6054d018e3ad1cd936afe6a7,28,sort,filler,D,25,sort15.jpg,sort35.jpg,GoalA,NULL
1687287113,dc7589c45a6d036806031189cebf7db6,PennController,31,0,experiment,NULL,Canvas,canvas6,Print,NA,1687286909467,6054d018e3ad1cd936afe6a7,6054d018e3ad1cd936afe6a7,28,sort,filler,D,25,sort15.jpg,sort35.jpg,GoalA,NULL
1687287113,dc7589c45a6d036806031189cebf7db6,PennController,31,0,experiment,NULL,Video,progression,buffer,0.011855,1687286907295,6054d018e3ad1cd936afe6a7,6054d018e3ad1cd936afe6a7,28,sort,filler,D,25,sort15.jpg,sort35.jpg,GoalA,NULL
1687287113,dc7589c45a6d036806031189cebf7db6,PennController,31,0,experiment,NULL,Selector,choice,Selection,option1,1687286910932,6054d018e3ad1cd936afe6a7,6054d018e3ad1cd936afe6a7,28,sort,filler,D,25,sort15.jpg,sort35.jpg,GoalA,option2;option1
1687287113,dc7589c45a6d036806031189cebf7db6,PennController,31,0,experiment,NULL,PennController,30,_Trial_,End,1687286910934,6054d018e3ad1cd936afe6a7,6054d018e3ad1cd936afe6a7,28,sort,filler,D,25,sort15.jpg,sort35.jpg,GoalA,NULL
1687287113,dc7589c45a6d036806031189cebf7db6,PennController,4,0,experiment,NULL,PennController,3,_Trial_,Start,1687286910937,6054d018e3ad1cd936afe6a7,6054d018e3ad1cd936afe6a7,1,vase,critical,D,25,vase15.jpg,vase35.jpg,high,NULL
1687287113,dc7589c45a6d036806031189cebf7db6,PennController,4,0,experiment,NULL,PennController,3,_Header_,Start,1687286910937,6054d018e3ad1cd936afe6a7,6054d018e3ad1cd936afe6a7,1,vase,critical,D,25,vase15.jpg,vase35.jpg,high,NULL
1687287113,dc7589c45a6d036806031189cebf7db6,PennController,4,0,experiment,NULL,PennController,3,_Header_,End,1687286910937,6054d018e3ad1cd936afe6a7,6054d018e3ad1cd936afe6a7,1,vase,critical,D,25,vase15.jpg,vase35.jpg,high,NULL
1687287113,dc7589c45a6d036806031189cebf7db6,PennController,4,0,experiment,NULL,Canvas,canvas6,Print,NA,1687286916653,6054d018e3ad1cd936afe6a7,6054d018e3ad1cd936afe6a7,1,vase,critical,D,25,vase15.jpg,vase35.jpg,high,NULL
1687287113,dc7589c45a6d036806031189cebf7db6,PennController,4,0,experiment,NULL,Video,progression,buffer,0.011017,1687286914491,6054d018e3ad1cd936afe6a7,6054d018e3ad1cd936afe6a7,1,vase,critical,D,25,vase15.jpg,vase35.jpg,high,NULL
1687287113,dc7589c45a6d036806031189cebf7db6,PennController,4,0,experiment,NULL,Selector,choice,Selection,option1,1687286918413,6054d018e3ad1cd936afe6a7,6054d018e3ad1cd936afe6a7,1,vase,critical,D,25,vase15.jpg,vase35.jpg,high,option1;option2
1687287113,dc7589c45a6d036806031189cebf7db6,PennController,4,0,experiment,NULL,PennController,3,_Trial_,End,1687286918415,6054d018e3ad1cd936afe6a7,6054d018e3ad1cd936afe6a7,1,vase,critical,D,25,vase15.jpg,vase35.jpg,high,NULL
1687287113,dc7589c45a6d036806031189cebf7db6,PennController,12,0,experiment,NULL,PennController,11,_Trial_,Start,1687286918418,6054d018e3ad1cd936afe6a7,6054d018e3ad1cd936afe6a7,9,cake,critical,D,75,cake66.jpg,cake84.jpg,high,NULL
1687287113,dc7589c45a6d036806031189cebf7db6,PennController,12,0,experiment,NULL,PennController,11,_Header_,Start,1687286918418,6054d018e3ad1cd936afe6a7,6054d018e3ad1cd936afe6a7,9,cake,critical,D,75,cake66.jpg,cake84.jpg,high,NULL
1687287113,dc7589c45a6d036806031189cebf7db6,PennController,12,0,experiment,NULL,PennController,11,_Header_,End,1687286918418,6054d018e3ad1cd936afe6a7,6054d018e3ad1cd936afe6a7,9,cake,critical,D,75,cake66.jpg,cake84.jpg,high,NULL
1687287113,dc7589c45a6d036806031189cebf7db6,PennController,12,0,experiment,NULL,Canvas,canvas6,Print,NA,1687286928122,6054d018e3ad1cd936afe6a7,6054d018e3ad1cd936afe6a7,9,cake,critical,D,75,cake66.jpg,cake84.jpg,high,NULL
1687287113,dc7589c45a6d036806031189cebf7db6,PennController,12,0,experiment,NULL,Video,progression,buffer,0.011076,1687286921966,6054d018e3ad1cd936afe6a7,6054d018e3ad1cd936afe6a7,9,cake,critical,D,75,cake66.jpg,cake84.jpg,high,NULL
1687287113,dc7589c45a6d036806031189cebf7db6,PennController,12,0,experiment,NULL,Selector,choice,Selection,option2,1687286929935,6054d018e3ad1cd936afe6a7,6054d018e3ad1cd936afe6a7,9,cake,critical,D,75,cake66.jpg,cake84.jpg,high,option1;option2
1687287113,dc7589c45a6d036806031189cebf7db6,PennController,12,0,experiment,NULL,PennController,11,_Trial_,End,1687286929939,6054d018e3ad1cd936afe6a7,6054d018e3ad1cd936afe6a7,9,cake,critical,D,75,cake66.jpg,cake84.jpg,high,NULL
1687287113,dc7589c45a6d036806031189cebf7db6,PennController,26,0,experiment,NULL,PennController,25,_Trial_,Start,1687286929943,6054d018e3ad1cd936afe6a7,6054d018e3ad1cd936afe6a7,23,color,filler,D,50,color40.jpg,color60.jpg,GoalB,NULL
1687287113,dc7589c45a6d036806031189cebf7db6,PennController,26,0,experiment,NULL,PennController,25,_Header_,Start,1687286929943,6054d018e3ad1cd936afe6a7,6054d018e3ad1cd936afe6a7,23,color,filler,D,50,color40.jpg,color60.jpg,GoalB,NULL
1687287113,dc7589c45a6d036806031189cebf7db6,PennController,26,0,experiment,NULL,PennController,25,_Header_,End,1687286929943,6054d018e3ad1cd936afe6a7,6054d018e3ad1cd936afe6a7,23,color,filler,D,50,color40.jpg,color60.jpg,GoalB,NULL
1687287113,dc7589c45a6d036806031189cebf7db6,PennController,26,0,experiment,NULL,Canvas,canvas6,Print,NA,1687286936648,6054d018e3ad1cd936afe6a7,6054d018e3ad1cd936afe6a7,23,color,filler,D,50,color40.jpg,color60.jpg,GoalB,NULL
1687287113,dc7589c45a6d036806031189cebf7db6,PennController,26,0,experiment,NULL,Video,progression,buffer,0.012296,1687286933499,6054d018e3ad1cd936afe6a7,6054d018e3ad1cd936afe6a7,23,color,filler,D,50,color40.jpg,color60.jpg,GoalB,NULL
1687287113,dc7589c45a6d036806031189cebf7db6,PennController,26,0,experiment,NULL,Selector,choice,Selection,option2,1687286940142,6054d018e3ad1cd936afe6a7,6054d018e3ad1cd936afe6a7,23,color,filler,D,50,color40.jpg,color60.jpg,GoalB,option1;option2
1687287113,dc7589c45a6d036806031189cebf7db6,PennController,26,0,experiment,NULL,PennController,25,_Trial_,End,1687286940145,6054d018e3ad1cd936afe6a7,6054d018e3ad1cd936afe6a7,23,color,filler,D,50,color40.jpg,color60.jpg,GoalB,NULL
1687287113,dc7589c45a6d036806031189cebf7db6,PennController,24,0,experiment,NULL,PennController,23,_Trial_,Start,1687286940148,6054d018e3ad1cd936afe6a7,6054d018e3ad1cd936afe6a7,21,visit,filler,D,75,visit65.jpg,visit85.jpg,GoalB,NULL
1687287113,dc7589c45a6d036806031189cebf7db6,PennController,24,0,experiment,NULL,PennController,23,_Header_,Start,1687286940148,6054d018e3ad1cd936afe6a7,6054d018e3ad1cd936afe6a7,21,visit,filler,D,75,visit65.jpg,visit85.jpg,GoalB,NULL
1687287113,dc7589c45a6d036806031189cebf7db6,PennController,24,0,experiment,NULL,PennController,23,_Header_,End,1687286940148,6054d018e3ad1cd936afe6a7,6054d018e3ad1cd936afe6a7,21,visit,filler,D,75,visit65.jpg,visit85.jpg,GoalB,NULL
1687287113,dc7589c45a6d036806031189cebf7db6,PennController,24,0,experiment,NULL,Canvas,canvas6,Print,NA,1687286947864,6054d018e3ad1cd936afe6a7,6054d018e3ad1cd936afe6a7,21,visit,filler,D,75,visit65.jpg,visit85.jpg,GoalB,NULL
1687287113,dc7589c45a6d036806031189cebf7db6,PennController,24,0,experiment,NULL,Video,progression,buffer,0.011925,1687286943699,6054d018e3ad1cd936afe6a7,6054d018e3ad1cd936afe6a7,21,visit,filler,D,75,visit65.jpg,visit85.jpg,GoalB,NULL
1687287113,dc7589c45a6d036806031189cebf7db6,PennController,24,0,experiment,NULL,Selector,choice,Selection,option2,1687286949867,6054d018e3ad1cd936afe6a7,6054d018e3ad1cd936afe6a7,21,visit,filler,D,75,visit65.jpg,visit85.jpg,GoalB,option2;option1
1687287113,dc7589c45a6d036806031189cebf7db6,PennController,24,0,experiment,NULL,PennController,23,_Trial_,End,1687286949871,6054d018e3ad1cd936afe6a7,6054d018e3ad1cd936afe6a7,21,visit,filler,D,75,visit65.jpg,visit85.jpg,GoalB,NULL
1687287113,dc7589c45a6d036806031189cebf7db6,PennController,8,0,experiment,NULL,PennController,7,_Trial_,Start,1687286949875,6054d018e3ad1cd936afe6a7,6054d018e3ad1cd936afe6a7,5,book,critical,D,50,book40.jpg,book60.jpg,high,NULL
1687287113,dc7589c45a6d036806031189cebf7db6,PennController,8,0,experiment,NULL,PennController,7,_Header_,Start,1687286949875,6054d018e3ad1cd936afe6a7,6054d018e3ad1cd936afe6a7,5,book,critical,D,50,book40.jpg,book60.jpg,high,NULL
1687287113,dc7589c45a6d036806031189cebf7db6,PennController,8,0,experiment,NULL,PennController,7,_Header_,End,1687286949875,6054d018e3ad1cd936afe6a7,6054d018e3ad1cd936afe6a7,5,book,critical,D,50,book40.jpg,book60.jpg,high,NULL
1687287113,dc7589c45a6d036806031189cebf7db6,PennController,8,0,experiment,NULL,Canvas,canvas6,Print,NA,1687286956566,6054d018e3ad1cd936afe6a7,6054d018e3ad1cd936afe6a7,5,book,critical,D,50,book40.jpg,book60.jpg,high,NULL
1687287113,dc7589c45a6d036806031189cebf7db6,PennController,8,0,experiment,NULL,Video,progression,buffer,0.003928,1687286953413,6054d018e3ad1cd936afe6a7,6054d018e3ad1cd936afe6a7,5,book,critical,D,50,book40.jpg,book60.jpg,high,NULL
1687287113,dc7589c45a6d036806031189cebf7db6,PennController,8,0,experiment,NULL,Selector,choice,Selection,option1,1687286958983,6054d018e3ad1cd936afe6a7,6054d018e3ad1cd936afe6a7,5,book,critical,D,50,book40.jpg,book60.jpg,high,option1;option2
1687287113,dc7589c45a6d036806031189cebf7db6,PennController,8,0,experiment,NULL,PennController,7,_Trial_,End,1687286958986,6054d018e3ad1cd936afe6a7,6054d018e3ad1cd936afe6a7,5,book,critical,D,50,book40.jpg,book60.jpg,high,NULL
1687287113,dc7589c45a6d036806031189cebf7db6,PennController,30,0,experiment,NULL,PennController,29,_Trial_,Start,1687286958990,6054d018e3ad1cd936afe6a7,6054d018e3ad1cd936afe6a7,27,square,filler,D,75,square65.jpg,square85.jpg,GoalB,NULL
1687287113,dc7589c45a6d036806031189cebf7db6,PennController,30,0,experiment,NULL,PennController,29,_Header_,Start,1687286958990,6054d018e3ad1cd936afe6a7,6054d018e3ad1cd936afe6a7,27,square,filler,D,75,square65.jpg,square85.jpg,GoalB,NULL
1687287113,dc7589c45a6d036806031189cebf7db6,PennController,30,0,experiment,NULL,PennController,29,_Header_,End,1687286958990,6054d018e3ad1cd936afe6a7,6054d018e3ad1cd936afe6a7,27,square,filler,D,75,square65.jpg,square85.jpg,GoalB,NULL
1687287113,dc7589c45a6d036806031189cebf7db6,PennController,30,0,experiment,NULL,Canvas,canvas6,Print,NA,1687286966706,6054d018e3ad1cd936afe6a7,6054d018e3ad1cd936afe6a7,27,square,filler,D,75,square65.jpg,square85.jpg,GoalB,NULL
1687287113,dc7589c45a6d036806031189cebf7db6,PennController,30,0,experiment,NULL,Video,progression,buffer,0.015727,1687286962545,6054d018e3ad1cd936afe6a7,6054d018e3ad1cd936afe6a7,27,square,filler,D,75,square65.jpg,square85.jpg,GoalB,NULL
1687287113,dc7589c45a6d036806031189cebf7db6,PennController,30,0,experiment,NULL,Selector,choice,Selection,option1,1687286968966,6054d018e3ad1cd936afe6a7,6054d018e3ad1cd936afe6a7,27,square,filler,D,75,square65.jpg,square85.jpg,GoalB,option1;option2
1687287113,dc7589c45a6d036806031189cebf7db6,PennController,30,0,experiment,NULL,PennController,29,_Trial_,End,1687286968969,6054d018e3ad1cd936afe6a7,6054d018e3ad1cd936afe6a7,27,square,filler,D,75,square65.jpg,square85.jpg,GoalB,NULL
1687287113,dc7589c45a6d036806031189cebf7db6,PennController,16,0,experiment,NULL,PennController,15,_Trial_,Start,1687286968974,6054d018e3ad1cd936afe6a7,6054d018e3ad1cd936afe6a7,13,mix,critical,D,25,mix15.jpg,mix35.jpg,high,NULL
1687287113,dc7589c45a6d036806031189cebf7db6,PennController,16,0,experiment,NULL,PennController,15,_Header_,Start,1687286968974,6054d018e3ad1cd936afe6a7,6054d018e3ad1cd936afe6a7,13,mix,critical,D,25,mix15.jpg,mix35.jpg,high,NULL
1687287113,dc7589c45a6d036806031189cebf7db6,PennController,16,0,experiment,NULL,PennController,15,_Header_,End,1687286968974,6054d018e3ad1cd936afe6a7,6054d018e3ad1cd936afe6a7,13,mix,critical,D,25,mix15.jpg,mix35.jpg,high,NULL
1687287113,dc7589c45a6d036806031189cebf7db6,PennController,16,0,experiment,NULL,Canvas,canvas6,Print,NA,1687286974698,6054d018e3ad1cd936afe6a7,6054d018e3ad1cd936afe6a7,13,mix,critical,D,25,mix15.jpg,mix35.jpg,high,NULL
1687287113,dc7589c45a6d036806031189cebf7db6,PennController,16,0,experiment,NULL,Video,progression,buffer,0.008271,1687286972532,6054d018e3ad1cd936afe6a7,6054d018e3ad1cd936afe6a7,13,mix,critical,D,25,mix15.jpg,mix35.jpg,high,NULL
1687287113,dc7589c45a6d036806031189cebf7db6,PennController,16,0,experiment,NULL,Selector,choice,Selection,option1,1687286976076,6054d018e3ad1cd936afe6a7,6054d018e3ad1cd936afe6a7,13,mix,critical,D,25,mix15.jpg,mix35.jpg,high,option1;option2
1687287113,dc7589c45a6d036806031189cebf7db6,PennController,16,0,experiment,NULL,PennController,15,_Trial_,End,1687286976079,6054d018e3ad1cd936afe6a7,6054d018e3ad1cd936afe6a7,13,mix,critical,D,25,mix15.jpg,mix35.jpg,high,NULL
1687287113,dc7589c45a6d036806031189cebf7db6,PennController,9,0,experiment,NULL,PennController,8,_Trial_,Start,1687286976082,6054d018e3ad1cd936afe6a7,6054d018e3ad1cd936afe6a7,6,flower,critical,D,75,flower65.jpg,flower85.jpg,high,NULL
1687287113,dc7589c45a6d036806031189cebf7db6,PennController,9,0,experiment,NULL,PennController,8,_Header_,Start,1687286976082,6054d018e3ad1cd936afe6a7,6054d018e3ad1cd936afe6a7,6,flower,critical,D,75,flower65.jpg,flower85.jpg,high,NULL
1687287113,dc7589c45a6d036806031189cebf7db6,PennController,9,0,experiment,NULL,PennController,8,_Header_,End,1687286976082,6054d018e3ad1cd936afe6a7,6054d018e3ad1cd936afe6a7,6,flower,critical,D,75,flower65.jpg,flower85.jpg,high,NULL
1687287113,dc7589c45a6d036806031189cebf7db6,PennController,9,0,experiment,NULL,Canvas,canvas6,Print,NA,1687286983820,6054d018e3ad1cd936afe6a7,6054d018e3ad1cd936afe6a7,6,flower,critical,D,75,flower65.jpg,flower85.jpg,high,NULL
1687287113,dc7589c45a6d036806031189cebf7db6,PennController,9,0,experiment,NULL,Video,progression,buffer,0.010857,1687286979640,6054d018e3ad1cd936afe6a7,6054d018e3ad1cd936afe6a7,6,flower,critical,D,75,flower65.jpg,flower85.jpg,high,NULL
1687287113,dc7589c45a6d036806031189cebf7db6,PennController,9,0,experiment,NULL,Selector,choice,Selection,option1,1687286985212,6054d018e3ad1cd936afe6a7,6054d018e3ad1cd936afe6a7,6,flower,critical,D,75,flower65.jpg,flower85.jpg,high,option2;option1
1687287113,dc7589c45a6d036806031189cebf7db6,PennController,9,0,experiment,NULL,PennController,8,_Trial_,End,1687286985215,6054d018e3ad1cd936afe6a7,6054d018e3ad1cd936afe6a7,6,flower,critical,D,75,flower65.jpg,flower85.jpg,high,NULL
1687287113,dc7589c45a6d036806031189cebf7db6,PennController,32,0,experiment,NULL,PennController,31,_Trial_,Start,1687286985218,6054d018e3ad1cd936afe6a7,6054d018e3ad1cd936afe6a7,29,frog,filler,D,50,frog40.jpg,frog60.jpg,GoalB,NULL
1687287113,dc7589c45a6d036806031189cebf7db6,PennController,32,0,experiment,NULL,PennController,31,_Header_,Start,1687286985218,6054d018e3ad1cd936afe6a7,6054d018e3ad1cd936afe6a7,29,frog,filler,D,50,frog40.jpg,frog60.jpg,GoalB,NULL
1687287113,dc7589c45a6d036806031189cebf7db6,PennController,32,0,experiment,NULL,PennController,31,_Header_,End,1687286985218,6054d018e3ad1cd936afe6a7,6054d018e3ad1cd936afe6a7,29,frog,filler,D,50,frog40.jpg,frog60.jpg,GoalB,NULL
1687287113,dc7589c45a6d036806031189cebf7db6,PennController,32,0,experiment,NULL,Canvas,canvas6,Print,NA,1687286991931,6054d018e3ad1cd936afe6a7,6054d018e3ad1cd936afe6a7,29,frog,filler,D,50,frog40.jpg,frog60.jpg,GoalB,NULL
1687287113,dc7589c45a6d036806031189cebf7db6,PennController,32,0,experiment,NULL,Video,progression,buffer,0.006224,1687286988762,6054d018e3ad1cd936afe6a7,6054d018e3ad1cd936afe6a7,29,frog,filler,D,50,frog40.jpg,frog60.jpg,GoalB,NULL
1687287113,dc7589c45a6d036806031189cebf7db6,PennController,32,0,experiment,NULL,Selector,choice,Selection,option2,1687286995550,6054d018e3ad1cd936afe6a7,6054d018e3ad1cd936afe6a7,29,frog,filler,D,50,frog40.jpg,frog60.jpg,GoalB,option2;option1
1687287113,dc7589c45a6d036806031189cebf7db6,PennController,32,0,experiment,NULL,PennController,31,_Trial_,End,1687286995555,6054d018e3ad1cd936afe6a7,6054d018e3ad1cd936afe6a7,29,frog,filler,D,50,frog40.jpg,frog60.jpg,GoalB,NULL
1687287113,dc7589c45a6d036806031189cebf7db6,PennController,6,0,experiment,NULL,PennController,5,_Trial_,Start,1687286995559,6054d018e3ad1cd936afe6a7,6054d018e3ad1cd936afe6a7,3,clean,critical,D,75,clean65.jpg,clean85.jpg,high,NULL
1687287113,dc7589c45a6d036806031189cebf7db6,PennController,6,0,experiment,NULL,PennController,5,_Header_,Start,1687286995559,6054d018e3ad1cd936afe6a7,6054d018e3ad1cd936afe6a7,3,clean,critical,D,75,clean65.jpg,clean85.jpg,high,NULL
1687287113,dc7589c45a6d036806031189cebf7db6,PennController,6,0,experiment,NULL,PennController,5,_Header_,End,1687286995560,6054d018e3ad1cd936afe6a7,6054d018e3ad1cd936afe6a7,3,clean,critical,D,75,clean65.jpg,clean85.jpg,high,NULL
1687287113,dc7589c45a6d036806031189cebf7db6,PennController,6,0,experiment,NULL,Canvas,canvas6,Print,NA,1687287003283,6054d018e3ad1cd936afe6a7,6054d018e3ad1cd936afe6a7,3,clean,critical,D,75,clean65.jpg,clean85.jpg,high,NULL
1687287113,dc7589c45a6d036806031189cebf7db6,PennController,6,0,experiment,NULL,Video,progression,buffer,0.011858,1687286999114,6054d018e3ad1cd936afe6a7,6054d018e3ad1cd936afe6a7,3,clean,critical,D,75,clean65.jpg,clean85.jpg,high,NULL
1687287113,dc7589c45a6d036806031189cebf7db6,PennController,6,0,experiment,NULL,Selector,choice,Selection,option2,1687287004832,6054d018e3ad1cd936afe6a7,6054d018e3ad1cd936afe6a7,3,clean,critical,D,75,clean65.jpg,clean85.jpg,high,option2;option1
1687287113,dc7589c45a6d036806031189cebf7db6,PennController,6,0,experiment,NULL,PennController,5,_Trial_,End,1687287004835,6054d018e3ad1cd936afe6a7,6054d018e3ad1cd936afe6a7,3,clean,critical,D,75,clean65.jpg,clean85.jpg,high,NULL
1687287113,dc7589c45a6d036806031189cebf7db6,PennController,13,0,experiment,NULL,PennController,12,_Trial_,Start,1687287004838,6054d018e3ad1cd936afe6a7,6054d018e3ad1cd936afe6a7,10,train,critical,D,25,train15.jpg,train35.jpg,high,NULL
1687287113,dc7589c45a6d036806031189cebf7db6,PennController,13,0,experiment,NULL,PennController,12,_Header_,Start,1687287004838,6054d018e3ad1cd936afe6a7,6054d018e3ad1cd936afe6a7,10,train,critical,D,25,train15.jpg,train35.jpg,high,NULL
1687287113,dc7589c45a6d036806031189cebf7db6,PennController,13,0,experiment,NULL,PennController,12,_Header_,End,1687287004838,6054d018e3ad1cd936afe6a7,6054d018e3ad1cd936afe6a7,10,train,critical,D,25,train15.jpg,train35.jpg,high,NULL
1687287113,dc7589c45a6d036806031189cebf7db6,PennController,13,0,experiment,NULL,Canvas,canvas6,Print,NA,1687287010568,6054d018e3ad1cd936afe6a7,6054d018e3ad1cd936afe6a7,10,train,critical,D,25,train15.jpg,train35.jpg,high,NULL
1687287113,dc7589c45a6d036806031189cebf7db6,PennController,13,0,experiment,NULL,Video,progression,buffer,0.010765,1687287008393,6054d018e3ad1cd936afe6a7,6054d018e3ad1cd936afe6a7,10,train,critical,D,25,train15.jpg,train35.jpg,high,NULL
1687287113,dc7589c45a6d036806031189cebf7db6,PennController,13,0,experiment,NULL,Selector,choice,Selection,option1,1687287012940,6054d018e3ad1cd936afe6a7,6054d018e3ad1cd936afe6a7,10,train,critical,D,25,train15.jpg,train35.jpg,high,option1;option2
1687287113,dc7589c45a6d036806031189cebf7db6,PennController,13,0,experiment,NULL,PennController,12,_Trial_,End,1687287012944,6054d018e3ad1cd936afe6a7,6054d018e3ad1cd936afe6a7,10,train,critical,D,25,train15.jpg,train35.jpg,high,NULL
1687287113,dc7589c45a6d036806031189cebf7db6,PennController,17,0,experiment,NULL,PennController,16,_Trial_,Start,1687287012948,6054d018e3ad1cd936afe6a7,6054d018e3ad1cd936afe6a7,14,cover,critical,D,50,cover42.jpg,cover60.jpg,high,NULL
1687287113,dc7589c45a6d036806031189cebf7db6,PennController,17,0,experiment,NULL,PennController,16,_Header_,Start,1687287012948,6054d018e3ad1cd936afe6a7,6054d018e3ad1cd936afe6a7,14,cover,critical,D,50,cover42.jpg,cover60.jpg,high,NULL
1687287113,dc7589c45a6d036806031189cebf7db6,PennController,17,0,experiment,NULL,PennController,16,_Header_,End,1687287012948,6054d018e3ad1cd936afe6a7,6054d018e3ad1cd936afe6a7,14,cover,critical,D,50,cover42.jpg,cover60.jpg,high,NULL
1687287113,dc7589c45a6d036806031189cebf7db6,PennController,17,0,experiment,NULL,Canvas,canvas6,Print,NA,1687287021063,6054d018e3ad1cd936afe6a7,6054d018e3ad1cd936afe6a7,14,cover,critical,D,50,cover42.jpg,cover60.jpg,high,NULL
1687287113,dc7589c45a6d036806031189cebf7db6,PennController,17,0,experiment,NULL,Video,progression,buffer,0.012432,1687287016494,6054d018e3ad1cd936afe6a7,6054d018e3ad1cd936afe6a7,14,cover,critical,D,50,cover42.jpg,cover60.jpg,high,NULL
1687287113,dc7589c45a6d036806031189cebf7db6,PennController,17,0,experiment,NULL,Selector,choice,Selection,option2,1687287022212,6054d018e3ad1cd936afe6a7,6054d018e3ad1cd936afe6a7,14,cover,critical,D,50,cover42.jpg,cover60.jpg,high,option1;option2
1687287113,dc7589c45a6d036806031189cebf7db6,PennController,17,0,experiment,NULL,PennController,16,_Trial_,End,1687287022215,6054d018e3ad1cd936afe6a7,6054d018e3ad1cd936afe6a7,14,cover,critical,D,50,cover42.jpg,cover60.jpg,high,NULL
1687287113,dc7589c45a6d036806031189cebf7db6,PennController,25,0,experiment,NULL,PennController,24,_Trial_,Start,1687287022219,6054d018e3ad1cd936afe6a7,6054d018e3ad1cd936afe6a7,22,wall,filler,D,25,wall15.jpg,wall35.jpg,GoalA,NULL
1687287113,dc7589c45a6d036806031189cebf7db6,PennController,25,0,experiment,NULL,PennController,24,_Header_,Start,1687287022219,6054d018e3ad1cd936afe6a7,6054d018e3ad1cd936afe6a7,22,wall,filler,D,25,wall15.jpg,wall35.jpg,GoalA,NULL
1687287113,dc7589c45a6d036806031189cebf7db6,PennController,25,0,experiment,NULL,PennController,24,_Header_,End,1687287022219,6054d018e3ad1cd936afe6a7,6054d018e3ad1cd936afe6a7,22,wall,filler,D,25,wall15.jpg,wall35.jpg,GoalA,NULL
1687287113,dc7589c45a6d036806031189cebf7db6,PennController,25,0,experiment,NULL,Canvas,canvas6,Print,NA,1687287027943,6054d018e3ad1cd936afe6a7,6054d018e3ad1cd936afe6a7,22,wall,filler,D,25,wall15.jpg,wall35.jpg,GoalA,NULL
1687287113,dc7589c45a6d036806031189cebf7db6,PennController,25,0,experiment,NULL,Video,progression,buffer,0.013858,1687287025778,6054d018e3ad1cd936afe6a7,6054d018e3ad1cd936afe6a7,22,wall,filler,D,25,wall15.jpg,wall35.jpg,GoalA,NULL
1687287113,dc7589c45a6d036806031189cebf7db6,PennController,25,0,experiment,NULL,Selector,choice,Selection,option1,1687287030226,6054d018e3ad1cd936afe6a7,6054d018e3ad1cd936afe6a7,22,wall,filler,D,25,wall15.jpg,wall35.jpg,GoalA,option1;option2
1687287113,dc7589c45a6d036806031189cebf7db6,PennController,25,0,experiment,NULL,PennController,24,_Trial_,End,1687287030229,6054d018e3ad1cd936afe6a7,6054d018e3ad1cd936afe6a7,22,wall,filler,D,25,wall15.jpg,wall35.jpg,GoalA,NULL
1687287113,dc7589c45a6d036806031189cebf7db6,PennController,23,0,experiment,NULL,PennController,22,_Trial_,Start,1687287030232,6054d018e3ad1cd936afe6a7,6054d018e3ad1cd936afe6a7,20,cat,filler,D,50,cat40.jpg,cat60.jpg,GoalA,NULL
1687287113,dc7589c45a6d036806031189cebf7db6,PennController,23,0,experiment,NULL,PennController,22,_Header_,Start,1687287030232,6054d018e3ad1cd936afe6a7,6054d018e3ad1cd936afe6a7,20,cat,filler,D,50,cat40.jpg,cat60.jpg,GoalA,NULL
1687287113,dc7589c45a6d036806031189cebf7db6,PennController,23,0,experiment,NULL,PennController,22,_Header_,End,1687287030232,6054d018e3ad1cd936afe6a7,6054d018e3ad1cd936afe6a7,20,cat,filler,D,50,cat40.jpg,cat60.jpg,GoalA,NULL
1687287113,dc7589c45a6d036806031189cebf7db6,PennController,23,0,experiment,NULL,Canvas,canvas6,Print,NA,1687287036944,6054d018e3ad1cd936afe6a7,6054d018e3ad1cd936afe6a7,20,cat,filler,D,50,cat40.jpg,cat60.jpg,GoalA,NULL
1687287113,dc7589c45a6d036806031189cebf7db6,PennController,23,0,experiment,NULL,Video,progression,buffer,0.010779,1687287033781,6054d018e3ad1cd936afe6a7,6054d018e3ad1cd936afe6a7,20,cat,filler,D,50,cat40.jpg,cat60.jpg,GoalA,NULL
1687287113,dc7589c45a6d036806031189cebf7db6,PennController,23,0,experiment,NULL,Selector,choice,Selection,option1,1687287040798,6054d018e3ad1cd936afe6a7,6054d018e3ad1cd936afe6a7,20,cat,filler,D,50,cat40.jpg,cat60.jpg,GoalA,option2;option1
1687287113,dc7589c45a6d036806031189cebf7db6,PennController,23,0,experiment,NULL,PennController,22,_Trial_,End,1687287040803,6054d018e3ad1cd936afe6a7,6054d018e3ad1cd936afe6a7,20,cat,filler,D,50,cat40.jpg,cat60.jpg,GoalA,NULL
1687287113,dc7589c45a6d036806031189cebf7db6,PennController,5,0,experiment,NULL,PennController,4,_Trial_,Start,1687287040807,6054d018e3ad1cd936afe6a7,6054d018e3ad1cd936afe6a7,2,door,critical,D,50,door40.jpg,door60.jpg,high,NULL
1687287113,dc7589c45a6d036806031189cebf7db6,PennController,5,0,experiment,NULL,PennController,4,_Header_,Start,1687287040807,6054d018e3ad1cd936afe6a7,6054d018e3ad1cd936afe6a7,2,door,critical,D,50,door40.jpg,door60.jpg,high,NULL
1687287113,dc7589c45a6d036806031189cebf7db6,PennController,5,0,experiment,NULL,PennController,4,_Header_,End,1687287040807,6054d018e3ad1cd936afe6a7,6054d018e3ad1cd936afe6a7,2,door,critical,D,50,door40.jpg,door60.jpg,high,NULL
1687287113,dc7589c45a6d036806031189cebf7db6,PennController,5,0,experiment,NULL,Canvas,canvas6,Print,NA,1687287047529,6054d018e3ad1cd936afe6a7,6054d018e3ad1cd936afe6a7,2,door,critical,D,50,door40.jpg,door60.jpg,high,NULL
1687287113,dc7589c45a6d036806031189cebf7db6,PennController,5,0,experiment,NULL,Video,progression,buffer,0.008596,1687287044350,6054d018e3ad1cd936afe6a7,6054d018e3ad1cd936afe6a7,2,door,critical,D,50,door40.jpg,door60.jpg,high,NULL
1687287113,dc7589c45a6d036806031189cebf7db6,PennController,5,0,experiment,NULL,Selector,choice,Selection,option1,1687287049270,6054d018e3ad1cd936afe6a7,6054d018e3ad1cd936afe6a7,2,door,critical,D,50,door40.jpg,door60.jpg,high,option2;option1
1687287113,dc7589c45a6d036806031189cebf7db6,PennController,5,0,experiment,NULL,PennController,4,_Trial_,End,1687287049273,6054d018e3ad1cd936afe6a7,6054d018e3ad1cd936afe6a7,2,door,critical,D,50,door40.jpg,door60.jpg,high,NULL
1687287113,dc7589c45a6d036806031189cebf7db6,PennController,22,0,experiment,NULL,PennController,21,_Trial_,Start,1687287049276,6054d018e3ad1cd936afe6a7,6054d018e3ad1cd936afe6a7,19,cup,filler,D,25,cup15.jpg,cup35.jpg,GoalB,NULL
1687287113,dc7589c45a6d036806031189cebf7db6,PennController,22,0,experiment,NULL,PennController,21,_Header_,Start,1687287049276,6054d018e3ad1cd936afe6a7,6054d018e3ad1cd936afe6a7,19,cup,filler,D,25,cup15.jpg,cup35.jpg,GoalB,NULL
1687287113,dc7589c45a6d036806031189cebf7db6,PennController,22,0,experiment,NULL,PennController,21,_Header_,End,1687287049277,6054d018e3ad1cd936afe6a7,6054d018e3ad1cd936afe6a7,19,cup,filler,D,25,cup15.jpg,cup35.jpg,GoalB,NULL
1687287113,dc7589c45a6d036806031189cebf7db6,PennController,22,0,experiment,NULL,Canvas,canvas6,Print,NA,1687287054978,6054d018e3ad1cd936afe6a7,6054d018e3ad1cd936afe6a7,19,cup,filler,D,25,cup15.jpg,cup35.jpg,GoalB,NULL
1687287113,dc7589c45a6d036806031189cebf7db6,PennController,22,0,experiment,NULL,Video,progression,buffer,0.003416,1687287052811,6054d018e3ad1cd936afe6a7,6054d018e3ad1cd936afe6a7,19,cup,filler,D,25,cup15.jpg,cup35.jpg,GoalB,NULL
1687287113,dc7589c45a6d036806031189cebf7db6,PennController,22,0,experiment,NULL,Selector,choice,Selection,option2,1687287056328,6054d018e3ad1cd936afe6a7,6054d018e3ad1cd936afe6a7,19,cup,filler,D,25,cup15.jpg,cup35.jpg,GoalB,option1;option2
1687287113,dc7589c45a6d036806031189cebf7db6,PennController,22,0,experiment,NULL,PennController,21,_Trial_,End,1687287056331,6054d018e3ad1cd936afe6a7,6054d018e3ad1cd936afe6a7,19,cup,filler,D,25,cup15.jpg,cup35.jpg,GoalB,NULL
1687287113,dc7589c45a6d036806031189cebf7db6,PennController,14,0,experiment,NULL,PennController,13,_Trial_,Start,1687287056334,6054d018e3ad1cd936afe6a7,6054d018e3ad1cd936afe6a7,11,beads,critical,D,50,beads40.jpg,beads60.jpg,high,NULL
1687287113,dc7589c45a6d036806031189cebf7db6,PennController,14,0,experiment,NULL,PennController,13,_Header_,Start,1687287056334,6054d018e3ad1cd936afe6a7,6054d018e3ad1cd936afe6a7,11,beads,critical,D,50,beads40.jpg,beads60.jpg,high,NULL
1687287113,dc7589c45a6d036806031189cebf7db6,PennController,14,0,experiment,NULL,PennController,13,_Header_,End,1687287056334,6054d018e3ad1cd936afe6a7,6054d018e3ad1cd936afe6a7,11,beads,critical,D,50,beads40.jpg,beads60.jpg,high,NULL
1687287113,dc7589c45a6d036806031189cebf7db6,PennController,14,0,experiment,NULL,Canvas,canvas6,Print,NA,1687287063039,6054d018e3ad1cd936afe6a7,6054d018e3ad1cd936afe6a7,11,beads,critical,D,50,beads40.jpg,beads60.jpg,high,NULL
1687287113,dc7589c45a6d036806031189cebf7db6,PennController,14,0,experiment,NULL,Video,progression,buffer,0.003148,1687287059872,6054d018e3ad1cd936afe6a7,6054d018e3ad1cd936afe6a7,11,beads,critical,D,50,beads40.jpg,beads60.jpg,high,NULL
1687287113,dc7589c45a6d036806031189cebf7db6,PennController,14,0,experiment,NULL,Selector,choice,Selection,option1,1687287065175,6054d018e3ad1cd936afe6a7,6054d018e3ad1cd936afe6a7,11,beads,critical,D,50,beads40.jpg,beads60.jpg,high,option1;option2
1687287113,dc7589c45a6d036806031189cebf7db6,PennController,14,0,experiment,NULL,PennController,13,_Trial_,End,1687287065178,6054d018e3ad1cd936afe6a7,6054d018e3ad1cd936afe6a7,11,beads,critical,D,50,beads40.jpg,beads60.jpg,high,NULL
1687287113,dc7589c45a6d036806031189cebf7db6,PennController,11,0,experiment,NULL,PennController,10,_Trial_,Start,1687287065182,6054d018e3ad1cd936afe6a7,6054d018e3ad1cd936afe6a7,8,cucumber,critical,D,50,cucumber42.jpg,cucumber60.jpg,high,NULL
1687287113,dc7589c45a6d036806031189cebf7db6,PennController,11,0,experiment,NULL,PennController,10,_Header_,Start,1687287065182,6054d018e3ad1cd936afe6a7,6054d018e3ad1cd936afe6a7,8,cucumber,critical,D,50,cucumber42.jpg,cucumber60.jpg,high,NULL
1687287113,dc7589c45a6d036806031189cebf7db6,PennController,11,0,experiment,NULL,PennController,10,_Header_,End,1687287065182,6054d018e3ad1cd936afe6a7,6054d018e3ad1cd936afe6a7,8,cucumber,critical,D,50,cucumber42.jpg,cucumber60.jpg,high,NULL
1687287113,dc7589c45a6d036806031189cebf7db6,PennController,11,0,experiment,NULL,Canvas,canvas6,Print,NA,1687287073297,6054d018e3ad1cd936afe6a7,6054d018e3ad1cd936afe6a7,8,cucumber,critical,D,50,cucumber42.jpg,cucumber60.jpg,high,NULL
1687287113,dc7589c45a6d036806031189cebf7db6,PennController,11,0,experiment,NULL,Video,progression,buffer,0.001731,1687287068715,6054d018e3ad1cd936afe6a7,6054d018e3ad1cd936afe6a7,8,cucumber,critical,D,50,cucumber42.jpg,cucumber60.jpg,high,NULL
1687287113,dc7589c45a6d036806031189cebf7db6,PennController,11,0,experiment,NULL,Selector,choice,Selection,option1,1687287077069,6054d018e3ad1cd936afe6a7,6054d018e3ad1cd936afe6a7,8,cucumber,critical,D,50,cucumber42.jpg,cucumber60.jpg,high,option2;option1
1687287113,dc7589c45a6d036806031189cebf7db6,PennController,11,0,experiment,NULL,PennController,10,_Trial_,End,1687287077070,6054d018e3ad1cd936afe6a7,6054d018e3ad1cd936afe6a7,8,cucumber,critical,D,50,cucumber42.jpg,cucumber60.jpg,high,NULL
1687287113,dc7589c45a6d036806031189cebf7db6,PennController,29,0,experiment,NULL,PennController,28,_Trial_,Start,1687287077070,6054d018e3ad1cd936afe6a7,6054d018e3ad1cd936afe6a7,26,sandwich,filler,D,50,sandwich40.jpg,sandwich60.jpg,GoalA,NULL
1687287113,dc7589c45a6d036806031189cebf7db6,PennController,29,0,experiment,NULL,PennController,28,_Header_,Start,1687287077070,6054d018e3ad1cd936afe6a7,6054d018e3ad1cd936afe6a7,26,sandwich,filler,D,50,sandwich40.jpg,sandwich60.jpg,GoalA,NULL
1687287113,dc7589c45a6d036806031189cebf7db6,PennController,29,0,experiment,NULL,PennController,28,_Header_,End,1687287077070,6054d018e3ad1cd936afe6a7,6054d018e3ad1cd936afe6a7,26,sandwich,filler,D,50,sandwich40.jpg,sandwich60.jpg,GoalA,NULL
1687287113,dc7589c45a6d036806031189cebf7db6,PennController,29,0,experiment,NULL,Canvas,canvas6,Print,NA,1687287083779,6054d018e3ad1cd936afe6a7,6054d018e3ad1cd936afe6a7,26,sandwich,filler,D,50,sandwich40.jpg,sandwich60.jpg,GoalA,NULL
1687287113,dc7589c45a6d036806031189cebf7db6,PennController,29,0,experiment,NULL,Video,progression,buffer,0.012637,1687287080619,6054d018e3ad1cd936afe6a7,6054d018e3ad1cd936afe6a7,26,sandwich,filler,D,50,sandwich40.jpg,sandwich60.jpg,GoalA,NULL
1687287113,dc7589c45a6d036806031189cebf7db6,PennController,29,0,experiment,NULL,Selector,choice,Selection,option1,1687287085597,6054d018e3ad1cd936afe6a7,6054d018e3ad1cd936afe6a7,26,sandwich,filler,D,50,sandwich40.jpg,sandwich60.jpg,GoalA,option2;option1
1687287113,dc7589c45a6d036806031189cebf7db6,PennController,29,0,experiment,NULL,PennController,28,_Trial_,End,1687287085598,6054d018e3ad1cd936afe6a7,6054d018e3ad1cd936afe6a7,26,sandwich,filler,D,50,sandwich40.jpg,sandwich60.jpg,GoalA,NULL
1687287113,dc7589c45a6d036806031189cebf7db6,PennController,10,0,experiment,NULL,PennController,9,_Trial_,Start,1687287085599,6054d018e3ad1cd936afe6a7,6054d018e3ad1cd936afe6a7,7,stack,critical,D,25,stack15.jpg,stack35.jpg,high,NULL
1687287113,dc7589c45a6d036806031189cebf7db6,PennController,10,0,experiment,NULL,PennController,9,_Header_,Start,1687287085599,6054d018e3ad1cd936afe6a7,6054d018e3ad1cd936afe6a7,7,stack,critical,D,25,stack15.jpg,stack35.jpg,high,NULL
1687287113,dc7589c45a6d036806031189cebf7db6,PennController,10,0,experiment,NULL,PennController,9,_Header_,End,1687287085599,6054d018e3ad1cd936afe6a7,6054d018e3ad1cd936afe6a7,7,stack,critical,D,25,stack15.jpg,stack35.jpg,high,NULL
1687287113,dc7589c45a6d036806031189cebf7db6,PennController,10,0,experiment,NULL,Canvas,canvas6,Print,NA,1687287091311,6054d018e3ad1cd936afe6a7,6054d018e3ad1cd936afe6a7,7,stack,critical,D,25,stack15.jpg,stack35.jpg,high,NULL
1687287113,dc7589c45a6d036806031189cebf7db6,PennController,10,0,experiment,NULL,Video,progression,buffer,0.010735,1687287089143,6054d018e3ad1cd936afe6a7,6054d018e3ad1cd936afe6a7,7,stack,critical,D,25,stack15.jpg,stack35.jpg,high,NULL
1687287113,dc7589c45a6d036806031189cebf7db6,PennController,10,0,experiment,NULL,Selector,choice,Selection,option1,1687287092833,6054d018e3ad1cd936afe6a7,6054d018e3ad1cd936afe6a7,7,stack,critical,D,25,stack15.jpg,stack35.jpg,high,option2;option1
1687287113,dc7589c45a6d036806031189cebf7db6,PennController,10,0,experiment,NULL,PennController,9,_Trial_,End,1687287092836,6054d018e3ad1cd936afe6a7,6054d018e3ad1cd936afe6a7,7,stack,critical,D,25,stack15.jpg,stack35.jpg,high,NULL
1687287113,dc7589c45a6d036806031189cebf7db6,PennController,7,0,experiment,NULL,PennController,6,_Trial_,Start,1687287092839,6054d018e3ad1cd936afe6a7,6054d018e3ad1cd936afe6a7,4,candy,critical,D,25,candy15.jpg,candy35.jpg,high,NULL
1687287113,dc7589c45a6d036806031189cebf7db6,PennController,7,0,experiment,NULL,PennController,6,_Header_,Start,1687287092839,6054d018e3ad1cd936afe6a7,6054d018e3ad1cd936afe6a7,4,candy,critical,D,25,candy15.jpg,candy35.jpg,high,NULL
1687287113,dc7589c45a6d036806031189cebf7db6,PennController,7,0,experiment,NULL,PennController,6,_Header_,End,1687287092839,6054d018e3ad1cd936afe6a7,6054d018e3ad1cd936afe6a7,4,candy,critical,D,25,candy15.jpg,candy35.jpg,high,NULL
1687287113,dc7589c45a6d036806031189cebf7db6,PennController,7,0,experiment,NULL,Canvas,canvas6,Print,NA,1687287098558,6054d018e3ad1cd936afe6a7,6054d018e3ad1cd936afe6a7,4,candy,critical,D,25,candy15.jpg,candy35.jpg,high,NULL
1687287113,dc7589c45a6d036806031189cebf7db6,PennController,7,0,experiment,NULL,Video,progression,buffer,0.014285,1687287096395,6054d018e3ad1cd936afe6a7,6054d018e3ad1cd936afe6a7,4,candy,critical,D,25,candy15.jpg,candy35.jpg,high,NULL
1687287113,dc7589c45a6d036806031189cebf7db6,PennController,7,0,experiment,NULL,Selector,choice,Selection,option2,1687287102451,6054d018e3ad1cd936afe6a7,6054d018e3ad1cd936afe6a7,4,candy,critical,D,25,candy15.jpg,candy35.jpg,high,option2;option1
1687287113,dc7589c45a6d036806031189cebf7db6,PennController,7,0,experiment,NULL,PennController,6,_Trial_,End,1687287102454,6054d018e3ad1cd936afe6a7,6054d018e3ad1cd936afe6a7,4,candy,critical,D,25,candy15.jpg,candy35.jpg,high,NULL
1687287113,dc7589c45a6d036806031189cebf7db6,PennController,15,0,experiment,NULL,PennController,14,_Trial_,Start,1687287102458,6054d018e3ad1cd936afe6a7,6054d018e3ad1cd936afe6a7,12,erase,critical,D,75,erase66.jpg,erase84.jpg,high,NULL
1687287113,dc7589c45a6d036806031189cebf7db6,PennController,15,0,experiment,NULL,PennController,14,_Header_,Start,1687287102458,6054d018e3ad1cd936afe6a7,6054d018e3ad1cd936afe6a7,12,erase,critical,D,75,erase66.jpg,erase84.jpg,high,NULL
1687287113,dc7589c45a6d036806031189cebf7db6,PennController,15,0,experiment,NULL,PennController,14,_Header_,End,1687287102459,6054d018e3ad1cd936afe6a7,6054d018e3ad1cd936afe6a7,12,erase,critical,D,75,erase66.jpg,erase84.jpg,high,NULL
1687287113,dc7589c45a6d036806031189cebf7db6,PennController,15,0,experiment,NULL,Canvas,canvas6,Print,NA,1687287112194,6054d018e3ad1cd936afe6a7,6054d018e3ad1cd936afe6a7,12,erase,critical,D,75,erase66.jpg,erase84.jpg,high,NULL
1687287113,dc7589c45a6d036806031189cebf7db6,PennController,15,0,experiment,NULL,Video,progression,buffer,0.010955,1687287106023,6054d018e3ad1cd936afe6a7,6054d018e3ad1cd936afe6a7,12,erase,critical,D,75,erase66.jpg,erase84.jpg,high,NULL
1687287113,dc7589c45a6d036806031189cebf7db6,PennController,15,0,experiment,NULL,Selector,choice,Selection,option2,1687287113187,6054d018e3ad1cd936afe6a7,6054d018e3ad1cd936afe6a7,12,erase,critical,D,75,erase66.jpg,erase84.jpg,high,option2;option1
1687287113,dc7589c45a6d036806031189cebf7db6,PennController,15,0,experiment,NULL,PennController,14,_Trial_,End,1687287113193,6054d018e3ad1cd936afe6a7,6054d018e3ad1cd936afe6a7,12,erase,critical,D,75,erase66.jpg,erase84.jpg,high,NULL
