#
# Results on Tuesday June 20 2023 18:55:35 UTC
# USER AGENT: Mozilla/5.0 (X11; Linux x86_64; rv:109.0) Gecko/20100101 Firefox/114.0
# Design number was non-random = 3
#
# Columns below this comment are as follows:
# 1. Results reception time.
# 2. MD5 hash of participant's IP address.
# 3. Controller name.
# 4. Order number of item.
# 5. Inner element number.
# 6. Label.
# 7. Latin Square Group.
# 8. PennElementType.
# 9. PennElementName.
# 10. Parameter.
# 11. Value.
# 12. EventTime.
# 13. PROLIFIC_ID.
# 14. Comments.
1687287335,1fa04cf04ab1ff8e0a9516690240aa14,PennController,2,0,consent,NULL,PennController,0,_Trial_,Start,1687286889243,59f24a6f1f4f55000108a110,NULL
1687287335,1fa04cf04ab1ff8e0a9516690240aa14,PennController,2,0,consent,NULL,PennController,0,_Header_,Start,1687286889244,59f24a6f1f4f55000108a110,NULL
1687287335,1fa04cf04ab1ff8e0a9516690240aa14,PennController,2,0,consent,NULL,PennController,0,_Header_,End,1687286889245,59f24a6f1f4f55000108a110,NULL
1687287335,1fa04cf04ab1ff8e0a9516690240aa14,PennController,2,0,consent,NULL,PennController,0,_Trial_,End,1687286980779,59f24a6f1f4f55000108a110,NULL
# Columns below this comment are as follows:
# 14. ID.
# 15. Comments.
1687287335,1fa04cf04ab1ff8e0a9516690240aa14,PennController,3,0,intro,NULL,PennController,1,_Trial_,Start,1687286980785,59f24a6f1f4f55000108a110,59f24a6f1f4f55000108a110,NULL
1687287335,1fa04cf04ab1ff8e0a9516690240aa14,PennController,3,0,intro,NULL,PennController,1,_Header_,Start,1687286980785,59f24a6f1f4f55000108a110,59f24a6f1f4f55000108a110,NULL
1687287335,1fa04cf04ab1ff8e0a9516690240aa14,PennController,3,0,intro,NULL,PennController,1,_Header_,End,1687286980786,59f24a6f1f4f55000108a110,59f24a6f1f4f55000108a110,NULL
1687287335,1fa04cf04ab1ff8e0a9516690240aa14,PennController,3,0,intro,NULL,PennController,1,_Trial_,End,1687286998874,59f24a6f1f4f55000108a110,59f24a6f1f4f55000108a110,NULL
# Columns below this comment are as follows:
# 15. item_number.
# 16. item.
# 17. type.
# 18. Group.
# 19. prog.
# 20. prev_image.
# 21. next_image.
# 22. height.
# 23. Comments.
1687287335,1fa04cf04ab1ff8e0a9516690240aa14,PennController,16,0,experiment,NULL,PennController,15,_Trial_,Start,1687286998876,59f24a6f1f4f55000108a110,59f24a6f1f4f55000108a110,13,mix,critical,D,25,mix15.jpg,mix35.jpg,high,NULL
1687287335,1fa04cf04ab1ff8e0a9516690240aa14,PennController,16,0,experiment,NULL,PennController,15,_Header_,Start,1687286998876,59f24a6f1f4f55000108a110,59f24a6f1f4f55000108a110,13,mix,critical,D,25,mix15.jpg,mix35.jpg,high,NULL
1687287335,1fa04cf04ab1ff8e0a9516690240aa14,PennController,16,0,experiment,NULL,PennController,15,_Header_,End,1687286998879,59f24a6f1f4f55000108a110,59f24a6f1f4f55000108a110,13,mix,critical,D,25,mix15.jpg,mix35.jpg,high,NULL
1687287335,1fa04cf04ab1ff8e0a9516690240aa14,PennController,16,0,experiment,NULL,Video,progression,buffer,0,1687287002436,59f24a6f1f4f55000108a110,59f24a6f1f4f55000108a110,13,mix,critical,D,25,mix15.jpg,mix35.jpg,high,NULL
1687287335,1fa04cf04ab1ff8e0a9516690240aa14,PennController,16,0,experiment,NULL,Canvas,canvas6,Print,NA,1687287004658,59f24a6f1f4f55000108a110,59f24a6f1f4f55000108a110,13,mix,critical,D,25,mix15.jpg,mix35.jpg,high,NULL
1687287335,1fa04cf04ab1ff8e0a9516690240aa14,PennController,16,0,experiment,NULL,Selector,choice,Selection,option2,1687287008050,59f24a6f1f4f55000108a110,59f24a6f1f4f55000108a110,13,mix,critical,D,25,mix15.jpg,mix35.jpg,high,option2;option1
1687287335,1fa04cf04ab1ff8e0a9516690240aa14,PennController,16,0,experiment,NULL,PennController,15,_Trial_,End,1687287008052,59f24a6f1f4f55000108a110,59f24a6f1f4f55000108a110,13,mix,critical,D,25,mix15.jpg,mix35.jpg,high,NULL
1687287335,1fa04cf04ab1ff8e0a9516690240aa14,PennController,19,0,experiment,NULL,PennController,18,_Trial_,Start,1687287008054,59f24a6f1f4f55000108a110,59f24a6f1f4f55000108a110,16,blinds,critical,D,25,blinds15.jpg,blinds33.jpg,high,NULL
1687287335,1fa04cf04ab1ff8e0a9516690240aa14,PennController,19,0,experiment,NULL,PennController,18,_Header_,Start,1687287008054,59f24a6f1f4f55000108a110,59f24a6f1f4f55000108a110,16,blinds,critical,D,25,blinds15.jpg,blinds33.jpg,high,NULL
1687287335,1fa04cf04ab1ff8e0a9516690240aa14,PennController,19,0,experiment,NULL,PennController,18,_Header_,End,1687287008056,59f24a6f1f4f55000108a110,59f24a6f1f4f55000108a110,16,blinds,critical,D,25,blinds15.jpg,blinds33.jpg,high,NULL
1687287335,1fa04cf04ab1ff8e0a9516690240aa14,PennController,19,0,experiment,NULL,Video,progression,buffer,0,1687287011586,59f24a6f1f4f55000108a110,59f24a6f1f4f55000108a110,16,blinds,critical,D,25,blinds15.jpg,blinds33.jpg,high,NULL
1687287335,1fa04cf04ab1ff8e0a9516690240aa14,PennController,19,0,experiment,NULL,Canvas,canvas6,Print,NA,1687287014410,59f24a6f1f4f55000108a110,59f24a6f1f4f55000108a110,16,blinds,critical,D,25,blinds15.jpg,blinds33.jpg,high,NULL
1687287335,1fa04cf04ab1ff8e0a9516690240aa14,PennController,19,0,experiment,NULL,Selector,choice,Selection,option2,1687287016470,59f24a6f1f4f55000108a110,59f24a6f1f4f55000108a110,16,blinds,critical,D,25,blinds15.jpg,blinds33.jpg,high,option2;option1
1687287335,1fa04cf04ab1ff8e0a9516690240aa14,PennController,19,0,experiment,NULL,PennController,18,_Trial_,End,1687287016472,59f24a6f1f4f55000108a110,59f24a6f1f4f55000108a110,16,blinds,critical,D,25,blinds15.jpg,blinds33.jpg,high,NULL
1687287335,1fa04cf04ab1ff8e0a9516690240aa14,PennController,20,0,experiment,NULL,PennController,19,_Trial_,Start,1687287016474,59f24a6f1f4f55000108a110,59f24a6f1f4f55000108a110,17,roll,critical,D,50,roll40.jpg,roll60.jpg,high,NULL
1687287335,1fa04cf04ab1ff8e0a9516690240aa14,PennController,20,0,experiment,NULL,PennController,19,_Header_,Start,1687287016474,59f24a6f1f4f55000108a110,59f24a6f1f4f55000108a110,17,roll,critical,D,50,roll40.jpg,roll60.jpg,high,NULL
1687287335,1fa04cf04ab1ff8e0a9516690240aa14,PennController,20,0,experiment,NULL,PennController,19,_Header_,End,1687287016475,59f24a6f1f4f55000108a110,59f24a6f1f4f55000108a110,17,roll,critical,D,50,roll40.jpg,roll60.jpg,high,NULL
1687287335,1fa04cf04ab1ff8e0a9516690240aa14,PennController,20,0,experiment,NULL,Video,progression,buffer,0,1687287020004,59f24a6f1f4f55000108a110,59f24a6f1f4f55000108a110,17,roll,critical,D,50,roll40.jpg,roll60.jpg,high,NULL
1687287335,1fa04cf04ab1ff8e0a9516690240aa14,PennController,20,0,experiment,NULL,Canvas,canvas6,Print,NA,1687287023233,59f24a6f1f4f55000108a110,59f24a6f1f4f55000108a110,17,roll,critical,D,50,roll40.jpg,roll60.jpg,high,NULL
1687287335,1fa04cf04ab1ff8e0a9516690240aa14,PennController,20,0,experiment,NULL,Selector,choice,Selection,option2,1687287027655,59f24a6f1f4f55000108a110,59f24a6f1f4f55000108a110,17,roll,critical,D,50,roll40.jpg,roll60.jpg,high,option2;option1
1687287335,1fa04cf04ab1ff8e0a9516690240aa14,PennController,20,0,experiment,NULL,PennController,19,_Trial_,End,1687287027657,59f24a6f1f4f55000108a110,59f24a6f1f4f55000108a110,17,roll,critical,D,50,roll40.jpg,roll60.jpg,high,NULL
1687287335,1fa04cf04ab1ff8e0a9516690240aa14,PennController,23,0,experiment,NULL,PennController,22,_Trial_,Start,1687287027670,59f24a6f1f4f55000108a110,59f24a6f1f4f55000108a110,20,cat,filler,D,50,cat40.jpg,cat60.jpg,GoalA,NULL
1687287335,1fa04cf04ab1ff8e0a9516690240aa14,PennController,23,0,experiment,NULL,PennController,22,_Header_,Start,1687287027670,59f24a6f1f4f55000108a110,59f24a6f1f4f55000108a110,20,cat,filler,D,50,cat40.jpg,cat60.jpg,GoalA,NULL
1687287335,1fa04cf04ab1ff8e0a9516690240aa14,PennController,23,0,experiment,NULL,PennController,22,_Header_,End,1687287027670,59f24a6f1f4f55000108a110,59f24a6f1f4f55000108a110,20,cat,filler,D,50,cat40.jpg,cat60.jpg,GoalA,NULL
1687287335,1fa04cf04ab1ff8e0a9516690240aa14,PennController,23,0,experiment,NULL,Video,progression,buffer,0,1687287031218,59f24a6f1f4f55000108a110,59f24a6f1f4f55000108a110,20,cat,filler,D,50,cat40.jpg,cat60.jpg,GoalA,NULL
1687287335,1fa04cf04ab1ff8e0a9516690240aa14,PennController,23,0,experiment,NULL,Canvas,canvas6,Print,NA,1687287034445,59f24a6f1f4f55000108a110,59f24a6f1f4f55000108a110,20,cat,filler,D,50,cat40.jpg,cat60.jpg,GoalA,NULL
1687287335,1fa04cf04ab1ff8e0a9516690240aa14,PennController,23,0,experiment,NULL,Selector,choice,Selection,option2,1687287040926,59f24a6f1f4f55000108a110,59f24a6f1f4f55000108a110,20,cat,filler,D,50,cat40.jpg,cat60.jpg,GoalA,option2;option1
1687287335,1fa04cf04ab1ff8e0a9516690240aa14,PennController,23,0,experiment,NULL,PennController,22,_Trial_,End,1687287040929,59f24a6f1f4f55000108a110,59f24a6f1f4f55000108a110,20,cat,filler,D,50,cat40.jpg,cat60.jpg,GoalA,NULL
1687287335,1fa04cf04ab1ff8e0a9516690240aa14,PennController,8,0,experiment,NULL,PennController,7,_Trial_,Start,1687287040931,59f24a6f1f4f55000108a110,59f24a6f1f4f55000108a110,5,book,critical,D,50,book40.jpg,book60.jpg,high,NULL
1687287335,1fa04cf04ab1ff8e0a9516690240aa14,PennController,8,0,experiment,NULL,PennController,7,_Header_,Start,1687287040931,59f24a6f1f4f55000108a110,59f24a6f1f4f55000108a110,5,book,critical,D,50,book40.jpg,book60.jpg,high,NULL
1687287335,1fa04cf04ab1ff8e0a9516690240aa14,PennController,8,0,experiment,NULL,PennController,7,_Header_,End,1687287040932,59f24a6f1f4f55000108a110,59f24a6f1f4f55000108a110,5,book,critical,D,50,book40.jpg,book60.jpg,high,NULL
1687287335,1fa04cf04ab1ff8e0a9516690240aa14,PennController,8,0,experiment,NULL,Video,progression,buffer,0,1687287044467,59f24a6f1f4f55000108a110,59f24a6f1f4f55000108a110,5,book,critical,D,50,book40.jpg,book60.jpg,high,NULL
1687287335,1fa04cf04ab1ff8e0a9516690240aa14,PennController,8,0,experiment,NULL,Canvas,canvas6,Print,NA,1687287047689,59f24a6f1f4f55000108a110,59f24a6f1f4f55000108a110,5,book,critical,D,50,book40.jpg,book60.jpg,high,NULL
1687287335,1fa04cf04ab1ff8e0a9516690240aa14,PennController,8,0,experiment,NULL,Selector,choice,Selection,option1,1687287053113,59f24a6f1f4f55000108a110,59f24a6f1f4f55000108a110,5,book,critical,D,50,book40.jpg,book60.jpg,high,option2;option1
1687287335,1fa04cf04ab1ff8e0a9516690240aa14,PennController,8,0,experiment,NULL,PennController,7,_Trial_,End,1687287053117,59f24a6f1f4f55000108a110,59f24a6f1f4f55000108a110,5,book,critical,D,50,book40.jpg,book60.jpg,high,NULL
1687287335,1fa04cf04ab1ff8e0a9516690240aa14,PennController,18,0,experiment,NULL,PennController,17,_Trial_,Start,1687287053119,59f24a6f1f4f55000108a110,59f24a6f1f4f55000108a110,15,zip,critical,D,75,zip65.jpg,zip85.jpg,high,NULL
1687287335,1fa04cf04ab1ff8e0a9516690240aa14,PennController,18,0,experiment,NULL,PennController,17,_Header_,Start,1687287053119,59f24a6f1f4f55000108a110,59f24a6f1f4f55000108a110,15,zip,critical,D,75,zip65.jpg,zip85.jpg,high,NULL
1687287335,1fa04cf04ab1ff8e0a9516690240aa14,PennController,18,0,experiment,NULL,PennController,17,_Header_,End,1687287053119,59f24a6f1f4f55000108a110,59f24a6f1f4f55000108a110,15,zip,critical,D,75,zip65.jpg,zip85.jpg,high,NULL
1687287335,1fa04cf04ab1ff8e0a9516690240aa14,PennController,18,0,experiment,NULL,Video,progression,buffer,0,1687287056656,59f24a6f1f4f55000108a110,59f24a6f1f4f55000108a110,15,zip,critical,D,75,zip65.jpg,zip85.jpg,high,NULL
1687287335,1fa04cf04ab1ff8e0a9516690240aa14,PennController,18,0,experiment,NULL,Canvas,canvas6,Print,NA,1687287060083,59f24a6f1f4f55000108a110,59f24a6f1f4f55000108a110,15,zip,critical,D,75,zip65.jpg,zip85.jpg,high,NULL
1687287335,1fa04cf04ab1ff8e0a9516690240aa14,PennController,18,0,experiment,NULL,Selector,choice,Selection,option2,1687287066861,59f24a6f1f4f55000108a110,59f24a6f1f4f55000108a110,15,zip,critical,D,75,zip65.jpg,zip85.jpg,high,option1;option2
1687287335,1fa04cf04ab1ff8e0a9516690240aa14,PennController,18,0,experiment,NULL,PennController,17,_Trial_,End,1687287066864,59f24a6f1f4f55000108a110,59f24a6f1f4f55000108a110,15,zip,critical,D,75,zip65.jpg,zip85.jpg,high,NULL
1687287335,1fa04cf04ab1ff8e0a9516690240aa14,PennController,32,0,experiment,NULL,PennController,31,_Trial_,Start,1687287066866,59f24a6f1f4f55000108a110,59f24a6f1f4f55000108a110,29,frog,filler,D,50,frog40.jpg,frog60.jpg,GoalB,NULL
1687287335,1fa04cf04ab1ff8e0a9516690240aa14,PennController,32,0,experiment,NULL,PennController,31,_Header_,Start,1687287066866,59f24a6f1f4f55000108a110,59f24a6f1f4f55000108a110,29,frog,filler,D,50,frog40.jpg,frog60.jpg,GoalB,NULL
1687287335,1fa04cf04ab1ff8e0a9516690240aa14,PennController,32,0,experiment,NULL,PennController,31,_Header_,End,1687287066868,59f24a6f1f4f55000108a110,59f24a6f1f4f55000108a110,29,frog,filler,D,50,frog40.jpg,frog60.jpg,GoalB,NULL
1687287335,1fa04cf04ab1ff8e0a9516690240aa14,PennController,32,0,experiment,NULL,Video,progression,buffer,0,1687287070409,59f24a6f1f4f55000108a110,59f24a6f1f4f55000108a110,29,frog,filler,D,50,frog40.jpg,frog60.jpg,GoalB,NULL
1687287335,1fa04cf04ab1ff8e0a9516690240aa14,PennController,32,0,experiment,NULL,Canvas,canvas6,Print,NA,1687287073629,59f24a6f1f4f55000108a110,59f24a6f1f4f55000108a110,29,frog,filler,D,50,frog40.jpg,frog60.jpg,GoalB,NULL
1687287335,1fa04cf04ab1ff8e0a9516690240aa14,PennController,32,0,experiment,NULL,Selector,choice,Selection,option2,1687287079148,59f24a6f1f4f55000108a110,59f24a6f1f4f55000108a110,29,frog,filler,D,50,frog40.jpg,frog60.jpg,GoalB,option1;option2
1687287335,1fa04cf04ab1ff8e0a9516690240aa14,PennController,32,0,experiment,NULL,PennController,31,_Trial_,End,1687287079154,59f24a6f1f4f55000108a110,59f24a6f1f4f55000108a110,29,frog,filler,D,50,frog40.jpg,frog60.jpg,GoalB,NULL
1687287335,1fa04cf04ab1ff8e0a9516690240aa14,PennController,10,0,experiment,NULL,PennController,9,_Trial_,Start,1687287079158,59f24a6f1f4f55000108a110,59f24a6f1f4f55000108a110,7,stack,critical,D,25,stack15.jpg,stack35.jpg,high,NULL
1687287335,1fa04cf04ab1ff8e0a9516690240aa14,PennController,10,0,experiment,NULL,PennController,9,_Header_,Start,1687287079158,59f24a6f1f4f55000108a110,59f24a6f1f4f55000108a110,7,stack,critical,D,25,stack15.jpg,stack35.jpg,high,NULL
1687287335,1fa04cf04ab1ff8e0a9516690240aa14,PennController,10,0,experiment,NULL,PennController,9,_Header_,End,1687287079161,59f24a6f1f4f55000108a110,59f24a6f1f4f55000108a110,7,stack,critical,D,25,stack15.jpg,stack35.jpg,high,NULL
1687287335,1fa04cf04ab1ff8e0a9516690240aa14,PennController,10,0,experiment,NULL,Video,progression,buffer,0,1687287082685,59f24a6f1f4f55000108a110,59f24a6f1f4f55000108a110,7,stack,critical,D,25,stack15.jpg,stack35.jpg,high,NULL
1687287335,1fa04cf04ab1ff8e0a9516690240aa14,PennController,10,0,experiment,NULL,Canvas,canvas6,Print,NA,1687287084913,59f24a6f1f4f55000108a110,59f24a6f1f4f55000108a110,7,stack,critical,D,25,stack15.jpg,stack35.jpg,high,NULL
1687287335,1fa04cf04ab1ff8e0a9516690240aa14,PennController,10,0,experiment,NULL,Selector,choice,Selection,option2,1687287096997,59f24a6f1f4f55000108a110,59f24a6f1f4f55000108a110,7,stack,critical,D,25,stack15.jpg,stack35.jpg,high,option2;option1
1687287335,1fa04cf04ab1ff8e0a9516690240aa14,PennController,10,0,experiment,NULL,PennController,9,_Trial_,End,1687287097003,59f24a6f1f4f55000108a110,59f24a6f1f4f55000108a110,7,stack,critical,D,25,stack15.jpg,stack35.jpg,high,NULL
1687287335,1fa04cf04ab1ff8e0a9516690240aa14,PennController,5,0,experiment,NULL,PennController,4,_Trial_,Start,1687287097010,59f24a6f1f4f55000108a110,59f24a6f1f4f55000108a110,2,door,critical,D,50,door40.jpg,door60.jpg,high,NULL
1687287335,1fa04cf04ab1ff8e0a9516690240aa14,PennController,5,0,experiment,NULL,PennController,4,_Header_,Start,1687287097010,59f24a6f1f4f55000108a110,59f24a6f1f4f55000108a110,2,door,critical,D,50,door40.jpg,door60.jpg,high,NULL
1687287335,1fa04cf04ab1ff8e0a9516690240aa14,PennController,5,0,experiment,NULL,PennController,4,_Header_,End,1687287097011,59f24a6f1f4f55000108a110,59f24a6f1f4f55000108a110,2,door,critical,D,50,door40.jpg,door60.jpg,high,NULL
1687287335,1fa04cf04ab1ff8e0a9516690240aa14,PennController,5,0,experiment,NULL,Video,progression,buffer,0,1687287100547,59f24a6f1f4f55000108a110,59f24a6f1f4f55000108a110,2,door,critical,D,50,door40.jpg,door60.jpg,high,NULL
1687287335,1fa04cf04ab1ff8e0a9516690240aa14,PennController,5,0,experiment,NULL,Canvas,canvas6,Print,NA,1687287103776,59f24a6f1f4f55000108a110,59f24a6f1f4f55000108a110,2,door,critical,D,50,door40.jpg,door60.jpg,high,NULL
1687287335,1fa04cf04ab1ff8e0a9516690240aa14,PennController,5,0,experiment,NULL,Selector,choice,Selection,option2,1687287110175,59f24a6f1f4f55000108a110,59f24a6f1f4f55000108a110,2,door,critical,D,50,door40.jpg,door60.jpg,high,option2;option1
1687287335,1fa04cf04ab1ff8e0a9516690240aa14,PennController,5,0,experiment,NULL,PennController,4,_Trial_,End,1687287110178,59f24a6f1f4f55000108a110,59f24a6f1f4f55000108a110,2,door,critical,D,50,door40.jpg,door60.jpg,high,NULL
1687287335,1fa04cf04ab1ff8e0a9516690240aa14,PennController,31,0,experiment,NULL,PennController,30,_Trial_,Start,1687287110180,59f24a6f1f4f55000108a110,59f24a6f1f4f55000108a110,28,sort,filler,D,25,sort15.jpg,sort35.jpg,GoalA,NULL
1687287335,1fa04cf04ab1ff8e0a9516690240aa14,PennController,31,0,experiment,NULL,PennController,30,_Header_,Start,1687287110180,59f24a6f1f4f55000108a110,59f24a6f1f4f55000108a110,28,sort,filler,D,25,sort15.jpg,sort35.jpg,GoalA,NULL
1687287335,1fa04cf04ab1ff8e0a9516690240aa14,PennController,31,0,experiment,NULL,PennController,30,_Header_,End,1687287110180,59f24a6f1f4f55000108a110,59f24a6f1f4f55000108a110,28,sort,filler,D,25,sort15.jpg,sort35.jpg,GoalA,NULL
1687287335,1fa04cf04ab1ff8e0a9516690240aa14,PennController,31,0,experiment,NULL,Video,progression,buffer,0,1687287113706,59f24a6f1f4f55000108a110,59f24a6f1f4f55000108a110,28,sort,filler,D,25,sort15.jpg,sort35.jpg,GoalA,NULL
1687287335,1fa04cf04ab1ff8e0a9516690240aa14,PennController,31,0,experiment,NULL,Canvas,canvas6,Print,NA,1687287115924,59f24a6f1f4f55000108a110,59f24a6f1f4f55000108a110,28,sort,filler,D,25,sort15.jpg,sort35.jpg,GoalA,NULL
1687287335,1fa04cf04ab1ff8e0a9516690240aa14,PennController,31,0,experiment,NULL,Selector,choice,Selection,option2,1687287122849,59f24a6f1f4f55000108a110,59f24a6f1f4f55000108a110,28,sort,filler,D,25,sort15.jpg,sort35.jpg,GoalA,option1;option2
1687287335,1fa04cf04ab1ff8e0a9516690240aa14,PennController,31,0,experiment,NULL,PennController,30,_Trial_,End,1687287122852,59f24a6f1f4f55000108a110,59f24a6f1f4f55000108a110,28,sort,filler,D,25,sort15.jpg,sort35.jpg,GoalA,NULL
1687287335,1fa04cf04ab1ff8e0a9516690240aa14,PennController,30,0,experiment,NULL,PennController,29,_Trial_,Start,1687287122853,59f24a6f1f4f55000108a110,59f24a6f1f4f55000108a110,27,square,filler,D,75,square65.jpg,square85.jpg,GoalB,NULL
1687287335,1fa04cf04ab1ff8e0a9516690240aa14,PennController,30,0,experiment,NULL,PennController,29,_Header_,Start,1687287122853,59f24a6f1f4f55000108a110,59f24a6f1f4f55000108a110,27,square,filler,D,75,square65.jpg,square85.jpg,GoalB,NULL
1687287335,1fa04cf04ab1ff8e0a9516690240aa14,PennController,30,0,experiment,NULL,PennController,29,_Header_,End,1687287122854,59f24a6f1f4f55000108a110,59f24a6f1f4f55000108a110,27,square,filler,D,75,square65.jpg,square85.jpg,GoalB,NULL
1687287335,1fa04cf04ab1ff8e0a9516690240aa14,PennController,30,0,experiment,NULL,Video,progression,buffer,0,1687287126385,59f24a6f1f4f55000108a110,59f24a6f1f4f55000108a110,27,square,filler,D,75,square65.jpg,square85.jpg,GoalB,NULL
1687287335,1fa04cf04ab1ff8e0a9516690240aa14,PennController,30,0,experiment,NULL,Canvas,canvas6,Print,NA,1687287130612,59f24a6f1f4f55000108a110,59f24a6f1f4f55000108a110,27,square,filler,D,75,square65.jpg,square85.jpg,GoalB,NULL
1687287335,1fa04cf04ab1ff8e0a9516690240aa14,PennController,30,0,experiment,NULL,Selector,choice,Selection,option2,1687287136883,59f24a6f1f4f55000108a110,59f24a6f1f4f55000108a110,27,square,filler,D,75,square65.jpg,square85.jpg,GoalB,option2;option1
1687287335,1fa04cf04ab1ff8e0a9516690240aa14,PennController,30,0,experiment,NULL,PennController,29,_Trial_,End,1687287136888,59f24a6f1f4f55000108a110,59f24a6f1f4f55000108a110,27,square,filler,D,75,square65.jpg,square85.jpg,GoalB,NULL
1687287335,1fa04cf04ab1ff8e0a9516690240aa14,PennController,11,0,experiment,NULL,PennController,10,_Trial_,Start,1687287136890,59f24a6f1f4f55000108a110,59f24a6f1f4f55000108a110,8,cucumber,critical,D,50,cucumber42.jpg,cucumber60.jpg,high,NULL
1687287335,1fa04cf04ab1ff8e0a9516690240aa14,PennController,11,0,experiment,NULL,PennController,10,_Header_,Start,1687287136890,59f24a6f1f4f55000108a110,59f24a6f1f4f55000108a110,8,cucumber,critical,D,50,cucumber42.jpg,cucumber60.jpg,high,NULL
1687287335,1fa04cf04ab1ff8e0a9516690240aa14,PennController,11,0,experiment,NULL,PennController,10,_Header_,End,1687287136891,59f24a6f1f4f55000108a110,59f24a6f1f4f55000108a110,8,cucumber,critical,D,50,cucumber42.jpg,cucumber60.jpg,high,NULL
1687287335,1fa04cf04ab1ff8e0a9516690240aa14,PennController,11,0,experiment,NULL,Video,progression,buffer,0,1687287140427,59f24a6f1f4f55000108a110,59f24a6f1f4f55000108a110,8,cucumber,critical,D,50,cucumber42.jpg,cucumber60.jpg,high,NULL
1687287335,1fa04cf04ab1ff8e0a9516690240aa14,PennController,11,0,experiment,NULL,Canvas,canvas6,Print,NA,1687287145051,59f24a6f1f4f55000108a110,59f24a6f1f4f55000108a110,8,cucumber,critical,D,50,cucumber42.jpg,cucumber60.jpg,high,NULL
1687287335,1fa04cf04ab1ff8e0a9516690240aa14,PennController,11,0,experiment,NULL,Selector,choice,Selection,option1,1687287147514,59f24a6f1f4f55000108a110,59f24a6f1f4f55000108a110,8,cucumber,critical,D,50,cucumber42.jpg,cucumber60.jpg,high,option2;option1
1687287335,1fa04cf04ab1ff8e0a9516690240aa14,PennController,11,0,experiment,NULL,PennController,10,_Trial_,End,1687287147515,59f24a6f1f4f55000108a110,59f24a6f1f4f55000108a110,8,cucumber,critical,D,50,cucumber42.jpg,cucumber60.jpg,high,NULL
1687287335,1fa04cf04ab1ff8e0a9516690240aa14,PennController,13,0,experiment,NULL,PennController,12,_Trial_,Start,1687287147516,59f24a6f1f4f55000108a110,59f24a6f1f4f55000108a110,10,train,critical,D,25,train15.jpg,train35.jpg,high,NULL
1687287335,1fa04cf04ab1ff8e0a9516690240aa14,PennController,13,0,experiment,NULL,PennController,12,_Header_,Start,1687287147516,59f24a6f1f4f55000108a110,59f24a6f1f4f55000108a110,10,train,critical,D,25,train15.jpg,train35.jpg,high,NULL
1687287335,1fa04cf04ab1ff8e0a9516690240aa14,PennController,13,0,experiment,NULL,PennController,12,_Header_,End,1687287147516,59f24a6f1f4f55000108a110,59f24a6f1f4f55000108a110,10,train,critical,D,25,train15.jpg,train35.jpg,high,NULL
1687287335,1fa04cf04ab1ff8e0a9516690240aa14,PennController,13,0,experiment,NULL,Video,progression,buffer,0,1687287151045,59f24a6f1f4f55000108a110,59f24a6f1f4f55000108a110,10,train,critical,D,25,train15.jpg,train35.jpg,high,NULL
1687287335,1fa04cf04ab1ff8e0a9516690240aa14,PennController,13,0,experiment,NULL,Canvas,canvas6,Print,NA,1687287153273,59f24a6f1f4f55000108a110,59f24a6f1f4f55000108a110,10,train,critical,D,25,train15.jpg,train35.jpg,high,NULL
1687287335,1fa04cf04ab1ff8e0a9516690240aa14,PennController,13,0,experiment,NULL,Selector,choice,Selection,option1,1687287155147,59f24a6f1f4f55000108a110,59f24a6f1f4f55000108a110,10,train,critical,D,25,train15.jpg,train35.jpg,high,option2;option1
1687287335,1fa04cf04ab1ff8e0a9516690240aa14,PennController,13,0,experiment,NULL,PennController,12,_Trial_,End,1687287155150,59f24a6f1f4f55000108a110,59f24a6f1f4f55000108a110,10,train,critical,D,25,train15.jpg,train35.jpg,high,NULL
1687287335,1fa04cf04ab1ff8e0a9516690240aa14,PennController,28,0,experiment,NULL,PennController,27,_Trial_,Start,1687287155151,59f24a6f1f4f55000108a110,59f24a6f1f4f55000108a110,25,house,filler,D,25,house15.jpg,house35.jpg,GoalB,NULL
1687287335,1fa04cf04ab1ff8e0a9516690240aa14,PennController,28,0,experiment,NULL,PennController,27,_Header_,Start,1687287155151,59f24a6f1f4f55000108a110,59f24a6f1f4f55000108a110,25,house,filler,D,25,house15.jpg,house35.jpg,GoalB,NULL
1687287335,1fa04cf04ab1ff8e0a9516690240aa14,PennController,28,0,experiment,NULL,PennController,27,_Header_,End,1687287155153,59f24a6f1f4f55000108a110,59f24a6f1f4f55000108a110,25,house,filler,D,25,house15.jpg,house35.jpg,GoalB,NULL
1687287335,1fa04cf04ab1ff8e0a9516690240aa14,PennController,28,0,experiment,NULL,Video,progression,buffer,0,1687287158682,59f24a6f1f4f55000108a110,59f24a6f1f4f55000108a110,25,house,filler,D,25,house15.jpg,house35.jpg,GoalB,NULL
1687287335,1fa04cf04ab1ff8e0a9516690240aa14,PennController,28,0,experiment,NULL,Canvas,canvas6,Print,NA,1687287160903,59f24a6f1f4f55000108a110,59f24a6f1f4f55000108a110,25,house,filler,D,25,house15.jpg,house35.jpg,GoalB,NULL
1687287335,1fa04cf04ab1ff8e0a9516690240aa14,PennController,28,0,experiment,NULL,Selector,choice,Selection,option2,1687287163026,59f24a6f1f4f55000108a110,59f24a6f1f4f55000108a110,25,house,filler,D,25,house15.jpg,house35.jpg,GoalB,option2;option1
1687287335,1fa04cf04ab1ff8e0a9516690240aa14,PennController,28,0,experiment,NULL,PennController,27,_Trial_,End,1687287163029,59f24a6f1f4f55000108a110,59f24a6f1f4f55000108a110,25,house,filler,D,25,house15.jpg,house35.jpg,GoalB,NULL
1687287335,1fa04cf04ab1ff8e0a9516690240aa14,PennController,15,0,experiment,NULL,PennController,14,_Trial_,Start,1687287163032,59f24a6f1f4f55000108a110,59f24a6f1f4f55000108a110,12,erase,critical,D,75,erase66.jpg,erase84.jpg,high,NULL
1687287335,1fa04cf04ab1ff8e0a9516690240aa14,PennController,15,0,experiment,NULL,PennController,14,_Header_,Start,1687287163032,59f24a6f1f4f55000108a110,59f24a6f1f4f55000108a110,12,erase,critical,D,75,erase66.jpg,erase84.jpg,high,NULL
1687287335,1fa04cf04ab1ff8e0a9516690240aa14,PennController,15,0,experiment,NULL,PennController,14,_Header_,End,1687287163034,59f24a6f1f4f55000108a110,59f24a6f1f4f55000108a110,12,erase,critical,D,75,erase66.jpg,erase84.jpg,high,NULL
1687287335,1fa04cf04ab1ff8e0a9516690240aa14,PennController,15,0,experiment,NULL,Video,progression,buffer,0,1687287166558,59f24a6f1f4f55000108a110,59f24a6f1f4f55000108a110,12,erase,critical,D,75,erase66.jpg,erase84.jpg,high,NULL
1687287335,1fa04cf04ab1ff8e0a9516690240aa14,PennController,15,0,experiment,NULL,Canvas,canvas6,Print,NA,1687287172774,59f24a6f1f4f55000108a110,59f24a6f1f4f55000108a110,12,erase,critical,D,75,erase66.jpg,erase84.jpg,high,NULL
1687287335,1fa04cf04ab1ff8e0a9516690240aa14,PennController,15,0,experiment,NULL,Selector,choice,Selection,option2,1687287175542,59f24a6f1f4f55000108a110,59f24a6f1f4f55000108a110,12,erase,critical,D,75,erase66.jpg,erase84.jpg,high,option1;option2
1687287335,1fa04cf04ab1ff8e0a9516690240aa14,PennController,15,0,experiment,NULL,PennController,14,_Trial_,End,1687287175545,59f24a6f1f4f55000108a110,59f24a6f1f4f55000108a110,12,erase,critical,D,75,erase66.jpg,erase84.jpg,high,NULL
1687287335,1fa04cf04ab1ff8e0a9516690240aa14,PennController,21,0,experiment,NULL,PennController,20,_Trial_,Start,1687287175547,59f24a6f1f4f55000108a110,59f24a6f1f4f55000108a110,18,ball,critical,D,75,ball65.jpg,ball85.jpg,high,NULL
1687287335,1fa04cf04ab1ff8e0a9516690240aa14,PennController,21,0,experiment,NULL,PennController,20,_Header_,Start,1687287175547,59f24a6f1f4f55000108a110,59f24a6f1f4f55000108a110,18,ball,critical,D,75,ball65.jpg,ball85.jpg,high,NULL
1687287335,1fa04cf04ab1ff8e0a9516690240aa14,PennController,21,0,experiment,NULL,PennController,20,_Header_,End,1687287175547,59f24a6f1f4f55000108a110,59f24a6f1f4f55000108a110,18,ball,critical,D,75,ball65.jpg,ball85.jpg,high,NULL
1687287335,1fa04cf04ab1ff8e0a9516690240aa14,PennController,21,0,experiment,NULL,Video,progression,buffer,0,1687287179070,59f24a6f1f4f55000108a110,59f24a6f1f4f55000108a110,18,ball,critical,D,75,ball65.jpg,ball85.jpg,high,NULL
1687287335,1fa04cf04ab1ff8e0a9516690240aa14,PennController,21,0,experiment,NULL,Canvas,canvas6,Print,NA,1687287183295,59f24a6f1f4f55000108a110,59f24a6f1f4f55000108a110,18,ball,critical,D,75,ball65.jpg,ball85.jpg,high,NULL
1687287335,1fa04cf04ab1ff8e0a9516690240aa14,PennController,21,0,experiment,NULL,Selector,choice,Selection,option2,1687287186348,59f24a6f1f4f55000108a110,59f24a6f1f4f55000108a110,18,ball,critical,D,75,ball65.jpg,ball85.jpg,high,option1;option2
1687287335,1fa04cf04ab1ff8e0a9516690240aa14,PennController,21,0,experiment,NULL,PennController,20,_Trial_,End,1687287186350,59f24a6f1f4f55000108a110,59f24a6f1f4f55000108a110,18,ball,critical,D,75,ball65.jpg,ball85.jpg,high,NULL
1687287335,1fa04cf04ab1ff8e0a9516690240aa14,PennController,25,0,experiment,NULL,PennController,24,_Trial_,Start,1687287186352,59f24a6f1f4f55000108a110,59f24a6f1f4f55000108a110,22,wall,filler,D,25,wall15.jpg,wall35.jpg,GoalA,NULL
1687287335,1fa04cf04ab1ff8e0a9516690240aa14,PennController,25,0,experiment,NULL,PennController,24,_Header_,Start,1687287186352,59f24a6f1f4f55000108a110,59f24a6f1f4f55000108a110,22,wall,filler,D,25,wall15.jpg,wall35.jpg,GoalA,NULL
1687287335,1fa04cf04ab1ff8e0a9516690240aa14,PennController,25,0,experiment,NULL,PennController,24,_Header_,End,1687287186353,59f24a6f1f4f55000108a110,59f24a6f1f4f55000108a110,22,wall,filler,D,25,wall15.jpg,wall35.jpg,GoalA,NULL
1687287335,1fa04cf04ab1ff8e0a9516690240aa14,PennController,25,0,experiment,NULL,Video,progression,buffer,0,1687287189879,59f24a6f1f4f55000108a110,59f24a6f1f4f55000108a110,22,wall,filler,D,25,wall15.jpg,wall35.jpg,GoalA,NULL
1687287335,1fa04cf04ab1ff8e0a9516690240aa14,PennController,25,0,experiment,NULL,Canvas,canvas6,Print,NA,1687287192101,59f24a6f1f4f55000108a110,59f24a6f1f4f55000108a110,22,wall,filler,D,25,wall15.jpg,wall35.jpg,GoalA,NULL
1687287335,1fa04cf04ab1ff8e0a9516690240aa14,PennController,25,0,experiment,NULL,Selector,choice,Selection,option1,1687287195255,59f24a6f1f4f55000108a110,59f24a6f1f4f55000108a110,22,wall,filler,D,25,wall15.jpg,wall35.jpg,GoalA,option1;option2
1687287335,1fa04cf04ab1ff8e0a9516690240aa14,PennController,25,0,experiment,NULL,PennController,24,_Trial_,End,1687287195263,59f24a6f1f4f55000108a110,59f24a6f1f4f55000108a110,22,wall,filler,D,25,wall15.jpg,wall35.jpg,GoalA,NULL
1687287335,1fa04cf04ab1ff8e0a9516690240aa14,PennController,14,0,experiment,NULL,PennController,13,_Trial_,Start,1687287195267,59f24a6f1f4f55000108a110,59f24a6f1f4f55000108a110,11,beads,critical,D,50,beads40.jpg,beads60.jpg,high,NULL
1687287335,1fa04cf04ab1ff8e0a9516690240aa14,PennController,14,0,experiment,NULL,PennController,13,_Header_,Start,1687287195267,59f24a6f1f4f55000108a110,59f24a6f1f4f55000108a110,11,beads,critical,D,50,beads40.jpg,beads60.jpg,high,NULL
1687287335,1fa04cf04ab1ff8e0a9516690240aa14,PennController,14,0,experiment,NULL,PennController,13,_Header_,End,1687287195270,59f24a6f1f4f55000108a110,59f24a6f1f4f55000108a110,11,beads,critical,D,50,beads40.jpg,beads60.jpg,high,NULL
1687287335,1fa04cf04ab1ff8e0a9516690240aa14,PennController,14,0,experiment,NULL,Video,progression,buffer,0,1687287198807,59f24a6f1f4f55000108a110,59f24a6f1f4f55000108a110,11,beads,critical,D,50,beads40.jpg,beads60.jpg,high,NULL
1687287335,1fa04cf04ab1ff8e0a9516690240aa14,PennController,14,0,experiment,NULL,Canvas,canvas6,Print,NA,1687287202027,59f24a6f1f4f55000108a110,59f24a6f1f4f55000108a110,11,beads,critical,D,50,beads40.jpg,beads60.jpg,high,NULL
1687287335,1fa04cf04ab1ff8e0a9516690240aa14,PennController,14,0,experiment,NULL,Selector,choice,Selection,option2,1687287208790,59f24a6f1f4f55000108a110,59f24a6f1f4f55000108a110,11,beads,critical,D,50,beads40.jpg,beads60.jpg,high,option2;option1
1687287335,1fa04cf04ab1ff8e0a9516690240aa14,PennController,14,0,experiment,NULL,PennController,13,_Trial_,End,1687287208797,59f24a6f1f4f55000108a110,59f24a6f1f4f55000108a110,11,beads,critical,D,50,beads40.jpg,beads60.jpg,high,NULL
1687287335,1fa04cf04ab1ff8e0a9516690240aa14,PennController,29,0,experiment,NULL,PennController,28,_Trial_,Start,1687287208799,59f24a6f1f4f55000108a110,59f24a6f1f4f55000108a110,26,sandwich,filler,D,50,sandwich40.jpg,sandwich60.jpg,GoalA,NULL
1687287335,1fa04cf04ab1ff8e0a9516690240aa14,PennController,29,0,experiment,NULL,PennController,28,_Header_,Start,1687287208799,59f24a6f1f4f55000108a110,59f24a6f1f4f55000108a110,26,sandwich,filler,D,50,sandwich40.jpg,sandwich60.jpg,GoalA,NULL
1687287335,1fa04cf04ab1ff8e0a9516690240aa14,PennController,29,0,experiment,NULL,PennController,28,_Header_,End,1687287208802,59f24a6f1f4f55000108a110,59f24a6f1f4f55000108a110,26,sandwich,filler,D,50,sandwich40.jpg,sandwich60.jpg,GoalA,NULL
1687287335,1fa04cf04ab1ff8e0a9516690240aa14,PennController,29,0,experiment,NULL,Video,progression,buffer,0,1687287212330,59f24a6f1f4f55000108a110,59f24a6f1f4f55000108a110,26,sandwich,filler,D,50,sandwich40.jpg,sandwich60.jpg,GoalA,NULL
1687287335,1fa04cf04ab1ff8e0a9516690240aa14,PennController,29,0,experiment,NULL,Canvas,canvas6,Print,NA,1687287215550,59f24a6f1f4f55000108a110,59f24a6f1f4f55000108a110,26,sandwich,filler,D,50,sandwich40.jpg,sandwich60.jpg,GoalA,NULL
1687287335,1fa04cf04ab1ff8e0a9516690240aa14,PennController,29,0,experiment,NULL,Selector,choice,Selection,option1,1687287217563,59f24a6f1f4f55000108a110,59f24a6f1f4f55000108a110,26,sandwich,filler,D,50,sandwich40.jpg,sandwich60.jpg,GoalA,option2;option1
1687287335,1fa04cf04ab1ff8e0a9516690240aa14,PennController,29,0,experiment,NULL,PennController,28,_Trial_,End,1687287217565,59f24a6f1f4f55000108a110,59f24a6f1f4f55000108a110,26,sandwich,filler,D,50,sandwich40.jpg,sandwich60.jpg,GoalA,NULL
1687287335,1fa04cf04ab1ff8e0a9516690240aa14,PennController,4,0,experiment,NULL,PennController,3,_Trial_,Start,1687287217566,59f24a6f1f4f55000108a110,59f24a6f1f4f55000108a110,1,vase,critical,D,25,vase15.jpg,vase35.jpg,high,NULL
1687287335,1fa04cf04ab1ff8e0a9516690240aa14,PennController,4,0,experiment,NULL,PennController,3,_Header_,Start,1687287217566,59f24a6f1f4f55000108a110,59f24a6f1f4f55000108a110,1,vase,critical,D,25,vase15.jpg,vase35.jpg,high,NULL
1687287335,1fa04cf04ab1ff8e0a9516690240aa14,PennController,4,0,experiment,NULL,PennController,3,_Header_,End,1687287217566,59f24a6f1f4f55000108a110,59f24a6f1f4f55000108a110,1,vase,critical,D,25,vase15.jpg,vase35.jpg,high,NULL
1687287335,1fa04cf04ab1ff8e0a9516690240aa14,PennController,4,0,experiment,NULL,Video,progression,buffer,0,1687287221085,59f24a6f1f4f55000108a110,59f24a6f1f4f55000108a110,1,vase,critical,D,25,vase15.jpg,vase35.jpg,high,NULL
1687287335,1fa04cf04ab1ff8e0a9516690240aa14,PennController,4,0,experiment,NULL,Canvas,canvas6,Print,NA,1687287223307,59f24a6f1f4f55000108a110,59f24a6f1f4f55000108a110,1,vase,critical,D,25,vase15.jpg,vase35.jpg,high,NULL
1687287335,1fa04cf04ab1ff8e0a9516690240aa14,PennController,4,0,experiment,NULL,Selector,choice,Selection,option2,1687287225778,59f24a6f1f4f55000108a110,59f24a6f1f4f55000108a110,1,vase,critical,D,25,vase15.jpg,vase35.jpg,high,option1;option2
1687287335,1fa04cf04ab1ff8e0a9516690240aa14,PennController,4,0,experiment,NULL,PennController,3,_Trial_,End,1687287225782,59f24a6f1f4f55000108a110,59f24a6f1f4f55000108a110,1,vase,critical,D,25,vase15.jpg,vase35.jpg,high,NULL
1687287335,1fa04cf04ab1ff8e0a9516690240aa14,PennController,12,0,experiment,NULL,PennController,11,_Trial_,Start,1687287225783,59f24a6f1f4f55000108a110,59f24a6f1f4f55000108a110,9,cake,critical,D,75,cake66.jpg,cake84.jpg,high,NULL
1687287335,1fa04cf04ab1ff8e0a9516690240aa14,PennController,12,0,experiment,NULL,PennController,11,_Header_,Start,1687287225783,59f24a6f1f4f55000108a110,59f24a6f1f4f55000108a110,9,cake,critical,D,75,cake66.jpg,cake84.jpg,high,NULL
1687287335,1fa04cf04ab1ff8e0a9516690240aa14,PennController,12,0,experiment,NULL,PennController,11,_Header_,End,1687287225785,59f24a6f1f4f55000108a110,59f24a6f1f4f55000108a110,9,cake,critical,D,75,cake66.jpg,cake84.jpg,high,NULL
1687287335,1fa04cf04ab1ff8e0a9516690240aa14,PennController,12,0,experiment,NULL,Video,progression,buffer,0,1687287229314,59f24a6f1f4f55000108a110,59f24a6f1f4f55000108a110,9,cake,critical,D,75,cake66.jpg,cake84.jpg,high,NULL
1687287335,1fa04cf04ab1ff8e0a9516690240aa14,PennController,12,0,experiment,NULL,Canvas,canvas6,Print,NA,1687287235534,59f24a6f1f4f55000108a110,59f24a6f1f4f55000108a110,9,cake,critical,D,75,cake66.jpg,cake84.jpg,high,NULL
1687287335,1fa04cf04ab1ff8e0a9516690240aa14,PennController,12,0,experiment,NULL,Selector,choice,Selection,option1,1687287237897,59f24a6f1f4f55000108a110,59f24a6f1f4f55000108a110,9,cake,critical,D,75,cake66.jpg,cake84.jpg,high,option2;option1
1687287335,1fa04cf04ab1ff8e0a9516690240aa14,PennController,12,0,experiment,NULL,PennController,11,_Trial_,End,1687287237900,59f24a6f1f4f55000108a110,59f24a6f1f4f55000108a110,9,cake,critical,D,75,cake66.jpg,cake84.jpg,high,NULL
1687287335,1fa04cf04ab1ff8e0a9516690240aa14,PennController,27,0,experiment,NULL,PennController,26,_Trial_,Start,1687287237901,59f24a6f1f4f55000108a110,59f24a6f1f4f55000108a110,24,match,filler,D,75,match65.jpg,match85.jpg,GoalA,NULL
1687287335,1fa04cf04ab1ff8e0a9516690240aa14,PennController,27,0,experiment,NULL,PennController,26,_Header_,Start,1687287237901,59f24a6f1f4f55000108a110,59f24a6f1f4f55000108a110,24,match,filler,D,75,match65.jpg,match85.jpg,GoalA,NULL
1687287335,1fa04cf04ab1ff8e0a9516690240aa14,PennController,27,0,experiment,NULL,PennController,26,_Header_,End,1687287237902,59f24a6f1f4f55000108a110,59f24a6f1f4f55000108a110,24,match,filler,D,75,match65.jpg,match85.jpg,GoalA,NULL
1687287335,1fa04cf04ab1ff8e0a9516690240aa14,PennController,27,0,experiment,NULL,Video,progression,buffer,0,1687287241430,59f24a6f1f4f55000108a110,59f24a6f1f4f55000108a110,24,match,filler,D,75,match65.jpg,match85.jpg,GoalA,NULL
1687287335,1fa04cf04ab1ff8e0a9516690240aa14,PennController,27,0,experiment,NULL,Canvas,canvas6,Print,NA,1687287245651,59f24a6f1f4f55000108a110,59f24a6f1f4f55000108a110,24,match,filler,D,75,match65.jpg,match85.jpg,GoalA,NULL
1687287335,1fa04cf04ab1ff8e0a9516690240aa14,PennController,27,0,experiment,NULL,Selector,choice,Selection,option1,1687287250239,59f24a6f1f4f55000108a110,59f24a6f1f4f55000108a110,24,match,filler,D,75,match65.jpg,match85.jpg,GoalA,option2;option1
1687287335,1fa04cf04ab1ff8e0a9516690240aa14,PennController,27,0,experiment,NULL,PennController,26,_Trial_,End,1687287250240,59f24a6f1f4f55000108a110,59f24a6f1f4f55000108a110,24,match,filler,D,75,match65.jpg,match85.jpg,GoalA,NULL
1687287335,1fa04cf04ab1ff8e0a9516690240aa14,PennController,9,0,experiment,NULL,PennController,8,_Trial_,Start,1687287250242,59f24a6f1f4f55000108a110,59f24a6f1f4f55000108a110,6,flower,critical,D,75,flower65.jpg,flower85.jpg,high,NULL
1687287335,1fa04cf04ab1ff8e0a9516690240aa14,PennController,9,0,experiment,NULL,PennController,8,_Header_,Start,1687287250242,59f24a6f1f4f55000108a110,59f24a6f1f4f55000108a110,6,flower,critical,D,75,flower65.jpg,flower85.jpg,high,NULL
1687287335,1fa04cf04ab1ff8e0a9516690240aa14,PennController,9,0,experiment,NULL,PennController,8,_Header_,End,1687287250242,59f24a6f1f4f55000108a110,59f24a6f1f4f55000108a110,6,flower,critical,D,75,flower65.jpg,flower85.jpg,high,NULL
1687287335,1fa04cf04ab1ff8e0a9516690240aa14,PennController,9,0,experiment,NULL,Video,progression,buffer,0,1687287253769,59f24a6f1f4f55000108a110,59f24a6f1f4f55000108a110,6,flower,critical,D,75,flower65.jpg,flower85.jpg,high,NULL
1687287335,1fa04cf04ab1ff8e0a9516690240aa14,PennController,9,0,experiment,NULL,Canvas,canvas6,Print,NA,1687287258002,59f24a6f1f4f55000108a110,59f24a6f1f4f55000108a110,6,flower,critical,D,75,flower65.jpg,flower85.jpg,high,NULL
1687287335,1fa04cf04ab1ff8e0a9516690240aa14,PennController,9,0,experiment,NULL,Selector,choice,Selection,option1,1687287266307,59f24a6f1f4f55000108a110,59f24a6f1f4f55000108a110,6,flower,critical,D,75,flower65.jpg,flower85.jpg,high,option1;option2
1687287335,1fa04cf04ab1ff8e0a9516690240aa14,PennController,9,0,experiment,NULL,PennController,8,_Trial_,End,1687287266308,59f24a6f1f4f55000108a110,59f24a6f1f4f55000108a110,6,flower,critical,D,75,flower65.jpg,flower85.jpg,high,NULL
1687287335,1fa04cf04ab1ff8e0a9516690240aa14,PennController,6,0,experiment,NULL,PennController,5,_Trial_,Start,1687287266309,59f24a6f1f4f55000108a110,59f24a6f1f4f55000108a110,3,clean,critical,D,75,clean65.jpg,clean85.jpg,high,NULL
1687287335,1fa04cf04ab1ff8e0a9516690240aa14,PennController,6,0,experiment,NULL,PennController,5,_Header_,Start,1687287266309,59f24a6f1f4f55000108a110,59f24a6f1f4f55000108a110,3,clean,critical,D,75,clean65.jpg,clean85.jpg,high,NULL
1687287335,1fa04cf04ab1ff8e0a9516690240aa14,PennController,6,0,experiment,NULL,PennController,5,_Header_,End,1687287266310,59f24a6f1f4f55000108a110,59f24a6f1f4f55000108a110,3,clean,critical,D,75,clean65.jpg,clean85.jpg,high,NULL
1687287335,1fa04cf04ab1ff8e0a9516690240aa14,PennController,6,0,experiment,NULL,Video,progression,buffer,0,1687287269843,59f24a6f1f4f55000108a110,59f24a6f1f4f55000108a110,3,clean,critical,D,75,clean65.jpg,clean85.jpg,high,NULL
1687287335,1fa04cf04ab1ff8e0a9516690240aa14,PennController,6,0,experiment,NULL,Canvas,canvas6,Print,NA,1687287274060,59f24a6f1f4f55000108a110,59f24a6f1f4f55000108a110,3,clean,critical,D,75,clean65.jpg,clean85.jpg,high,NULL
1687287335,1fa04cf04ab1ff8e0a9516690240aa14,PennController,6,0,experiment,NULL,Selector,choice,Selection,option1,1687287275875,59f24a6f1f4f55000108a110,59f24a6f1f4f55000108a110,3,clean,critical,D,75,clean65.jpg,clean85.jpg,high,option2;option1
1687287335,1fa04cf04ab1ff8e0a9516690240aa14,PennController,6,0,experiment,NULL,PennController,5,_Trial_,End,1687287275881,59f24a6f1f4f55000108a110,59f24a6f1f4f55000108a110,3,clean,critical,D,75,clean65.jpg,clean85.jpg,high,NULL
1687287335,1fa04cf04ab1ff8e0a9516690240aa14,PennController,26,0,experiment,NULL,PennController,25,_Trial_,Start,1687287275883,59f24a6f1f4f55000108a110,59f24a6f1f4f55000108a110,23,color,filler,D,50,color40.jpg,color60.jpg,GoalB,NULL
1687287335,1fa04cf04ab1ff8e0a9516690240aa14,PennController,26,0,experiment,NULL,PennController,25,_Header_,Start,1687287275884,59f24a6f1f4f55000108a110,59f24a6f1f4f55000108a110,23,color,filler,D,50,color40.jpg,color60.jpg,GoalB,NULL
1687287335,1fa04cf04ab1ff8e0a9516690240aa14,PennController,26,0,experiment,NULL,PennController,25,_Header_,End,1687287275886,59f24a6f1f4f55000108a110,59f24a6f1f4f55000108a110,23,color,filler,D,50,color40.jpg,color60.jpg,GoalB,NULL
1687287335,1fa04cf04ab1ff8e0a9516690240aa14,PennController,26,0,experiment,NULL,Video,progression,buffer,0,1687287279420,59f24a6f1f4f55000108a110,59f24a6f1f4f55000108a110,23,color,filler,D,50,color40.jpg,color60.jpg,GoalB,NULL
1687287335,1fa04cf04ab1ff8e0a9516690240aa14,PennController,26,0,experiment,NULL,Canvas,canvas6,Print,NA,1687287282643,59f24a6f1f4f55000108a110,59f24a6f1f4f55000108a110,23,color,filler,D,50,color40.jpg,color60.jpg,GoalB,NULL
1687287335,1fa04cf04ab1ff8e0a9516690240aa14,PennController,26,0,experiment,NULL,Selector,choice,Selection,option1,1687287290093,59f24a6f1f4f55000108a110,59f24a6f1f4f55000108a110,23,color,filler,D,50,color40.jpg,color60.jpg,GoalB,option2;option1
1687287335,1fa04cf04ab1ff8e0a9516690240aa14,PennController,26,0,experiment,NULL,PennController,25,_Trial_,End,1687287290098,59f24a6f1f4f55000108a110,59f24a6f1f4f55000108a110,23,color,filler,D,50,color40.jpg,color60.jpg,GoalB,NULL
1687287335,1fa04cf04ab1ff8e0a9516690240aa14,PennController,7,0,experiment,NULL,PennController,6,_Trial_,Start,1687287290099,59f24a6f1f4f55000108a110,59f24a6f1f4f55000108a110,4,candy,critical,D,25,candy15.jpg,candy35.jpg,high,NULL
1687287335,1fa04cf04ab1ff8e0a9516690240aa14,PennController,7,0,experiment,NULL,PennController,6,_Header_,Start,1687287290099,59f24a6f1f4f55000108a110,59f24a6f1f4f55000108a110,4,candy,critical,D,25,candy15.jpg,candy35.jpg,high,NULL
1687287335,1fa04cf04ab1ff8e0a9516690240aa14,PennController,7,0,experiment,NULL,PennController,6,_Header_,End,1687287290101,59f24a6f1f4f55000108a110,59f24a6f1f4f55000108a110,4,candy,critical,D,25,candy15.jpg,candy35.jpg,high,NULL
1687287335,1fa04cf04ab1ff8e0a9516690240aa14,PennController,7,0,experiment,NULL,Video,progression,buffer,0,1687287293636,59f24a6f1f4f55000108a110,59f24a6f1f4f55000108a110,4,candy,critical,D,25,candy15.jpg,candy35.jpg,high,NULL
1687287335,1fa04cf04ab1ff8e0a9516690240aa14,PennController,7,0,experiment,NULL,Canvas,canvas6,Print,NA,1687287295860,59f24a6f1f4f55000108a110,59f24a6f1f4f55000108a110,4,candy,critical,D,25,candy15.jpg,candy35.jpg,high,NULL
1687287335,1fa04cf04ab1ff8e0a9516690240aa14,PennController,7,0,experiment,NULL,Selector,choice,Selection,option1,1687287299891,59f24a6f1f4f55000108a110,59f24a6f1f4f55000108a110,4,candy,critical,D,25,candy15.jpg,candy35.jpg,high,option1;option2
1687287335,1fa04cf04ab1ff8e0a9516690240aa14,PennController,7,0,experiment,NULL,PennController,6,_Trial_,End,1687287299896,59f24a6f1f4f55000108a110,59f24a6f1f4f55000108a110,4,candy,critical,D,25,candy15.jpg,candy35.jpg,high,NULL
1687287335,1fa04cf04ab1ff8e0a9516690240aa14,PennController,22,0,experiment,NULL,PennController,21,_Trial_,Start,1687287299897,59f24a6f1f4f55000108a110,59f24a6f1f4f55000108a110,19,cup,filler,D,25,cup15.jpg,cup35.jpg,GoalB,NULL
1687287335,1fa04cf04ab1ff8e0a9516690240aa14,PennController,22,0,experiment,NULL,PennController,21,_Header_,Start,1687287299897,59f24a6f1f4f55000108a110,59f24a6f1f4f55000108a110,19,cup,filler,D,25,cup15.jpg,cup35.jpg,GoalB,NULL
1687287335,1fa04cf04ab1ff8e0a9516690240aa14,PennController,22,0,experiment,NULL,PennController,21,_Header_,End,1687287299898,59f24a6f1f4f55000108a110,59f24a6f1f4f55000108a110,19,cup,filler,D,25,cup15.jpg,cup35.jpg,GoalB,NULL
1687287335,1fa04cf04ab1ff8e0a9516690240aa14,PennController,22,0,experiment,NULL,Video,progression,buffer,0,1687287303439,59f24a6f1f4f55000108a110,59f24a6f1f4f55000108a110,19,cup,filler,D,25,cup15.jpg,cup35.jpg,GoalB,NULL
1687287335,1fa04cf04ab1ff8e0a9516690240aa14,PennController,22,0,experiment,NULL,Canvas,canvas6,Print,NA,1687287305657,59f24a6f1f4f55000108a110,59f24a6f1f4f55000108a110,19,cup,filler,D,25,cup15.jpg,cup35.jpg,GoalB,NULL
1687287335,1fa04cf04ab1ff8e0a9516690240aa14,PennController,22,0,experiment,NULL,Selector,choice,Selection,option1,1687287308442,59f24a6f1f4f55000108a110,59f24a6f1f4f55000108a110,19,cup,filler,D,25,cup15.jpg,cup35.jpg,GoalB,option1;option2
1687287335,1fa04cf04ab1ff8e0a9516690240aa14,PennController,22,0,experiment,NULL,PennController,21,_Trial_,End,1687287308445,59f24a6f1f4f55000108a110,59f24a6f1f4f55000108a110,19,cup,filler,D,25,cup15.jpg,cup35.jpg,GoalB,NULL
1687287335,1fa04cf04ab1ff8e0a9516690240aa14,PennController,24,0,experiment,NULL,PennController,23,_Trial_,Start,1687287308446,59f24a6f1f4f55000108a110,59f24a6f1f4f55000108a110,21,visit,filler,D,75,visit65.jpg,visit85.jpg,GoalB,NULL
1687287335,1fa04cf04ab1ff8e0a9516690240aa14,PennController,24,0,experiment,NULL,PennController,23,_Header_,Start,1687287308446,59f24a6f1f4f55000108a110,59f24a6f1f4f55000108a110,21,visit,filler,D,75,visit65.jpg,visit85.jpg,GoalB,NULL
1687287335,1fa04cf04ab1ff8e0a9516690240aa14,PennController,24,0,experiment,NULL,PennController,23,_Header_,End,1687287308447,59f24a6f1f4f55000108a110,59f24a6f1f4f55000108a110,21,visit,filler,D,75,visit65.jpg,visit85.jpg,GoalB,NULL
1687287335,1fa04cf04ab1ff8e0a9516690240aa14,PennController,24,0,experiment,NULL,Video,progression,buffer,0,1687287311985,59f24a6f1f4f55000108a110,59f24a6f1f4f55000108a110,21,visit,filler,D,75,visit65.jpg,visit85.jpg,GoalB,NULL
1687287335,1fa04cf04ab1ff8e0a9516690240aa14,PennController,24,0,experiment,NULL,Canvas,canvas6,Print,NA,1687287316208,59f24a6f1f4f55000108a110,59f24a6f1f4f55000108a110,21,visit,filler,D,75,visit65.jpg,visit85.jpg,GoalB,NULL
1687287335,1fa04cf04ab1ff8e0a9516690240aa14,PennController,24,0,experiment,NULL,Selector,choice,Selection,option2,1687287321262,59f24a6f1f4f55000108a110,59f24a6f1f4f55000108a110,21,visit,filler,D,75,visit65.jpg,visit85.jpg,GoalB,option2;option1
1687287335,1fa04cf04ab1ff8e0a9516690240aa14,PennController,24,0,experiment,NULL,PennController,23,_Trial_,End,1687287321266,59f24a6f1f4f55000108a110,59f24a6f1f4f55000108a110,21,visit,filler,D,75,visit65.jpg,visit85.jpg,GoalB,NULL
1687287335,1fa04cf04ab1ff8e0a9516690240aa14,PennController,17,0,experiment,NULL,PennController,16,_Trial_,Start,1687287321267,59f24a6f1f4f55000108a110,59f24a6f1f4f55000108a110,14,cover,critical,D,50,cover42.jpg,cover60.jpg,high,NULL
1687287335,1fa04cf04ab1ff8e0a9516690240aa14,PennController,17,0,experiment,NULL,PennController,16,_Header_,Start,1687287321267,59f24a6f1f4f55000108a110,59f24a6f1f4f55000108a110,14,cover,critical,D,50,cover42.jpg,cover60.jpg,high,NULL
1687287335,1fa04cf04ab1ff8e0a9516690240aa14,PennController,17,0,experiment,NULL,PennController,16,_Header_,End,1687287321269,59f24a6f1f4f55000108a110,59f24a6f1f4f55000108a110,14,cover,critical,D,50,cover42.jpg,cover60.jpg,high,NULL
1687287335,1fa04cf04ab1ff8e0a9516690240aa14,PennController,17,0,experiment,NULL,Video,progression,buffer,0,1687287324802,59f24a6f1f4f55000108a110,59f24a6f1f4f55000108a110,14,cover,critical,D,50,cover42.jpg,cover60.jpg,high,NULL
1687287335,1fa04cf04ab1ff8e0a9516690240aa14,PennController,17,0,experiment,NULL,Canvas,canvas6,Print,NA,1687287329426,59f24a6f1f4f55000108a110,59f24a6f1f4f55000108a110,14,cover,critical,D,50,cover42.jpg,cover60.jpg,high,NULL
1687287335,1fa04cf04ab1ff8e0a9516690240aa14,PennController,17,0,experiment,NULL,Selector,choice,Selection,option1,1687287334689,59f24a6f1f4f55000108a110,59f24a6f1f4f55000108a110,14,cover,critical,D,50,cover42.jpg,cover60.jpg,high,option1;option2
1687287335,1fa04cf04ab1ff8e0a9516690240aa14,PennController,17,0,experiment,NULL,PennController,16,_Trial_,End,1687287334690,59f24a6f1f4f55000108a110,59f24a6f1f4f55000108a110,14,cover,critical,D,50,cover42.jpg,cover60.jpg,high,NULL
