#
# Results on Tuesday June 20 2023 18:56:28 UTC
# USER AGENT: Mozilla/5.0 (Windows NT 10.0; Win64; x64) AppleWebKit/537.36 (KHTML, like Gecko) Chrome/114.0.0.0 Safari/537.36 Edg/114.0.1823.51
# Design number was non-random = 3
#
# Columns below this comment are as follows:
# 1. Results reception time.
# 2. MD5 hash of participant's IP address.
# 3. Controller name.
# 4. Order number of item.
# 5. Inner element number.
# 6. Label.
# 7. Latin Square Group.
# 8. PennElementType.
# 9. PennElementName.
# 10. Parameter.
# 11. Value.
# 12. EventTime.
# 13. PROLIFIC_ID.
# 14. Comments.
1687287388,a261ca5fa65d94fac214c2eec8ed273c,PennController,2,0,consent,NULL,PennController,0,_Trial_,Start,1687287069453,616f40c84dabe856f6280a8b,NULL
1687287388,a261ca5fa65d94fac214c2eec8ed273c,PennController,2,0,consent,NULL,PennController,0,_Header_,Start,1687287069453,616f40c84dabe856f6280a8b,NULL
1687287388,a261ca5fa65d94fac214c2eec8ed273c,PennController,2,0,consent,NULL,PennController,0,_Header_,End,1687287069453,616f40c84dabe856f6280a8b,NULL
1687287388,a261ca5fa65d94fac214c2eec8ed273c,PennController,2,0,consent,NULL,PennController,0,_Trial_,End,1687287085191,616f40c84dabe856f6280a8b,NULL
# Columns below this comment are as follows:
# 14. ID.
# 15. Comments.
1687287388,a261ca5fa65d94fac214c2eec8ed273c,PennController,3,0,intro,NULL,PennController,1,_Trial_,Start,1687287085193,616f40c84dabe856f6280a8b,616f40c84dabe856f6280a8b,NULL
1687287388,a261ca5fa65d94fac214c2eec8ed273c,PennController,3,0,intro,NULL,PennController,1,_Header_,Start,1687287085193,616f40c84dabe856f6280a8b,616f40c84dabe856f6280a8b,NULL
1687287388,a261ca5fa65d94fac214c2eec8ed273c,PennController,3,0,intro,NULL,PennController,1,_Header_,End,1687287085193,616f40c84dabe856f6280a8b,616f40c84dabe856f6280a8b,NULL
1687287388,a261ca5fa65d94fac214c2eec8ed273c,PennController,3,0,intro,NULL,PennController,1,_Trial_,End,1687287105239,616f40c84dabe856f6280a8b,616f40c84dabe856f6280a8b,NULL
# Columns below this comment are as follows:
# 15. item_number.
# 16. item.
# 17. type.
# 18. Group.
# 19. prog.
# 20. prev_image.
# 21. next_image.
# 22. height.
# 23. Comments.
1687287388,a261ca5fa65d94fac214c2eec8ed273c,PennController,23,0,experiment,NULL,PennController,22,_Trial_,Start,1687287105240,616f40c84dabe856f6280a8b,616f40c84dabe856f6280a8b,20,cat,filler,D,50,cat40.jpg,cat60.jpg,GoalA,NULL
1687287388,a261ca5fa65d94fac214c2eec8ed273c,PennController,23,0,experiment,NULL,PennController,22,_Header_,Start,1687287105240,616f40c84dabe856f6280a8b,616f40c84dabe856f6280a8b,20,cat,filler,D,50,cat40.jpg,cat60.jpg,GoalA,NULL
1687287388,a261ca5fa65d94fac214c2eec8ed273c,PennController,23,0,experiment,NULL,PennController,22,_Header_,End,1687287105241,616f40c84dabe856f6280a8b,616f40c84dabe856f6280a8b,20,cat,filler,D,50,cat40.jpg,cat60.jpg,GoalA,NULL
1687287388,a261ca5fa65d94fac214c2eec8ed273c,PennController,23,0,experiment,NULL,Canvas,canvas6,Print,NA,1687287111951,616f40c84dabe856f6280a8b,616f40c84dabe856f6280a8b,20,cat,filler,D,50,cat40.jpg,cat60.jpg,GoalA,NULL
1687287388,a261ca5fa65d94fac214c2eec8ed273c,PennController,23,0,experiment,NULL,Video,progression,buffer,0.002456,1687287108771,616f40c84dabe856f6280a8b,616f40c84dabe856f6280a8b,20,cat,filler,D,50,cat40.jpg,cat60.jpg,GoalA,NULL
1687287388,a261ca5fa65d94fac214c2eec8ed273c,PennController,23,0,experiment,NULL,Selector,choice,Selection,option1,1687287117482,616f40c84dabe856f6280a8b,616f40c84dabe856f6280a8b,20,cat,filler,D,50,cat40.jpg,cat60.jpg,GoalA,option1;option2
1687287388,a261ca5fa65d94fac214c2eec8ed273c,PennController,23,0,experiment,NULL,PennController,22,_Trial_,End,1687287117483,616f40c84dabe856f6280a8b,616f40c84dabe856f6280a8b,20,cat,filler,D,50,cat40.jpg,cat60.jpg,GoalA,NULL
1687287388,a261ca5fa65d94fac214c2eec8ed273c,PennController,18,0,experiment,NULL,PennController,17,_Trial_,Start,1687287117483,616f40c84dabe856f6280a8b,616f40c84dabe856f6280a8b,15,zip,critical,D,75,zip65.jpg,zip85.jpg,high,NULL
1687287388,a261ca5fa65d94fac214c2eec8ed273c,PennController,18,0,experiment,NULL,PennController,17,_Header_,Start,1687287117483,616f40c84dabe856f6280a8b,616f40c84dabe856f6280a8b,15,zip,critical,D,75,zip65.jpg,zip85.jpg,high,NULL
1687287388,a261ca5fa65d94fac214c2eec8ed273c,PennController,18,0,experiment,NULL,PennController,17,_Header_,End,1687287117483,616f40c84dabe856f6280a8b,616f40c84dabe856f6280a8b,15,zip,critical,D,75,zip65.jpg,zip85.jpg,high,NULL
1687287388,a261ca5fa65d94fac214c2eec8ed273c,PennController,18,0,experiment,NULL,Canvas,canvas6,Print,NA,1687287124389,616f40c84dabe856f6280a8b,616f40c84dabe856f6280a8b,15,zip,critical,D,75,zip65.jpg,zip85.jpg,high,NULL
1687287388,a261ca5fa65d94fac214c2eec8ed273c,PennController,18,0,experiment,NULL,Video,progression,buffer,0.003217,1687287121009,616f40c84dabe856f6280a8b,616f40c84dabe856f6280a8b,15,zip,critical,D,75,zip65.jpg,zip85.jpg,high,NULL
1687287388,a261ca5fa65d94fac214c2eec8ed273c,PennController,18,0,experiment,NULL,Selector,choice,Selection,option1,1687287128501,616f40c84dabe856f6280a8b,616f40c84dabe856f6280a8b,15,zip,critical,D,75,zip65.jpg,zip85.jpg,high,option1;option2
1687287388,a261ca5fa65d94fac214c2eec8ed273c,PennController,18,0,experiment,NULL,PennController,17,_Trial_,End,1687287128503,616f40c84dabe856f6280a8b,616f40c84dabe856f6280a8b,15,zip,critical,D,75,zip65.jpg,zip85.jpg,high,NULL
1687287388,a261ca5fa65d94fac214c2eec8ed273c,PennController,25,0,experiment,NULL,PennController,24,_Trial_,Start,1687287128504,616f40c84dabe856f6280a8b,616f40c84dabe856f6280a8b,22,wall,filler,D,25,wall15.jpg,wall35.jpg,GoalA,NULL
1687287388,a261ca5fa65d94fac214c2eec8ed273c,PennController,25,0,experiment,NULL,PennController,24,_Header_,Start,1687287128504,616f40c84dabe856f6280a8b,616f40c84dabe856f6280a8b,22,wall,filler,D,25,wall15.jpg,wall35.jpg,GoalA,NULL
1687287388,a261ca5fa65d94fac214c2eec8ed273c,PennController,25,0,experiment,NULL,PennController,24,_Header_,End,1687287128504,616f40c84dabe856f6280a8b,616f40c84dabe856f6280a8b,22,wall,filler,D,25,wall15.jpg,wall35.jpg,GoalA,NULL
1687287388,a261ca5fa65d94fac214c2eec8ed273c,PennController,25,0,experiment,NULL,Canvas,canvas6,Print,NA,1687287134200,616f40c84dabe856f6280a8b,616f40c84dabe856f6280a8b,22,wall,filler,D,25,wall15.jpg,wall35.jpg,GoalA,NULL
1687287388,a261ca5fa65d94fac214c2eec8ed273c,PennController,25,0,experiment,NULL,Video,progression,buffer,0.0022,1687287132024,616f40c84dabe856f6280a8b,616f40c84dabe856f6280a8b,22,wall,filler,D,25,wall15.jpg,wall35.jpg,GoalA,NULL
1687287388,a261ca5fa65d94fac214c2eec8ed273c,PennController,25,0,experiment,NULL,Selector,choice,Selection,option2,1687287143075,616f40c84dabe856f6280a8b,616f40c84dabe856f6280a8b,22,wall,filler,D,25,wall15.jpg,wall35.jpg,GoalA,option1;option2
1687287388,a261ca5fa65d94fac214c2eec8ed273c,PennController,25,0,experiment,NULL,PennController,24,_Trial_,End,1687287143076,616f40c84dabe856f6280a8b,616f40c84dabe856f6280a8b,22,wall,filler,D,25,wall15.jpg,wall35.jpg,GoalA,NULL
1687287388,a261ca5fa65d94fac214c2eec8ed273c,PennController,20,0,experiment,NULL,PennController,19,_Trial_,Start,1687287143077,616f40c84dabe856f6280a8b,616f40c84dabe856f6280a8b,17,roll,critical,D,50,roll40.jpg,roll60.jpg,high,NULL
1687287388,a261ca5fa65d94fac214c2eec8ed273c,PennController,20,0,experiment,NULL,PennController,19,_Header_,Start,1687287143077,616f40c84dabe856f6280a8b,616f40c84dabe856f6280a8b,17,roll,critical,D,50,roll40.jpg,roll60.jpg,high,NULL
1687287388,a261ca5fa65d94fac214c2eec8ed273c,PennController,20,0,experiment,NULL,PennController,19,_Header_,End,1687287143077,616f40c84dabe856f6280a8b,616f40c84dabe856f6280a8b,17,roll,critical,D,50,roll40.jpg,roll60.jpg,high,NULL
1687287388,a261ca5fa65d94fac214c2eec8ed273c,PennController,20,0,experiment,NULL,Canvas,canvas6,Print,NA,1687287149799,616f40c84dabe856f6280a8b,616f40c84dabe856f6280a8b,17,roll,critical,D,50,roll40.jpg,roll60.jpg,high,NULL
1687287388,a261ca5fa65d94fac214c2eec8ed273c,PennController,20,0,experiment,NULL,Video,progression,buffer,0,1687287146595,616f40c84dabe856f6280a8b,616f40c84dabe856f6280a8b,17,roll,critical,D,50,roll40.jpg,roll60.jpg,high,NULL
1687287388,a261ca5fa65d94fac214c2eec8ed273c,PennController,20,0,experiment,NULL,Selector,choice,Selection,option2,1687287154490,616f40c84dabe856f6280a8b,616f40c84dabe856f6280a8b,17,roll,critical,D,50,roll40.jpg,roll60.jpg,high,option2;option1
1687287388,a261ca5fa65d94fac214c2eec8ed273c,PennController,20,0,experiment,NULL,PennController,19,_Trial_,End,1687287154491,616f40c84dabe856f6280a8b,616f40c84dabe856f6280a8b,17,roll,critical,D,50,roll40.jpg,roll60.jpg,high,NULL
1687287388,a261ca5fa65d94fac214c2eec8ed273c,PennController,16,0,experiment,NULL,PennController,15,_Trial_,Start,1687287154492,616f40c84dabe856f6280a8b,616f40c84dabe856f6280a8b,13,mix,critical,D,25,mix15.jpg,mix35.jpg,high,NULL
1687287388,a261ca5fa65d94fac214c2eec8ed273c,PennController,16,0,experiment,NULL,PennController,15,_Header_,Start,1687287154493,616f40c84dabe856f6280a8b,616f40c84dabe856f6280a8b,13,mix,critical,D,25,mix15.jpg,mix35.jpg,high,NULL
1687287388,a261ca5fa65d94fac214c2eec8ed273c,PennController,16,0,experiment,NULL,PennController,15,_Header_,End,1687287154493,616f40c84dabe856f6280a8b,616f40c84dabe856f6280a8b,13,mix,critical,D,25,mix15.jpg,mix35.jpg,high,NULL
1687287388,a261ca5fa65d94fac214c2eec8ed273c,PennController,16,0,experiment,NULL,Canvas,canvas6,Print,NA,1687287160178,616f40c84dabe856f6280a8b,616f40c84dabe856f6280a8b,13,mix,critical,D,25,mix15.jpg,mix35.jpg,high,NULL
1687287388,a261ca5fa65d94fac214c2eec8ed273c,PennController,16,0,experiment,NULL,Video,progression,buffer,0.002625,1687287158014,616f40c84dabe856f6280a8b,616f40c84dabe856f6280a8b,13,mix,critical,D,25,mix15.jpg,mix35.jpg,high,NULL
1687287388,a261ca5fa65d94fac214c2eec8ed273c,PennController,16,0,experiment,NULL,Selector,choice,Selection,option2,1687287168199,616f40c84dabe856f6280a8b,616f40c84dabe856f6280a8b,13,mix,critical,D,25,mix15.jpg,mix35.jpg,high,option2;option1
1687287388,a261ca5fa65d94fac214c2eec8ed273c,PennController,16,0,experiment,NULL,PennController,15,_Trial_,End,1687287168200,616f40c84dabe856f6280a8b,616f40c84dabe856f6280a8b,13,mix,critical,D,25,mix15.jpg,mix35.jpg,high,NULL
1687287388,a261ca5fa65d94fac214c2eec8ed273c,PennController,9,0,experiment,NULL,PennController,8,_Trial_,Start,1687287168201,616f40c84dabe856f6280a8b,616f40c84dabe856f6280a8b,6,flower,critical,D,75,flower65.jpg,flower85.jpg,high,NULL
1687287388,a261ca5fa65d94fac214c2eec8ed273c,PennController,9,0,experiment,NULL,PennController,8,_Header_,Start,1687287168201,616f40c84dabe856f6280a8b,616f40c84dabe856f6280a8b,6,flower,critical,D,75,flower65.jpg,flower85.jpg,high,NULL
1687287388,a261ca5fa65d94fac214c2eec8ed273c,PennController,9,0,experiment,NULL,PennController,8,_Header_,End,1687287168201,616f40c84dabe856f6280a8b,616f40c84dabe856f6280a8b,6,flower,critical,D,75,flower65.jpg,flower85.jpg,high,NULL
1687287388,a261ca5fa65d94fac214c2eec8ed273c,PennController,9,0,experiment,NULL,Canvas,canvas6,Print,NA,1687287175894,616f40c84dabe856f6280a8b,616f40c84dabe856f6280a8b,6,flower,critical,D,75,flower65.jpg,flower85.jpg,high,NULL
1687287388,a261ca5fa65d94fac214c2eec8ed273c,PennController,9,0,experiment,NULL,Video,progression,buffer,0.002095,1687287171718,616f40c84dabe856f6280a8b,616f40c84dabe856f6280a8b,6,flower,critical,D,75,flower65.jpg,flower85.jpg,high,NULL
1687287388,a261ca5fa65d94fac214c2eec8ed273c,PennController,9,0,experiment,NULL,Selector,choice,Selection,option2,1687287178078,616f40c84dabe856f6280a8b,616f40c84dabe856f6280a8b,6,flower,critical,D,75,flower65.jpg,flower85.jpg,high,option1;option2
1687287388,a261ca5fa65d94fac214c2eec8ed273c,PennController,9,0,experiment,NULL,PennController,8,_Trial_,End,1687287178080,616f40c84dabe856f6280a8b,616f40c84dabe856f6280a8b,6,flower,critical,D,75,flower65.jpg,flower85.jpg,high,NULL
1687287388,a261ca5fa65d94fac214c2eec8ed273c,PennController,31,0,experiment,NULL,PennController,30,_Trial_,Start,1687287178081,616f40c84dabe856f6280a8b,616f40c84dabe856f6280a8b,28,sort,filler,D,25,sort15.jpg,sort35.jpg,GoalA,NULL
1687287388,a261ca5fa65d94fac214c2eec8ed273c,PennController,31,0,experiment,NULL,PennController,30,_Header_,Start,1687287178081,616f40c84dabe856f6280a8b,616f40c84dabe856f6280a8b,28,sort,filler,D,25,sort15.jpg,sort35.jpg,GoalA,NULL
1687287388,a261ca5fa65d94fac214c2eec8ed273c,PennController,31,0,experiment,NULL,PennController,30,_Header_,End,1687287178081,616f40c84dabe856f6280a8b,616f40c84dabe856f6280a8b,28,sort,filler,D,25,sort15.jpg,sort35.jpg,GoalA,NULL
1687287388,a261ca5fa65d94fac214c2eec8ed273c,PennController,31,0,experiment,NULL,Canvas,canvas6,Print,NA,1687287183779,616f40c84dabe856f6280a8b,616f40c84dabe856f6280a8b,28,sort,filler,D,25,sort15.jpg,sort35.jpg,GoalA,NULL
1687287388,a261ca5fa65d94fac214c2eec8ed273c,PennController,31,0,experiment,NULL,Video,progression,buffer,0.001741,1687287181605,616f40c84dabe856f6280a8b,616f40c84dabe856f6280a8b,28,sort,filler,D,25,sort15.jpg,sort35.jpg,GoalA,NULL
1687287388,a261ca5fa65d94fac214c2eec8ed273c,PennController,31,0,experiment,NULL,Selector,choice,Selection,option2,1687287185789,616f40c84dabe856f6280a8b,616f40c84dabe856f6280a8b,28,sort,filler,D,25,sort15.jpg,sort35.jpg,GoalA,option1;option2
1687287388,a261ca5fa65d94fac214c2eec8ed273c,PennController,31,0,experiment,NULL,PennController,30,_Trial_,End,1687287185790,616f40c84dabe856f6280a8b,616f40c84dabe856f6280a8b,28,sort,filler,D,25,sort15.jpg,sort35.jpg,GoalA,NULL
1687287388,a261ca5fa65d94fac214c2eec8ed273c,PennController,24,0,experiment,NULL,PennController,23,_Trial_,Start,1687287185791,616f40c84dabe856f6280a8b,616f40c84dabe856f6280a8b,21,visit,filler,D,75,visit65.jpg,visit85.jpg,GoalB,NULL
1687287388,a261ca5fa65d94fac214c2eec8ed273c,PennController,24,0,experiment,NULL,PennController,23,_Header_,Start,1687287185791,616f40c84dabe856f6280a8b,616f40c84dabe856f6280a8b,21,visit,filler,D,75,visit65.jpg,visit85.jpg,GoalB,NULL
1687287388,a261ca5fa65d94fac214c2eec8ed273c,PennController,24,0,experiment,NULL,PennController,23,_Header_,End,1687287185791,616f40c84dabe856f6280a8b,616f40c84dabe856f6280a8b,21,visit,filler,D,75,visit65.jpg,visit85.jpg,GoalB,NULL
1687287388,a261ca5fa65d94fac214c2eec8ed273c,PennController,24,0,experiment,NULL,Canvas,canvas6,Print,NA,1687287193483,616f40c84dabe856f6280a8b,616f40c84dabe856f6280a8b,21,visit,filler,D,75,visit65.jpg,visit85.jpg,GoalB,NULL
1687287388,a261ca5fa65d94fac214c2eec8ed273c,PennController,24,0,experiment,NULL,Video,progression,buffer,0.001347,1687287189311,616f40c84dabe856f6280a8b,616f40c84dabe856f6280a8b,21,visit,filler,D,75,visit65.jpg,visit85.jpg,GoalB,NULL
1687287388,a261ca5fa65d94fac214c2eec8ed273c,PennController,24,0,experiment,NULL,Selector,choice,Selection,option2,1687287196078,616f40c84dabe856f6280a8b,616f40c84dabe856f6280a8b,21,visit,filler,D,75,visit65.jpg,visit85.jpg,GoalB,option1;option2
1687287388,a261ca5fa65d94fac214c2eec8ed273c,PennController,24,0,experiment,NULL,PennController,23,_Trial_,End,1687287196079,616f40c84dabe856f6280a8b,616f40c84dabe856f6280a8b,21,visit,filler,D,75,visit65.jpg,visit85.jpg,GoalB,NULL
1687287388,a261ca5fa65d94fac214c2eec8ed273c,PennController,11,0,experiment,NULL,PennController,10,_Trial_,Start,1687287196081,616f40c84dabe856f6280a8b,616f40c84dabe856f6280a8b,8,cucumber,critical,D,50,cucumber42.jpg,cucumber60.jpg,high,NULL
1687287388,a261ca5fa65d94fac214c2eec8ed273c,PennController,11,0,experiment,NULL,PennController,10,_Header_,Start,1687287196081,616f40c84dabe856f6280a8b,616f40c84dabe856f6280a8b,8,cucumber,critical,D,50,cucumber42.jpg,cucumber60.jpg,high,NULL
1687287388,a261ca5fa65d94fac214c2eec8ed273c,PennController,11,0,experiment,NULL,PennController,10,_Header_,End,1687287196081,616f40c84dabe856f6280a8b,616f40c84dabe856f6280a8b,8,cucumber,critical,D,50,cucumber42.jpg,cucumber60.jpg,high,NULL
1687287388,a261ca5fa65d94fac214c2eec8ed273c,PennController,11,0,experiment,NULL,Canvas,canvas6,Print,NA,1687287204184,616f40c84dabe856f6280a8b,616f40c84dabe856f6280a8b,8,cucumber,critical,D,50,cucumber42.jpg,cucumber60.jpg,high,NULL
1687287388,a261ca5fa65d94fac214c2eec8ed273c,PennController,11,0,experiment,NULL,Video,progression,buffer,0.002038,1687287199601,616f40c84dabe856f6280a8b,616f40c84dabe856f6280a8b,8,cucumber,critical,D,50,cucumber42.jpg,cucumber60.jpg,high,NULL
1687287388,a261ca5fa65d94fac214c2eec8ed273c,PennController,11,0,experiment,NULL,Selector,choice,Selection,option1,1687287208108,616f40c84dabe856f6280a8b,616f40c84dabe856f6280a8b,8,cucumber,critical,D,50,cucumber42.jpg,cucumber60.jpg,high,option1;option2
1687287388,a261ca5fa65d94fac214c2eec8ed273c,PennController,11,0,experiment,NULL,PennController,10,_Trial_,End,1687287208108,616f40c84dabe856f6280a8b,616f40c84dabe856f6280a8b,8,cucumber,critical,D,50,cucumber42.jpg,cucumber60.jpg,high,NULL
1687287388,a261ca5fa65d94fac214c2eec8ed273c,PennController,14,0,experiment,NULL,PennController,13,_Trial_,Start,1687287208109,616f40c84dabe856f6280a8b,616f40c84dabe856f6280a8b,11,beads,critical,D,50,beads40.jpg,beads60.jpg,high,NULL
1687287388,a261ca5fa65d94fac214c2eec8ed273c,PennController,14,0,experiment,NULL,PennController,13,_Header_,Start,1687287208109,616f40c84dabe856f6280a8b,616f40c84dabe856f6280a8b,11,beads,critical,D,50,beads40.jpg,beads60.jpg,high,NULL
1687287388,a261ca5fa65d94fac214c2eec8ed273c,PennController,14,0,experiment,NULL,PennController,13,_Header_,End,1687287208109,616f40c84dabe856f6280a8b,616f40c84dabe856f6280a8b,11,beads,critical,D,50,beads40.jpg,beads60.jpg,high,NULL
1687287388,a261ca5fa65d94fac214c2eec8ed273c,PennController,14,0,experiment,NULL,Canvas,canvas6,Print,NA,1687287214811,616f40c84dabe856f6280a8b,616f40c84dabe856f6280a8b,11,beads,critical,D,50,beads40.jpg,beads60.jpg,high,NULL
1687287388,a261ca5fa65d94fac214c2eec8ed273c,PennController,14,0,experiment,NULL,Video,progression,buffer,0.001949,1687287211632,616f40c84dabe856f6280a8b,616f40c84dabe856f6280a8b,11,beads,critical,D,50,beads40.jpg,beads60.jpg,high,NULL
1687287388,a261ca5fa65d94fac214c2eec8ed273c,PennController,14,0,experiment,NULL,Selector,choice,Selection,option2,1687287216969,616f40c84dabe856f6280a8b,616f40c84dabe856f6280a8b,11,beads,critical,D,50,beads40.jpg,beads60.jpg,high,option2;option1
1687287388,a261ca5fa65d94fac214c2eec8ed273c,PennController,14,0,experiment,NULL,PennController,13,_Trial_,End,1687287216970,616f40c84dabe856f6280a8b,616f40c84dabe856f6280a8b,11,beads,critical,D,50,beads40.jpg,beads60.jpg,high,NULL
1687287388,a261ca5fa65d94fac214c2eec8ed273c,PennController,17,0,experiment,NULL,PennController,16,_Trial_,Start,1687287216970,616f40c84dabe856f6280a8b,616f40c84dabe856f6280a8b,14,cover,critical,D,50,cover42.jpg,cover60.jpg,high,NULL
1687287388,a261ca5fa65d94fac214c2eec8ed273c,PennController,17,0,experiment,NULL,PennController,16,_Header_,Start,1687287216970,616f40c84dabe856f6280a8b,616f40c84dabe856f6280a8b,14,cover,critical,D,50,cover42.jpg,cover60.jpg,high,NULL
1687287388,a261ca5fa65d94fac214c2eec8ed273c,PennController,17,0,experiment,NULL,PennController,16,_Header_,End,1687287216970,616f40c84dabe856f6280a8b,616f40c84dabe856f6280a8b,14,cover,critical,D,50,cover42.jpg,cover60.jpg,high,NULL
1687287388,a261ca5fa65d94fac214c2eec8ed273c,PennController,17,0,experiment,NULL,Canvas,canvas6,Print,NA,1687287225072,616f40c84dabe856f6280a8b,616f40c84dabe856f6280a8b,14,cover,critical,D,50,cover42.jpg,cover60.jpg,high,NULL
1687287388,a261ca5fa65d94fac214c2eec8ed273c,PennController,17,0,experiment,NULL,Video,progression,buffer,0.001532,1687287220488,616f40c84dabe856f6280a8b,616f40c84dabe856f6280a8b,14,cover,critical,D,50,cover42.jpg,cover60.jpg,high,NULL
1687287388,a261ca5fa65d94fac214c2eec8ed273c,PennController,17,0,experiment,NULL,Selector,choice,Selection,option2,1687287229304,616f40c84dabe856f6280a8b,616f40c84dabe856f6280a8b,14,cover,critical,D,50,cover42.jpg,cover60.jpg,high,option2;option1
1687287388,a261ca5fa65d94fac214c2eec8ed273c,PennController,17,0,experiment,NULL,PennController,16,_Trial_,End,1687287229305,616f40c84dabe856f6280a8b,616f40c84dabe856f6280a8b,14,cover,critical,D,50,cover42.jpg,cover60.jpg,high,NULL
1687287388,a261ca5fa65d94fac214c2eec8ed273c,PennController,15,0,experiment,NULL,PennController,14,_Trial_,Start,1687287229306,616f40c84dabe856f6280a8b,616f40c84dabe856f6280a8b,12,erase,critical,D,75,erase66.jpg,erase84.jpg,high,NULL
1687287388,a261ca5fa65d94fac214c2eec8ed273c,PennController,15,0,experiment,NULL,PennController,14,_Header_,Start,1687287229306,616f40c84dabe856f6280a8b,616f40c84dabe856f6280a8b,12,erase,critical,D,75,erase66.jpg,erase84.jpg,high,NULL
1687287388,a261ca5fa65d94fac214c2eec8ed273c,PennController,15,0,experiment,NULL,PennController,14,_Header_,End,1687287229306,616f40c84dabe856f6280a8b,616f40c84dabe856f6280a8b,12,erase,critical,D,75,erase66.jpg,erase84.jpg,high,NULL
1687287388,a261ca5fa65d94fac214c2eec8ed273c,PennController,15,0,experiment,NULL,Canvas,canvas6,Print,NA,1687287239013,616f40c84dabe856f6280a8b,616f40c84dabe856f6280a8b,12,erase,critical,D,75,erase66.jpg,erase84.jpg,high,NULL
1687287388,a261ca5fa65d94fac214c2eec8ed273c,PennController,15,0,experiment,NULL,Video,progression,buffer,0.001531,1687287232823,616f40c84dabe856f6280a8b,616f40c84dabe856f6280a8b,12,erase,critical,D,75,erase66.jpg,erase84.jpg,high,NULL
1687287388,a261ca5fa65d94fac214c2eec8ed273c,PennController,15,0,experiment,NULL,Selector,choice,Selection,option2,1687287243496,616f40c84dabe856f6280a8b,616f40c84dabe856f6280a8b,12,erase,critical,D,75,erase66.jpg,erase84.jpg,high,option1;option2
1687287388,a261ca5fa65d94fac214c2eec8ed273c,PennController,15,0,experiment,NULL,PennController,14,_Trial_,End,1687287243497,616f40c84dabe856f6280a8b,616f40c84dabe856f6280a8b,12,erase,critical,D,75,erase66.jpg,erase84.jpg,high,NULL
1687287388,a261ca5fa65d94fac214c2eec8ed273c,PennController,7,0,experiment,NULL,PennController,6,_Trial_,Start,1687287243498,616f40c84dabe856f6280a8b,616f40c84dabe856f6280a8b,4,candy,critical,D,25,candy15.jpg,candy35.jpg,high,NULL
1687287388,a261ca5fa65d94fac214c2eec8ed273c,PennController,7,0,experiment,NULL,PennController,6,_Header_,Start,1687287243498,616f40c84dabe856f6280a8b,616f40c84dabe856f6280a8b,4,candy,critical,D,25,candy15.jpg,candy35.jpg,high,NULL
1687287388,a261ca5fa65d94fac214c2eec8ed273c,PennController,7,0,experiment,NULL,PennController,6,_Header_,End,1687287243498,616f40c84dabe856f6280a8b,616f40c84dabe856f6280a8b,4,candy,critical,D,25,candy15.jpg,candy35.jpg,high,NULL
1687287388,a261ca5fa65d94fac214c2eec8ed273c,PennController,7,0,experiment,NULL,Canvas,canvas6,Print,NA,1687287249191,616f40c84dabe856f6280a8b,616f40c84dabe856f6280a8b,4,candy,critical,D,25,candy15.jpg,candy35.jpg,high,NULL
1687287388,a261ca5fa65d94fac214c2eec8ed273c,PennController,7,0,experiment,NULL,Video,progression,buffer,0.001494,1687287247017,616f40c84dabe856f6280a8b,616f40c84dabe856f6280a8b,4,candy,critical,D,25,candy15.jpg,candy35.jpg,high,NULL
1687287388,a261ca5fa65d94fac214c2eec8ed273c,PennController,7,0,experiment,NULL,Selector,choice,Selection,option2,1687287250794,616f40c84dabe856f6280a8b,616f40c84dabe856f6280a8b,4,candy,critical,D,25,candy15.jpg,candy35.jpg,high,option1;option2
1687287388,a261ca5fa65d94fac214c2eec8ed273c,PennController,7,0,experiment,NULL,PennController,6,_Trial_,End,1687287250795,616f40c84dabe856f6280a8b,616f40c84dabe856f6280a8b,4,candy,critical,D,25,candy15.jpg,candy35.jpg,high,NULL
1687287388,a261ca5fa65d94fac214c2eec8ed273c,PennController,10,0,experiment,NULL,PennController,9,_Trial_,Start,1687287250796,616f40c84dabe856f6280a8b,616f40c84dabe856f6280a8b,7,stack,critical,D,25,stack15.jpg,stack35.jpg,high,NULL
1687287388,a261ca5fa65d94fac214c2eec8ed273c,PennController,10,0,experiment,NULL,PennController,9,_Header_,Start,1687287250796,616f40c84dabe856f6280a8b,616f40c84dabe856f6280a8b,7,stack,critical,D,25,stack15.jpg,stack35.jpg,high,NULL
1687287388,a261ca5fa65d94fac214c2eec8ed273c,PennController,10,0,experiment,NULL,PennController,9,_Header_,End,1687287250796,616f40c84dabe856f6280a8b,616f40c84dabe856f6280a8b,7,stack,critical,D,25,stack15.jpg,stack35.jpg,high,NULL
1687287388,a261ca5fa65d94fac214c2eec8ed273c,PennController,10,0,experiment,NULL,Canvas,canvas6,Print,NA,1687287256486,616f40c84dabe856f6280a8b,616f40c84dabe856f6280a8b,7,stack,critical,D,25,stack15.jpg,stack35.jpg,high,NULL
1687287388,a261ca5fa65d94fac214c2eec8ed273c,PennController,10,0,experiment,NULL,Video,progression,buffer,0.001271,1687287254316,616f40c84dabe856f6280a8b,616f40c84dabe856f6280a8b,7,stack,critical,D,25,stack15.jpg,stack35.jpg,high,NULL
1687287388,a261ca5fa65d94fac214c2eec8ed273c,PennController,10,0,experiment,NULL,Selector,choice,Selection,option1,1687287259837,616f40c84dabe856f6280a8b,616f40c84dabe856f6280a8b,7,stack,critical,D,25,stack15.jpg,stack35.jpg,high,option1;option2
1687287388,a261ca5fa65d94fac214c2eec8ed273c,PennController,10,0,experiment,NULL,PennController,9,_Trial_,End,1687287259839,616f40c84dabe856f6280a8b,616f40c84dabe856f6280a8b,7,stack,critical,D,25,stack15.jpg,stack35.jpg,high,NULL
1687287388,a261ca5fa65d94fac214c2eec8ed273c,PennController,12,0,experiment,NULL,PennController,11,_Trial_,Start,1687287259839,616f40c84dabe856f6280a8b,616f40c84dabe856f6280a8b,9,cake,critical,D,75,cake66.jpg,cake84.jpg,high,NULL
1687287388,a261ca5fa65d94fac214c2eec8ed273c,PennController,12,0,experiment,NULL,PennController,11,_Header_,Start,1687287259839,616f40c84dabe856f6280a8b,616f40c84dabe856f6280a8b,9,cake,critical,D,75,cake66.jpg,cake84.jpg,high,NULL
1687287388,a261ca5fa65d94fac214c2eec8ed273c,PennController,12,0,experiment,NULL,PennController,11,_Header_,End,1687287259840,616f40c84dabe856f6280a8b,616f40c84dabe856f6280a8b,9,cake,critical,D,75,cake66.jpg,cake84.jpg,high,NULL
1687287388,a261ca5fa65d94fac214c2eec8ed273c,PennController,12,0,experiment,NULL,Canvas,canvas6,Print,NA,1687287269543,616f40c84dabe856f6280a8b,616f40c84dabe856f6280a8b,9,cake,critical,D,75,cake66.jpg,cake84.jpg,high,NULL
1687287388,a261ca5fa65d94fac214c2eec8ed273c,PennController,12,0,experiment,NULL,Video,progression,buffer,0.001471,1687287263359,616f40c84dabe856f6280a8b,616f40c84dabe856f6280a8b,9,cake,critical,D,75,cake66.jpg,cake84.jpg,high,NULL
1687287388,a261ca5fa65d94fac214c2eec8ed273c,PennController,12,0,experiment,NULL,Selector,choice,Selection,option2,1687287271433,616f40c84dabe856f6280a8b,616f40c84dabe856f6280a8b,9,cake,critical,D,75,cake66.jpg,cake84.jpg,high,option2;option1
1687287388,a261ca5fa65d94fac214c2eec8ed273c,PennController,12,0,experiment,NULL,PennController,11,_Trial_,End,1687287271433,616f40c84dabe856f6280a8b,616f40c84dabe856f6280a8b,9,cake,critical,D,75,cake66.jpg,cake84.jpg,high,NULL
1687287388,a261ca5fa65d94fac214c2eec8ed273c,PennController,32,0,experiment,NULL,PennController,31,_Trial_,Start,1687287271434,616f40c84dabe856f6280a8b,616f40c84dabe856f6280a8b,29,frog,filler,D,50,frog40.jpg,frog60.jpg,GoalB,NULL
1687287388,a261ca5fa65d94fac214c2eec8ed273c,PennController,32,0,experiment,NULL,PennController,31,_Header_,Start,1687287271434,616f40c84dabe856f6280a8b,616f40c84dabe856f6280a8b,29,frog,filler,D,50,frog40.jpg,frog60.jpg,GoalB,NULL
1687287388,a261ca5fa65d94fac214c2eec8ed273c,PennController,32,0,experiment,NULL,PennController,31,_Header_,End,1687287271434,616f40c84dabe856f6280a8b,616f40c84dabe856f6280a8b,29,frog,filler,D,50,frog40.jpg,frog60.jpg,GoalB,NULL
1687287388,a261ca5fa65d94fac214c2eec8ed273c,PennController,32,0,experiment,NULL,Canvas,canvas6,Print,NA,1687287278130,616f40c84dabe856f6280a8b,616f40c84dabe856f6280a8b,29,frog,filler,D,50,frog40.jpg,frog60.jpg,GoalB,NULL
1687287388,a261ca5fa65d94fac214c2eec8ed273c,PennController,32,0,experiment,NULL,Video,progression,buffer,0.001511,1687287274957,616f40c84dabe856f6280a8b,616f40c84dabe856f6280a8b,29,frog,filler,D,50,frog40.jpg,frog60.jpg,GoalB,NULL
1687287388,a261ca5fa65d94fac214c2eec8ed273c,PennController,32,0,experiment,NULL,Selector,choice,Selection,option2,1687287279637,616f40c84dabe856f6280a8b,616f40c84dabe856f6280a8b,29,frog,filler,D,50,frog40.jpg,frog60.jpg,GoalB,option2;option1
1687287388,a261ca5fa65d94fac214c2eec8ed273c,PennController,32,0,experiment,NULL,PennController,31,_Trial_,End,1687287279638,616f40c84dabe856f6280a8b,616f40c84dabe856f6280a8b,29,frog,filler,D,50,frog40.jpg,frog60.jpg,GoalB,NULL
1687287388,a261ca5fa65d94fac214c2eec8ed273c,PennController,26,0,experiment,NULL,PennController,25,_Trial_,Start,1687287279639,616f40c84dabe856f6280a8b,616f40c84dabe856f6280a8b,23,color,filler,D,50,color40.jpg,color60.jpg,GoalB,NULL
1687287388,a261ca5fa65d94fac214c2eec8ed273c,PennController,26,0,experiment,NULL,PennController,25,_Header_,Start,1687287279639,616f40c84dabe856f6280a8b,616f40c84dabe856f6280a8b,23,color,filler,D,50,color40.jpg,color60.jpg,GoalB,NULL
1687287388,a261ca5fa65d94fac214c2eec8ed273c,PennController,26,0,experiment,NULL,PennController,25,_Header_,End,1687287279639,616f40c84dabe856f6280a8b,616f40c84dabe856f6280a8b,23,color,filler,D,50,color40.jpg,color60.jpg,GoalB,NULL
1687287388,a261ca5fa65d94fac214c2eec8ed273c,PennController,26,0,experiment,NULL,Canvas,canvas6,Print,NA,1687287286335,616f40c84dabe856f6280a8b,616f40c84dabe856f6280a8b,23,color,filler,D,50,color40.jpg,color60.jpg,GoalB,NULL
1687287388,a261ca5fa65d94fac214c2eec8ed273c,PennController,26,0,experiment,NULL,Video,progression,buffer,0.001669,1687287283160,616f40c84dabe856f6280a8b,616f40c84dabe856f6280a8b,23,color,filler,D,50,color40.jpg,color60.jpg,GoalB,NULL
1687287388,a261ca5fa65d94fac214c2eec8ed273c,PennController,26,0,experiment,NULL,Selector,choice,Selection,option1,1687287290341,616f40c84dabe856f6280a8b,616f40c84dabe856f6280a8b,23,color,filler,D,50,color40.jpg,color60.jpg,GoalB,option1;option2
1687287388,a261ca5fa65d94fac214c2eec8ed273c,PennController,26,0,experiment,NULL,PennController,25,_Trial_,End,1687287290342,616f40c84dabe856f6280a8b,616f40c84dabe856f6280a8b,23,color,filler,D,50,color40.jpg,color60.jpg,GoalB,NULL
1687287388,a261ca5fa65d94fac214c2eec8ed273c,PennController,30,0,experiment,NULL,PennController,29,_Trial_,Start,1687287290344,616f40c84dabe856f6280a8b,616f40c84dabe856f6280a8b,27,square,filler,D,75,square65.jpg,square85.jpg,GoalB,NULL
1687287388,a261ca5fa65d94fac214c2eec8ed273c,PennController,30,0,experiment,NULL,PennController,29,_Header_,Start,1687287290344,616f40c84dabe856f6280a8b,616f40c84dabe856f6280a8b,27,square,filler,D,75,square65.jpg,square85.jpg,GoalB,NULL
1687287388,a261ca5fa65d94fac214c2eec8ed273c,PennController,30,0,experiment,NULL,PennController,29,_Header_,End,1687287290344,616f40c84dabe856f6280a8b,616f40c84dabe856f6280a8b,27,square,filler,D,75,square65.jpg,square85.jpg,GoalB,NULL
1687287388,a261ca5fa65d94fac214c2eec8ed273c,PennController,30,0,experiment,NULL,Canvas,canvas6,Print,NA,1687287298051,616f40c84dabe856f6280a8b,616f40c84dabe856f6280a8b,27,square,filler,D,75,square65.jpg,square85.jpg,GoalB,NULL
1687287388,a261ca5fa65d94fac214c2eec8ed273c,PennController,30,0,experiment,NULL,Video,progression,buffer,0.002348,1687287293863,616f40c84dabe856f6280a8b,616f40c84dabe856f6280a8b,27,square,filler,D,75,square65.jpg,square85.jpg,GoalB,NULL
1687287388,a261ca5fa65d94fac214c2eec8ed273c,PennController,30,0,experiment,NULL,Selector,choice,Selection,option1,1687287300218,616f40c84dabe856f6280a8b,616f40c84dabe856f6280a8b,27,square,filler,D,75,square65.jpg,square85.jpg,GoalB,option1;option2
1687287388,a261ca5fa65d94fac214c2eec8ed273c,PennController,30,0,experiment,NULL,PennController,29,_Trial_,End,1687287300220,616f40c84dabe856f6280a8b,616f40c84dabe856f6280a8b,27,square,filler,D,75,square65.jpg,square85.jpg,GoalB,NULL
1687287388,a261ca5fa65d94fac214c2eec8ed273c,PennController,5,0,experiment,NULL,PennController,4,_Trial_,Start,1687287300221,616f40c84dabe856f6280a8b,616f40c84dabe856f6280a8b,2,door,critical,D,50,door40.jpg,door60.jpg,high,NULL
1687287388,a261ca5fa65d94fac214c2eec8ed273c,PennController,5,0,experiment,NULL,PennController,4,_Header_,Start,1687287300221,616f40c84dabe856f6280a8b,616f40c84dabe856f6280a8b,2,door,critical,D,50,door40.jpg,door60.jpg,high,NULL
1687287388,a261ca5fa65d94fac214c2eec8ed273c,PennController,5,0,experiment,NULL,PennController,4,_Header_,End,1687287300221,616f40c84dabe856f6280a8b,616f40c84dabe856f6280a8b,2,door,critical,D,50,door40.jpg,door60.jpg,high,NULL
1687287388,a261ca5fa65d94fac214c2eec8ed273c,PennController,5,0,experiment,NULL,Canvas,canvas6,Print,NA,1687287306917,616f40c84dabe856f6280a8b,616f40c84dabe856f6280a8b,2,door,critical,D,50,door40.jpg,door60.jpg,high,NULL
1687287388,a261ca5fa65d94fac214c2eec8ed273c,PennController,5,0,experiment,NULL,Video,progression,buffer,0.001958,1687287303744,616f40c84dabe856f6280a8b,616f40c84dabe856f6280a8b,2,door,critical,D,50,door40.jpg,door60.jpg,high,NULL
1687287388,a261ca5fa65d94fac214c2eec8ed273c,PennController,5,0,experiment,NULL,Selector,choice,Selection,option2,1687287309811,616f40c84dabe856f6280a8b,616f40c84dabe856f6280a8b,2,door,critical,D,50,door40.jpg,door60.jpg,high,option2;option1
1687287388,a261ca5fa65d94fac214c2eec8ed273c,PennController,5,0,experiment,NULL,PennController,4,_Trial_,End,1687287309812,616f40c84dabe856f6280a8b,616f40c84dabe856f6280a8b,2,door,critical,D,50,door40.jpg,door60.jpg,high,NULL
1687287388,a261ca5fa65d94fac214c2eec8ed273c,PennController,13,0,experiment,NULL,PennController,12,_Trial_,Start,1687287309813,616f40c84dabe856f6280a8b,616f40c84dabe856f6280a8b,10,train,critical,D,25,train15.jpg,train35.jpg,high,NULL
1687287388,a261ca5fa65d94fac214c2eec8ed273c,PennController,13,0,experiment,NULL,PennController,12,_Header_,Start,1687287309813,616f40c84dabe856f6280a8b,616f40c84dabe856f6280a8b,10,train,critical,D,25,train15.jpg,train35.jpg,high,NULL
1687287388,a261ca5fa65d94fac214c2eec8ed273c,PennController,13,0,experiment,NULL,PennController,12,_Header_,End,1687287309813,616f40c84dabe856f6280a8b,616f40c84dabe856f6280a8b,10,train,critical,D,25,train15.jpg,train35.jpg,high,NULL
1687287388,a261ca5fa65d94fac214c2eec8ed273c,PennController,13,0,experiment,NULL,Canvas,canvas6,Print,NA,1687287315507,616f40c84dabe856f6280a8b,616f40c84dabe856f6280a8b,10,train,critical,D,25,train15.jpg,train35.jpg,high,NULL
1687287388,a261ca5fa65d94fac214c2eec8ed273c,PennController,13,0,experiment,NULL,Video,progression,buffer,0.002043,1687287313327,616f40c84dabe856f6280a8b,616f40c84dabe856f6280a8b,10,train,critical,D,25,train15.jpg,train35.jpg,high,NULL
1687287388,a261ca5fa65d94fac214c2eec8ed273c,PennController,13,0,experiment,NULL,Selector,choice,Selection,option2,1687287318009,616f40c84dabe856f6280a8b,616f40c84dabe856f6280a8b,10,train,critical,D,25,train15.jpg,train35.jpg,high,option2;option1
1687287388,a261ca5fa65d94fac214c2eec8ed273c,PennController,13,0,experiment,NULL,PennController,12,_Trial_,End,1687287318011,616f40c84dabe856f6280a8b,616f40c84dabe856f6280a8b,10,train,critical,D,25,train15.jpg,train35.jpg,high,NULL
1687287388,a261ca5fa65d94fac214c2eec8ed273c,PennController,28,0,experiment,NULL,PennController,27,_Trial_,Start,1687287318012,616f40c84dabe856f6280a8b,616f40c84dabe856f6280a8b,25,house,filler,D,25,house15.jpg,house35.jpg,GoalB,NULL
1687287388,a261ca5fa65d94fac214c2eec8ed273c,PennController,28,0,experiment,NULL,PennController,27,_Header_,Start,1687287318012,616f40c84dabe856f6280a8b,616f40c84dabe856f6280a8b,25,house,filler,D,25,house15.jpg,house35.jpg,GoalB,NULL
1687287388,a261ca5fa65d94fac214c2eec8ed273c,PennController,28,0,experiment,NULL,PennController,27,_Header_,End,1687287318012,616f40c84dabe856f6280a8b,616f40c84dabe856f6280a8b,25,house,filler,D,25,house15.jpg,house35.jpg,GoalB,NULL
1687287388,a261ca5fa65d94fac214c2eec8ed273c,PennController,28,0,experiment,NULL,Canvas,canvas6,Print,NA,1687287323704,616f40c84dabe856f6280a8b,616f40c84dabe856f6280a8b,25,house,filler,D,25,house15.jpg,house35.jpg,GoalB,NULL
1687287388,a261ca5fa65d94fac214c2eec8ed273c,PennController,28,0,experiment,NULL,Video,progression,buffer,0.001939,1687287321536,616f40c84dabe856f6280a8b,616f40c84dabe856f6280a8b,25,house,filler,D,25,house15.jpg,house35.jpg,GoalB,NULL
1687287388,a261ca5fa65d94fac214c2eec8ed273c,PennController,28,0,experiment,NULL,Selector,choice,Selection,option2,1687287325549,616f40c84dabe856f6280a8b,616f40c84dabe856f6280a8b,25,house,filler,D,25,house15.jpg,house35.jpg,GoalB,option2;option1
1687287388,a261ca5fa65d94fac214c2eec8ed273c,PennController,28,0,experiment,NULL,PennController,27,_Trial_,End,1687287325550,616f40c84dabe856f6280a8b,616f40c84dabe856f6280a8b,25,house,filler,D,25,house15.jpg,house35.jpg,GoalB,NULL
1687287388,a261ca5fa65d94fac214c2eec8ed273c,PennController,27,0,experiment,NULL,PennController,26,_Trial_,Start,1687287325551,616f40c84dabe856f6280a8b,616f40c84dabe856f6280a8b,24,match,filler,D,75,match65.jpg,match85.jpg,GoalA,NULL
1687287388,a261ca5fa65d94fac214c2eec8ed273c,PennController,27,0,experiment,NULL,PennController,26,_Header_,Start,1687287325551,616f40c84dabe856f6280a8b,616f40c84dabe856f6280a8b,24,match,filler,D,75,match65.jpg,match85.jpg,GoalA,NULL
1687287388,a261ca5fa65d94fac214c2eec8ed273c,PennController,27,0,experiment,NULL,PennController,26,_Header_,End,1687287325551,616f40c84dabe856f6280a8b,616f40c84dabe856f6280a8b,24,match,filler,D,75,match65.jpg,match85.jpg,GoalA,NULL
1687287388,a261ca5fa65d94fac214c2eec8ed273c,PennController,27,0,experiment,NULL,Canvas,canvas6,Print,NA,1687287333250,616f40c84dabe856f6280a8b,616f40c84dabe856f6280a8b,24,match,filler,D,75,match65.jpg,match85.jpg,GoalA,NULL
1687287388,a261ca5fa65d94fac214c2eec8ed273c,PennController,27,0,experiment,NULL,Video,progression,buffer,0.001587,1687287329070,616f40c84dabe856f6280a8b,616f40c84dabe856f6280a8b,24,match,filler,D,75,match65.jpg,match85.jpg,GoalA,NULL
1687287388,a261ca5fa65d94fac214c2eec8ed273c,PennController,27,0,experiment,NULL,Selector,choice,Selection,option1,1687287334417,616f40c84dabe856f6280a8b,616f40c84dabe856f6280a8b,24,match,filler,D,75,match65.jpg,match85.jpg,GoalA,option1;option2
1687287388,a261ca5fa65d94fac214c2eec8ed273c,PennController,27,0,experiment,NULL,PennController,26,_Trial_,End,1687287334418,616f40c84dabe856f6280a8b,616f40c84dabe856f6280a8b,24,match,filler,D,75,match65.jpg,match85.jpg,GoalA,NULL
1687287388,a261ca5fa65d94fac214c2eec8ed273c,PennController,21,0,experiment,NULL,PennController,20,_Trial_,Start,1687287334419,616f40c84dabe856f6280a8b,616f40c84dabe856f6280a8b,18,ball,critical,D,75,ball65.jpg,ball85.jpg,high,NULL
1687287388,a261ca5fa65d94fac214c2eec8ed273c,PennController,21,0,experiment,NULL,PennController,20,_Header_,Start,1687287334419,616f40c84dabe856f6280a8b,616f40c84dabe856f6280a8b,18,ball,critical,D,75,ball65.jpg,ball85.jpg,high,NULL
1687287388,a261ca5fa65d94fac214c2eec8ed273c,PennController,21,0,experiment,NULL,PennController,20,_Header_,End,1687287334419,616f40c84dabe856f6280a8b,616f40c84dabe856f6280a8b,18,ball,critical,D,75,ball65.jpg,ball85.jpg,high,NULL
1687287388,a261ca5fa65d94fac214c2eec8ed273c,PennController,21,0,experiment,NULL,Canvas,canvas6,Print,NA,1687287342119,616f40c84dabe856f6280a8b,616f40c84dabe856f6280a8b,18,ball,critical,D,75,ball65.jpg,ball85.jpg,high,NULL
1687287388,a261ca5fa65d94fac214c2eec8ed273c,PennController,21,0,experiment,NULL,Video,progression,buffer,0.002296,1687287337938,616f40c84dabe856f6280a8b,616f40c84dabe856f6280a8b,18,ball,critical,D,75,ball65.jpg,ball85.jpg,high,NULL
1687287388,a261ca5fa65d94fac214c2eec8ed273c,PennController,21,0,experiment,NULL,Selector,choice,Selection,option1,1687287344087,616f40c84dabe856f6280a8b,616f40c84dabe856f6280a8b,18,ball,critical,D,75,ball65.jpg,ball85.jpg,high,option2;option1
1687287388,a261ca5fa65d94fac214c2eec8ed273c,PennController,21,0,experiment,NULL,PennController,20,_Trial_,End,1687287344088,616f40c84dabe856f6280a8b,616f40c84dabe856f6280a8b,18,ball,critical,D,75,ball65.jpg,ball85.jpg,high,NULL
1687287388,a261ca5fa65d94fac214c2eec8ed273c,PennController,4,0,experiment,NULL,PennController,3,_Trial_,Start,1687287344089,616f40c84dabe856f6280a8b,616f40c84dabe856f6280a8b,1,vase,critical,D,25,vase15.jpg,vase35.jpg,high,NULL
1687287388,a261ca5fa65d94fac214c2eec8ed273c,PennController,4,0,experiment,NULL,PennController,3,_Header_,Start,1687287344089,616f40c84dabe856f6280a8b,616f40c84dabe856f6280a8b,1,vase,critical,D,25,vase15.jpg,vase35.jpg,high,NULL
1687287388,a261ca5fa65d94fac214c2eec8ed273c,PennController,4,0,experiment,NULL,PennController,3,_Header_,End,1687287344089,616f40c84dabe856f6280a8b,616f40c84dabe856f6280a8b,1,vase,critical,D,25,vase15.jpg,vase35.jpg,high,NULL
1687287388,a261ca5fa65d94fac214c2eec8ed273c,PennController,4,0,experiment,NULL,Canvas,canvas6,Print,NA,1687287349764,616f40c84dabe856f6280a8b,616f40c84dabe856f6280a8b,1,vase,critical,D,25,vase15.jpg,vase35.jpg,high,NULL
1687287388,a261ca5fa65d94fac214c2eec8ed273c,PennController,4,0,experiment,NULL,Video,progression,buffer,0.001728,1687287347605,616f40c84dabe856f6280a8b,616f40c84dabe856f6280a8b,1,vase,critical,D,25,vase15.jpg,vase35.jpg,high,NULL
1687287388,a261ca5fa65d94fac214c2eec8ed273c,PennController,4,0,experiment,NULL,Selector,choice,Selection,option2,1687287351173,616f40c84dabe856f6280a8b,616f40c84dabe856f6280a8b,1,vase,critical,D,25,vase15.jpg,vase35.jpg,high,option1;option2
1687287388,a261ca5fa65d94fac214c2eec8ed273c,PennController,4,0,experiment,NULL,PennController,3,_Trial_,End,1687287351174,616f40c84dabe856f6280a8b,616f40c84dabe856f6280a8b,1,vase,critical,D,25,vase15.jpg,vase35.jpg,high,NULL
1687287388,a261ca5fa65d94fac214c2eec8ed273c,PennController,19,0,experiment,NULL,PennController,18,_Trial_,Start,1687287351175,616f40c84dabe856f6280a8b,616f40c84dabe856f6280a8b,16,blinds,critical,D,25,blinds15.jpg,blinds33.jpg,high,NULL
1687287388,a261ca5fa65d94fac214c2eec8ed273c,PennController,19,0,experiment,NULL,PennController,18,_Header_,Start,1687287351175,616f40c84dabe856f6280a8b,616f40c84dabe856f6280a8b,16,blinds,critical,D,25,blinds15.jpg,blinds33.jpg,high,NULL
1687287388,a261ca5fa65d94fac214c2eec8ed273c,PennController,19,0,experiment,NULL,PennController,18,_Header_,End,1687287351175,616f40c84dabe856f6280a8b,616f40c84dabe856f6280a8b,16,blinds,critical,D,25,blinds15.jpg,blinds33.jpg,high,NULL
1687287388,a261ca5fa65d94fac214c2eec8ed273c,PennController,19,0,experiment,NULL,Canvas,canvas6,Print,NA,1687287357472,616f40c84dabe856f6280a8b,616f40c84dabe856f6280a8b,16,blinds,critical,D,25,blinds15.jpg,blinds33.jpg,high,NULL
1687287388,a261ca5fa65d94fac214c2eec8ed273c,PennController,19,0,experiment,NULL,Video,progression,buffer,0.001282,1687287354697,616f40c84dabe856f6280a8b,616f40c84dabe856f6280a8b,16,blinds,critical,D,25,blinds15.jpg,blinds33.jpg,high,NULL
1687287388,a261ca5fa65d94fac214c2eec8ed273c,PennController,19,0,experiment,NULL,Selector,choice,Selection,option1,1687287359850,616f40c84dabe856f6280a8b,616f40c84dabe856f6280a8b,16,blinds,critical,D,25,blinds15.jpg,blinds33.jpg,high,option2;option1
1687287388,a261ca5fa65d94fac214c2eec8ed273c,PennController,19,0,experiment,NULL,PennController,18,_Trial_,End,1687287359851,616f40c84dabe856f6280a8b,616f40c84dabe856f6280a8b,16,blinds,critical,D,25,blinds15.jpg,blinds33.jpg,high,NULL
1687287388,a261ca5fa65d94fac214c2eec8ed273c,PennController,29,0,experiment,NULL,PennController,28,_Trial_,Start,1687287359851,616f40c84dabe856f6280a8b,616f40c84dabe856f6280a8b,26,sandwich,filler,D,50,sandwich40.jpg,sandwich60.jpg,GoalA,NULL
1687287388,a261ca5fa65d94fac214c2eec8ed273c,PennController,29,0,experiment,NULL,PennController,28,_Header_,Start,1687287359851,616f40c84dabe856f6280a8b,616f40c84dabe856f6280a8b,26,sandwich,filler,D,50,sandwich40.jpg,sandwich60.jpg,GoalA,NULL
1687287388,a261ca5fa65d94fac214c2eec8ed273c,PennController,29,0,experiment,NULL,PennController,28,_Header_,End,1687287359851,616f40c84dabe856f6280a8b,616f40c84dabe856f6280a8b,26,sandwich,filler,D,50,sandwich40.jpg,sandwich60.jpg,GoalA,NULL
1687287388,a261ca5fa65d94fac214c2eec8ed273c,PennController,29,0,experiment,NULL,Canvas,canvas6,Print,NA,1687287366538,616f40c84dabe856f6280a8b,616f40c84dabe856f6280a8b,26,sandwich,filler,D,50,sandwich40.jpg,sandwich60.jpg,GoalA,NULL
1687287388,a261ca5fa65d94fac214c2eec8ed273c,PennController,29,0,experiment,NULL,Video,progression,buffer,0.002314,1687287363366,616f40c84dabe856f6280a8b,616f40c84dabe856f6280a8b,26,sandwich,filler,D,50,sandwich40.jpg,sandwich60.jpg,GoalA,NULL
1687287388,a261ca5fa65d94fac214c2eec8ed273c,PennController,29,0,experiment,NULL,Selector,choice,Selection,option1,1687287368432,616f40c84dabe856f6280a8b,616f40c84dabe856f6280a8b,26,sandwich,filler,D,50,sandwich40.jpg,sandwich60.jpg,GoalA,option1;option2
1687287388,a261ca5fa65d94fac214c2eec8ed273c,PennController,29,0,experiment,NULL,PennController,28,_Trial_,End,1687287368433,616f40c84dabe856f6280a8b,616f40c84dabe856f6280a8b,26,sandwich,filler,D,50,sandwich40.jpg,sandwich60.jpg,GoalA,NULL
1687287388,a261ca5fa65d94fac214c2eec8ed273c,PennController,6,0,experiment,NULL,PennController,5,_Trial_,Start,1687287368434,616f40c84dabe856f6280a8b,616f40c84dabe856f6280a8b,3,clean,critical,D,75,clean65.jpg,clean85.jpg,high,NULL
1687287388,a261ca5fa65d94fac214c2eec8ed273c,PennController,6,0,experiment,NULL,PennController,5,_Header_,Start,1687287368434,616f40c84dabe856f6280a8b,616f40c84dabe856f6280a8b,3,clean,critical,D,75,clean65.jpg,clean85.jpg,high,NULL
1687287388,a261ca5fa65d94fac214c2eec8ed273c,PennController,6,0,experiment,NULL,PennController,5,_Header_,End,1687287368434,616f40c84dabe856f6280a8b,616f40c84dabe856f6280a8b,3,clean,critical,D,75,clean65.jpg,clean85.jpg,high,NULL
1687287388,a261ca5fa65d94fac214c2eec8ed273c,PennController,6,0,experiment,NULL,Canvas,canvas6,Print,NA,1687287376135,616f40c84dabe856f6280a8b,616f40c84dabe856f6280a8b,3,clean,critical,D,75,clean65.jpg,clean85.jpg,high,NULL
1687287388,a261ca5fa65d94fac214c2eec8ed273c,PennController,6,0,experiment,NULL,Video,progression,buffer,0.001368,1687287371953,616f40c84dabe856f6280a8b,616f40c84dabe856f6280a8b,3,clean,critical,D,75,clean65.jpg,clean85.jpg,high,NULL
1687287388,a261ca5fa65d94fac214c2eec8ed273c,PennController,6,0,experiment,NULL,Selector,choice,Selection,option2,1687287378183,616f40c84dabe856f6280a8b,616f40c84dabe856f6280a8b,3,clean,critical,D,75,clean65.jpg,clean85.jpg,high,option1;option2
1687287388,a261ca5fa65d94fac214c2eec8ed273c,PennController,6,0,experiment,NULL,PennController,5,_Trial_,End,1687287378184,616f40c84dabe856f6280a8b,616f40c84dabe856f6280a8b,3,clean,critical,D,75,clean65.jpg,clean85.jpg,high,NULL
1687287388,a261ca5fa65d94fac214c2eec8ed273c,PennController,22,0,experiment,NULL,PennController,21,_Trial_,Start,1687287378185,616f40c84dabe856f6280a8b,616f40c84dabe856f6280a8b,19,cup,filler,D,25,cup15.jpg,cup35.jpg,GoalB,NULL
1687287388,a261ca5fa65d94fac214c2eec8ed273c,PennController,22,0,experiment,NULL,PennController,21,_Header_,Start,1687287378185,616f40c84dabe856f6280a8b,616f40c84dabe856f6280a8b,19,cup,filler,D,25,cup15.jpg,cup35.jpg,GoalB,NULL
1687287388,a261ca5fa65d94fac214c2eec8ed273c,PennController,22,0,experiment,NULL,PennController,21,_Header_,End,1687287378185,616f40c84dabe856f6280a8b,616f40c84dabe856f6280a8b,19,cup,filler,D,25,cup15.jpg,cup35.jpg,GoalB,NULL
1687287388,a261ca5fa65d94fac214c2eec8ed273c,PennController,22,0,experiment,NULL,Canvas,canvas6,Print,NA,1687287383880,616f40c84dabe856f6280a8b,616f40c84dabe856f6280a8b,19,cup,filler,D,25,cup15.jpg,cup35.jpg,GoalB,NULL
1687287388,a261ca5fa65d94fac214c2eec8ed273c,PennController,22,0,experiment,NULL,Video,progression,buffer,0.002219,1687287381704,616f40c84dabe856f6280a8b,616f40c84dabe856f6280a8b,19,cup,filler,D,25,cup15.jpg,cup35.jpg,GoalB,NULL
1687287388,a261ca5fa65d94fac214c2eec8ed273c,PennController,22,0,experiment,NULL,Selector,choice,Selection,option1,1687287385704,616f40c84dabe856f6280a8b,616f40c84dabe856f6280a8b,19,cup,filler,D,25,cup15.jpg,cup35.jpg,GoalB,option1;option2
1687287388,a261ca5fa65d94fac214c2eec8ed273c,PennController,22,0,experiment,NULL,PennController,21,_Trial_,End,1687287385705,616f40c84dabe856f6280a8b,616f40c84dabe856f6280a8b,19,cup,filler,D,25,cup15.jpg,cup35.jpg,GoalB,NULL
1687287388,a261ca5fa65d94fac214c2eec8ed273c,PennController,8,0,experiment,NULL,PennController,7,_Trial_,Start,1687287385706,616f40c84dabe856f6280a8b,616f40c84dabe856f6280a8b,5,book,critical,D,50,book40.jpg,book60.jpg,high,NULL
1687287388,a261ca5fa65d94fac214c2eec8ed273c,PennController,8,0,experiment,NULL,PennController,7,_Header_,Start,1687287385706,616f40c84dabe856f6280a8b,616f40c84dabe856f6280a8b,5,book,critical,D,50,book40.jpg,book60.jpg,high,NULL
1687287388,a261ca5fa65d94fac214c2eec8ed273c,PennController,8,0,experiment,NULL,PennController,7,_Header_,End,1687287385706,616f40c84dabe856f6280a8b,616f40c84dabe856f6280a8b,5,book,critical,D,50,book40.jpg,book60.jpg,high,NULL
1687287388,a261ca5fa65d94fac214c2eec8ed273c,PennController,8,0,experiment,NULL,Canvas,canvas6,Print,NA,1687287392406,616f40c84dabe856f6280a8b,616f40c84dabe856f6280a8b,5,book,critical,D,50,book40.jpg,book60.jpg,high,NULL
1687287388,a261ca5fa65d94fac214c2eec8ed273c,PennController,8,0,experiment,NULL,Video,progression,buffer,0.002338,1687287389224,616f40c84dabe856f6280a8b,616f40c84dabe856f6280a8b,5,book,critical,D,50,book40.jpg,book60.jpg,high,NULL
1687287388,a261ca5fa65d94fac214c2eec8ed273c,PennController,8,0,experiment,NULL,Selector,choice,Selection,option1,1687287398401,616f40c84dabe856f6280a8b,616f40c84dabe856f6280a8b,5,book,critical,D,50,book40.jpg,book60.jpg,high,option1;option2
1687287388,a261ca5fa65d94fac214c2eec8ed273c,PennController,8,0,experiment,NULL,PennController,7,_Trial_,End,1687287398402,616f40c84dabe856f6280a8b,616f40c84dabe856f6280a8b,5,book,critical,D,50,book40.jpg,book60.jpg,high,NULL
