#
# Results on Tuesday June 20 2023 18:58:04 UTC
# USER AGENT: Mozilla/5.0 (Windows NT 10.0; Win64; x64) AppleWebKit/537.36 (KHTML, like Gecko) Chrome/113.0.0.0 Safari/537.36 OPR/99.0.0.0
# Design number was non-random = 3
#
# Columns below this comment are as follows:
# 1. Results reception time.
# 2. MD5 hash of participant's IP address.
# 3. Controller name.
# 4. Order number of item.
# 5. Inner element number.
# 6. Label.
# 7. Latin Square Group.
# 8. PennElementType.
# 9. PennElementName.
# 10. Parameter.
# 11. Value.
# 12. EventTime.
# 13. PROLIFIC_ID.
# 14. Comments.
1687287484,016eb2eb5d81fb095d95cc253c2f9541,PennController,2,0,consent,NULL,PennController,0,_Trial_,Start,1687286980177,5e5e33730fa612000a1fa1f7,NULL
1687287484,016eb2eb5d81fb095d95cc253c2f9541,PennController,2,0,consent,NULL,PennController,0,_Header_,Start,1687286980177,5e5e33730fa612000a1fa1f7,NULL
1687287484,016eb2eb5d81fb095d95cc253c2f9541,PennController,2,0,consent,NULL,PennController,0,_Header_,End,1687286980177,5e5e33730fa612000a1fa1f7,NULL
1687287484,016eb2eb5d81fb095d95cc253c2f9541,PennController,2,0,consent,NULL,PennController,0,_Trial_,End,1687287213656,5e5e33730fa612000a1fa1f7,NULL
# Columns below this comment are as follows:
# 14. ID.
# 15. Comments.
1687287484,016eb2eb5d81fb095d95cc253c2f9541,PennController,3,0,intro,NULL,PennController,1,_Trial_,Start,1687287213658,5e5e33730fa612000a1fa1f7,5e5e33730fa612000a1fa1f7,NULL
1687287484,016eb2eb5d81fb095d95cc253c2f9541,PennController,3,0,intro,NULL,PennController,1,_Header_,Start,1687287213658,5e5e33730fa612000a1fa1f7,5e5e33730fa612000a1fa1f7,NULL
1687287484,016eb2eb5d81fb095d95cc253c2f9541,PennController,3,0,intro,NULL,PennController,1,_Header_,End,1687287213658,5e5e33730fa612000a1fa1f7,5e5e33730fa612000a1fa1f7,NULL
1687287484,016eb2eb5d81fb095d95cc253c2f9541,PennController,3,0,intro,NULL,PennController,1,_Trial_,End,1687287230108,5e5e33730fa612000a1fa1f7,5e5e33730fa612000a1fa1f7,NULL
# Columns below this comment are as follows:
# 15. item_number.
# 16. item.
# 17. type.
# 18. Group.
# 19. prog.
# 20. prev_image.
# 21. next_image.
# 22. height.
# 23. Comments.
1687287484,016eb2eb5d81fb095d95cc253c2f9541,PennController,5,0,experiment,NULL,PennController,4,_Trial_,Start,1687287230109,5e5e33730fa612000a1fa1f7,5e5e33730fa612000a1fa1f7,2,door,critical,D,50,door40.jpg,door60.jpg,high,NULL
1687287484,016eb2eb5d81fb095d95cc253c2f9541,PennController,5,0,experiment,NULL,PennController,4,_Header_,Start,1687287230109,5e5e33730fa612000a1fa1f7,5e5e33730fa612000a1fa1f7,2,door,critical,D,50,door40.jpg,door60.jpg,high,NULL
1687287484,016eb2eb5d81fb095d95cc253c2f9541,PennController,5,0,experiment,NULL,PennController,4,_Header_,End,1687287230109,5e5e33730fa612000a1fa1f7,5e5e33730fa612000a1fa1f7,2,door,critical,D,50,door40.jpg,door60.jpg,high,NULL
1687287484,016eb2eb5d81fb095d95cc253c2f9541,PennController,5,0,experiment,NULL,Canvas,canvas6,Print,NA,1687287236864,5e5e33730fa612000a1fa1f7,5e5e33730fa612000a1fa1f7,2,door,critical,D,50,door40.jpg,door60.jpg,high,NULL
1687287484,016eb2eb5d81fb095d95cc253c2f9541,PennController,5,0,experiment,NULL,Video,progression,buffer,0,1687287233640,5e5e33730fa612000a1fa1f7,5e5e33730fa612000a1fa1f7,2,door,critical,D,50,door40.jpg,door60.jpg,high,NULL
1687287484,016eb2eb5d81fb095d95cc253c2f9541,PennController,5,0,experiment,NULL,Selector,choice,Selection,option2,1687287239021,5e5e33730fa612000a1fa1f7,5e5e33730fa612000a1fa1f7,2,door,critical,D,50,door40.jpg,door60.jpg,high,option2;option1
1687287484,016eb2eb5d81fb095d95cc253c2f9541,PennController,5,0,experiment,NULL,PennController,4,_Trial_,End,1687287239022,5e5e33730fa612000a1fa1f7,5e5e33730fa612000a1fa1f7,2,door,critical,D,50,door40.jpg,door60.jpg,high,NULL
1687287484,016eb2eb5d81fb095d95cc253c2f9541,PennController,19,0,experiment,NULL,PennController,18,_Trial_,Start,1687287239024,5e5e33730fa612000a1fa1f7,5e5e33730fa612000a1fa1f7,16,blinds,critical,D,25,blinds15.jpg,blinds33.jpg,high,NULL
1687287484,016eb2eb5d81fb095d95cc253c2f9541,PennController,19,0,experiment,NULL,PennController,18,_Header_,Start,1687287239024,5e5e33730fa612000a1fa1f7,5e5e33730fa612000a1fa1f7,16,blinds,critical,D,25,blinds15.jpg,blinds33.jpg,high,NULL
1687287484,016eb2eb5d81fb095d95cc253c2f9541,PennController,19,0,experiment,NULL,PennController,18,_Header_,End,1687287239024,5e5e33730fa612000a1fa1f7,5e5e33730fa612000a1fa1f7,16,blinds,critical,D,25,blinds15.jpg,blinds33.jpg,high,NULL
1687287484,016eb2eb5d81fb095d95cc253c2f9541,PennController,19,0,experiment,NULL,Canvas,canvas6,Print,NA,1687287245331,5e5e33730fa612000a1fa1f7,5e5e33730fa612000a1fa1f7,16,blinds,critical,D,25,blinds15.jpg,blinds33.jpg,high,NULL
1687287484,016eb2eb5d81fb095d95cc253c2f9541,PennController,19,0,experiment,NULL,Video,progression,buffer,0.001859,1687287242537,5e5e33730fa612000a1fa1f7,5e5e33730fa612000a1fa1f7,16,blinds,critical,D,25,blinds15.jpg,blinds33.jpg,high,NULL
1687287484,016eb2eb5d81fb095d95cc253c2f9541,PennController,19,0,experiment,NULL,Selector,choice,Selection,option1,1687287249264,5e5e33730fa612000a1fa1f7,5e5e33730fa612000a1fa1f7,16,blinds,critical,D,25,blinds15.jpg,blinds33.jpg,high,option1;option2
1687287484,016eb2eb5d81fb095d95cc253c2f9541,PennController,19,0,experiment,NULL,PennController,18,_Trial_,End,1687287249265,5e5e33730fa612000a1fa1f7,5e5e33730fa612000a1fa1f7,16,blinds,critical,D,25,blinds15.jpg,blinds33.jpg,high,NULL
1687287484,016eb2eb5d81fb095d95cc253c2f9541,PennController,16,0,experiment,NULL,PennController,15,_Trial_,Start,1687287249266,5e5e33730fa612000a1fa1f7,5e5e33730fa612000a1fa1f7,13,mix,critical,D,25,mix15.jpg,mix35.jpg,high,NULL
1687287484,016eb2eb5d81fb095d95cc253c2f9541,PennController,16,0,experiment,NULL,PennController,15,_Header_,Start,1687287249266,5e5e33730fa612000a1fa1f7,5e5e33730fa612000a1fa1f7,13,mix,critical,D,25,mix15.jpg,mix35.jpg,high,NULL
1687287484,016eb2eb5d81fb095d95cc253c2f9541,PennController,16,0,experiment,NULL,PennController,15,_Header_,End,1687287249266,5e5e33730fa612000a1fa1f7,5e5e33730fa612000a1fa1f7,13,mix,critical,D,25,mix15.jpg,mix35.jpg,high,NULL
1687287484,016eb2eb5d81fb095d95cc253c2f9541,PennController,16,0,experiment,NULL,Canvas,canvas6,Print,NA,1687287254977,5e5e33730fa612000a1fa1f7,5e5e33730fa612000a1fa1f7,13,mix,critical,D,25,mix15.jpg,mix35.jpg,high,NULL
1687287484,016eb2eb5d81fb095d95cc253c2f9541,PennController,16,0,experiment,NULL,Video,progression,buffer,0.001949,1687287252783,5e5e33730fa612000a1fa1f7,5e5e33730fa612000a1fa1f7,13,mix,critical,D,25,mix15.jpg,mix35.jpg,high,NULL
1687287484,016eb2eb5d81fb095d95cc253c2f9541,PennController,16,0,experiment,NULL,Selector,choice,Selection,option1,1687287256508,5e5e33730fa612000a1fa1f7,5e5e33730fa612000a1fa1f7,13,mix,critical,D,25,mix15.jpg,mix35.jpg,high,option2;option1
1687287484,016eb2eb5d81fb095d95cc253c2f9541,PennController,16,0,experiment,NULL,PennController,15,_Trial_,End,1687287256509,5e5e33730fa612000a1fa1f7,5e5e33730fa612000a1fa1f7,13,mix,critical,D,25,mix15.jpg,mix35.jpg,high,NULL
1687287484,016eb2eb5d81fb095d95cc253c2f9541,PennController,28,0,experiment,NULL,PennController,27,_Trial_,Start,1687287256510,5e5e33730fa612000a1fa1f7,5e5e33730fa612000a1fa1f7,25,house,filler,D,25,house15.jpg,house35.jpg,GoalB,NULL
1687287484,016eb2eb5d81fb095d95cc253c2f9541,PennController,28,0,experiment,NULL,PennController,27,_Header_,Start,1687287256510,5e5e33730fa612000a1fa1f7,5e5e33730fa612000a1fa1f7,25,house,filler,D,25,house15.jpg,house35.jpg,GoalB,NULL
1687287484,016eb2eb5d81fb095d95cc253c2f9541,PennController,28,0,experiment,NULL,PennController,27,_Header_,End,1687287256510,5e5e33730fa612000a1fa1f7,5e5e33730fa612000a1fa1f7,25,house,filler,D,25,house15.jpg,house35.jpg,GoalB,NULL
1687287484,016eb2eb5d81fb095d95cc253c2f9541,PennController,28,0,experiment,NULL,Canvas,canvas6,Print,NA,1687287262219,5e5e33730fa612000a1fa1f7,5e5e33730fa612000a1fa1f7,25,house,filler,D,25,house15.jpg,house35.jpg,GoalB,NULL
1687287484,016eb2eb5d81fb095d95cc253c2f9541,PennController,28,0,experiment,NULL,Video,progression,buffer,0.002084,1687287260030,5e5e33730fa612000a1fa1f7,5e5e33730fa612000a1fa1f7,25,house,filler,D,25,house15.jpg,house35.jpg,GoalB,NULL
1687287484,016eb2eb5d81fb095d95cc253c2f9541,PennController,28,0,experiment,NULL,Selector,choice,Selection,option2,1687287264102,5e5e33730fa612000a1fa1f7,5e5e33730fa612000a1fa1f7,25,house,filler,D,25,house15.jpg,house35.jpg,GoalB,option1;option2
1687287484,016eb2eb5d81fb095d95cc253c2f9541,PennController,28,0,experiment,NULL,PennController,27,_Trial_,End,1687287264103,5e5e33730fa612000a1fa1f7,5e5e33730fa612000a1fa1f7,25,house,filler,D,25,house15.jpg,house35.jpg,GoalB,NULL
1687287484,016eb2eb5d81fb095d95cc253c2f9541,PennController,24,0,experiment,NULL,PennController,23,_Trial_,Start,1687287264104,5e5e33730fa612000a1fa1f7,5e5e33730fa612000a1fa1f7,21,visit,filler,D,75,visit65.jpg,visit85.jpg,GoalB,NULL
1687287484,016eb2eb5d81fb095d95cc253c2f9541,PennController,24,0,experiment,NULL,PennController,23,_Header_,Start,1687287264104,5e5e33730fa612000a1fa1f7,5e5e33730fa612000a1fa1f7,21,visit,filler,D,75,visit65.jpg,visit85.jpg,GoalB,NULL
1687287484,016eb2eb5d81fb095d95cc253c2f9541,PennController,24,0,experiment,NULL,PennController,23,_Header_,End,1687287264104,5e5e33730fa612000a1fa1f7,5e5e33730fa612000a1fa1f7,21,visit,filler,D,75,visit65.jpg,visit85.jpg,GoalB,NULL
1687287484,016eb2eb5d81fb095d95cc253c2f9541,PennController,24,0,experiment,NULL,Canvas,canvas6,Print,NA,1687287271822,5e5e33730fa612000a1fa1f7,5e5e33730fa612000a1fa1f7,21,visit,filler,D,75,visit65.jpg,visit85.jpg,GoalB,NULL
1687287484,016eb2eb5d81fb095d95cc253c2f9541,PennController,24,0,experiment,NULL,Video,progression,buffer,0.001328,1687287267622,5e5e33730fa612000a1fa1f7,5e5e33730fa612000a1fa1f7,21,visit,filler,D,75,visit65.jpg,visit85.jpg,GoalB,NULL
1687287484,016eb2eb5d81fb095d95cc253c2f9541,PennController,24,0,experiment,NULL,Selector,choice,Selection,option2,1687287273245,5e5e33730fa612000a1fa1f7,5e5e33730fa612000a1fa1f7,21,visit,filler,D,75,visit65.jpg,visit85.jpg,GoalB,option1;option2
1687287484,016eb2eb5d81fb095d95cc253c2f9541,PennController,24,0,experiment,NULL,PennController,23,_Trial_,End,1687287273245,5e5e33730fa612000a1fa1f7,5e5e33730fa612000a1fa1f7,21,visit,filler,D,75,visit65.jpg,visit85.jpg,GoalB,NULL
1687287484,016eb2eb5d81fb095d95cc253c2f9541,PennController,17,0,experiment,NULL,PennController,16,_Trial_,Start,1687287273246,5e5e33730fa612000a1fa1f7,5e5e33730fa612000a1fa1f7,14,cover,critical,D,50,cover42.jpg,cover60.jpg,high,NULL
1687287484,016eb2eb5d81fb095d95cc253c2f9541,PennController,17,0,experiment,NULL,PennController,16,_Header_,Start,1687287273246,5e5e33730fa612000a1fa1f7,5e5e33730fa612000a1fa1f7,14,cover,critical,D,50,cover42.jpg,cover60.jpg,high,NULL
1687287484,016eb2eb5d81fb095d95cc253c2f9541,PennController,17,0,experiment,NULL,PennController,16,_Header_,End,1687287273246,5e5e33730fa612000a1fa1f7,5e5e33730fa612000a1fa1f7,14,cover,critical,D,50,cover42.jpg,cover60.jpg,high,NULL
1687287484,016eb2eb5d81fb095d95cc253c2f9541,PennController,17,0,experiment,NULL,Canvas,canvas6,Print,NA,1687287281353,5e5e33730fa612000a1fa1f7,5e5e33730fa612000a1fa1f7,14,cover,critical,D,50,cover42.jpg,cover60.jpg,high,NULL
1687287484,016eb2eb5d81fb095d95cc253c2f9541,PennController,17,0,experiment,NULL,Video,progression,buffer,0.002187,1687287276761,5e5e33730fa612000a1fa1f7,5e5e33730fa612000a1fa1f7,14,cover,critical,D,50,cover42.jpg,cover60.jpg,high,NULL
1687287484,016eb2eb5d81fb095d95cc253c2f9541,PennController,17,0,experiment,NULL,Selector,choice,Selection,option1,1687287282250,5e5e33730fa612000a1fa1f7,5e5e33730fa612000a1fa1f7,14,cover,critical,D,50,cover42.jpg,cover60.jpg,high,option2;option1
1687287484,016eb2eb5d81fb095d95cc253c2f9541,PennController,17,0,experiment,NULL,PennController,16,_Trial_,End,1687287282250,5e5e33730fa612000a1fa1f7,5e5e33730fa612000a1fa1f7,14,cover,critical,D,50,cover42.jpg,cover60.jpg,high,NULL
1687287484,016eb2eb5d81fb095d95cc253c2f9541,PennController,29,0,experiment,NULL,PennController,28,_Trial_,Start,1687287282251,5e5e33730fa612000a1fa1f7,5e5e33730fa612000a1fa1f7,26,sandwich,filler,D,50,sandwich40.jpg,sandwich60.jpg,GoalA,NULL
1687287484,016eb2eb5d81fb095d95cc253c2f9541,PennController,29,0,experiment,NULL,PennController,28,_Header_,Start,1687287282251,5e5e33730fa612000a1fa1f7,5e5e33730fa612000a1fa1f7,26,sandwich,filler,D,50,sandwich40.jpg,sandwich60.jpg,GoalA,NULL
1687287484,016eb2eb5d81fb095d95cc253c2f9541,PennController,29,0,experiment,NULL,PennController,28,_Header_,End,1687287282251,5e5e33730fa612000a1fa1f7,5e5e33730fa612000a1fa1f7,26,sandwich,filler,D,50,sandwich40.jpg,sandwich60.jpg,GoalA,NULL
1687287484,016eb2eb5d81fb095d95cc253c2f9541,PennController,29,0,experiment,NULL,Canvas,canvas6,Print,NA,1687287288960,5e5e33730fa612000a1fa1f7,5e5e33730fa612000a1fa1f7,26,sandwich,filler,D,50,sandwich40.jpg,sandwich60.jpg,GoalA,NULL
1687287484,016eb2eb5d81fb095d95cc253c2f9541,PennController,29,0,experiment,NULL,Video,progression,buffer,0.001338,1687287285766,5e5e33730fa612000a1fa1f7,5e5e33730fa612000a1fa1f7,26,sandwich,filler,D,50,sandwich40.jpg,sandwich60.jpg,GoalA,NULL
1687287484,016eb2eb5d81fb095d95cc253c2f9541,PennController,29,0,experiment,NULL,Selector,choice,Selection,option1,1687287290946,5e5e33730fa612000a1fa1f7,5e5e33730fa612000a1fa1f7,26,sandwich,filler,D,50,sandwich40.jpg,sandwich60.jpg,GoalA,option1;option2
1687287484,016eb2eb5d81fb095d95cc253c2f9541,PennController,29,0,experiment,NULL,PennController,28,_Trial_,End,1687287290947,5e5e33730fa612000a1fa1f7,5e5e33730fa612000a1fa1f7,26,sandwich,filler,D,50,sandwich40.jpg,sandwich60.jpg,GoalA,NULL
1687287484,016eb2eb5d81fb095d95cc253c2f9541,PennController,15,0,experiment,NULL,PennController,14,_Trial_,Start,1687287290948,5e5e33730fa612000a1fa1f7,5e5e33730fa612000a1fa1f7,12,erase,critical,D,75,erase66.jpg,erase84.jpg,high,NULL
1687287484,016eb2eb5d81fb095d95cc253c2f9541,PennController,15,0,experiment,NULL,PennController,14,_Header_,Start,1687287290948,5e5e33730fa612000a1fa1f7,5e5e33730fa612000a1fa1f7,12,erase,critical,D,75,erase66.jpg,erase84.jpg,high,NULL
1687287484,016eb2eb5d81fb095d95cc253c2f9541,PennController,15,0,experiment,NULL,PennController,14,_Header_,End,1687287290948,5e5e33730fa612000a1fa1f7,5e5e33730fa612000a1fa1f7,12,erase,critical,D,75,erase66.jpg,erase84.jpg,high,NULL
1687287484,016eb2eb5d81fb095d95cc253c2f9541,PennController,15,0,experiment,NULL,Canvas,canvas6,Print,NA,1687287300652,5e5e33730fa612000a1fa1f7,5e5e33730fa612000a1fa1f7,12,erase,critical,D,75,erase66.jpg,erase84.jpg,high,NULL
1687287484,016eb2eb5d81fb095d95cc253c2f9541,PennController,15,0,experiment,NULL,Video,progression,buffer,0.001707,1687287294460,5e5e33730fa612000a1fa1f7,5e5e33730fa612000a1fa1f7,12,erase,critical,D,75,erase66.jpg,erase84.jpg,high,NULL
1687287484,016eb2eb5d81fb095d95cc253c2f9541,PennController,15,0,experiment,NULL,Selector,choice,Selection,option2,1687287301542,5e5e33730fa612000a1fa1f7,5e5e33730fa612000a1fa1f7,12,erase,critical,D,75,erase66.jpg,erase84.jpg,high,option2;option1
1687287484,016eb2eb5d81fb095d95cc253c2f9541,PennController,15,0,experiment,NULL,PennController,14,_Trial_,End,1687287301543,5e5e33730fa612000a1fa1f7,5e5e33730fa612000a1fa1f7,12,erase,critical,D,75,erase66.jpg,erase84.jpg,high,NULL
1687287484,016eb2eb5d81fb095d95cc253c2f9541,PennController,21,0,experiment,NULL,PennController,20,_Trial_,Start,1687287301544,5e5e33730fa612000a1fa1f7,5e5e33730fa612000a1fa1f7,18,ball,critical,D,75,ball65.jpg,ball85.jpg,high,NULL
1687287484,016eb2eb5d81fb095d95cc253c2f9541,PennController,21,0,experiment,NULL,PennController,20,_Header_,Start,1687287301544,5e5e33730fa612000a1fa1f7,5e5e33730fa612000a1fa1f7,18,ball,critical,D,75,ball65.jpg,ball85.jpg,high,NULL
1687287484,016eb2eb5d81fb095d95cc253c2f9541,PennController,21,0,experiment,NULL,PennController,20,_Header_,End,1687287301544,5e5e33730fa612000a1fa1f7,5e5e33730fa612000a1fa1f7,18,ball,critical,D,75,ball65.jpg,ball85.jpg,high,NULL
1687287484,016eb2eb5d81fb095d95cc253c2f9541,PennController,21,0,experiment,NULL,Canvas,canvas6,Print,NA,1687287309251,5e5e33730fa612000a1fa1f7,5e5e33730fa612000a1fa1f7,18,ball,critical,D,75,ball65.jpg,ball85.jpg,high,NULL
1687287484,016eb2eb5d81fb095d95cc253c2f9541,PennController,21,0,experiment,NULL,Video,progression,buffer,0.001689,1687287305058,5e5e33730fa612000a1fa1f7,5e5e33730fa612000a1fa1f7,18,ball,critical,D,75,ball65.jpg,ball85.jpg,high,NULL
1687287484,016eb2eb5d81fb095d95cc253c2f9541,PennController,21,0,experiment,NULL,Selector,choice,Selection,option1,1687287310667,5e5e33730fa612000a1fa1f7,5e5e33730fa612000a1fa1f7,18,ball,critical,D,75,ball65.jpg,ball85.jpg,high,option1;option2
1687287484,016eb2eb5d81fb095d95cc253c2f9541,PennController,21,0,experiment,NULL,PennController,20,_Trial_,End,1687287310668,5e5e33730fa612000a1fa1f7,5e5e33730fa612000a1fa1f7,18,ball,critical,D,75,ball65.jpg,ball85.jpg,high,NULL
1687287484,016eb2eb5d81fb095d95cc253c2f9541,PennController,31,0,experiment,NULL,PennController,30,_Trial_,Start,1687287310668,5e5e33730fa612000a1fa1f7,5e5e33730fa612000a1fa1f7,28,sort,filler,D,25,sort15.jpg,sort35.jpg,GoalA,NULL
1687287484,016eb2eb5d81fb095d95cc253c2f9541,PennController,31,0,experiment,NULL,PennController,30,_Header_,Start,1687287310668,5e5e33730fa612000a1fa1f7,5e5e33730fa612000a1fa1f7,28,sort,filler,D,25,sort15.jpg,sort35.jpg,GoalA,NULL
1687287484,016eb2eb5d81fb095d95cc253c2f9541,PennController,31,0,experiment,NULL,PennController,30,_Header_,End,1687287310668,5e5e33730fa612000a1fa1f7,5e5e33730fa612000a1fa1f7,28,sort,filler,D,25,sort15.jpg,sort35.jpg,GoalA,NULL
1687287484,016eb2eb5d81fb095d95cc253c2f9541,PennController,31,0,experiment,NULL,Canvas,canvas6,Print,NA,1687287316375,5e5e33730fa612000a1fa1f7,5e5e33730fa612000a1fa1f7,28,sort,filler,D,25,sort15.jpg,sort35.jpg,GoalA,NULL
1687287484,016eb2eb5d81fb095d95cc253c2f9541,PennController,31,0,experiment,NULL,Video,progression,buffer,0.001607,1687287314182,5e5e33730fa612000a1fa1f7,5e5e33730fa612000a1fa1f7,28,sort,filler,D,25,sort15.jpg,sort35.jpg,GoalA,NULL
1687287484,016eb2eb5d81fb095d95cc253c2f9541,PennController,31,0,experiment,NULL,Selector,choice,Selection,option1,1687287319120,5e5e33730fa612000a1fa1f7,5e5e33730fa612000a1fa1f7,28,sort,filler,D,25,sort15.jpg,sort35.jpg,GoalA,option1;option2
1687287484,016eb2eb5d81fb095d95cc253c2f9541,PennController,31,0,experiment,NULL,PennController,30,_Trial_,End,1687287319121,5e5e33730fa612000a1fa1f7,5e5e33730fa612000a1fa1f7,28,sort,filler,D,25,sort15.jpg,sort35.jpg,GoalA,NULL
1687287484,016eb2eb5d81fb095d95cc253c2f9541,PennController,26,0,experiment,NULL,PennController,25,_Trial_,Start,1687287319121,5e5e33730fa612000a1fa1f7,5e5e33730fa612000a1fa1f7,23,color,filler,D,50,color40.jpg,color60.jpg,GoalB,NULL
1687287484,016eb2eb5d81fb095d95cc253c2f9541,PennController,26,0,experiment,NULL,PennController,25,_Header_,Start,1687287319121,5e5e33730fa612000a1fa1f7,5e5e33730fa612000a1fa1f7,23,color,filler,D,50,color40.jpg,color60.jpg,GoalB,NULL
1687287484,016eb2eb5d81fb095d95cc253c2f9541,PennController,26,0,experiment,NULL,PennController,25,_Header_,End,1687287319121,5e5e33730fa612000a1fa1f7,5e5e33730fa612000a1fa1f7,23,color,filler,D,50,color40.jpg,color60.jpg,GoalB,NULL
1687287484,016eb2eb5d81fb095d95cc253c2f9541,PennController,26,0,experiment,NULL,Canvas,canvas6,Print,NA,1687287325834,5e5e33730fa612000a1fa1f7,5e5e33730fa612000a1fa1f7,23,color,filler,D,50,color40.jpg,color60.jpg,GoalB,NULL
1687287484,016eb2eb5d81fb095d95cc253c2f9541,PennController,26,0,experiment,NULL,Video,progression,buffer,0.001458,1687287322639,5e5e33730fa612000a1fa1f7,5e5e33730fa612000a1fa1f7,23,color,filler,D,50,color40.jpg,color60.jpg,GoalB,NULL
1687287484,016eb2eb5d81fb095d95cc253c2f9541,PennController,26,0,experiment,NULL,Selector,choice,Selection,option1,1687287329835,5e5e33730fa612000a1fa1f7,5e5e33730fa612000a1fa1f7,23,color,filler,D,50,color40.jpg,color60.jpg,GoalB,option2;option1
1687287484,016eb2eb5d81fb095d95cc253c2f9541,PennController,26,0,experiment,NULL,PennController,25,_Trial_,End,1687287329836,5e5e33730fa612000a1fa1f7,5e5e33730fa612000a1fa1f7,23,color,filler,D,50,color40.jpg,color60.jpg,GoalB,NULL
1687287484,016eb2eb5d81fb095d95cc253c2f9541,PennController,22,0,experiment,NULL,PennController,21,_Trial_,Start,1687287329836,5e5e33730fa612000a1fa1f7,5e5e33730fa612000a1fa1f7,19,cup,filler,D,25,cup15.jpg,cup35.jpg,GoalB,NULL
1687287484,016eb2eb5d81fb095d95cc253c2f9541,PennController,22,0,experiment,NULL,PennController,21,_Header_,Start,1687287329836,5e5e33730fa612000a1fa1f7,5e5e33730fa612000a1fa1f7,19,cup,filler,D,25,cup15.jpg,cup35.jpg,GoalB,NULL
1687287484,016eb2eb5d81fb095d95cc253c2f9541,PennController,22,0,experiment,NULL,PennController,21,_Header_,End,1687287329836,5e5e33730fa612000a1fa1f7,5e5e33730fa612000a1fa1f7,19,cup,filler,D,25,cup15.jpg,cup35.jpg,GoalB,NULL
1687287484,016eb2eb5d81fb095d95cc253c2f9541,PennController,22,0,experiment,NULL,Canvas,canvas6,Print,NA,1687287335545,5e5e33730fa612000a1fa1f7,5e5e33730fa612000a1fa1f7,19,cup,filler,D,25,cup15.jpg,cup35.jpg,GoalB,NULL
1687287484,016eb2eb5d81fb095d95cc253c2f9541,PennController,22,0,experiment,NULL,Video,progression,buffer,0.001409,1687287333349,5e5e33730fa612000a1fa1f7,5e5e33730fa612000a1fa1f7,19,cup,filler,D,25,cup15.jpg,cup35.jpg,GoalB,NULL
1687287484,016eb2eb5d81fb095d95cc253c2f9541,PennController,22,0,experiment,NULL,Selector,choice,Selection,option2,1687287336763,5e5e33730fa612000a1fa1f7,5e5e33730fa612000a1fa1f7,19,cup,filler,D,25,cup15.jpg,cup35.jpg,GoalB,option2;option1
1687287484,016eb2eb5d81fb095d95cc253c2f9541,PennController,22,0,experiment,NULL,PennController,21,_Trial_,End,1687287336764,5e5e33730fa612000a1fa1f7,5e5e33730fa612000a1fa1f7,19,cup,filler,D,25,cup15.jpg,cup35.jpg,GoalB,NULL
1687287484,016eb2eb5d81fb095d95cc253c2f9541,PennController,27,0,experiment,NULL,PennController,26,_Trial_,Start,1687287336764,5e5e33730fa612000a1fa1f7,5e5e33730fa612000a1fa1f7,24,match,filler,D,75,match65.jpg,match85.jpg,GoalA,NULL
1687287484,016eb2eb5d81fb095d95cc253c2f9541,PennController,27,0,experiment,NULL,PennController,26,_Header_,Start,1687287336764,5e5e33730fa612000a1fa1f7,5e5e33730fa612000a1fa1f7,24,match,filler,D,75,match65.jpg,match85.jpg,GoalA,NULL
1687287484,016eb2eb5d81fb095d95cc253c2f9541,PennController,27,0,experiment,NULL,PennController,26,_Header_,End,1687287336764,5e5e33730fa612000a1fa1f7,5e5e33730fa612000a1fa1f7,24,match,filler,D,75,match65.jpg,match85.jpg,GoalA,NULL
1687287484,016eb2eb5d81fb095d95cc253c2f9541,PennController,27,0,experiment,NULL,Canvas,canvas6,Print,NA,1687287344481,5e5e33730fa612000a1fa1f7,5e5e33730fa612000a1fa1f7,24,match,filler,D,75,match65.jpg,match85.jpg,GoalA,NULL
1687287484,016eb2eb5d81fb095d95cc253c2f9541,PennController,27,0,experiment,NULL,Video,progression,buffer,0.001623,1687287340287,5e5e33730fa612000a1fa1f7,5e5e33730fa612000a1fa1f7,24,match,filler,D,75,match65.jpg,match85.jpg,GoalA,NULL
1687287484,016eb2eb5d81fb095d95cc253c2f9541,PennController,27,0,experiment,NULL,Selector,choice,Selection,option1,1687287346666,5e5e33730fa612000a1fa1f7,5e5e33730fa612000a1fa1f7,24,match,filler,D,75,match65.jpg,match85.jpg,GoalA,option2;option1
1687287484,016eb2eb5d81fb095d95cc253c2f9541,PennController,27,0,experiment,NULL,PennController,26,_Trial_,End,1687287346667,5e5e33730fa612000a1fa1f7,5e5e33730fa612000a1fa1f7,24,match,filler,D,75,match65.jpg,match85.jpg,GoalA,NULL
1687287484,016eb2eb5d81fb095d95cc253c2f9541,PennController,6,0,experiment,NULL,PennController,5,_Trial_,Start,1687287346668,5e5e33730fa612000a1fa1f7,5e5e33730fa612000a1fa1f7,3,clean,critical,D,75,clean65.jpg,clean85.jpg,high,NULL
1687287484,016eb2eb5d81fb095d95cc253c2f9541,PennController,6,0,experiment,NULL,PennController,5,_Header_,Start,1687287346668,5e5e33730fa612000a1fa1f7,5e5e33730fa612000a1fa1f7,3,clean,critical,D,75,clean65.jpg,clean85.jpg,high,NULL
1687287484,016eb2eb5d81fb095d95cc253c2f9541,PennController,6,0,experiment,NULL,PennController,5,_Header_,End,1687287346668,5e5e33730fa612000a1fa1f7,5e5e33730fa612000a1fa1f7,3,clean,critical,D,75,clean65.jpg,clean85.jpg,high,NULL
1687287484,016eb2eb5d81fb095d95cc253c2f9541,PennController,6,0,experiment,NULL,Canvas,canvas6,Print,NA,1687287354375,5e5e33730fa612000a1fa1f7,5e5e33730fa612000a1fa1f7,3,clean,critical,D,75,clean65.jpg,clean85.jpg,high,NULL
1687287484,016eb2eb5d81fb095d95cc253c2f9541,PennController,6,0,experiment,NULL,Video,progression,buffer,0.001875,1687287350186,5e5e33730fa612000a1fa1f7,5e5e33730fa612000a1fa1f7,3,clean,critical,D,75,clean65.jpg,clean85.jpg,high,NULL
1687287484,016eb2eb5d81fb095d95cc253c2f9541,PennController,6,0,experiment,NULL,Selector,choice,Selection,option2,1687287355961,5e5e33730fa612000a1fa1f7,5e5e33730fa612000a1fa1f7,3,clean,critical,D,75,clean65.jpg,clean85.jpg,high,option2;option1
1687287484,016eb2eb5d81fb095d95cc253c2f9541,PennController,6,0,experiment,NULL,PennController,5,_Trial_,End,1687287355962,5e5e33730fa612000a1fa1f7,5e5e33730fa612000a1fa1f7,3,clean,critical,D,75,clean65.jpg,clean85.jpg,high,NULL
1687287484,016eb2eb5d81fb095d95cc253c2f9541,PennController,13,0,experiment,NULL,PennController,12,_Trial_,Start,1687287355962,5e5e33730fa612000a1fa1f7,5e5e33730fa612000a1fa1f7,10,train,critical,D,25,train15.jpg,train35.jpg,high,NULL
1687287484,016eb2eb5d81fb095d95cc253c2f9541,PennController,13,0,experiment,NULL,PennController,12,_Header_,Start,1687287355962,5e5e33730fa612000a1fa1f7,5e5e33730fa612000a1fa1f7,10,train,critical,D,25,train15.jpg,train35.jpg,high,NULL
1687287484,016eb2eb5d81fb095d95cc253c2f9541,PennController,13,0,experiment,NULL,PennController,12,_Header_,End,1687287355963,5e5e33730fa612000a1fa1f7,5e5e33730fa612000a1fa1f7,10,train,critical,D,25,train15.jpg,train35.jpg,high,NULL
1687287484,016eb2eb5d81fb095d95cc253c2f9541,PennController,13,0,experiment,NULL,Canvas,canvas6,Print,NA,1687287361673,5e5e33730fa612000a1fa1f7,5e5e33730fa612000a1fa1f7,10,train,critical,D,25,train15.jpg,train35.jpg,high,NULL
1687287484,016eb2eb5d81fb095d95cc253c2f9541,PennController,13,0,experiment,NULL,Video,progression,buffer,0.001472,1687287359475,5e5e33730fa612000a1fa1f7,5e5e33730fa612000a1fa1f7,10,train,critical,D,25,train15.jpg,train35.jpg,high,NULL
1687287484,016eb2eb5d81fb095d95cc253c2f9541,PennController,13,0,experiment,NULL,Selector,choice,Selection,option1,1687287363051,5e5e33730fa612000a1fa1f7,5e5e33730fa612000a1fa1f7,10,train,critical,D,25,train15.jpg,train35.jpg,high,option2;option1
1687287484,016eb2eb5d81fb095d95cc253c2f9541,PennController,13,0,experiment,NULL,PennController,12,_Trial_,End,1687287363051,5e5e33730fa612000a1fa1f7,5e5e33730fa612000a1fa1f7,10,train,critical,D,25,train15.jpg,train35.jpg,high,NULL
1687287484,016eb2eb5d81fb095d95cc253c2f9541,PennController,10,0,experiment,NULL,PennController,9,_Trial_,Start,1687287363052,5e5e33730fa612000a1fa1f7,5e5e33730fa612000a1fa1f7,7,stack,critical,D,25,stack15.jpg,stack35.jpg,high,NULL
1687287484,016eb2eb5d81fb095d95cc253c2f9541,PennController,10,0,experiment,NULL,PennController,9,_Header_,Start,1687287363052,5e5e33730fa612000a1fa1f7,5e5e33730fa612000a1fa1f7,7,stack,critical,D,25,stack15.jpg,stack35.jpg,high,NULL
1687287484,016eb2eb5d81fb095d95cc253c2f9541,PennController,10,0,experiment,NULL,PennController,9,_Header_,End,1687287363052,5e5e33730fa612000a1fa1f7,5e5e33730fa612000a1fa1f7,7,stack,critical,D,25,stack15.jpg,stack35.jpg,high,NULL
1687287484,016eb2eb5d81fb095d95cc253c2f9541,PennController,10,0,experiment,NULL,Canvas,canvas6,Print,NA,1687287368761,5e5e33730fa612000a1fa1f7,5e5e33730fa612000a1fa1f7,7,stack,critical,D,25,stack15.jpg,stack35.jpg,high,NULL
1687287484,016eb2eb5d81fb095d95cc253c2f9541,PennController,10,0,experiment,NULL,Video,progression,buffer,0.001881,1687287366564,5e5e33730fa612000a1fa1f7,5e5e33730fa612000a1fa1f7,7,stack,critical,D,25,stack15.jpg,stack35.jpg,high,NULL
1687287484,016eb2eb5d81fb095d95cc253c2f9541,PennController,10,0,experiment,NULL,Selector,choice,Selection,option1,1687287370905,5e5e33730fa612000a1fa1f7,5e5e33730fa612000a1fa1f7,7,stack,critical,D,25,stack15.jpg,stack35.jpg,high,option2;option1
1687287484,016eb2eb5d81fb095d95cc253c2f9541,PennController,10,0,experiment,NULL,PennController,9,_Trial_,End,1687287370906,5e5e33730fa612000a1fa1f7,5e5e33730fa612000a1fa1f7,7,stack,critical,D,25,stack15.jpg,stack35.jpg,high,NULL
1687287484,016eb2eb5d81fb095d95cc253c2f9541,PennController,8,0,experiment,NULL,PennController,7,_Trial_,Start,1687287370907,5e5e33730fa612000a1fa1f7,5e5e33730fa612000a1fa1f7,5,book,critical,D,50,book40.jpg,book60.jpg,high,NULL
1687287484,016eb2eb5d81fb095d95cc253c2f9541,PennController,8,0,experiment,NULL,PennController,7,_Header_,Start,1687287370907,5e5e33730fa612000a1fa1f7,5e5e33730fa612000a1fa1f7,5,book,critical,D,50,book40.jpg,book60.jpg,high,NULL
1687287484,016eb2eb5d81fb095d95cc253c2f9541,PennController,8,0,experiment,NULL,PennController,7,_Header_,End,1687287370907,5e5e33730fa612000a1fa1f7,5e5e33730fa612000a1fa1f7,5,book,critical,D,50,book40.jpg,book60.jpg,high,NULL
1687287484,016eb2eb5d81fb095d95cc253c2f9541,PennController,8,0,experiment,NULL,Canvas,canvas6,Print,NA,1687287377617,5e5e33730fa612000a1fa1f7,5e5e33730fa612000a1fa1f7,5,book,critical,D,50,book40.jpg,book60.jpg,high,NULL
1687287484,016eb2eb5d81fb095d95cc253c2f9541,PennController,8,0,experiment,NULL,Video,progression,buffer,0.001236,1687287374422,5e5e33730fa612000a1fa1f7,5e5e33730fa612000a1fa1f7,5,book,critical,D,50,book40.jpg,book60.jpg,high,NULL
1687287484,016eb2eb5d81fb095d95cc253c2f9541,PennController,8,0,experiment,NULL,Selector,choice,Selection,option1,1687287379061,5e5e33730fa612000a1fa1f7,5e5e33730fa612000a1fa1f7,5,book,critical,D,50,book40.jpg,book60.jpg,high,option1;option2
1687287484,016eb2eb5d81fb095d95cc253c2f9541,PennController,8,0,experiment,NULL,PennController,7,_Trial_,End,1687287379061,5e5e33730fa612000a1fa1f7,5e5e33730fa612000a1fa1f7,5,book,critical,D,50,book40.jpg,book60.jpg,high,NULL
1687287484,016eb2eb5d81fb095d95cc253c2f9541,PennController,18,0,experiment,NULL,PennController,17,_Trial_,Start,1687287379062,5e5e33730fa612000a1fa1f7,5e5e33730fa612000a1fa1f7,15,zip,critical,D,75,zip65.jpg,zip85.jpg,high,NULL
1687287484,016eb2eb5d81fb095d95cc253c2f9541,PennController,18,0,experiment,NULL,PennController,17,_Header_,Start,1687287379062,5e5e33730fa612000a1fa1f7,5e5e33730fa612000a1fa1f7,15,zip,critical,D,75,zip65.jpg,zip85.jpg,high,NULL
1687287484,016eb2eb5d81fb095d95cc253c2f9541,PennController,18,0,experiment,NULL,PennController,17,_Header_,End,1687287379062,5e5e33730fa612000a1fa1f7,5e5e33730fa612000a1fa1f7,15,zip,critical,D,75,zip65.jpg,zip85.jpg,high,NULL
1687287484,016eb2eb5d81fb095d95cc253c2f9541,PennController,18,0,experiment,NULL,Canvas,canvas6,Print,NA,1687287385972,5e5e33730fa612000a1fa1f7,5e5e33730fa612000a1fa1f7,15,zip,critical,D,75,zip65.jpg,zip85.jpg,high,NULL
1687287484,016eb2eb5d81fb095d95cc253c2f9541,PennController,18,0,experiment,NULL,Video,progression,buffer,0.001673,1687287382580,5e5e33730fa612000a1fa1f7,5e5e33730fa612000a1fa1f7,15,zip,critical,D,75,zip65.jpg,zip85.jpg,high,NULL
1687287484,016eb2eb5d81fb095d95cc253c2f9541,PennController,18,0,experiment,NULL,Selector,choice,Selection,option2,1687287388153,5e5e33730fa612000a1fa1f7,5e5e33730fa612000a1fa1f7,15,zip,critical,D,75,zip65.jpg,zip85.jpg,high,option2;option1
1687287484,016eb2eb5d81fb095d95cc253c2f9541,PennController,18,0,experiment,NULL,PennController,17,_Trial_,End,1687287388153,5e5e33730fa612000a1fa1f7,5e5e33730fa612000a1fa1f7,15,zip,critical,D,75,zip65.jpg,zip85.jpg,high,NULL
1687287484,016eb2eb5d81fb095d95cc253c2f9541,PennController,9,0,experiment,NULL,PennController,8,_Trial_,Start,1687287388154,5e5e33730fa612000a1fa1f7,5e5e33730fa612000a1fa1f7,6,flower,critical,D,75,flower65.jpg,flower85.jpg,high,NULL
1687287484,016eb2eb5d81fb095d95cc253c2f9541,PennController,9,0,experiment,NULL,PennController,8,_Header_,Start,1687287388154,5e5e33730fa612000a1fa1f7,5e5e33730fa612000a1fa1f7,6,flower,critical,D,75,flower65.jpg,flower85.jpg,high,NULL
1687287484,016eb2eb5d81fb095d95cc253c2f9541,PennController,9,0,experiment,NULL,PennController,8,_Header_,End,1687287388154,5e5e33730fa612000a1fa1f7,5e5e33730fa612000a1fa1f7,6,flower,critical,D,75,flower65.jpg,flower85.jpg,high,NULL
1687287484,016eb2eb5d81fb095d95cc253c2f9541,PennController,9,0,experiment,NULL,Canvas,canvas6,Print,NA,1687287395858,5e5e33730fa612000a1fa1f7,5e5e33730fa612000a1fa1f7,6,flower,critical,D,75,flower65.jpg,flower85.jpg,high,NULL
1687287484,016eb2eb5d81fb095d95cc253c2f9541,PennController,9,0,experiment,NULL,Video,progression,buffer,0.00149,1687287391664,5e5e33730fa612000a1fa1f7,5e5e33730fa612000a1fa1f7,6,flower,critical,D,75,flower65.jpg,flower85.jpg,high,NULL
1687287484,016eb2eb5d81fb095d95cc253c2f9541,PennController,9,0,experiment,NULL,Selector,choice,Selection,option2,1687287397238,5e5e33730fa612000a1fa1f7,5e5e33730fa612000a1fa1f7,6,flower,critical,D,75,flower65.jpg,flower85.jpg,high,option1;option2
1687287484,016eb2eb5d81fb095d95cc253c2f9541,PennController,9,0,experiment,NULL,PennController,8,_Trial_,End,1687287397238,5e5e33730fa612000a1fa1f7,5e5e33730fa612000a1fa1f7,6,flower,critical,D,75,flower65.jpg,flower85.jpg,high,NULL
1687287484,016eb2eb5d81fb095d95cc253c2f9541,PennController,23,0,experiment,NULL,PennController,22,_Trial_,Start,1687287397239,5e5e33730fa612000a1fa1f7,5e5e33730fa612000a1fa1f7,20,cat,filler,D,50,cat40.jpg,cat60.jpg,GoalA,NULL
1687287484,016eb2eb5d81fb095d95cc253c2f9541,PennController,23,0,experiment,NULL,PennController,22,_Header_,Start,1687287397239,5e5e33730fa612000a1fa1f7,5e5e33730fa612000a1fa1f7,20,cat,filler,D,50,cat40.jpg,cat60.jpg,GoalA,NULL
1687287484,016eb2eb5d81fb095d95cc253c2f9541,PennController,23,0,experiment,NULL,PennController,22,_Header_,End,1687287397239,5e5e33730fa612000a1fa1f7,5e5e33730fa612000a1fa1f7,20,cat,filler,D,50,cat40.jpg,cat60.jpg,GoalA,NULL
1687287484,016eb2eb5d81fb095d95cc253c2f9541,PennController,23,0,experiment,NULL,Canvas,canvas6,Print,NA,1687287403947,5e5e33730fa612000a1fa1f7,5e5e33730fa612000a1fa1f7,20,cat,filler,D,50,cat40.jpg,cat60.jpg,GoalA,NULL
1687287484,016eb2eb5d81fb095d95cc253c2f9541,PennController,23,0,experiment,NULL,Video,progression,buffer,0.001455,1687287400752,5e5e33730fa612000a1fa1f7,5e5e33730fa612000a1fa1f7,20,cat,filler,D,50,cat40.jpg,cat60.jpg,GoalA,NULL
1687287484,016eb2eb5d81fb095d95cc253c2f9541,PennController,23,0,experiment,NULL,Selector,choice,Selection,option2,1687287405026,5e5e33730fa612000a1fa1f7,5e5e33730fa612000a1fa1f7,20,cat,filler,D,50,cat40.jpg,cat60.jpg,GoalA,option2;option1
1687287484,016eb2eb5d81fb095d95cc253c2f9541,PennController,23,0,experiment,NULL,PennController,22,_Trial_,End,1687287405026,5e5e33730fa612000a1fa1f7,5e5e33730fa612000a1fa1f7,20,cat,filler,D,50,cat40.jpg,cat60.jpg,GoalA,NULL
1687287484,016eb2eb5d81fb095d95cc253c2f9541,PennController,4,0,experiment,NULL,PennController,3,_Trial_,Start,1687287405027,5e5e33730fa612000a1fa1f7,5e5e33730fa612000a1fa1f7,1,vase,critical,D,25,vase15.jpg,vase35.jpg,high,NULL
1687287484,016eb2eb5d81fb095d95cc253c2f9541,PennController,4,0,experiment,NULL,PennController,3,_Header_,Start,1687287405027,5e5e33730fa612000a1fa1f7,5e5e33730fa612000a1fa1f7,1,vase,critical,D,25,vase15.jpg,vase35.jpg,high,NULL
1687287484,016eb2eb5d81fb095d95cc253c2f9541,PennController,4,0,experiment,NULL,PennController,3,_Header_,End,1687287405027,5e5e33730fa612000a1fa1f7,5e5e33730fa612000a1fa1f7,1,vase,critical,D,25,vase15.jpg,vase35.jpg,high,NULL
1687287484,016eb2eb5d81fb095d95cc253c2f9541,PennController,4,0,experiment,NULL,Canvas,canvas6,Print,NA,1687287410733,5e5e33730fa612000a1fa1f7,5e5e33730fa612000a1fa1f7,1,vase,critical,D,25,vase15.jpg,vase35.jpg,high,NULL
1687287484,016eb2eb5d81fb095d95cc253c2f9541,PennController,4,0,experiment,NULL,Video,progression,buffer,0.001551,1687287408538,5e5e33730fa612000a1fa1f7,5e5e33730fa612000a1fa1f7,1,vase,critical,D,25,vase15.jpg,vase35.jpg,high,NULL
1687287484,016eb2eb5d81fb095d95cc253c2f9541,PennController,4,0,experiment,NULL,Selector,choice,Selection,option2,1687287412399,5e5e33730fa612000a1fa1f7,5e5e33730fa612000a1fa1f7,1,vase,critical,D,25,vase15.jpg,vase35.jpg,high,option1;option2
1687287484,016eb2eb5d81fb095d95cc253c2f9541,PennController,4,0,experiment,NULL,PennController,3,_Trial_,End,1687287412400,5e5e33730fa612000a1fa1f7,5e5e33730fa612000a1fa1f7,1,vase,critical,D,25,vase15.jpg,vase35.jpg,high,NULL
1687287484,016eb2eb5d81fb095d95cc253c2f9541,PennController,11,0,experiment,NULL,PennController,10,_Trial_,Start,1687287412401,5e5e33730fa612000a1fa1f7,5e5e33730fa612000a1fa1f7,8,cucumber,critical,D,50,cucumber42.jpg,cucumber60.jpg,high,NULL
1687287484,016eb2eb5d81fb095d95cc253c2f9541,PennController,11,0,experiment,NULL,PennController,10,_Header_,Start,1687287412401,5e5e33730fa612000a1fa1f7,5e5e33730fa612000a1fa1f7,8,cucumber,critical,D,50,cucumber42.jpg,cucumber60.jpg,high,NULL
1687287484,016eb2eb5d81fb095d95cc253c2f9541,PennController,11,0,experiment,NULL,PennController,10,_Header_,End,1687287412401,5e5e33730fa612000a1fa1f7,5e5e33730fa612000a1fa1f7,8,cucumber,critical,D,50,cucumber42.jpg,cucumber60.jpg,high,NULL
1687287484,016eb2eb5d81fb095d95cc253c2f9541,PennController,11,0,experiment,NULL,Canvas,canvas6,Print,NA,1687287420512,5e5e33730fa612000a1fa1f7,5e5e33730fa612000a1fa1f7,8,cucumber,critical,D,50,cucumber42.jpg,cucumber60.jpg,high,NULL
1687287484,016eb2eb5d81fb095d95cc253c2f9541,PennController,11,0,experiment,NULL,Video,progression,buffer,0.001903,1687287415921,5e5e33730fa612000a1fa1f7,5e5e33730fa612000a1fa1f7,8,cucumber,critical,D,50,cucumber42.jpg,cucumber60.jpg,high,NULL
1687287484,016eb2eb5d81fb095d95cc253c2f9541,PennController,11,0,experiment,NULL,Selector,choice,Selection,option2,1687287421953,5e5e33730fa612000a1fa1f7,5e5e33730fa612000a1fa1f7,8,cucumber,critical,D,50,cucumber42.jpg,cucumber60.jpg,high,option1;option2
1687287484,016eb2eb5d81fb095d95cc253c2f9541,PennController,11,0,experiment,NULL,PennController,10,_Trial_,End,1687287421953,5e5e33730fa612000a1fa1f7,5e5e33730fa612000a1fa1f7,8,cucumber,critical,D,50,cucumber42.jpg,cucumber60.jpg,high,NULL
1687287484,016eb2eb5d81fb095d95cc253c2f9541,PennController,12,0,experiment,NULL,PennController,11,_Trial_,Start,1687287421954,5e5e33730fa612000a1fa1f7,5e5e33730fa612000a1fa1f7,9,cake,critical,D,75,cake66.jpg,cake84.jpg,high,NULL
1687287484,016eb2eb5d81fb095d95cc253c2f9541,PennController,12,0,experiment,NULL,PennController,11,_Header_,Start,1687287421954,5e5e33730fa612000a1fa1f7,5e5e33730fa612000a1fa1f7,9,cake,critical,D,75,cake66.jpg,cake84.jpg,high,NULL
1687287484,016eb2eb5d81fb095d95cc253c2f9541,PennController,12,0,experiment,NULL,PennController,11,_Header_,End,1687287421954,5e5e33730fa612000a1fa1f7,5e5e33730fa612000a1fa1f7,9,cake,critical,D,75,cake66.jpg,cake84.jpg,high,NULL
1687287484,016eb2eb5d81fb095d95cc253c2f9541,PennController,12,0,experiment,NULL,Canvas,canvas6,Print,NA,1687287431662,5e5e33730fa612000a1fa1f7,5e5e33730fa612000a1fa1f7,9,cake,critical,D,75,cake66.jpg,cake84.jpg,high,NULL
1687287484,016eb2eb5d81fb095d95cc253c2f9541,PennController,12,0,experiment,NULL,Video,progression,buffer,0.001443,1687287425469,5e5e33730fa612000a1fa1f7,5e5e33730fa612000a1fa1f7,9,cake,critical,D,75,cake66.jpg,cake84.jpg,high,NULL
1687287484,016eb2eb5d81fb095d95cc253c2f9541,PennController,12,0,experiment,NULL,Selector,choice,Selection,option2,1687287432647,5e5e33730fa612000a1fa1f7,5e5e33730fa612000a1fa1f7,9,cake,critical,D,75,cake66.jpg,cake84.jpg,high,option1;option2
1687287484,016eb2eb5d81fb095d95cc253c2f9541,PennController,12,0,experiment,NULL,PennController,11,_Trial_,End,1687287432648,5e5e33730fa612000a1fa1f7,5e5e33730fa612000a1fa1f7,9,cake,critical,D,75,cake66.jpg,cake84.jpg,high,NULL
1687287484,016eb2eb5d81fb095d95cc253c2f9541,PennController,30,0,experiment,NULL,PennController,29,_Trial_,Start,1687287432648,5e5e33730fa612000a1fa1f7,5e5e33730fa612000a1fa1f7,27,square,filler,D,75,square65.jpg,square85.jpg,GoalB,NULL
1687287484,016eb2eb5d81fb095d95cc253c2f9541,PennController,30,0,experiment,NULL,PennController,29,_Header_,Start,1687287432648,5e5e33730fa612000a1fa1f7,5e5e33730fa612000a1fa1f7,27,square,filler,D,75,square65.jpg,square85.jpg,GoalB,NULL
1687287484,016eb2eb5d81fb095d95cc253c2f9541,PennController,30,0,experiment,NULL,PennController,29,_Header_,End,1687287432648,5e5e33730fa612000a1fa1f7,5e5e33730fa612000a1fa1f7,27,square,filler,D,75,square65.jpg,square85.jpg,GoalB,NULL
1687287484,016eb2eb5d81fb095d95cc253c2f9541,PennController,30,0,experiment,NULL,Canvas,canvas6,Print,NA,1687287440357,5e5e33730fa612000a1fa1f7,5e5e33730fa612000a1fa1f7,27,square,filler,D,75,square65.jpg,square85.jpg,GoalB,NULL
1687287484,016eb2eb5d81fb095d95cc253c2f9541,PennController,30,0,experiment,NULL,Video,progression,buffer,0.001209,1687287436163,5e5e33730fa612000a1fa1f7,5e5e33730fa612000a1fa1f7,27,square,filler,D,75,square65.jpg,square85.jpg,GoalB,NULL
1687287484,016eb2eb5d81fb095d95cc253c2f9541,PennController,30,0,experiment,NULL,Selector,choice,Selection,option1,1687287442130,5e5e33730fa612000a1fa1f7,5e5e33730fa612000a1fa1f7,27,square,filler,D,75,square65.jpg,square85.jpg,GoalB,option2;option1
1687287484,016eb2eb5d81fb095d95cc253c2f9541,PennController,30,0,experiment,NULL,PennController,29,_Trial_,End,1687287442131,5e5e33730fa612000a1fa1f7,5e5e33730fa612000a1fa1f7,27,square,filler,D,75,square65.jpg,square85.jpg,GoalB,NULL
1687287484,016eb2eb5d81fb095d95cc253c2f9541,PennController,32,0,experiment,NULL,PennController,31,_Trial_,Start,1687287442132,5e5e33730fa612000a1fa1f7,5e5e33730fa612000a1fa1f7,29,frog,filler,D,50,frog40.jpg,frog60.jpg,GoalB,NULL
1687287484,016eb2eb5d81fb095d95cc253c2f9541,PennController,32,0,experiment,NULL,PennController,31,_Header_,Start,1687287442132,5e5e33730fa612000a1fa1f7,5e5e33730fa612000a1fa1f7,29,frog,filler,D,50,frog40.jpg,frog60.jpg,GoalB,NULL
1687287484,016eb2eb5d81fb095d95cc253c2f9541,PennController,32,0,experiment,NULL,PennController,31,_Header_,End,1687287442132,5e5e33730fa612000a1fa1f7,5e5e33730fa612000a1fa1f7,29,frog,filler,D,50,frog40.jpg,frog60.jpg,GoalB,NULL
1687287484,016eb2eb5d81fb095d95cc253c2f9541,PennController,32,0,experiment,NULL,Canvas,canvas6,Print,NA,1687287448841,5e5e33730fa612000a1fa1f7,5e5e33730fa612000a1fa1f7,29,frog,filler,D,50,frog40.jpg,frog60.jpg,GoalB,NULL
1687287484,016eb2eb5d81fb095d95cc253c2f9541,PennController,32,0,experiment,NULL,Video,progression,buffer,0.001195,1687287445644,5e5e33730fa612000a1fa1f7,5e5e33730fa612000a1fa1f7,29,frog,filler,D,50,frog40.jpg,frog60.jpg,GoalB,NULL
1687287484,016eb2eb5d81fb095d95cc253c2f9541,PennController,32,0,experiment,NULL,Selector,choice,Selection,option2,1687287449833,5e5e33730fa612000a1fa1f7,5e5e33730fa612000a1fa1f7,29,frog,filler,D,50,frog40.jpg,frog60.jpg,GoalB,option2;option1
1687287484,016eb2eb5d81fb095d95cc253c2f9541,PennController,32,0,experiment,NULL,PennController,31,_Trial_,End,1687287449833,5e5e33730fa612000a1fa1f7,5e5e33730fa612000a1fa1f7,29,frog,filler,D,50,frog40.jpg,frog60.jpg,GoalB,NULL
1687287484,016eb2eb5d81fb095d95cc253c2f9541,PennController,20,0,experiment,NULL,PennController,19,_Trial_,Start,1687287449834,5e5e33730fa612000a1fa1f7,5e5e33730fa612000a1fa1f7,17,roll,critical,D,50,roll40.jpg,roll60.jpg,high,NULL
1687287484,016eb2eb5d81fb095d95cc253c2f9541,PennController,20,0,experiment,NULL,PennController,19,_Header_,Start,1687287449834,5e5e33730fa612000a1fa1f7,5e5e33730fa612000a1fa1f7,17,roll,critical,D,50,roll40.jpg,roll60.jpg,high,NULL
1687287484,016eb2eb5d81fb095d95cc253c2f9541,PennController,20,0,experiment,NULL,PennController,19,_Header_,End,1687287449834,5e5e33730fa612000a1fa1f7,5e5e33730fa612000a1fa1f7,17,roll,critical,D,50,roll40.jpg,roll60.jpg,high,NULL
1687287484,016eb2eb5d81fb095d95cc253c2f9541,PennController,20,0,experiment,NULL,Canvas,canvas6,Print,NA,1687287456563,5e5e33730fa612000a1fa1f7,5e5e33730fa612000a1fa1f7,17,roll,critical,D,50,roll40.jpg,roll60.jpg,high,NULL
1687287484,016eb2eb5d81fb095d95cc253c2f9541,PennController,20,0,experiment,NULL,Video,progression,buffer,0,1687287453354,5e5e33730fa612000a1fa1f7,5e5e33730fa612000a1fa1f7,17,roll,critical,D,50,roll40.jpg,roll60.jpg,high,NULL
1687287484,016eb2eb5d81fb095d95cc253c2f9541,PennController,20,0,experiment,NULL,Selector,choice,Selection,option1,1687287457748,5e5e33730fa612000a1fa1f7,5e5e33730fa612000a1fa1f7,17,roll,critical,D,50,roll40.jpg,roll60.jpg,high,option2;option1
1687287484,016eb2eb5d81fb095d95cc253c2f9541,PennController,20,0,experiment,NULL,PennController,19,_Trial_,End,1687287457749,5e5e33730fa612000a1fa1f7,5e5e33730fa612000a1fa1f7,17,roll,critical,D,50,roll40.jpg,roll60.jpg,high,NULL
1687287484,016eb2eb5d81fb095d95cc253c2f9541,PennController,25,0,experiment,NULL,PennController,24,_Trial_,Start,1687287457750,5e5e33730fa612000a1fa1f7,5e5e33730fa612000a1fa1f7,22,wall,filler,D,25,wall15.jpg,wall35.jpg,GoalA,NULL
1687287484,016eb2eb5d81fb095d95cc253c2f9541,PennController,25,0,experiment,NULL,PennController,24,_Header_,Start,1687287457750,5e5e33730fa612000a1fa1f7,5e5e33730fa612000a1fa1f7,22,wall,filler,D,25,wall15.jpg,wall35.jpg,GoalA,NULL
1687287484,016eb2eb5d81fb095d95cc253c2f9541,PennController,25,0,experiment,NULL,PennController,24,_Header_,End,1687287457750,5e5e33730fa612000a1fa1f7,5e5e33730fa612000a1fa1f7,22,wall,filler,D,25,wall15.jpg,wall35.jpg,GoalA,NULL
1687287484,016eb2eb5d81fb095d95cc253c2f9541,PennController,25,0,experiment,NULL,Canvas,canvas6,Print,NA,1687287463460,5e5e33730fa612000a1fa1f7,5e5e33730fa612000a1fa1f7,22,wall,filler,D,25,wall15.jpg,wall35.jpg,GoalA,NULL
1687287484,016eb2eb5d81fb095d95cc253c2f9541,PennController,25,0,experiment,NULL,Video,progression,buffer,0.002001,1687287461270,5e5e33730fa612000a1fa1f7,5e5e33730fa612000a1fa1f7,22,wall,filler,D,25,wall15.jpg,wall35.jpg,GoalA,NULL
1687287484,016eb2eb5d81fb095d95cc253c2f9541,PennController,25,0,experiment,NULL,Selector,choice,Selection,option1,1687287464765,5e5e33730fa612000a1fa1f7,5e5e33730fa612000a1fa1f7,22,wall,filler,D,25,wall15.jpg,wall35.jpg,GoalA,option1;option2
1687287484,016eb2eb5d81fb095d95cc253c2f9541,PennController,25,0,experiment,NULL,PennController,24,_Trial_,End,1687287464766,5e5e33730fa612000a1fa1f7,5e5e33730fa612000a1fa1f7,22,wall,filler,D,25,wall15.jpg,wall35.jpg,GoalA,NULL
1687287484,016eb2eb5d81fb095d95cc253c2f9541,PennController,7,0,experiment,NULL,PennController,6,_Trial_,Start,1687287464767,5e5e33730fa612000a1fa1f7,5e5e33730fa612000a1fa1f7,4,candy,critical,D,25,candy15.jpg,candy35.jpg,high,NULL
1687287484,016eb2eb5d81fb095d95cc253c2f9541,PennController,7,0,experiment,NULL,PennController,6,_Header_,Start,1687287464767,5e5e33730fa612000a1fa1f7,5e5e33730fa612000a1fa1f7,4,candy,critical,D,25,candy15.jpg,candy35.jpg,high,NULL
1687287484,016eb2eb5d81fb095d95cc253c2f9541,PennController,7,0,experiment,NULL,PennController,6,_Header_,End,1687287464767,5e5e33730fa612000a1fa1f7,5e5e33730fa612000a1fa1f7,4,candy,critical,D,25,candy15.jpg,candy35.jpg,high,NULL
1687287484,016eb2eb5d81fb095d95cc253c2f9541,PennController,7,0,experiment,NULL,Canvas,canvas6,Print,NA,1687287470476,5e5e33730fa612000a1fa1f7,5e5e33730fa612000a1fa1f7,4,candy,critical,D,25,candy15.jpg,candy35.jpg,high,NULL
1687287484,016eb2eb5d81fb095d95cc253c2f9541,PennController,7,0,experiment,NULL,Video,progression,buffer,0.001395,1687287468283,5e5e33730fa612000a1fa1f7,5e5e33730fa612000a1fa1f7,4,candy,critical,D,25,candy15.jpg,candy35.jpg,high,NULL
1687287484,016eb2eb5d81fb095d95cc253c2f9541,PennController,7,0,experiment,NULL,Selector,choice,Selection,option1,1687287472044,5e5e33730fa612000a1fa1f7,5e5e33730fa612000a1fa1f7,4,candy,critical,D,25,candy15.jpg,candy35.jpg,high,option1;option2
1687287484,016eb2eb5d81fb095d95cc253c2f9541,PennController,7,0,experiment,NULL,PennController,6,_Trial_,End,1687287472045,5e5e33730fa612000a1fa1f7,5e5e33730fa612000a1fa1f7,4,candy,critical,D,25,candy15.jpg,candy35.jpg,high,NULL
1687287484,016eb2eb5d81fb095d95cc253c2f9541,PennController,14,0,experiment,NULL,PennController,13,_Trial_,Start,1687287472045,5e5e33730fa612000a1fa1f7,5e5e33730fa612000a1fa1f7,11,beads,critical,D,50,beads40.jpg,beads60.jpg,high,NULL
1687287484,016eb2eb5d81fb095d95cc253c2f9541,PennController,14,0,experiment,NULL,PennController,13,_Header_,Start,1687287472045,5e5e33730fa612000a1fa1f7,5e5e33730fa612000a1fa1f7,11,beads,critical,D,50,beads40.jpg,beads60.jpg,high,NULL
1687287484,016eb2eb5d81fb095d95cc253c2f9541,PennController,14,0,experiment,NULL,PennController,13,_Header_,End,1687287472045,5e5e33730fa612000a1fa1f7,5e5e33730fa612000a1fa1f7,11,beads,critical,D,50,beads40.jpg,beads60.jpg,high,NULL
1687287484,016eb2eb5d81fb095d95cc253c2f9541,PennController,14,0,experiment,NULL,Canvas,canvas6,Print,NA,1687287478747,5e5e33730fa612000a1fa1f7,5e5e33730fa612000a1fa1f7,11,beads,critical,D,50,beads40.jpg,beads60.jpg,high,NULL
1687287484,016eb2eb5d81fb095d95cc253c2f9541,PennController,14,0,experiment,NULL,Video,progression,buffer,0.001427,1687287475552,5e5e33730fa612000a1fa1f7,5e5e33730fa612000a1fa1f7,11,beads,critical,D,50,beads40.jpg,beads60.jpg,high,NULL
1687287484,016eb2eb5d81fb095d95cc253c2f9541,PennController,14,0,experiment,NULL,Selector,choice,Selection,option1,1687287485359,5e5e33730fa612000a1fa1f7,5e5e33730fa612000a1fa1f7,11,beads,critical,D,50,beads40.jpg,beads60.jpg,high,option1;option2
1687287484,016eb2eb5d81fb095d95cc253c2f9541,PennController,14,0,experiment,NULL,PennController,13,_Trial_,End,1687287485359,5e5e33730fa612000a1fa1f7,5e5e33730fa612000a1fa1f7,11,beads,critical,D,50,beads40.jpg,beads60.jpg,high,NULL
