#
# Results on Tuesday June 20 2023 19:11:31 UTC
# USER AGENT: Mozilla/5.0 (Windows NT 10.0; Win64; x64) AppleWebKit/537.36 (KHTML, like Gecko) Chrome/114.0.0.0 Safari/537.36
# Design number was non-random = 56
#
# Columns below this comment are as follows:
# 1. Results reception time.
# 2. MD5 hash of participant's IP address.
# 3. Controller name.
# 4. Order number of item.
# 5. Inner element number.
# 6. Label.
# 7. Latin Square Group.
# 8. PennElementType.
# 9. PennElementName.
# 10. Parameter.
# 11. Value.
# 12. EventTime.
# 13. PROLIFIC_ID.
# 14. Comments.
1687288291,7ba3ad5f221d97984ac3f5a03250e0e5,PennController,2,0,consent,NULL,PennController,0,_Trial_,Start,1687287980169,60ccbd6213c0485029e86d97,NULL
1687288291,7ba3ad5f221d97984ac3f5a03250e0e5,PennController,2,0,consent,NULL,PennController,0,_Header_,Start,1687287980169,60ccbd6213c0485029e86d97,NULL
1687288291,7ba3ad5f221d97984ac3f5a03250e0e5,PennController,2,0,consent,NULL,PennController,0,_Header_,End,1687287980171,60ccbd6213c0485029e86d97,NULL
1687288291,7ba3ad5f221d97984ac3f5a03250e0e5,PennController,2,0,consent,NULL,PennController,0,_Trial_,End,1687287989425,60ccbd6213c0485029e86d97,NULL
# Columns below this comment are as follows:
# 14. ID.
# 15. Comments.
1687288291,7ba3ad5f221d97984ac3f5a03250e0e5,PennController,3,0,intro,NULL,PennController,1,_Trial_,Start,1687287989435,60ccbd6213c0485029e86d97,60ccbd6213c0485029e86d97,NULL
1687288291,7ba3ad5f221d97984ac3f5a03250e0e5,PennController,3,0,intro,NULL,PennController,1,_Header_,Start,1687287989435,60ccbd6213c0485029e86d97,60ccbd6213c0485029e86d97,NULL
1687288291,7ba3ad5f221d97984ac3f5a03250e0e5,PennController,3,0,intro,NULL,PennController,1,_Header_,End,1687287989436,60ccbd6213c0485029e86d97,60ccbd6213c0485029e86d97,NULL
1687288291,7ba3ad5f221d97984ac3f5a03250e0e5,PennController,3,0,intro,NULL,PennController,1,_Trial_,End,1687288010725,60ccbd6213c0485029e86d97,60ccbd6213c0485029e86d97,NULL
# Columns below this comment are as follows:
# 15. item_number.
# 16. item.
# 17. type.
# 18. Group.
# 19. prog.
# 20. prev_image.
# 21. next_image.
# 22. height.
# 23. Comments.
1687288291,7ba3ad5f221d97984ac3f5a03250e0e5,PennController,30,0,experiment,NULL,PennController,29,_Trial_,Start,1687288010758,60ccbd6213c0485029e86d97,60ccbd6213c0485029e86d97,27,square,filler,C,50,square40.jpg,square60.jpg,GoalA,NULL
1687288291,7ba3ad5f221d97984ac3f5a03250e0e5,PennController,30,0,experiment,NULL,PennController,29,_Header_,Start,1687288010759,60ccbd6213c0485029e86d97,60ccbd6213c0485029e86d97,27,square,filler,C,50,square40.jpg,square60.jpg,GoalA,NULL
1687288291,7ba3ad5f221d97984ac3f5a03250e0e5,PennController,30,0,experiment,NULL,PennController,29,_Header_,End,1687288010760,60ccbd6213c0485029e86d97,60ccbd6213c0485029e86d97,27,square,filler,C,50,square40.jpg,square60.jpg,GoalA,NULL
1687288291,7ba3ad5f221d97984ac3f5a03250e0e5,PennController,30,0,experiment,NULL,Canvas,canvas6,Print,NA,1687288017651,60ccbd6213c0485029e86d97,60ccbd6213c0485029e86d97,27,square,filler,C,50,square40.jpg,square60.jpg,GoalA,NULL
1687288291,7ba3ad5f221d97984ac3f5a03250e0e5,PennController,30,0,experiment,NULL,Video,progression,buffer,0.034631,1687288014444,60ccbd6213c0485029e86d97,60ccbd6213c0485029e86d97,27,square,filler,C,50,square40.jpg,square60.jpg,GoalA,NULL
1687288291,7ba3ad5f221d97984ac3f5a03250e0e5,PennController,30,0,experiment,NULL,Selector,choice,Selection,option1,1687288020554,60ccbd6213c0485029e86d97,60ccbd6213c0485029e86d97,27,square,filler,C,50,square40.jpg,square60.jpg,GoalA,option2;option1
1687288291,7ba3ad5f221d97984ac3f5a03250e0e5,PennController,30,0,experiment,NULL,PennController,29,_Trial_,End,1687288020561,60ccbd6213c0485029e86d97,60ccbd6213c0485029e86d97,27,square,filler,C,50,square40.jpg,square60.jpg,GoalA,NULL
1687288291,7ba3ad5f221d97984ac3f5a03250e0e5,PennController,26,0,experiment,NULL,PennController,25,_Trial_,Start,1687288020567,60ccbd6213c0485029e86d97,60ccbd6213c0485029e86d97,23,color,filler,C,25,color15.jpg,color35.jpg,GoalA,NULL
1687288291,7ba3ad5f221d97984ac3f5a03250e0e5,PennController,26,0,experiment,NULL,PennController,25,_Header_,Start,1687288020567,60ccbd6213c0485029e86d97,60ccbd6213c0485029e86d97,23,color,filler,C,25,color15.jpg,color35.jpg,GoalA,NULL
1687288291,7ba3ad5f221d97984ac3f5a03250e0e5,PennController,26,0,experiment,NULL,PennController,25,_Header_,End,1687288020567,60ccbd6213c0485029e86d97,60ccbd6213c0485029e86d97,23,color,filler,C,25,color15.jpg,color35.jpg,GoalA,NULL
1687288291,7ba3ad5f221d97984ac3f5a03250e0e5,PennController,26,0,experiment,NULL,Canvas,canvas6,Print,NA,1687288026371,60ccbd6213c0485029e86d97,60ccbd6213c0485029e86d97,23,color,filler,C,25,color15.jpg,color35.jpg,GoalA,NULL
1687288291,7ba3ad5f221d97984ac3f5a03250e0e5,PennController,26,0,experiment,NULL,Video,progression,buffer,0.022493,1687288024172,60ccbd6213c0485029e86d97,60ccbd6213c0485029e86d97,23,color,filler,C,25,color15.jpg,color35.jpg,GoalA,NULL
1687288291,7ba3ad5f221d97984ac3f5a03250e0e5,PennController,26,0,experiment,NULL,Selector,choice,Selection,option2,1687288028683,60ccbd6213c0485029e86d97,60ccbd6213c0485029e86d97,23,color,filler,C,25,color15.jpg,color35.jpg,GoalA,option1;option2
1687288291,7ba3ad5f221d97984ac3f5a03250e0e5,PennController,26,0,experiment,NULL,PennController,25,_Trial_,End,1687288028688,60ccbd6213c0485029e86d97,60ccbd6213c0485029e86d97,23,color,filler,C,25,color15.jpg,color35.jpg,GoalA,NULL
1687288291,7ba3ad5f221d97984ac3f5a03250e0e5,PennController,24,0,experiment,NULL,PennController,23,_Trial_,Start,1687288028694,60ccbd6213c0485029e86d97,60ccbd6213c0485029e86d97,21,visit,filler,C,50,visit40.jpg,visit60.jpg,GoalA,NULL
1687288291,7ba3ad5f221d97984ac3f5a03250e0e5,PennController,24,0,experiment,NULL,PennController,23,_Header_,Start,1687288028694,60ccbd6213c0485029e86d97,60ccbd6213c0485029e86d97,21,visit,filler,C,50,visit40.jpg,visit60.jpg,GoalA,NULL
1687288291,7ba3ad5f221d97984ac3f5a03250e0e5,PennController,24,0,experiment,NULL,PennController,23,_Header_,End,1687288028694,60ccbd6213c0485029e86d97,60ccbd6213c0485029e86d97,21,visit,filler,C,50,visit40.jpg,visit60.jpg,GoalA,NULL
1687288291,7ba3ad5f221d97984ac3f5a03250e0e5,PennController,24,0,experiment,NULL,Canvas,canvas6,Print,NA,1687288035481,60ccbd6213c0485029e86d97,60ccbd6213c0485029e86d97,21,visit,filler,C,50,visit40.jpg,visit60.jpg,GoalA,NULL
1687288291,7ba3ad5f221d97984ac3f5a03250e0e5,PennController,24,0,experiment,NULL,Video,progression,buffer,0.026014,1687288032299,60ccbd6213c0485029e86d97,60ccbd6213c0485029e86d97,21,visit,filler,C,50,visit40.jpg,visit60.jpg,GoalA,NULL
1687288291,7ba3ad5f221d97984ac3f5a03250e0e5,PennController,24,0,experiment,NULL,Selector,choice,Selection,option1,1687288039759,60ccbd6213c0485029e86d97,60ccbd6213c0485029e86d97,21,visit,filler,C,50,visit40.jpg,visit60.jpg,GoalA,option2;option1
1687288291,7ba3ad5f221d97984ac3f5a03250e0e5,PennController,24,0,experiment,NULL,PennController,23,_Trial_,End,1687288039770,60ccbd6213c0485029e86d97,60ccbd6213c0485029e86d97,21,visit,filler,C,50,visit40.jpg,visit60.jpg,GoalA,NULL
1687288291,7ba3ad5f221d97984ac3f5a03250e0e5,PennController,7,0,experiment,NULL,PennController,6,_Trial_,Start,1687288039774,60ccbd6213c0485029e86d97,60ccbd6213c0485029e86d97,4,candy,critical,C,75,candy65.jpg,candy85.jpg,low,NULL
1687288291,7ba3ad5f221d97984ac3f5a03250e0e5,PennController,7,0,experiment,NULL,PennController,6,_Header_,Start,1687288039774,60ccbd6213c0485029e86d97,60ccbd6213c0485029e86d97,4,candy,critical,C,75,candy65.jpg,candy85.jpg,low,NULL
1687288291,7ba3ad5f221d97984ac3f5a03250e0e5,PennController,7,0,experiment,NULL,PennController,6,_Header_,End,1687288039774,60ccbd6213c0485029e86d97,60ccbd6213c0485029e86d97,4,candy,critical,C,75,candy65.jpg,candy85.jpg,low,NULL
1687288291,7ba3ad5f221d97984ac3f5a03250e0e5,PennController,7,0,experiment,NULL,Canvas,canvas6,Print,NA,1687288047540,60ccbd6213c0485029e86d97,60ccbd6213c0485029e86d97,4,candy,critical,C,75,candy65.jpg,candy85.jpg,low,NULL
1687288291,7ba3ad5f221d97984ac3f5a03250e0e5,PennController,7,0,experiment,NULL,Video,progression,buffer,0.026612,1687288043369,60ccbd6213c0485029e86d97,60ccbd6213c0485029e86d97,4,candy,critical,C,75,candy65.jpg,candy85.jpg,low,NULL
1687288291,7ba3ad5f221d97984ac3f5a03250e0e5,PennController,7,0,experiment,NULL,Selector,choice,Selection,option1,1687288050476,60ccbd6213c0485029e86d97,60ccbd6213c0485029e86d97,4,candy,critical,C,75,candy65.jpg,candy85.jpg,low,option1;option2
1687288291,7ba3ad5f221d97984ac3f5a03250e0e5,PennController,7,0,experiment,NULL,PennController,6,_Trial_,End,1687288050489,60ccbd6213c0485029e86d97,60ccbd6213c0485029e86d97,4,candy,critical,C,75,candy65.jpg,candy85.jpg,low,NULL
1687288291,7ba3ad5f221d97984ac3f5a03250e0e5,PennController,29,0,experiment,NULL,PennController,28,_Trial_,Start,1687288050503,60ccbd6213c0485029e86d97,60ccbd6213c0485029e86d97,26,sandwich,filler,C,25,sandwich15.jpg,sandwich35.jpg,GoalB,NULL
1687288291,7ba3ad5f221d97984ac3f5a03250e0e5,PennController,29,0,experiment,NULL,PennController,28,_Header_,Start,1687288050503,60ccbd6213c0485029e86d97,60ccbd6213c0485029e86d97,26,sandwich,filler,C,25,sandwich15.jpg,sandwich35.jpg,GoalB,NULL
1687288291,7ba3ad5f221d97984ac3f5a03250e0e5,PennController,29,0,experiment,NULL,PennController,28,_Header_,End,1687288050505,60ccbd6213c0485029e86d97,60ccbd6213c0485029e86d97,26,sandwich,filler,C,25,sandwich15.jpg,sandwich35.jpg,GoalB,NULL
1687288291,7ba3ad5f221d97984ac3f5a03250e0e5,PennController,29,0,experiment,NULL,Canvas,canvas6,Print,NA,1687288056295,60ccbd6213c0485029e86d97,60ccbd6213c0485029e86d97,26,sandwich,filler,C,25,sandwich15.jpg,sandwich35.jpg,GoalB,NULL
1687288291,7ba3ad5f221d97984ac3f5a03250e0e5,PennController,29,0,experiment,NULL,Video,progression,buffer,0.006916,1687288054094,60ccbd6213c0485029e86d97,60ccbd6213c0485029e86d97,26,sandwich,filler,C,25,sandwich15.jpg,sandwich35.jpg,GoalB,NULL
1687288291,7ba3ad5f221d97984ac3f5a03250e0e5,PennController,29,0,experiment,NULL,Selector,choice,Selection,option1,1687288058015,60ccbd6213c0485029e86d97,60ccbd6213c0485029e86d97,26,sandwich,filler,C,25,sandwich15.jpg,sandwich35.jpg,GoalB,option1;option2
1687288291,7ba3ad5f221d97984ac3f5a03250e0e5,PennController,29,0,experiment,NULL,PennController,28,_Trial_,End,1687288058024,60ccbd6213c0485029e86d97,60ccbd6213c0485029e86d97,26,sandwich,filler,C,25,sandwich15.jpg,sandwich35.jpg,GoalB,NULL
1687288291,7ba3ad5f221d97984ac3f5a03250e0e5,PennController,25,0,experiment,NULL,PennController,24,_Trial_,Start,1687288058034,60ccbd6213c0485029e86d97,60ccbd6213c0485029e86d97,22,wall,filler,C,75,wall65.jpg,wall85.jpg,GoalB,NULL
1687288291,7ba3ad5f221d97984ac3f5a03250e0e5,PennController,25,0,experiment,NULL,PennController,24,_Header_,Start,1687288058034,60ccbd6213c0485029e86d97,60ccbd6213c0485029e86d97,22,wall,filler,C,75,wall65.jpg,wall85.jpg,GoalB,NULL
1687288291,7ba3ad5f221d97984ac3f5a03250e0e5,PennController,25,0,experiment,NULL,PennController,24,_Header_,End,1687288058035,60ccbd6213c0485029e86d97,60ccbd6213c0485029e86d97,22,wall,filler,C,75,wall65.jpg,wall85.jpg,GoalB,NULL
1687288291,7ba3ad5f221d97984ac3f5a03250e0e5,PennController,25,0,experiment,NULL,Canvas,canvas6,Print,NA,1687288065809,60ccbd6213c0485029e86d97,60ccbd6213c0485029e86d97,22,wall,filler,C,75,wall65.jpg,wall85.jpg,GoalB,NULL
1687288291,7ba3ad5f221d97984ac3f5a03250e0e5,PennController,25,0,experiment,NULL,Video,progression,buffer,0.013385,1687288061623,60ccbd6213c0485029e86d97,60ccbd6213c0485029e86d97,22,wall,filler,C,75,wall65.jpg,wall85.jpg,GoalB,NULL
1687288291,7ba3ad5f221d97984ac3f5a03250e0e5,PennController,25,0,experiment,NULL,Selector,choice,Selection,option2,1687288067914,60ccbd6213c0485029e86d97,60ccbd6213c0485029e86d97,22,wall,filler,C,75,wall65.jpg,wall85.jpg,GoalB,option1;option2
1687288291,7ba3ad5f221d97984ac3f5a03250e0e5,PennController,25,0,experiment,NULL,PennController,24,_Trial_,End,1687288067934,60ccbd6213c0485029e86d97,60ccbd6213c0485029e86d97,22,wall,filler,C,75,wall65.jpg,wall85.jpg,GoalB,NULL
1687288291,7ba3ad5f221d97984ac3f5a03250e0e5,PennController,31,0,experiment,NULL,PennController,30,_Trial_,Start,1687288067940,60ccbd6213c0485029e86d97,60ccbd6213c0485029e86d97,28,sort,filler,C,75,sort65.jpg,sort85.jpg,GoalB,NULL
1687288291,7ba3ad5f221d97984ac3f5a03250e0e5,PennController,31,0,experiment,NULL,PennController,30,_Header_,Start,1687288067940,60ccbd6213c0485029e86d97,60ccbd6213c0485029e86d97,28,sort,filler,C,75,sort65.jpg,sort85.jpg,GoalB,NULL
1687288291,7ba3ad5f221d97984ac3f5a03250e0e5,PennController,31,0,experiment,NULL,PennController,30,_Header_,End,1687288067940,60ccbd6213c0485029e86d97,60ccbd6213c0485029e86d97,28,sort,filler,C,75,sort65.jpg,sort85.jpg,GoalB,NULL
1687288291,7ba3ad5f221d97984ac3f5a03250e0e5,PennController,31,0,experiment,NULL,Canvas,canvas6,Print,NA,1687288075698,60ccbd6213c0485029e86d97,60ccbd6213c0485029e86d97,28,sort,filler,C,75,sort65.jpg,sort85.jpg,GoalB,NULL
1687288291,7ba3ad5f221d97984ac3f5a03250e0e5,PennController,31,0,experiment,NULL,Video,progression,buffer,0.026649,1687288071534,60ccbd6213c0485029e86d97,60ccbd6213c0485029e86d97,28,sort,filler,C,75,sort65.jpg,sort85.jpg,GoalB,NULL
1687288291,7ba3ad5f221d97984ac3f5a03250e0e5,PennController,31,0,experiment,NULL,Selector,choice,Selection,option2,1687288077955,60ccbd6213c0485029e86d97,60ccbd6213c0485029e86d97,28,sort,filler,C,75,sort65.jpg,sort85.jpg,GoalB,option2;option1
1687288291,7ba3ad5f221d97984ac3f5a03250e0e5,PennController,31,0,experiment,NULL,PennController,30,_Trial_,End,1687288077967,60ccbd6213c0485029e86d97,60ccbd6213c0485029e86d97,28,sort,filler,C,75,sort65.jpg,sort85.jpg,GoalB,NULL
1687288291,7ba3ad5f221d97984ac3f5a03250e0e5,PennController,16,0,experiment,NULL,PennController,15,_Trial_,Start,1687288077976,60ccbd6213c0485029e86d97,60ccbd6213c0485029e86d97,13,mix,critical,C,75,mix65.jpg,mix85.jpg,low,NULL
1687288291,7ba3ad5f221d97984ac3f5a03250e0e5,PennController,16,0,experiment,NULL,PennController,15,_Header_,Start,1687288077976,60ccbd6213c0485029e86d97,60ccbd6213c0485029e86d97,13,mix,critical,C,75,mix65.jpg,mix85.jpg,low,NULL
1687288291,7ba3ad5f221d97984ac3f5a03250e0e5,PennController,16,0,experiment,NULL,PennController,15,_Header_,End,1687288077977,60ccbd6213c0485029e86d97,60ccbd6213c0485029e86d97,13,mix,critical,C,75,mix65.jpg,mix85.jpg,low,NULL
1687288291,7ba3ad5f221d97984ac3f5a03250e0e5,PennController,16,0,experiment,NULL,Canvas,canvas6,Print,NA,1687288085756,60ccbd6213c0485029e86d97,60ccbd6213c0485029e86d97,13,mix,critical,C,75,mix65.jpg,mix85.jpg,low,NULL
1687288291,7ba3ad5f221d97984ac3f5a03250e0e5,PennController,16,0,experiment,NULL,Video,progression,buffer,0.031008,1687288081578,60ccbd6213c0485029e86d97,60ccbd6213c0485029e86d97,13,mix,critical,C,75,mix65.jpg,mix85.jpg,low,NULL
1687288291,7ba3ad5f221d97984ac3f5a03250e0e5,PennController,16,0,experiment,NULL,Selector,choice,Selection,option2,1687288088130,60ccbd6213c0485029e86d97,60ccbd6213c0485029e86d97,13,mix,critical,C,75,mix65.jpg,mix85.jpg,low,option1;option2
1687288291,7ba3ad5f221d97984ac3f5a03250e0e5,PennController,16,0,experiment,NULL,PennController,15,_Trial_,End,1687288088137,60ccbd6213c0485029e86d97,60ccbd6213c0485029e86d97,13,mix,critical,C,75,mix65.jpg,mix85.jpg,low,NULL
1687288291,7ba3ad5f221d97984ac3f5a03250e0e5,PennController,27,0,experiment,NULL,PennController,26,_Trial_,Start,1687288088145,60ccbd6213c0485029e86d97,60ccbd6213c0485029e86d97,24,match,filler,C,50,match40.jpg,match60.jpg,GoalB,NULL
1687288291,7ba3ad5f221d97984ac3f5a03250e0e5,PennController,27,0,experiment,NULL,PennController,26,_Header_,Start,1687288088145,60ccbd6213c0485029e86d97,60ccbd6213c0485029e86d97,24,match,filler,C,50,match40.jpg,match60.jpg,GoalB,NULL
1687288291,7ba3ad5f221d97984ac3f5a03250e0e5,PennController,27,0,experiment,NULL,PennController,26,_Header_,End,1687288088146,60ccbd6213c0485029e86d97,60ccbd6213c0485029e86d97,24,match,filler,C,50,match40.jpg,match60.jpg,GoalB,NULL
1687288291,7ba3ad5f221d97984ac3f5a03250e0e5,PennController,27,0,experiment,NULL,Canvas,canvas6,Print,NA,1687288094930,60ccbd6213c0485029e86d97,60ccbd6213c0485029e86d97,24,match,filler,C,50,match40.jpg,match60.jpg,GoalB,NULL
1687288291,7ba3ad5f221d97984ac3f5a03250e0e5,PennController,27,0,experiment,NULL,Video,progression,buffer,0.031746,1687288091753,60ccbd6213c0485029e86d97,60ccbd6213c0485029e86d97,24,match,filler,C,50,match40.jpg,match60.jpg,GoalB,NULL
1687288291,7ba3ad5f221d97984ac3f5a03250e0e5,PennController,27,0,experiment,NULL,Selector,choice,Selection,option1,1687288098502,60ccbd6213c0485029e86d97,60ccbd6213c0485029e86d97,24,match,filler,C,50,match40.jpg,match60.jpg,GoalB,option1;option2
1687288291,7ba3ad5f221d97984ac3f5a03250e0e5,PennController,27,0,experiment,NULL,PennController,26,_Trial_,End,1687288098517,60ccbd6213c0485029e86d97,60ccbd6213c0485029e86d97,24,match,filler,C,50,match40.jpg,match60.jpg,GoalB,NULL
1687288291,7ba3ad5f221d97984ac3f5a03250e0e5,PennController,19,0,experiment,NULL,PennController,18,_Trial_,Start,1687288098529,60ccbd6213c0485029e86d97,60ccbd6213c0485029e86d97,16,blinds,critical,C,75,blinds66.jpg,blinds84.jpg,low,NULL
1687288291,7ba3ad5f221d97984ac3f5a03250e0e5,PennController,19,0,experiment,NULL,PennController,18,_Header_,Start,1687288098529,60ccbd6213c0485029e86d97,60ccbd6213c0485029e86d97,16,blinds,critical,C,75,blinds66.jpg,blinds84.jpg,low,NULL
1687288291,7ba3ad5f221d97984ac3f5a03250e0e5,PennController,19,0,experiment,NULL,PennController,18,_Header_,End,1687288098531,60ccbd6213c0485029e86d97,60ccbd6213c0485029e86d97,16,blinds,critical,C,75,blinds66.jpg,blinds84.jpg,low,NULL
1687288291,7ba3ad5f221d97984ac3f5a03250e0e5,PennController,19,0,experiment,NULL,Canvas,canvas6,Print,NA,1687288108319,60ccbd6213c0485029e86d97,60ccbd6213c0485029e86d97,16,blinds,critical,C,75,blinds66.jpg,blinds84.jpg,low,NULL
1687288291,7ba3ad5f221d97984ac3f5a03250e0e5,PennController,19,0,experiment,NULL,Video,progression,buffer,0.031361,1687288102151,60ccbd6213c0485029e86d97,60ccbd6213c0485029e86d97,16,blinds,critical,C,75,blinds66.jpg,blinds84.jpg,low,NULL
1687288291,7ba3ad5f221d97984ac3f5a03250e0e5,PennController,19,0,experiment,NULL,Selector,choice,Selection,option1,1687288112360,60ccbd6213c0485029e86d97,60ccbd6213c0485029e86d97,16,blinds,critical,C,75,blinds66.jpg,blinds84.jpg,low,option1;option2
1687288291,7ba3ad5f221d97984ac3f5a03250e0e5,PennController,19,0,experiment,NULL,PennController,18,_Trial_,End,1687288112377,60ccbd6213c0485029e86d97,60ccbd6213c0485029e86d97,16,blinds,critical,C,75,blinds66.jpg,blinds84.jpg,low,NULL
1687288291,7ba3ad5f221d97984ac3f5a03250e0e5,PennController,17,0,experiment,NULL,PennController,16,_Trial_,Start,1687288112384,60ccbd6213c0485029e86d97,60ccbd6213c0485029e86d97,14,cover,critical,C,25,cover15.jpg,cover33.jpg,low,NULL
1687288291,7ba3ad5f221d97984ac3f5a03250e0e5,PennController,17,0,experiment,NULL,PennController,16,_Header_,Start,1687288112384,60ccbd6213c0485029e86d97,60ccbd6213c0485029e86d97,14,cover,critical,C,25,cover15.jpg,cover33.jpg,low,NULL
1687288291,7ba3ad5f221d97984ac3f5a03250e0e5,PennController,17,0,experiment,NULL,PennController,16,_Header_,End,1687288112385,60ccbd6213c0485029e86d97,60ccbd6213c0485029e86d97,14,cover,critical,C,25,cover15.jpg,cover33.jpg,low,NULL
1687288291,7ba3ad5f221d97984ac3f5a03250e0e5,PennController,17,0,experiment,NULL,Canvas,canvas6,Print,NA,1687288118752,60ccbd6213c0485029e86d97,60ccbd6213c0485029e86d97,14,cover,critical,C,25,cover15.jpg,cover33.jpg,low,NULL
1687288291,7ba3ad5f221d97984ac3f5a03250e0e5,PennController,17,0,experiment,NULL,Video,progression,buffer,0.022475,1687288115973,60ccbd6213c0485029e86d97,60ccbd6213c0485029e86d97,14,cover,critical,C,25,cover15.jpg,cover33.jpg,low,NULL
1687288291,7ba3ad5f221d97984ac3f5a03250e0e5,PennController,17,0,experiment,NULL,Selector,choice,Selection,option2,1687288121065,60ccbd6213c0485029e86d97,60ccbd6213c0485029e86d97,14,cover,critical,C,25,cover15.jpg,cover33.jpg,low,option1;option2
1687288291,7ba3ad5f221d97984ac3f5a03250e0e5,PennController,17,0,experiment,NULL,PennController,16,_Trial_,End,1687288121076,60ccbd6213c0485029e86d97,60ccbd6213c0485029e86d97,14,cover,critical,C,25,cover15.jpg,cover33.jpg,low,NULL
1687288291,7ba3ad5f221d97984ac3f5a03250e0e5,PennController,11,0,experiment,NULL,PennController,10,_Trial_,Start,1687288121088,60ccbd6213c0485029e86d97,60ccbd6213c0485029e86d97,8,cucumber,critical,C,25,cucumber15.jpg,cucumber33.jpg,low,NULL
1687288291,7ba3ad5f221d97984ac3f5a03250e0e5,PennController,11,0,experiment,NULL,PennController,10,_Header_,Start,1687288121088,60ccbd6213c0485029e86d97,60ccbd6213c0485029e86d97,8,cucumber,critical,C,25,cucumber15.jpg,cucumber33.jpg,low,NULL
1687288291,7ba3ad5f221d97984ac3f5a03250e0e5,PennController,11,0,experiment,NULL,PennController,10,_Header_,End,1687288121090,60ccbd6213c0485029e86d97,60ccbd6213c0485029e86d97,8,cucumber,critical,C,25,cucumber15.jpg,cucumber33.jpg,low,NULL
1687288291,7ba3ad5f221d97984ac3f5a03250e0e5,PennController,11,0,experiment,NULL,Canvas,canvas6,Print,NA,1687288127456,60ccbd6213c0485029e86d97,60ccbd6213c0485029e86d97,8,cucumber,critical,C,25,cucumber15.jpg,cucumber33.jpg,low,NULL
1687288291,7ba3ad5f221d97984ac3f5a03250e0e5,PennController,11,0,experiment,NULL,Video,progression,buffer,0.012123,1687288124655,60ccbd6213c0485029e86d97,60ccbd6213c0485029e86d97,8,cucumber,critical,C,25,cucumber15.jpg,cucumber33.jpg,low,NULL
1687288291,7ba3ad5f221d97984ac3f5a03250e0e5,PennController,11,0,experiment,NULL,Selector,choice,Selection,option2,1687288129644,60ccbd6213c0485029e86d97,60ccbd6213c0485029e86d97,8,cucumber,critical,C,25,cucumber15.jpg,cucumber33.jpg,low,option1;option2
1687288291,7ba3ad5f221d97984ac3f5a03250e0e5,PennController,11,0,experiment,NULL,PennController,10,_Trial_,End,1687288129653,60ccbd6213c0485029e86d97,60ccbd6213c0485029e86d97,8,cucumber,critical,C,25,cucumber15.jpg,cucumber33.jpg,low,NULL
1687288291,7ba3ad5f221d97984ac3f5a03250e0e5,PennController,5,0,experiment,NULL,PennController,4,_Trial_,Start,1687288129661,60ccbd6213c0485029e86d97,60ccbd6213c0485029e86d97,2,door,critical,C,25,door15.jpg,door35.jpg,low,NULL
1687288291,7ba3ad5f221d97984ac3f5a03250e0e5,PennController,5,0,experiment,NULL,PennController,4,_Header_,Start,1687288129661,60ccbd6213c0485029e86d97,60ccbd6213c0485029e86d97,2,door,critical,C,25,door15.jpg,door35.jpg,low,NULL
1687288291,7ba3ad5f221d97984ac3f5a03250e0e5,PennController,5,0,experiment,NULL,PennController,4,_Header_,End,1687288129662,60ccbd6213c0485029e86d97,60ccbd6213c0485029e86d97,2,door,critical,C,25,door15.jpg,door35.jpg,low,NULL
1687288291,7ba3ad5f221d97984ac3f5a03250e0e5,PennController,5,0,experiment,NULL,Canvas,canvas6,Print,NA,1687288135421,60ccbd6213c0485029e86d97,60ccbd6213c0485029e86d97,2,door,critical,C,25,door15.jpg,door35.jpg,low,NULL
1687288291,7ba3ad5f221d97984ac3f5a03250e0e5,PennController,5,0,experiment,NULL,Video,progression,buffer,0.03481,1687288133254,60ccbd6213c0485029e86d97,60ccbd6213c0485029e86d97,2,door,critical,C,25,door15.jpg,door35.jpg,low,NULL
1687288291,7ba3ad5f221d97984ac3f5a03250e0e5,PennController,5,0,experiment,NULL,Selector,choice,Selection,option2,1687288138375,60ccbd6213c0485029e86d97,60ccbd6213c0485029e86d97,2,door,critical,C,25,door15.jpg,door35.jpg,low,option1;option2
1687288291,7ba3ad5f221d97984ac3f5a03250e0e5,PennController,5,0,experiment,NULL,PennController,4,_Trial_,End,1687288138385,60ccbd6213c0485029e86d97,60ccbd6213c0485029e86d97,2,door,critical,C,25,door15.jpg,door35.jpg,low,NULL
1687288291,7ba3ad5f221d97984ac3f5a03250e0e5,PennController,10,0,experiment,NULL,PennController,9,_Trial_,Start,1687288138396,60ccbd6213c0485029e86d97,60ccbd6213c0485029e86d97,7,stack,critical,C,75,stack65.jpg,stack85.jpg,low,NULL
1687288291,7ba3ad5f221d97984ac3f5a03250e0e5,PennController,10,0,experiment,NULL,PennController,9,_Header_,Start,1687288138396,60ccbd6213c0485029e86d97,60ccbd6213c0485029e86d97,7,stack,critical,C,75,stack65.jpg,stack85.jpg,low,NULL
1687288291,7ba3ad5f221d97984ac3f5a03250e0e5,PennController,10,0,experiment,NULL,PennController,9,_Header_,End,1687288138397,60ccbd6213c0485029e86d97,60ccbd6213c0485029e86d97,7,stack,critical,C,75,stack65.jpg,stack85.jpg,low,NULL
1687288291,7ba3ad5f221d97984ac3f5a03250e0e5,PennController,10,0,experiment,NULL,Canvas,canvas6,Print,NA,1687288146168,60ccbd6213c0485029e86d97,60ccbd6213c0485029e86d97,7,stack,critical,C,75,stack65.jpg,stack85.jpg,low,NULL
1687288291,7ba3ad5f221d97984ac3f5a03250e0e5,PennController,10,0,experiment,NULL,Video,progression,buffer,0.028178,1687288141993,60ccbd6213c0485029e86d97,60ccbd6213c0485029e86d97,7,stack,critical,C,75,stack65.jpg,stack85.jpg,low,NULL
1687288291,7ba3ad5f221d97984ac3f5a03250e0e5,PennController,10,0,experiment,NULL,Selector,choice,Selection,option2,1687288149447,60ccbd6213c0485029e86d97,60ccbd6213c0485029e86d97,7,stack,critical,C,75,stack65.jpg,stack85.jpg,low,option1;option2
1687288291,7ba3ad5f221d97984ac3f5a03250e0e5,PennController,10,0,experiment,NULL,PennController,9,_Trial_,End,1687288149456,60ccbd6213c0485029e86d97,60ccbd6213c0485029e86d97,7,stack,critical,C,75,stack65.jpg,stack85.jpg,low,NULL
1687288291,7ba3ad5f221d97984ac3f5a03250e0e5,PennController,18,0,experiment,NULL,PennController,17,_Trial_,Start,1687288149466,60ccbd6213c0485029e86d97,60ccbd6213c0485029e86d97,15,zip,critical,C,50,zip40.jpg,zip60.jpg,low,NULL
1687288291,7ba3ad5f221d97984ac3f5a03250e0e5,PennController,18,0,experiment,NULL,PennController,17,_Header_,Start,1687288149466,60ccbd6213c0485029e86d97,60ccbd6213c0485029e86d97,15,zip,critical,C,50,zip40.jpg,zip60.jpg,low,NULL
1687288291,7ba3ad5f221d97984ac3f5a03250e0e5,PennController,18,0,experiment,NULL,PennController,17,_Header_,End,1687288149467,60ccbd6213c0485029e86d97,60ccbd6213c0485029e86d97,15,zip,critical,C,50,zip40.jpg,zip60.jpg,low,NULL
1687288291,7ba3ad5f221d97984ac3f5a03250e0e5,PennController,18,0,experiment,NULL,Canvas,canvas6,Print,NA,1687288156230,60ccbd6213c0485029e86d97,60ccbd6213c0485029e86d97,15,zip,critical,C,50,zip40.jpg,zip60.jpg,low,NULL
1687288291,7ba3ad5f221d97984ac3f5a03250e0e5,PennController,18,0,experiment,NULL,Video,progression,buffer,0.02497,1687288153050,60ccbd6213c0485029e86d97,60ccbd6213c0485029e86d97,15,zip,critical,C,50,zip40.jpg,zip60.jpg,low,NULL
1687288291,7ba3ad5f221d97984ac3f5a03250e0e5,PennController,18,0,experiment,NULL,Selector,choice,Selection,option2,1687288158373,60ccbd6213c0485029e86d97,60ccbd6213c0485029e86d97,15,zip,critical,C,50,zip40.jpg,zip60.jpg,low,option1;option2
1687288291,7ba3ad5f221d97984ac3f5a03250e0e5,PennController,18,0,experiment,NULL,PennController,17,_Trial_,End,1687288158384,60ccbd6213c0485029e86d97,60ccbd6213c0485029e86d97,15,zip,critical,C,50,zip40.jpg,zip60.jpg,low,NULL
1687288291,7ba3ad5f221d97984ac3f5a03250e0e5,PennController,23,0,experiment,NULL,PennController,22,_Trial_,Start,1687288158392,60ccbd6213c0485029e86d97,60ccbd6213c0485029e86d97,20,cat,filler,C,25,cat15.jpg,cat35.jpg,GoalB,NULL
1687288291,7ba3ad5f221d97984ac3f5a03250e0e5,PennController,23,0,experiment,NULL,PennController,22,_Header_,Start,1687288158392,60ccbd6213c0485029e86d97,60ccbd6213c0485029e86d97,20,cat,filler,C,25,cat15.jpg,cat35.jpg,GoalB,NULL
1687288291,7ba3ad5f221d97984ac3f5a03250e0e5,PennController,23,0,experiment,NULL,PennController,22,_Header_,End,1687288158393,60ccbd6213c0485029e86d97,60ccbd6213c0485029e86d97,20,cat,filler,C,25,cat15.jpg,cat35.jpg,GoalB,NULL
1687288291,7ba3ad5f221d97984ac3f5a03250e0e5,PennController,23,0,experiment,NULL,Canvas,canvas6,Print,NA,1687288164169,60ccbd6213c0485029e86d97,60ccbd6213c0485029e86d97,20,cat,filler,C,25,cat15.jpg,cat35.jpg,GoalB,NULL
1687288291,7ba3ad5f221d97984ac3f5a03250e0e5,PennController,23,0,experiment,NULL,Video,progression,buffer,0.032426,1687288161997,60ccbd6213c0485029e86d97,60ccbd6213c0485029e86d97,20,cat,filler,C,25,cat15.jpg,cat35.jpg,GoalB,NULL
1687288291,7ba3ad5f221d97984ac3f5a03250e0e5,PennController,23,0,experiment,NULL,Selector,choice,Selection,option2,1687288165577,60ccbd6213c0485029e86d97,60ccbd6213c0485029e86d97,20,cat,filler,C,25,cat15.jpg,cat35.jpg,GoalB,option1;option2
1687288291,7ba3ad5f221d97984ac3f5a03250e0e5,PennController,23,0,experiment,NULL,PennController,22,_Trial_,End,1687288165586,60ccbd6213c0485029e86d97,60ccbd6213c0485029e86d97,20,cat,filler,C,25,cat15.jpg,cat35.jpg,GoalB,NULL
1687288291,7ba3ad5f221d97984ac3f5a03250e0e5,PennController,28,0,experiment,NULL,PennController,27,_Trial_,Start,1687288165598,60ccbd6213c0485029e86d97,60ccbd6213c0485029e86d97,25,house,filler,C,75,house65.jpg,house85.jpg,GoalA,NULL
1687288291,7ba3ad5f221d97984ac3f5a03250e0e5,PennController,28,0,experiment,NULL,PennController,27,_Header_,Start,1687288165598,60ccbd6213c0485029e86d97,60ccbd6213c0485029e86d97,25,house,filler,C,75,house65.jpg,house85.jpg,GoalA,NULL
1687288291,7ba3ad5f221d97984ac3f5a03250e0e5,PennController,28,0,experiment,NULL,PennController,27,_Header_,End,1687288165599,60ccbd6213c0485029e86d97,60ccbd6213c0485029e86d97,25,house,filler,C,75,house65.jpg,house85.jpg,GoalA,NULL
1687288291,7ba3ad5f221d97984ac3f5a03250e0e5,PennController,28,0,experiment,NULL,Canvas,canvas6,Print,NA,1687288173358,60ccbd6213c0485029e86d97,60ccbd6213c0485029e86d97,25,house,filler,C,75,house65.jpg,house85.jpg,GoalA,NULL
1687288291,7ba3ad5f221d97984ac3f5a03250e0e5,PennController,28,0,experiment,NULL,Video,progression,buffer,0.024937,1687288169178,60ccbd6213c0485029e86d97,60ccbd6213c0485029e86d97,25,house,filler,C,75,house65.jpg,house85.jpg,GoalA,NULL
1687288291,7ba3ad5f221d97984ac3f5a03250e0e5,PennController,28,0,experiment,NULL,Selector,choice,Selection,option2,1687288176513,60ccbd6213c0485029e86d97,60ccbd6213c0485029e86d97,25,house,filler,C,75,house65.jpg,house85.jpg,GoalA,option2;option1
1687288291,7ba3ad5f221d97984ac3f5a03250e0e5,PennController,28,0,experiment,NULL,PennController,27,_Trial_,End,1687288176521,60ccbd6213c0485029e86d97,60ccbd6213c0485029e86d97,25,house,filler,C,75,house65.jpg,house85.jpg,GoalA,NULL
1687288291,7ba3ad5f221d97984ac3f5a03250e0e5,PennController,6,0,experiment,NULL,PennController,5,_Trial_,Start,1687288176530,60ccbd6213c0485029e86d97,60ccbd6213c0485029e86d97,3,clean,critical,C,50,clean40.jpg,clean60.jpg,low,NULL
1687288291,7ba3ad5f221d97984ac3f5a03250e0e5,PennController,6,0,experiment,NULL,PennController,5,_Header_,Start,1687288176530,60ccbd6213c0485029e86d97,60ccbd6213c0485029e86d97,3,clean,critical,C,50,clean40.jpg,clean60.jpg,low,NULL
1687288291,7ba3ad5f221d97984ac3f5a03250e0e5,PennController,6,0,experiment,NULL,PennController,5,_Header_,End,1687288176531,60ccbd6213c0485029e86d97,60ccbd6213c0485029e86d97,3,clean,critical,C,50,clean40.jpg,clean60.jpg,low,NULL
1687288291,7ba3ad5f221d97984ac3f5a03250e0e5,PennController,6,0,experiment,NULL,Canvas,canvas6,Print,NA,1687288183320,60ccbd6213c0485029e86d97,60ccbd6213c0485029e86d97,3,clean,critical,C,50,clean40.jpg,clean60.jpg,low,NULL
1687288291,7ba3ad5f221d97984ac3f5a03250e0e5,PennController,6,0,experiment,NULL,Video,progression,buffer,0.036662,1687288180152,60ccbd6213c0485029e86d97,60ccbd6213c0485029e86d97,3,clean,critical,C,50,clean40.jpg,clean60.jpg,low,NULL
1687288291,7ba3ad5f221d97984ac3f5a03250e0e5,PennController,6,0,experiment,NULL,Selector,choice,Selection,option2,1687288185854,60ccbd6213c0485029e86d97,60ccbd6213c0485029e86d97,3,clean,critical,C,50,clean40.jpg,clean60.jpg,low,option1;option2
1687288291,7ba3ad5f221d97984ac3f5a03250e0e5,PennController,6,0,experiment,NULL,PennController,5,_Trial_,End,1687288185864,60ccbd6213c0485029e86d97,60ccbd6213c0485029e86d97,3,clean,critical,C,50,clean40.jpg,clean60.jpg,low,NULL
1687288291,7ba3ad5f221d97984ac3f5a03250e0e5,PennController,32,0,experiment,NULL,PennController,31,_Trial_,Start,1687288185870,60ccbd6213c0485029e86d97,60ccbd6213c0485029e86d97,29,frog,filler,C,25,frog15.jpg,frog35.jpg,GoalA,NULL
1687288291,7ba3ad5f221d97984ac3f5a03250e0e5,PennController,32,0,experiment,NULL,PennController,31,_Header_,Start,1687288185870,60ccbd6213c0485029e86d97,60ccbd6213c0485029e86d97,29,frog,filler,C,25,frog15.jpg,frog35.jpg,GoalA,NULL
1687288291,7ba3ad5f221d97984ac3f5a03250e0e5,PennController,32,0,experiment,NULL,PennController,31,_Header_,End,1687288185871,60ccbd6213c0485029e86d97,60ccbd6213c0485029e86d97,29,frog,filler,C,25,frog15.jpg,frog35.jpg,GoalA,NULL
1687288291,7ba3ad5f221d97984ac3f5a03250e0e5,PennController,32,0,experiment,NULL,Canvas,canvas6,Print,NA,1687288191617,60ccbd6213c0485029e86d97,60ccbd6213c0485029e86d97,29,frog,filler,C,25,frog15.jpg,frog35.jpg,GoalA,NULL
1687288291,7ba3ad5f221d97984ac3f5a03250e0e5,PennController,32,0,experiment,NULL,Video,progression,buffer,0.022814,1687288189435,60ccbd6213c0485029e86d97,60ccbd6213c0485029e86d97,29,frog,filler,C,25,frog15.jpg,frog35.jpg,GoalA,NULL
1687288291,7ba3ad5f221d97984ac3f5a03250e0e5,PennController,32,0,experiment,NULL,Selector,choice,Selection,option2,1687288194360,60ccbd6213c0485029e86d97,60ccbd6213c0485029e86d97,29,frog,filler,C,25,frog15.jpg,frog35.jpg,GoalA,option2;option1
1687288291,7ba3ad5f221d97984ac3f5a03250e0e5,PennController,32,0,experiment,NULL,PennController,31,_Trial_,End,1687288194364,60ccbd6213c0485029e86d97,60ccbd6213c0485029e86d97,29,frog,filler,C,25,frog15.jpg,frog35.jpg,GoalA,NULL
1687288291,7ba3ad5f221d97984ac3f5a03250e0e5,PennController,20,0,experiment,NULL,PennController,19,_Trial_,Start,1687288194369,60ccbd6213c0485029e86d97,60ccbd6213c0485029e86d97,17,roll,critical,C,25,roll15.jpg,roll35.jpg,low,NULL
1687288291,7ba3ad5f221d97984ac3f5a03250e0e5,PennController,20,0,experiment,NULL,PennController,19,_Header_,Start,1687288194369,60ccbd6213c0485029e86d97,60ccbd6213c0485029e86d97,17,roll,critical,C,25,roll15.jpg,roll35.jpg,low,NULL
1687288291,7ba3ad5f221d97984ac3f5a03250e0e5,PennController,20,0,experiment,NULL,PennController,19,_Header_,End,1687288194374,60ccbd6213c0485029e86d97,60ccbd6213c0485029e86d97,17,roll,critical,C,25,roll15.jpg,roll35.jpg,low,NULL
1687288291,7ba3ad5f221d97984ac3f5a03250e0e5,PennController,20,0,experiment,NULL,Canvas,canvas6,Print,NA,1687288200124,60ccbd6213c0485029e86d97,60ccbd6213c0485029e86d97,17,roll,critical,C,25,roll15.jpg,roll35.jpg,low,NULL
1687288291,7ba3ad5f221d97984ac3f5a03250e0e5,PennController,20,0,experiment,NULL,Video,progression,buffer,0.021552,1687288197957,60ccbd6213c0485029e86d97,60ccbd6213c0485029e86d97,17,roll,critical,C,25,roll15.jpg,roll35.jpg,low,NULL
1687288291,7ba3ad5f221d97984ac3f5a03250e0e5,PennController,20,0,experiment,NULL,Selector,choice,Selection,option2,1687288203598,60ccbd6213c0485029e86d97,60ccbd6213c0485029e86d97,17,roll,critical,C,25,roll15.jpg,roll35.jpg,low,option2;option1
1687288291,7ba3ad5f221d97984ac3f5a03250e0e5,PennController,20,0,experiment,NULL,PennController,19,_Trial_,End,1687288203602,60ccbd6213c0485029e86d97,60ccbd6213c0485029e86d97,17,roll,critical,C,25,roll15.jpg,roll35.jpg,low,NULL
1687288291,7ba3ad5f221d97984ac3f5a03250e0e5,PennController,8,0,experiment,NULL,PennController,7,_Trial_,Start,1687288203607,60ccbd6213c0485029e86d97,60ccbd6213c0485029e86d97,5,book,critical,C,25,book15.jpg,book35.jpg,low,NULL
1687288291,7ba3ad5f221d97984ac3f5a03250e0e5,PennController,8,0,experiment,NULL,PennController,7,_Header_,Start,1687288203607,60ccbd6213c0485029e86d97,60ccbd6213c0485029e86d97,5,book,critical,C,25,book15.jpg,book35.jpg,low,NULL
1687288291,7ba3ad5f221d97984ac3f5a03250e0e5,PennController,8,0,experiment,NULL,PennController,7,_Header_,End,1687288203625,60ccbd6213c0485029e86d97,60ccbd6213c0485029e86d97,5,book,critical,C,25,book15.jpg,book35.jpg,low,NULL
1687288291,7ba3ad5f221d97984ac3f5a03250e0e5,PennController,8,0,experiment,NULL,Canvas,canvas6,Print,NA,1687288209395,60ccbd6213c0485029e86d97,60ccbd6213c0485029e86d97,5,book,critical,C,25,book15.jpg,book35.jpg,low,NULL
1687288291,7ba3ad5f221d97984ac3f5a03250e0e5,PennController,8,0,experiment,NULL,Video,progression,buffer,0.026603,1687288207225,60ccbd6213c0485029e86d97,60ccbd6213c0485029e86d97,5,book,critical,C,25,book15.jpg,book35.jpg,low,NULL
1687288291,7ba3ad5f221d97984ac3f5a03250e0e5,PennController,8,0,experiment,NULL,Selector,choice,Selection,option1,1687288212008,60ccbd6213c0485029e86d97,60ccbd6213c0485029e86d97,5,book,critical,C,25,book15.jpg,book35.jpg,low,option1;option2
1687288291,7ba3ad5f221d97984ac3f5a03250e0e5,PennController,8,0,experiment,NULL,PennController,7,_Trial_,End,1687288212016,60ccbd6213c0485029e86d97,60ccbd6213c0485029e86d97,5,book,critical,C,25,book15.jpg,book35.jpg,low,NULL
1687288291,7ba3ad5f221d97984ac3f5a03250e0e5,PennController,14,0,experiment,NULL,PennController,13,_Trial_,Start,1687288212029,60ccbd6213c0485029e86d97,60ccbd6213c0485029e86d97,11,beads,critical,C,25,beads15.jpg,beads35.jpg,low,NULL
1687288291,7ba3ad5f221d97984ac3f5a03250e0e5,PennController,14,0,experiment,NULL,PennController,13,_Header_,Start,1687288212029,60ccbd6213c0485029e86d97,60ccbd6213c0485029e86d97,11,beads,critical,C,25,beads15.jpg,beads35.jpg,low,NULL
1687288291,7ba3ad5f221d97984ac3f5a03250e0e5,PennController,14,0,experiment,NULL,PennController,13,_Header_,End,1687288212030,60ccbd6213c0485029e86d97,60ccbd6213c0485029e86d97,11,beads,critical,C,25,beads15.jpg,beads35.jpg,low,NULL
1687288291,7ba3ad5f221d97984ac3f5a03250e0e5,PennController,14,0,experiment,NULL,Canvas,canvas6,Print,NA,1687288217793,60ccbd6213c0485029e86d97,60ccbd6213c0485029e86d97,11,beads,critical,C,25,beads15.jpg,beads35.jpg,low,NULL
1687288291,7ba3ad5f221d97984ac3f5a03250e0e5,PennController,14,0,experiment,NULL,Video,progression,buffer,0.029647,1687288215620,60ccbd6213c0485029e86d97,60ccbd6213c0485029e86d97,11,beads,critical,C,25,beads15.jpg,beads35.jpg,low,NULL
1687288291,7ba3ad5f221d97984ac3f5a03250e0e5,PennController,14,0,experiment,NULL,Selector,choice,Selection,option2,1687288220311,60ccbd6213c0485029e86d97,60ccbd6213c0485029e86d97,11,beads,critical,C,25,beads15.jpg,beads35.jpg,low,option1;option2
1687288291,7ba3ad5f221d97984ac3f5a03250e0e5,PennController,14,0,experiment,NULL,PennController,13,_Trial_,End,1687288220319,60ccbd6213c0485029e86d97,60ccbd6213c0485029e86d97,11,beads,critical,C,25,beads15.jpg,beads35.jpg,low,NULL
1687288291,7ba3ad5f221d97984ac3f5a03250e0e5,PennController,13,0,experiment,NULL,PennController,12,_Trial_,Start,1687288220329,60ccbd6213c0485029e86d97,60ccbd6213c0485029e86d97,10,train,critical,C,75,train65.jpg,train85.jpg,low,NULL
1687288291,7ba3ad5f221d97984ac3f5a03250e0e5,PennController,13,0,experiment,NULL,PennController,12,_Header_,Start,1687288220329,60ccbd6213c0485029e86d97,60ccbd6213c0485029e86d97,10,train,critical,C,75,train65.jpg,train85.jpg,low,NULL
1687288291,7ba3ad5f221d97984ac3f5a03250e0e5,PennController,13,0,experiment,NULL,PennController,12,_Header_,End,1687288220330,60ccbd6213c0485029e86d97,60ccbd6213c0485029e86d97,10,train,critical,C,75,train65.jpg,train85.jpg,low,NULL
1687288291,7ba3ad5f221d97984ac3f5a03250e0e5,PennController,13,0,experiment,NULL,Canvas,canvas6,Print,NA,1687288228101,60ccbd6213c0485029e86d97,60ccbd6213c0485029e86d97,10,train,critical,C,75,train65.jpg,train85.jpg,low,NULL
1687288291,7ba3ad5f221d97984ac3f5a03250e0e5,PennController,13,0,experiment,NULL,Video,progression,buffer,0.025402,1687288223929,60ccbd6213c0485029e86d97,60ccbd6213c0485029e86d97,10,train,critical,C,75,train65.jpg,train85.jpg,low,NULL
1687288291,7ba3ad5f221d97984ac3f5a03250e0e5,PennController,13,0,experiment,NULL,Selector,choice,Selection,option2,1687288231133,60ccbd6213c0485029e86d97,60ccbd6213c0485029e86d97,10,train,critical,C,75,train65.jpg,train85.jpg,low,option2;option1
1687288291,7ba3ad5f221d97984ac3f5a03250e0e5,PennController,13,0,experiment,NULL,PennController,12,_Trial_,End,1687288231144,60ccbd6213c0485029e86d97,60ccbd6213c0485029e86d97,10,train,critical,C,75,train65.jpg,train85.jpg,low,NULL
1687288291,7ba3ad5f221d97984ac3f5a03250e0e5,PennController,12,0,experiment,NULL,PennController,11,_Trial_,Start,1687288231152,60ccbd6213c0485029e86d97,60ccbd6213c0485029e86d97,9,cake,critical,C,50,cake42.jpg,cake60.jpg,low,NULL
1687288291,7ba3ad5f221d97984ac3f5a03250e0e5,PennController,12,0,experiment,NULL,PennController,11,_Header_,Start,1687288231152,60ccbd6213c0485029e86d97,60ccbd6213c0485029e86d97,9,cake,critical,C,50,cake42.jpg,cake60.jpg,low,NULL
1687288291,7ba3ad5f221d97984ac3f5a03250e0e5,PennController,12,0,experiment,NULL,PennController,11,_Header_,End,1687288231153,60ccbd6213c0485029e86d97,60ccbd6213c0485029e86d97,9,cake,critical,C,50,cake42.jpg,cake60.jpg,low,NULL
1687288291,7ba3ad5f221d97984ac3f5a03250e0e5,PennController,12,0,experiment,NULL,Canvas,canvas6,Print,NA,1687288239343,60ccbd6213c0485029e86d97,60ccbd6213c0485029e86d97,9,cake,critical,C,50,cake42.jpg,cake60.jpg,low,NULL
1687288291,7ba3ad5f221d97984ac3f5a03250e0e5,PennController,12,0,experiment,NULL,Video,progression,buffer,0.025455,1687288234771,60ccbd6213c0485029e86d97,60ccbd6213c0485029e86d97,9,cake,critical,C,50,cake42.jpg,cake60.jpg,low,NULL
1687288291,7ba3ad5f221d97984ac3f5a03250e0e5,PennController,12,0,experiment,NULL,Selector,choice,Selection,option2,1687288241827,60ccbd6213c0485029e86d97,60ccbd6213c0485029e86d97,9,cake,critical,C,50,cake42.jpg,cake60.jpg,low,option1;option2
1687288291,7ba3ad5f221d97984ac3f5a03250e0e5,PennController,12,0,experiment,NULL,PennController,11,_Trial_,End,1687288241836,60ccbd6213c0485029e86d97,60ccbd6213c0485029e86d97,9,cake,critical,C,50,cake42.jpg,cake60.jpg,low,NULL
1687288291,7ba3ad5f221d97984ac3f5a03250e0e5,PennController,21,0,experiment,NULL,PennController,20,_Trial_,Start,1687288241846,60ccbd6213c0485029e86d97,60ccbd6213c0485029e86d97,18,ball,critical,C,50,ball40.jpg,ball60.jpg,low,NULL
1687288291,7ba3ad5f221d97984ac3f5a03250e0e5,PennController,21,0,experiment,NULL,PennController,20,_Header_,Start,1687288241846,60ccbd6213c0485029e86d97,60ccbd6213c0485029e86d97,18,ball,critical,C,50,ball40.jpg,ball60.jpg,low,NULL
1687288291,7ba3ad5f221d97984ac3f5a03250e0e5,PennController,21,0,experiment,NULL,PennController,20,_Header_,End,1687288241847,60ccbd6213c0485029e86d97,60ccbd6213c0485029e86d97,18,ball,critical,C,50,ball40.jpg,ball60.jpg,low,NULL
1687288291,7ba3ad5f221d97984ac3f5a03250e0e5,PennController,21,0,experiment,NULL,Canvas,canvas6,Print,NA,1687288248629,60ccbd6213c0485029e86d97,60ccbd6213c0485029e86d97,18,ball,critical,C,50,ball40.jpg,ball60.jpg,low,NULL
1687288291,7ba3ad5f221d97984ac3f5a03250e0e5,PennController,21,0,experiment,NULL,Video,progression,buffer,0.033641,1687288245465,60ccbd6213c0485029e86d97,60ccbd6213c0485029e86d97,18,ball,critical,C,50,ball40.jpg,ball60.jpg,low,NULL
1687288291,7ba3ad5f221d97984ac3f5a03250e0e5,PennController,21,0,experiment,NULL,Selector,choice,Selection,option2,1687288250896,60ccbd6213c0485029e86d97,60ccbd6213c0485029e86d97,18,ball,critical,C,50,ball40.jpg,ball60.jpg,low,option1;option2
1687288291,7ba3ad5f221d97984ac3f5a03250e0e5,PennController,21,0,experiment,NULL,PennController,20,_Trial_,End,1687288250908,60ccbd6213c0485029e86d97,60ccbd6213c0485029e86d97,18,ball,critical,C,50,ball40.jpg,ball60.jpg,low,NULL
1687288291,7ba3ad5f221d97984ac3f5a03250e0e5,PennController,22,0,experiment,NULL,PennController,21,_Trial_,Start,1687288250912,60ccbd6213c0485029e86d97,60ccbd6213c0485029e86d97,19,cup,filler,C,75,cup65.jpg,cup85.jpg,GoalA,NULL
1687288291,7ba3ad5f221d97984ac3f5a03250e0e5,PennController,22,0,experiment,NULL,PennController,21,_Header_,Start,1687288250912,60ccbd6213c0485029e86d97,60ccbd6213c0485029e86d97,19,cup,filler,C,75,cup65.jpg,cup85.jpg,GoalA,NULL
1687288291,7ba3ad5f221d97984ac3f5a03250e0e5,PennController,22,0,experiment,NULL,PennController,21,_Header_,End,1687288250913,60ccbd6213c0485029e86d97,60ccbd6213c0485029e86d97,19,cup,filler,C,75,cup65.jpg,cup85.jpg,GoalA,NULL
1687288291,7ba3ad5f221d97984ac3f5a03250e0e5,PennController,22,0,experiment,NULL,Canvas,canvas6,Print,NA,1687288258666,60ccbd6213c0485029e86d97,60ccbd6213c0485029e86d97,19,cup,filler,C,75,cup65.jpg,cup85.jpg,GoalA,NULL
1687288291,7ba3ad5f221d97984ac3f5a03250e0e5,PennController,22,0,experiment,NULL,Video,progression,buffer,0.02263,1687288254484,60ccbd6213c0485029e86d97,60ccbd6213c0485029e86d97,19,cup,filler,C,75,cup65.jpg,cup85.jpg,GoalA,NULL
1687288291,7ba3ad5f221d97984ac3f5a03250e0e5,PennController,22,0,experiment,NULL,Selector,choice,Selection,option1,1687288261557,60ccbd6213c0485029e86d97,60ccbd6213c0485029e86d97,19,cup,filler,C,75,cup65.jpg,cup85.jpg,GoalA,option1;option2
1687288291,7ba3ad5f221d97984ac3f5a03250e0e5,PennController,22,0,experiment,NULL,PennController,21,_Trial_,End,1687288261563,60ccbd6213c0485029e86d97,60ccbd6213c0485029e86d97,19,cup,filler,C,75,cup65.jpg,cup85.jpg,GoalA,NULL
1687288291,7ba3ad5f221d97984ac3f5a03250e0e5,PennController,15,0,experiment,NULL,PennController,14,_Trial_,Start,1687288261567,60ccbd6213c0485029e86d97,60ccbd6213c0485029e86d97,12,erase,critical,C,50,erase42.jpg,erase60.jpg,low,NULL
1687288291,7ba3ad5f221d97984ac3f5a03250e0e5,PennController,15,0,experiment,NULL,PennController,14,_Header_,Start,1687288261567,60ccbd6213c0485029e86d97,60ccbd6213c0485029e86d97,12,erase,critical,C,50,erase42.jpg,erase60.jpg,low,NULL
1687288291,7ba3ad5f221d97984ac3f5a03250e0e5,PennController,15,0,experiment,NULL,PennController,14,_Header_,End,1687288261567,60ccbd6213c0485029e86d97,60ccbd6213c0485029e86d97,12,erase,critical,C,50,erase42.jpg,erase60.jpg,low,NULL
1687288291,7ba3ad5f221d97984ac3f5a03250e0e5,PennController,15,0,experiment,NULL,Canvas,canvas6,Print,NA,1687288269730,60ccbd6213c0485029e86d97,60ccbd6213c0485029e86d97,12,erase,critical,C,50,erase42.jpg,erase60.jpg,low,NULL
1687288291,7ba3ad5f221d97984ac3f5a03250e0e5,PennController,15,0,experiment,NULL,Video,progression,buffer,0.027669,1687288265153,60ccbd6213c0485029e86d97,60ccbd6213c0485029e86d97,12,erase,critical,C,50,erase42.jpg,erase60.jpg,low,NULL
1687288291,7ba3ad5f221d97984ac3f5a03250e0e5,PennController,15,0,experiment,NULL,Selector,choice,Selection,option2,1687288271805,60ccbd6213c0485029e86d97,60ccbd6213c0485029e86d97,12,erase,critical,C,50,erase42.jpg,erase60.jpg,low,option1;option2
1687288291,7ba3ad5f221d97984ac3f5a03250e0e5,PennController,15,0,experiment,NULL,PennController,14,_Trial_,End,1687288271813,60ccbd6213c0485029e86d97,60ccbd6213c0485029e86d97,12,erase,critical,C,50,erase42.jpg,erase60.jpg,low,NULL
1687288291,7ba3ad5f221d97984ac3f5a03250e0e5,PennController,9,0,experiment,NULL,PennController,8,_Trial_,Start,1687288271820,60ccbd6213c0485029e86d97,60ccbd6213c0485029e86d97,6,flower,critical,C,50,flower40.jpg,flower60.jpg,low,NULL
1687288291,7ba3ad5f221d97984ac3f5a03250e0e5,PennController,9,0,experiment,NULL,PennController,8,_Header_,Start,1687288271820,60ccbd6213c0485029e86d97,60ccbd6213c0485029e86d97,6,flower,critical,C,50,flower40.jpg,flower60.jpg,low,NULL
1687288291,7ba3ad5f221d97984ac3f5a03250e0e5,PennController,9,0,experiment,NULL,PennController,8,_Header_,End,1687288271820,60ccbd6213c0485029e86d97,60ccbd6213c0485029e86d97,6,flower,critical,C,50,flower40.jpg,flower60.jpg,low,NULL
1687288291,7ba3ad5f221d97984ac3f5a03250e0e5,PennController,9,0,experiment,NULL,Canvas,canvas6,Print,NA,1687288278581,60ccbd6213c0485029e86d97,60ccbd6213c0485029e86d97,6,flower,critical,C,50,flower40.jpg,flower60.jpg,low,NULL
1687288291,7ba3ad5f221d97984ac3f5a03250e0e5,PennController,9,0,experiment,NULL,Video,progression,buffer,0.025837,1687288275399,60ccbd6213c0485029e86d97,60ccbd6213c0485029e86d97,6,flower,critical,C,50,flower40.jpg,flower60.jpg,low,NULL
1687288291,7ba3ad5f221d97984ac3f5a03250e0e5,PennController,9,0,experiment,NULL,Selector,choice,Selection,option2,1687288280075,60ccbd6213c0485029e86d97,60ccbd6213c0485029e86d97,6,flower,critical,C,50,flower40.jpg,flower60.jpg,low,option1;option2
1687288291,7ba3ad5f221d97984ac3f5a03250e0e5,PennController,9,0,experiment,NULL,PennController,8,_Trial_,End,1687288280083,60ccbd6213c0485029e86d97,60ccbd6213c0485029e86d97,6,flower,critical,C,50,flower40.jpg,flower60.jpg,low,NULL
1687288291,7ba3ad5f221d97984ac3f5a03250e0e5,PennController,4,0,experiment,NULL,PennController,3,_Trial_,Start,1687288280093,60ccbd6213c0485029e86d97,60ccbd6213c0485029e86d97,1,vase,critical,C,75,vase65.jpg,vase85.jpg,low,NULL
1687288291,7ba3ad5f221d97984ac3f5a03250e0e5,PennController,4,0,experiment,NULL,PennController,3,_Header_,Start,1687288280093,60ccbd6213c0485029e86d97,60ccbd6213c0485029e86d97,1,vase,critical,C,75,vase65.jpg,vase85.jpg,low,NULL
1687288291,7ba3ad5f221d97984ac3f5a03250e0e5,PennController,4,0,experiment,NULL,PennController,3,_Header_,End,1687288280094,60ccbd6213c0485029e86d97,60ccbd6213c0485029e86d97,1,vase,critical,C,75,vase65.jpg,vase85.jpg,low,NULL
1687288291,7ba3ad5f221d97984ac3f5a03250e0e5,PennController,4,0,experiment,NULL,Canvas,canvas6,Print,NA,1687288287855,60ccbd6213c0485029e86d97,60ccbd6213c0485029e86d97,1,vase,critical,C,75,vase65.jpg,vase85.jpg,low,NULL
1687288291,7ba3ad5f221d97984ac3f5a03250e0e5,PennController,4,0,experiment,NULL,Video,progression,buffer,0.027989,1687288283692,60ccbd6213c0485029e86d97,60ccbd6213c0485029e86d97,1,vase,critical,C,75,vase65.jpg,vase85.jpg,low,NULL
1687288291,7ba3ad5f221d97984ac3f5a03250e0e5,PennController,4,0,experiment,NULL,Selector,choice,Selection,option2,1687288289665,60ccbd6213c0485029e86d97,60ccbd6213c0485029e86d97,1,vase,critical,C,75,vase65.jpg,vase85.jpg,low,option2;option1
1687288291,7ba3ad5f221d97984ac3f5a03250e0e5,PennController,4,0,experiment,NULL,PennController,3,_Trial_,End,1687288289676,60ccbd6213c0485029e86d97,60ccbd6213c0485029e86d97,1,vase,critical,C,75,vase65.jpg,vase85.jpg,low,NULL
