#
# Results on Tuesday June 20 2023 18:55:47 UTC
# USER AGENT: Mozilla/5.0 (Windows NT 10.0; Win64; x64) AppleWebKit/537.36 (KHTML, like Gecko) Chrome/114.0.0.0 Safari/537.36
# Design number was non-random = 3
#
# Columns below this comment are as follows:
# 1. Results reception time.
# 2. MD5 hash of participant's IP address.
# 3. Controller name.
# 4. Order number of item.
# 5. Inner element number.
# 6. Label.
# 7. Latin Square Group.
# 8. PennElementType.
# 9. PennElementName.
# 10. Parameter.
# 11. Value.
# 12. EventTime.
# 13. PROLIFIC_ID.
# 14. Comments.
1687287347,03b7f79bab2f75f6773803fafdf49a88,PennController,2,0,consent,NULL,PennController,0,_Trial_,Start,1687287067718,61517db026b2083b278df893,NULL
1687287347,03b7f79bab2f75f6773803fafdf49a88,PennController,2,0,consent,NULL,PennController,0,_Header_,Start,1687287067718,61517db026b2083b278df893,NULL
1687287347,03b7f79bab2f75f6773803fafdf49a88,PennController,2,0,consent,NULL,PennController,0,_Header_,End,1687287067718,61517db026b2083b278df893,NULL
1687287347,03b7f79bab2f75f6773803fafdf49a88,PennController,2,0,consent,NULL,PennController,0,_Trial_,End,1687287072066,61517db026b2083b278df893,NULL
# Columns below this comment are as follows:
# 14. ID.
# 15. Comments.
1687287347,03b7f79bab2f75f6773803fafdf49a88,PennController,3,0,intro,NULL,PennController,1,_Trial_,Start,1687287072070,61517db026b2083b278df893,61517db026b2083b278df893,NULL
1687287347,03b7f79bab2f75f6773803fafdf49a88,PennController,3,0,intro,NULL,PennController,1,_Header_,Start,1687287072070,61517db026b2083b278df893,61517db026b2083b278df893,NULL
1687287347,03b7f79bab2f75f6773803fafdf49a88,PennController,3,0,intro,NULL,PennController,1,_Header_,End,1687287072071,61517db026b2083b278df893,61517db026b2083b278df893,NULL
1687287347,03b7f79bab2f75f6773803fafdf49a88,PennController,3,0,intro,NULL,PennController,1,_Trial_,End,1687287089646,61517db026b2083b278df893,61517db026b2083b278df893,NULL
# Columns below this comment are as follows:
# 15. item_number.
# 16. item.
# 17. type.
# 18. Group.
# 19. prog.
# 20. prev_image.
# 21. next_image.
# 22. height.
# 23. Comments.
1687287347,03b7f79bab2f75f6773803fafdf49a88,PennController,9,0,experiment,NULL,PennController,8,_Trial_,Start,1687287089650,61517db026b2083b278df893,61517db026b2083b278df893,6,flower,critical,D,75,flower65.jpg,flower85.jpg,high,NULL
1687287347,03b7f79bab2f75f6773803fafdf49a88,PennController,9,0,experiment,NULL,PennController,8,_Header_,Start,1687287089650,61517db026b2083b278df893,61517db026b2083b278df893,6,flower,critical,D,75,flower65.jpg,flower85.jpg,high,NULL
1687287347,03b7f79bab2f75f6773803fafdf49a88,PennController,9,0,experiment,NULL,PennController,8,_Header_,End,1687287089650,61517db026b2083b278df893,61517db026b2083b278df893,6,flower,critical,D,75,flower65.jpg,flower85.jpg,high,NULL
1687287347,03b7f79bab2f75f6773803fafdf49a88,PennController,9,0,experiment,NULL,Canvas,canvas6,Print,NA,1687287097392,61517db026b2083b278df893,61517db026b2083b278df893,6,flower,critical,D,75,flower65.jpg,flower85.jpg,high,NULL
1687287347,03b7f79bab2f75f6773803fafdf49a88,PennController,9,0,experiment,NULL,Video,progression,buffer,0.007134,1687287093211,61517db026b2083b278df893,61517db026b2083b278df893,6,flower,critical,D,75,flower65.jpg,flower85.jpg,high,NULL
1687287347,03b7f79bab2f75f6773803fafdf49a88,PennController,9,0,experiment,NULL,Selector,choice,Selection,option1,1687287101287,61517db026b2083b278df893,61517db026b2083b278df893,6,flower,critical,D,75,flower65.jpg,flower85.jpg,high,option1;option2
1687287347,03b7f79bab2f75f6773803fafdf49a88,PennController,9,0,experiment,NULL,PennController,8,_Trial_,End,1687287101290,61517db026b2083b278df893,61517db026b2083b278df893,6,flower,critical,D,75,flower65.jpg,flower85.jpg,high,NULL
1687287347,03b7f79bab2f75f6773803fafdf49a88,PennController,5,0,experiment,NULL,PennController,4,_Trial_,Start,1687287101293,61517db026b2083b278df893,61517db026b2083b278df893,2,door,critical,D,50,door40.jpg,door60.jpg,high,NULL
1687287347,03b7f79bab2f75f6773803fafdf49a88,PennController,5,0,experiment,NULL,PennController,4,_Header_,Start,1687287101293,61517db026b2083b278df893,61517db026b2083b278df893,2,door,critical,D,50,door40.jpg,door60.jpg,high,NULL
1687287347,03b7f79bab2f75f6773803fafdf49a88,PennController,5,0,experiment,NULL,PennController,4,_Header_,End,1687287101293,61517db026b2083b278df893,61517db026b2083b278df893,2,door,critical,D,50,door40.jpg,door60.jpg,high,NULL
1687287347,03b7f79bab2f75f6773803fafdf49a88,PennController,5,0,experiment,NULL,Canvas,canvas6,Print,NA,1687287108092,61517db026b2083b278df893,61517db026b2083b278df893,2,door,critical,D,50,door40.jpg,door60.jpg,high,NULL
1687287347,03b7f79bab2f75f6773803fafdf49a88,PennController,5,0,experiment,NULL,Video,progression,buffer,0,1687287104839,61517db026b2083b278df893,61517db026b2083b278df893,2,door,critical,D,50,door40.jpg,door60.jpg,high,NULL
1687287347,03b7f79bab2f75f6773803fafdf49a88,PennController,5,0,experiment,NULL,Selector,choice,Selection,option2,1687287111840,61517db026b2083b278df893,61517db026b2083b278df893,2,door,critical,D,50,door40.jpg,door60.jpg,high,option1;option2
1687287347,03b7f79bab2f75f6773803fafdf49a88,PennController,5,0,experiment,NULL,PennController,4,_Trial_,End,1687287111843,61517db026b2083b278df893,61517db026b2083b278df893,2,door,critical,D,50,door40.jpg,door60.jpg,high,NULL
1687287347,03b7f79bab2f75f6773803fafdf49a88,PennController,6,0,experiment,NULL,PennController,5,_Trial_,Start,1687287111846,61517db026b2083b278df893,61517db026b2083b278df893,3,clean,critical,D,75,clean65.jpg,clean85.jpg,high,NULL
1687287347,03b7f79bab2f75f6773803fafdf49a88,PennController,6,0,experiment,NULL,PennController,5,_Header_,Start,1687287111846,61517db026b2083b278df893,61517db026b2083b278df893,3,clean,critical,D,75,clean65.jpg,clean85.jpg,high,NULL
1687287347,03b7f79bab2f75f6773803fafdf49a88,PennController,6,0,experiment,NULL,PennController,5,_Header_,End,1687287111846,61517db026b2083b278df893,61517db026b2083b278df893,3,clean,critical,D,75,clean65.jpg,clean85.jpg,high,NULL
1687287347,03b7f79bab2f75f6773803fafdf49a88,PennController,6,0,experiment,NULL,Canvas,canvas6,Print,NA,1687287119559,61517db026b2083b278df893,61517db026b2083b278df893,3,clean,critical,D,75,clean65.jpg,clean85.jpg,high,NULL
1687287347,03b7f79bab2f75f6773803fafdf49a88,PennController,6,0,experiment,NULL,Video,progression,buffer,0.011678,1687287115392,61517db026b2083b278df893,61517db026b2083b278df893,3,clean,critical,D,75,clean65.jpg,clean85.jpg,high,NULL
1687287347,03b7f79bab2f75f6773803fafdf49a88,PennController,6,0,experiment,NULL,Selector,choice,Selection,option1,1687287121249,61517db026b2083b278df893,61517db026b2083b278df893,3,clean,critical,D,75,clean65.jpg,clean85.jpg,high,option1;option2
1687287347,03b7f79bab2f75f6773803fafdf49a88,PennController,6,0,experiment,NULL,PennController,5,_Trial_,End,1687287121251,61517db026b2083b278df893,61517db026b2083b278df893,3,clean,critical,D,75,clean65.jpg,clean85.jpg,high,NULL
1687287347,03b7f79bab2f75f6773803fafdf49a88,PennController,25,0,experiment,NULL,PennController,24,_Trial_,Start,1687287121253,61517db026b2083b278df893,61517db026b2083b278df893,22,wall,filler,D,25,wall15.jpg,wall35.jpg,GoalA,NULL
1687287347,03b7f79bab2f75f6773803fafdf49a88,PennController,25,0,experiment,NULL,PennController,24,_Header_,Start,1687287121253,61517db026b2083b278df893,61517db026b2083b278df893,22,wall,filler,D,25,wall15.jpg,wall35.jpg,GoalA,NULL
1687287347,03b7f79bab2f75f6773803fafdf49a88,PennController,25,0,experiment,NULL,PennController,24,_Header_,End,1687287121254,61517db026b2083b278df893,61517db026b2083b278df893,22,wall,filler,D,25,wall15.jpg,wall35.jpg,GoalA,NULL
1687287347,03b7f79bab2f75f6773803fafdf49a88,PennController,25,0,experiment,NULL,Canvas,canvas6,Print,NA,1687287126971,61517db026b2083b278df893,61517db026b2083b278df893,22,wall,filler,D,25,wall15.jpg,wall35.jpg,GoalA,NULL
1687287347,03b7f79bab2f75f6773803fafdf49a88,PennController,25,0,experiment,NULL,Video,progression,buffer,0.004294,1687287124795,61517db026b2083b278df893,61517db026b2083b278df893,22,wall,filler,D,25,wall15.jpg,wall35.jpg,GoalA,NULL
1687287347,03b7f79bab2f75f6773803fafdf49a88,PennController,25,0,experiment,NULL,Selector,choice,Selection,option2,1687287130194,61517db026b2083b278df893,61517db026b2083b278df893,22,wall,filler,D,25,wall15.jpg,wall35.jpg,GoalA,option2;option1
1687287347,03b7f79bab2f75f6773803fafdf49a88,PennController,25,0,experiment,NULL,PennController,24,_Trial_,End,1687287130196,61517db026b2083b278df893,61517db026b2083b278df893,22,wall,filler,D,25,wall15.jpg,wall35.jpg,GoalA,NULL
1687287347,03b7f79bab2f75f6773803fafdf49a88,PennController,11,0,experiment,NULL,PennController,10,_Trial_,Start,1687287130198,61517db026b2083b278df893,61517db026b2083b278df893,8,cucumber,critical,D,50,cucumber42.jpg,cucumber60.jpg,high,NULL
1687287347,03b7f79bab2f75f6773803fafdf49a88,PennController,11,0,experiment,NULL,PennController,10,_Header_,Start,1687287130198,61517db026b2083b278df893,61517db026b2083b278df893,8,cucumber,critical,D,50,cucumber42.jpg,cucumber60.jpg,high,NULL
1687287347,03b7f79bab2f75f6773803fafdf49a88,PennController,11,0,experiment,NULL,PennController,10,_Header_,End,1687287130198,61517db026b2083b278df893,61517db026b2083b278df893,8,cucumber,critical,D,50,cucumber42.jpg,cucumber60.jpg,high,NULL
1687287347,03b7f79bab2f75f6773803fafdf49a88,PennController,11,0,experiment,NULL,Canvas,canvas6,Print,NA,1687287138302,61517db026b2083b278df893,61517db026b2083b278df893,8,cucumber,critical,D,50,cucumber42.jpg,cucumber60.jpg,high,NULL
1687287347,03b7f79bab2f75f6773803fafdf49a88,PennController,11,0,experiment,NULL,Video,progression,buffer,0.005009,1687287133736,61517db026b2083b278df893,61517db026b2083b278df893,8,cucumber,critical,D,50,cucumber42.jpg,cucumber60.jpg,high,NULL
1687287347,03b7f79bab2f75f6773803fafdf49a88,PennController,11,0,experiment,NULL,Selector,choice,Selection,option1,1687287139748,61517db026b2083b278df893,61517db026b2083b278df893,8,cucumber,critical,D,50,cucumber42.jpg,cucumber60.jpg,high,option1;option2
1687287347,03b7f79bab2f75f6773803fafdf49a88,PennController,11,0,experiment,NULL,PennController,10,_Trial_,End,1687287139750,61517db026b2083b278df893,61517db026b2083b278df893,8,cucumber,critical,D,50,cucumber42.jpg,cucumber60.jpg,high,NULL
1687287347,03b7f79bab2f75f6773803fafdf49a88,PennController,29,0,experiment,NULL,PennController,28,_Trial_,Start,1687287139752,61517db026b2083b278df893,61517db026b2083b278df893,26,sandwich,filler,D,50,sandwich40.jpg,sandwich60.jpg,GoalA,NULL
1687287347,03b7f79bab2f75f6773803fafdf49a88,PennController,29,0,experiment,NULL,PennController,28,_Header_,Start,1687287139752,61517db026b2083b278df893,61517db026b2083b278df893,26,sandwich,filler,D,50,sandwich40.jpg,sandwich60.jpg,GoalA,NULL
1687287347,03b7f79bab2f75f6773803fafdf49a88,PennController,29,0,experiment,NULL,PennController,28,_Header_,End,1687287139752,61517db026b2083b278df893,61517db026b2083b278df893,26,sandwich,filler,D,50,sandwich40.jpg,sandwich60.jpg,GoalA,NULL
1687287347,03b7f79bab2f75f6773803fafdf49a88,PennController,29,0,experiment,NULL,Canvas,canvas6,Print,NA,1687287146451,61517db026b2083b278df893,61517db026b2083b278df893,26,sandwich,filler,D,50,sandwich40.jpg,sandwich60.jpg,GoalA,NULL
1687287347,03b7f79bab2f75f6773803fafdf49a88,PennController,29,0,experiment,NULL,Video,progression,buffer,0.004229,1687287143283,61517db026b2083b278df893,61517db026b2083b278df893,26,sandwich,filler,D,50,sandwich40.jpg,sandwich60.jpg,GoalA,NULL
1687287347,03b7f79bab2f75f6773803fafdf49a88,PennController,29,0,experiment,NULL,Selector,choice,Selection,option1,1687287148021,61517db026b2083b278df893,61517db026b2083b278df893,26,sandwich,filler,D,50,sandwich40.jpg,sandwich60.jpg,GoalA,option2;option1
1687287347,03b7f79bab2f75f6773803fafdf49a88,PennController,29,0,experiment,NULL,PennController,28,_Trial_,End,1687287148023,61517db026b2083b278df893,61517db026b2083b278df893,26,sandwich,filler,D,50,sandwich40.jpg,sandwich60.jpg,GoalA,NULL
1687287347,03b7f79bab2f75f6773803fafdf49a88,PennController,22,0,experiment,NULL,PennController,21,_Trial_,Start,1687287148024,61517db026b2083b278df893,61517db026b2083b278df893,19,cup,filler,D,25,cup15.jpg,cup35.jpg,GoalB,NULL
1687287347,03b7f79bab2f75f6773803fafdf49a88,PennController,22,0,experiment,NULL,PennController,21,_Header_,Start,1687287148024,61517db026b2083b278df893,61517db026b2083b278df893,19,cup,filler,D,25,cup15.jpg,cup35.jpg,GoalB,NULL
1687287347,03b7f79bab2f75f6773803fafdf49a88,PennController,22,0,experiment,NULL,PennController,21,_Header_,End,1687287148025,61517db026b2083b278df893,61517db026b2083b278df893,19,cup,filler,D,25,cup15.jpg,cup35.jpg,GoalB,NULL
1687287347,03b7f79bab2f75f6773803fafdf49a88,PennController,22,0,experiment,NULL,Canvas,canvas6,Print,NA,1687287153729,61517db026b2083b278df893,61517db026b2083b278df893,19,cup,filler,D,25,cup15.jpg,cup35.jpg,GoalB,NULL
1687287347,03b7f79bab2f75f6773803fafdf49a88,PennController,22,0,experiment,NULL,Video,progression,buffer,0.005464,1687287151555,61517db026b2083b278df893,61517db026b2083b278df893,19,cup,filler,D,25,cup15.jpg,cup35.jpg,GoalB,NULL
1687287347,03b7f79bab2f75f6773803fafdf49a88,PennController,22,0,experiment,NULL,Selector,choice,Selection,option2,1687287155127,61517db026b2083b278df893,61517db026b2083b278df893,19,cup,filler,D,25,cup15.jpg,cup35.jpg,GoalB,option1;option2
1687287347,03b7f79bab2f75f6773803fafdf49a88,PennController,22,0,experiment,NULL,PennController,21,_Trial_,End,1687287155129,61517db026b2083b278df893,61517db026b2083b278df893,19,cup,filler,D,25,cup15.jpg,cup35.jpg,GoalB,NULL
1687287347,03b7f79bab2f75f6773803fafdf49a88,PennController,26,0,experiment,NULL,PennController,25,_Trial_,Start,1687287155132,61517db026b2083b278df893,61517db026b2083b278df893,23,color,filler,D,50,color40.jpg,color60.jpg,GoalB,NULL
1687287347,03b7f79bab2f75f6773803fafdf49a88,PennController,26,0,experiment,NULL,PennController,25,_Header_,Start,1687287155132,61517db026b2083b278df893,61517db026b2083b278df893,23,color,filler,D,50,color40.jpg,color60.jpg,GoalB,NULL
1687287347,03b7f79bab2f75f6773803fafdf49a88,PennController,26,0,experiment,NULL,PennController,25,_Header_,End,1687287155132,61517db026b2083b278df893,61517db026b2083b278df893,23,color,filler,D,50,color40.jpg,color60.jpg,GoalB,NULL
1687287347,03b7f79bab2f75f6773803fafdf49a88,PennController,26,0,experiment,NULL,Canvas,canvas6,Print,NA,1687287161822,61517db026b2083b278df893,61517db026b2083b278df893,23,color,filler,D,50,color40.jpg,color60.jpg,GoalB,NULL
1687287347,03b7f79bab2f75f6773803fafdf49a88,PennController,26,0,experiment,NULL,Video,progression,buffer,0.004354,1687287158660,61517db026b2083b278df893,61517db026b2083b278df893,23,color,filler,D,50,color40.jpg,color60.jpg,GoalB,NULL
1687287347,03b7f79bab2f75f6773803fafdf49a88,PennController,26,0,experiment,NULL,Selector,choice,Selection,option2,1687287165855,61517db026b2083b278df893,61517db026b2083b278df893,23,color,filler,D,50,color40.jpg,color60.jpg,GoalB,option1;option2
1687287347,03b7f79bab2f75f6773803fafdf49a88,PennController,26,0,experiment,NULL,PennController,25,_Trial_,End,1687287165857,61517db026b2083b278df893,61517db026b2083b278df893,23,color,filler,D,50,color40.jpg,color60.jpg,GoalB,NULL
1687287347,03b7f79bab2f75f6773803fafdf49a88,PennController,31,0,experiment,NULL,PennController,30,_Trial_,Start,1687287165859,61517db026b2083b278df893,61517db026b2083b278df893,28,sort,filler,D,25,sort15.jpg,sort35.jpg,GoalA,NULL
1687287347,03b7f79bab2f75f6773803fafdf49a88,PennController,31,0,experiment,NULL,PennController,30,_Header_,Start,1687287165859,61517db026b2083b278df893,61517db026b2083b278df893,28,sort,filler,D,25,sort15.jpg,sort35.jpg,GoalA,NULL
1687287347,03b7f79bab2f75f6773803fafdf49a88,PennController,31,0,experiment,NULL,PennController,30,_Header_,End,1687287165859,61517db026b2083b278df893,61517db026b2083b278df893,28,sort,filler,D,25,sort15.jpg,sort35.jpg,GoalA,NULL
1687287347,03b7f79bab2f75f6773803fafdf49a88,PennController,31,0,experiment,NULL,Canvas,canvas6,Print,NA,1687287171573,61517db026b2083b278df893,61517db026b2083b278df893,28,sort,filler,D,25,sort15.jpg,sort35.jpg,GoalA,NULL
1687287347,03b7f79bab2f75f6773803fafdf49a88,PennController,31,0,experiment,NULL,Video,progression,buffer,0.008181,1687287169401,61517db026b2083b278df893,61517db026b2083b278df893,28,sort,filler,D,25,sort15.jpg,sort35.jpg,GoalA,NULL
1687287347,03b7f79bab2f75f6773803fafdf49a88,PennController,31,0,experiment,NULL,Selector,choice,Selection,option2,1687287174728,61517db026b2083b278df893,61517db026b2083b278df893,28,sort,filler,D,25,sort15.jpg,sort35.jpg,GoalA,option2;option1
1687287347,03b7f79bab2f75f6773803fafdf49a88,PennController,31,0,experiment,NULL,PennController,30,_Trial_,End,1687287174730,61517db026b2083b278df893,61517db026b2083b278df893,28,sort,filler,D,25,sort15.jpg,sort35.jpg,GoalA,NULL
1687287347,03b7f79bab2f75f6773803fafdf49a88,PennController,32,0,experiment,NULL,PennController,31,_Trial_,Start,1687287174732,61517db026b2083b278df893,61517db026b2083b278df893,29,frog,filler,D,50,frog40.jpg,frog60.jpg,GoalB,NULL
1687287347,03b7f79bab2f75f6773803fafdf49a88,PennController,32,0,experiment,NULL,PennController,31,_Header_,Start,1687287174732,61517db026b2083b278df893,61517db026b2083b278df893,29,frog,filler,D,50,frog40.jpg,frog60.jpg,GoalB,NULL
1687287347,03b7f79bab2f75f6773803fafdf49a88,PennController,32,0,experiment,NULL,PennController,31,_Header_,End,1687287174732,61517db026b2083b278df893,61517db026b2083b278df893,29,frog,filler,D,50,frog40.jpg,frog60.jpg,GoalB,NULL
1687287347,03b7f79bab2f75f6773803fafdf49a88,PennController,32,0,experiment,NULL,Canvas,canvas6,Print,NA,1687287181434,61517db026b2083b278df893,61517db026b2083b278df893,29,frog,filler,D,50,frog40.jpg,frog60.jpg,GoalB,NULL
1687287347,03b7f79bab2f75f6773803fafdf49a88,PennController,32,0,experiment,NULL,Video,progression,buffer,0.005385,1687287178266,61517db026b2083b278df893,61517db026b2083b278df893,29,frog,filler,D,50,frog40.jpg,frog60.jpg,GoalB,NULL
1687287347,03b7f79bab2f75f6773803fafdf49a88,PennController,32,0,experiment,NULL,Selector,choice,Selection,option2,1687287183641,61517db026b2083b278df893,61517db026b2083b278df893,29,frog,filler,D,50,frog40.jpg,frog60.jpg,GoalB,option1;option2
1687287347,03b7f79bab2f75f6773803fafdf49a88,PennController,32,0,experiment,NULL,PennController,31,_Trial_,End,1687287183643,61517db026b2083b278df893,61517db026b2083b278df893,29,frog,filler,D,50,frog40.jpg,frog60.jpg,GoalB,NULL
1687287347,03b7f79bab2f75f6773803fafdf49a88,PennController,30,0,experiment,NULL,PennController,29,_Trial_,Start,1687287183644,61517db026b2083b278df893,61517db026b2083b278df893,27,square,filler,D,75,square65.jpg,square85.jpg,GoalB,NULL
1687287347,03b7f79bab2f75f6773803fafdf49a88,PennController,30,0,experiment,NULL,PennController,29,_Header_,Start,1687287183644,61517db026b2083b278df893,61517db026b2083b278df893,27,square,filler,D,75,square65.jpg,square85.jpg,GoalB,NULL
1687287347,03b7f79bab2f75f6773803fafdf49a88,PennController,30,0,experiment,NULL,PennController,29,_Header_,End,1687287183644,61517db026b2083b278df893,61517db026b2083b278df893,27,square,filler,D,75,square65.jpg,square85.jpg,GoalB,NULL
1687287347,03b7f79bab2f75f6773803fafdf49a88,PennController,30,0,experiment,NULL,Canvas,canvas6,Print,NA,1687287191354,61517db026b2083b278df893,61517db026b2083b278df893,27,square,filler,D,75,square65.jpg,square85.jpg,GoalB,NULL
1687287347,03b7f79bab2f75f6773803fafdf49a88,PennController,30,0,experiment,NULL,Video,progression,buffer,0.005186,1687287187186,61517db026b2083b278df893,61517db026b2083b278df893,27,square,filler,D,75,square65.jpg,square85.jpg,GoalB,NULL
1687287347,03b7f79bab2f75f6773803fafdf49a88,PennController,30,0,experiment,NULL,Selector,choice,Selection,option1,1687287193181,61517db026b2083b278df893,61517db026b2083b278df893,27,square,filler,D,75,square65.jpg,square85.jpg,GoalB,option1;option2
1687287347,03b7f79bab2f75f6773803fafdf49a88,PennController,30,0,experiment,NULL,PennController,29,_Trial_,End,1687287193183,61517db026b2083b278df893,61517db026b2083b278df893,27,square,filler,D,75,square65.jpg,square85.jpg,GoalB,NULL
1687287347,03b7f79bab2f75f6773803fafdf49a88,PennController,14,0,experiment,NULL,PennController,13,_Trial_,Start,1687287193185,61517db026b2083b278df893,61517db026b2083b278df893,11,beads,critical,D,50,beads40.jpg,beads60.jpg,high,NULL
1687287347,03b7f79bab2f75f6773803fafdf49a88,PennController,14,0,experiment,NULL,PennController,13,_Header_,Start,1687287193185,61517db026b2083b278df893,61517db026b2083b278df893,11,beads,critical,D,50,beads40.jpg,beads60.jpg,high,NULL
1687287347,03b7f79bab2f75f6773803fafdf49a88,PennController,14,0,experiment,NULL,PennController,13,_Header_,End,1687287193185,61517db026b2083b278df893,61517db026b2083b278df893,11,beads,critical,D,50,beads40.jpg,beads60.jpg,high,NULL
1687287347,03b7f79bab2f75f6773803fafdf49a88,PennController,14,0,experiment,NULL,Canvas,canvas6,Print,NA,1687287199876,61517db026b2083b278df893,61517db026b2083b278df893,11,beads,critical,D,50,beads40.jpg,beads60.jpg,high,NULL
1687287347,03b7f79bab2f75f6773803fafdf49a88,PennController,14,0,experiment,NULL,Video,progression,buffer,0.004308,1687287196719,61517db026b2083b278df893,61517db026b2083b278df893,11,beads,critical,D,50,beads40.jpg,beads60.jpg,high,NULL
1687287347,03b7f79bab2f75f6773803fafdf49a88,PennController,14,0,experiment,NULL,Selector,choice,Selection,option2,1687287201718,61517db026b2083b278df893,61517db026b2083b278df893,11,beads,critical,D,50,beads40.jpg,beads60.jpg,high,option1;option2
1687287347,03b7f79bab2f75f6773803fafdf49a88,PennController,14,0,experiment,NULL,PennController,13,_Trial_,End,1687287201720,61517db026b2083b278df893,61517db026b2083b278df893,11,beads,critical,D,50,beads40.jpg,beads60.jpg,high,NULL
1687287347,03b7f79bab2f75f6773803fafdf49a88,PennController,13,0,experiment,NULL,PennController,12,_Trial_,Start,1687287201721,61517db026b2083b278df893,61517db026b2083b278df893,10,train,critical,D,25,train15.jpg,train35.jpg,high,NULL
1687287347,03b7f79bab2f75f6773803fafdf49a88,PennController,13,0,experiment,NULL,PennController,12,_Header_,Start,1687287201721,61517db026b2083b278df893,61517db026b2083b278df893,10,train,critical,D,25,train15.jpg,train35.jpg,high,NULL
1687287347,03b7f79bab2f75f6773803fafdf49a88,PennController,13,0,experiment,NULL,PennController,12,_Header_,End,1687287201721,61517db026b2083b278df893,61517db026b2083b278df893,10,train,critical,D,25,train15.jpg,train35.jpg,high,NULL
1687287347,03b7f79bab2f75f6773803fafdf49a88,PennController,13,0,experiment,NULL,Canvas,canvas6,Print,NA,1687287207428,61517db026b2083b278df893,61517db026b2083b278df893,10,train,critical,D,25,train15.jpg,train35.jpg,high,NULL
1687287347,03b7f79bab2f75f6773803fafdf49a88,PennController,13,0,experiment,NULL,Video,progression,buffer,0.008537,1687287205260,61517db026b2083b278df893,61517db026b2083b278df893,10,train,critical,D,25,train15.jpg,train35.jpg,high,NULL
1687287347,03b7f79bab2f75f6773803fafdf49a88,PennController,13,0,experiment,NULL,Selector,choice,Selection,option1,1687287208958,61517db026b2083b278df893,61517db026b2083b278df893,10,train,critical,D,25,train15.jpg,train35.jpg,high,option2;option1
1687287347,03b7f79bab2f75f6773803fafdf49a88,PennController,13,0,experiment,NULL,PennController,12,_Trial_,End,1687287208960,61517db026b2083b278df893,61517db026b2083b278df893,10,train,critical,D,25,train15.jpg,train35.jpg,high,NULL
1687287347,03b7f79bab2f75f6773803fafdf49a88,PennController,15,0,experiment,NULL,PennController,14,_Trial_,Start,1687287208962,61517db026b2083b278df893,61517db026b2083b278df893,12,erase,critical,D,75,erase66.jpg,erase84.jpg,high,NULL
1687287347,03b7f79bab2f75f6773803fafdf49a88,PennController,15,0,experiment,NULL,PennController,14,_Header_,Start,1687287208962,61517db026b2083b278df893,61517db026b2083b278df893,12,erase,critical,D,75,erase66.jpg,erase84.jpg,high,NULL
1687287347,03b7f79bab2f75f6773803fafdf49a88,PennController,15,0,experiment,NULL,PennController,14,_Header_,End,1687287208962,61517db026b2083b278df893,61517db026b2083b278df893,12,erase,critical,D,75,erase66.jpg,erase84.jpg,high,NULL
1687287347,03b7f79bab2f75f6773803fafdf49a88,PennController,15,0,experiment,NULL,Canvas,canvas6,Print,NA,1687287218659,61517db026b2083b278df893,61517db026b2083b278df893,12,erase,critical,D,75,erase66.jpg,erase84.jpg,high,NULL
1687287347,03b7f79bab2f75f6773803fafdf49a88,PennController,15,0,experiment,NULL,Video,progression,buffer,0.004326,1687287212489,61517db026b2083b278df893,61517db026b2083b278df893,12,erase,critical,D,75,erase66.jpg,erase84.jpg,high,NULL
1687287347,03b7f79bab2f75f6773803fafdf49a88,PennController,15,0,experiment,NULL,Selector,choice,Selection,option1,1687287220916,61517db026b2083b278df893,61517db026b2083b278df893,12,erase,critical,D,75,erase66.jpg,erase84.jpg,high,option1;option2
1687287347,03b7f79bab2f75f6773803fafdf49a88,PennController,15,0,experiment,NULL,PennController,14,_Trial_,End,1687287220918,61517db026b2083b278df893,61517db026b2083b278df893,12,erase,critical,D,75,erase66.jpg,erase84.jpg,high,NULL
1687287347,03b7f79bab2f75f6773803fafdf49a88,PennController,4,0,experiment,NULL,PennController,3,_Trial_,Start,1687287220919,61517db026b2083b278df893,61517db026b2083b278df893,1,vase,critical,D,25,vase15.jpg,vase35.jpg,high,NULL
1687287347,03b7f79bab2f75f6773803fafdf49a88,PennController,4,0,experiment,NULL,PennController,3,_Header_,Start,1687287220919,61517db026b2083b278df893,61517db026b2083b278df893,1,vase,critical,D,25,vase15.jpg,vase35.jpg,high,NULL
1687287347,03b7f79bab2f75f6773803fafdf49a88,PennController,4,0,experiment,NULL,PennController,3,_Header_,End,1687287220919,61517db026b2083b278df893,61517db026b2083b278df893,1,vase,critical,D,25,vase15.jpg,vase35.jpg,high,NULL
1687287347,03b7f79bab2f75f6773803fafdf49a88,PennController,4,0,experiment,NULL,Canvas,canvas6,Print,NA,1687287226623,61517db026b2083b278df893,61517db026b2083b278df893,1,vase,critical,D,25,vase15.jpg,vase35.jpg,high,NULL
1687287347,03b7f79bab2f75f6773803fafdf49a88,PennController,4,0,experiment,NULL,Video,progression,buffer,0.007853,1687287224451,61517db026b2083b278df893,61517db026b2083b278df893,1,vase,critical,D,25,vase15.jpg,vase35.jpg,high,NULL
1687287347,03b7f79bab2f75f6773803fafdf49a88,PennController,4,0,experiment,NULL,Selector,choice,Selection,option2,1687287228885,61517db026b2083b278df893,61517db026b2083b278df893,1,vase,critical,D,25,vase15.jpg,vase35.jpg,high,option2;option1
1687287347,03b7f79bab2f75f6773803fafdf49a88,PennController,4,0,experiment,NULL,PennController,3,_Trial_,End,1687287228887,61517db026b2083b278df893,61517db026b2083b278df893,1,vase,critical,D,25,vase15.jpg,vase35.jpg,high,NULL
1687287347,03b7f79bab2f75f6773803fafdf49a88,PennController,8,0,experiment,NULL,PennController,7,_Trial_,Start,1687287228889,61517db026b2083b278df893,61517db026b2083b278df893,5,book,critical,D,50,book40.jpg,book60.jpg,high,NULL
1687287347,03b7f79bab2f75f6773803fafdf49a88,PennController,8,0,experiment,NULL,PennController,7,_Header_,Start,1687287228889,61517db026b2083b278df893,61517db026b2083b278df893,5,book,critical,D,50,book40.jpg,book60.jpg,high,NULL
1687287347,03b7f79bab2f75f6773803fafdf49a88,PennController,8,0,experiment,NULL,PennController,7,_Header_,End,1687287228889,61517db026b2083b278df893,61517db026b2083b278df893,5,book,critical,D,50,book40.jpg,book60.jpg,high,NULL
1687287347,03b7f79bab2f75f6773803fafdf49a88,PennController,8,0,experiment,NULL,Canvas,canvas6,Print,NA,1687287235598,61517db026b2083b278df893,61517db026b2083b278df893,5,book,critical,D,50,book40.jpg,book60.jpg,high,NULL
1687287347,03b7f79bab2f75f6773803fafdf49a88,PennController,8,0,experiment,NULL,Video,progression,buffer,0.008109,1687287232437,61517db026b2083b278df893,61517db026b2083b278df893,5,book,critical,D,50,book40.jpg,book60.jpg,high,NULL
1687287347,03b7f79bab2f75f6773803fafdf49a88,PennController,8,0,experiment,NULL,Selector,choice,Selection,option2,1687287237886,61517db026b2083b278df893,61517db026b2083b278df893,5,book,critical,D,50,book40.jpg,book60.jpg,high,option2;option1
1687287347,03b7f79bab2f75f6773803fafdf49a88,PennController,8,0,experiment,NULL,PennController,7,_Trial_,End,1687287237888,61517db026b2083b278df893,61517db026b2083b278df893,5,book,critical,D,50,book40.jpg,book60.jpg,high,NULL
1687287347,03b7f79bab2f75f6773803fafdf49a88,PennController,24,0,experiment,NULL,PennController,23,_Trial_,Start,1687287237889,61517db026b2083b278df893,61517db026b2083b278df893,21,visit,filler,D,75,visit65.jpg,visit85.jpg,GoalB,NULL
1687287347,03b7f79bab2f75f6773803fafdf49a88,PennController,24,0,experiment,NULL,PennController,23,_Header_,Start,1687287237889,61517db026b2083b278df893,61517db026b2083b278df893,21,visit,filler,D,75,visit65.jpg,visit85.jpg,GoalB,NULL
1687287347,03b7f79bab2f75f6773803fafdf49a88,PennController,24,0,experiment,NULL,PennController,23,_Header_,End,1687287237889,61517db026b2083b278df893,61517db026b2083b278df893,21,visit,filler,D,75,visit65.jpg,visit85.jpg,GoalB,NULL
1687287347,03b7f79bab2f75f6773803fafdf49a88,PennController,24,0,experiment,NULL,Canvas,canvas6,Print,NA,1687287245576,61517db026b2083b278df893,61517db026b2083b278df893,21,visit,filler,D,75,visit65.jpg,visit85.jpg,GoalB,NULL
1687287347,03b7f79bab2f75f6773803fafdf49a88,PennController,24,0,experiment,NULL,Video,progression,buffer,0.004384,1687287241420,61517db026b2083b278df893,61517db026b2083b278df893,21,visit,filler,D,75,visit65.jpg,visit85.jpg,GoalB,NULL
1687287347,03b7f79bab2f75f6773803fafdf49a88,PennController,24,0,experiment,NULL,Selector,choice,Selection,option2,1687287247071,61517db026b2083b278df893,61517db026b2083b278df893,21,visit,filler,D,75,visit65.jpg,visit85.jpg,GoalB,option1;option2
1687287347,03b7f79bab2f75f6773803fafdf49a88,PennController,24,0,experiment,NULL,PennController,23,_Trial_,End,1687287247072,61517db026b2083b278df893,61517db026b2083b278df893,21,visit,filler,D,75,visit65.jpg,visit85.jpg,GoalB,NULL
1687287347,03b7f79bab2f75f6773803fafdf49a88,PennController,16,0,experiment,NULL,PennController,15,_Trial_,Start,1687287247074,61517db026b2083b278df893,61517db026b2083b278df893,13,mix,critical,D,25,mix15.jpg,mix35.jpg,high,NULL
1687287347,03b7f79bab2f75f6773803fafdf49a88,PennController,16,0,experiment,NULL,PennController,15,_Header_,Start,1687287247074,61517db026b2083b278df893,61517db026b2083b278df893,13,mix,critical,D,25,mix15.jpg,mix35.jpg,high,NULL
1687287347,03b7f79bab2f75f6773803fafdf49a88,PennController,16,0,experiment,NULL,PennController,15,_Header_,End,1687287247074,61517db026b2083b278df893,61517db026b2083b278df893,13,mix,critical,D,25,mix15.jpg,mix35.jpg,high,NULL
1687287347,03b7f79bab2f75f6773803fafdf49a88,PennController,16,0,experiment,NULL,Canvas,canvas6,Print,NA,1687287252778,61517db026b2083b278df893,61517db026b2083b278df893,13,mix,critical,D,25,mix15.jpg,mix35.jpg,high,NULL
1687287347,03b7f79bab2f75f6773803fafdf49a88,PennController,16,0,experiment,NULL,Video,progression,buffer,0.008039,1687287250610,61517db026b2083b278df893,61517db026b2083b278df893,13,mix,critical,D,25,mix15.jpg,mix35.jpg,high,NULL
1687287347,03b7f79bab2f75f6773803fafdf49a88,PennController,16,0,experiment,NULL,Selector,choice,Selection,option1,1687287254256,61517db026b2083b278df893,61517db026b2083b278df893,13,mix,critical,D,25,mix15.jpg,mix35.jpg,high,option1;option2
1687287347,03b7f79bab2f75f6773803fafdf49a88,PennController,16,0,experiment,NULL,PennController,15,_Trial_,End,1687287254257,61517db026b2083b278df893,61517db026b2083b278df893,13,mix,critical,D,25,mix15.jpg,mix35.jpg,high,NULL
1687287347,03b7f79bab2f75f6773803fafdf49a88,PennController,19,0,experiment,NULL,PennController,18,_Trial_,Start,1687287254259,61517db026b2083b278df893,61517db026b2083b278df893,16,blinds,critical,D,25,blinds15.jpg,blinds33.jpg,high,NULL
1687287347,03b7f79bab2f75f6773803fafdf49a88,PennController,19,0,experiment,NULL,PennController,18,_Header_,Start,1687287254259,61517db026b2083b278df893,61517db026b2083b278df893,16,blinds,critical,D,25,blinds15.jpg,blinds33.jpg,high,NULL
1687287347,03b7f79bab2f75f6773803fafdf49a88,PennController,19,0,experiment,NULL,PennController,18,_Header_,End,1687287254259,61517db026b2083b278df893,61517db026b2083b278df893,16,blinds,critical,D,25,blinds15.jpg,blinds33.jpg,high,NULL
1687287347,03b7f79bab2f75f6773803fafdf49a88,PennController,19,0,experiment,NULL,Canvas,canvas6,Print,NA,1687287260560,61517db026b2083b278df893,61517db026b2083b278df893,16,blinds,critical,D,25,blinds15.jpg,blinds33.jpg,high,NULL
1687287347,03b7f79bab2f75f6773803fafdf49a88,PennController,19,0,experiment,NULL,Video,progression,buffer,0.004181,1687287257795,61517db026b2083b278df893,61517db026b2083b278df893,16,blinds,critical,D,25,blinds15.jpg,blinds33.jpg,high,NULL
1687287347,03b7f79bab2f75f6773803fafdf49a88,PennController,19,0,experiment,NULL,Selector,choice,Selection,option1,1687287261537,61517db026b2083b278df893,61517db026b2083b278df893,16,blinds,critical,D,25,blinds15.jpg,blinds33.jpg,high,option2;option1
1687287347,03b7f79bab2f75f6773803fafdf49a88,PennController,19,0,experiment,NULL,PennController,18,_Trial_,End,1687287261539,61517db026b2083b278df893,61517db026b2083b278df893,16,blinds,critical,D,25,blinds15.jpg,blinds33.jpg,high,NULL
1687287347,03b7f79bab2f75f6773803fafdf49a88,PennController,23,0,experiment,NULL,PennController,22,_Trial_,Start,1687287261541,61517db026b2083b278df893,61517db026b2083b278df893,20,cat,filler,D,50,cat40.jpg,cat60.jpg,GoalA,NULL
1687287347,03b7f79bab2f75f6773803fafdf49a88,PennController,23,0,experiment,NULL,PennController,22,_Header_,Start,1687287261541,61517db026b2083b278df893,61517db026b2083b278df893,20,cat,filler,D,50,cat40.jpg,cat60.jpg,GoalA,NULL
1687287347,03b7f79bab2f75f6773803fafdf49a88,PennController,23,0,experiment,NULL,PennController,22,_Header_,End,1687287261541,61517db026b2083b278df893,61517db026b2083b278df893,20,cat,filler,D,50,cat40.jpg,cat60.jpg,GoalA,NULL
1687287347,03b7f79bab2f75f6773803fafdf49a88,PennController,23,0,experiment,NULL,Canvas,canvas6,Print,NA,1687287268252,61517db026b2083b278df893,61517db026b2083b278df893,20,cat,filler,D,50,cat40.jpg,cat60.jpg,GoalA,NULL
1687287347,03b7f79bab2f75f6773803fafdf49a88,PennController,23,0,experiment,NULL,Video,progression,buffer,0.006096,1687287265094,61517db026b2083b278df893,61517db026b2083b278df893,20,cat,filler,D,50,cat40.jpg,cat60.jpg,GoalA,NULL
1687287347,03b7f79bab2f75f6773803fafdf49a88,PennController,23,0,experiment,NULL,Selector,choice,Selection,option2,1687287269890,61517db026b2083b278df893,61517db026b2083b278df893,20,cat,filler,D,50,cat40.jpg,cat60.jpg,GoalA,option1;option2
1687287347,03b7f79bab2f75f6773803fafdf49a88,PennController,23,0,experiment,NULL,PennController,22,_Trial_,End,1687287269892,61517db026b2083b278df893,61517db026b2083b278df893,20,cat,filler,D,50,cat40.jpg,cat60.jpg,GoalA,NULL
1687287347,03b7f79bab2f75f6773803fafdf49a88,PennController,20,0,experiment,NULL,PennController,19,_Trial_,Start,1687287269894,61517db026b2083b278df893,61517db026b2083b278df893,17,roll,critical,D,50,roll40.jpg,roll60.jpg,high,NULL
1687287347,03b7f79bab2f75f6773803fafdf49a88,PennController,20,0,experiment,NULL,PennController,19,_Header_,Start,1687287269894,61517db026b2083b278df893,61517db026b2083b278df893,17,roll,critical,D,50,roll40.jpg,roll60.jpg,high,NULL
1687287347,03b7f79bab2f75f6773803fafdf49a88,PennController,20,0,experiment,NULL,PennController,19,_Header_,End,1687287269894,61517db026b2083b278df893,61517db026b2083b278df893,17,roll,critical,D,50,roll40.jpg,roll60.jpg,high,NULL
1687287347,03b7f79bab2f75f6773803fafdf49a88,PennController,20,0,experiment,NULL,Canvas,canvas6,Print,NA,1687287276672,61517db026b2083b278df893,61517db026b2083b278df893,17,roll,critical,D,50,roll40.jpg,roll60.jpg,high,NULL
1687287347,03b7f79bab2f75f6773803fafdf49a88,PennController,20,0,experiment,NULL,Video,progression,buffer,0,1687287273433,61517db026b2083b278df893,61517db026b2083b278df893,17,roll,critical,D,50,roll40.jpg,roll60.jpg,high,NULL
1687287347,03b7f79bab2f75f6773803fafdf49a88,PennController,20,0,experiment,NULL,Selector,choice,Selection,option1,1687287278676,61517db026b2083b278df893,61517db026b2083b278df893,17,roll,critical,D,50,roll40.jpg,roll60.jpg,high,option1;option2
1687287347,03b7f79bab2f75f6773803fafdf49a88,PennController,20,0,experiment,NULL,PennController,19,_Trial_,End,1687287278678,61517db026b2083b278df893,61517db026b2083b278df893,17,roll,critical,D,50,roll40.jpg,roll60.jpg,high,NULL
1687287347,03b7f79bab2f75f6773803fafdf49a88,PennController,7,0,experiment,NULL,PennController,6,_Trial_,Start,1687287278680,61517db026b2083b278df893,61517db026b2083b278df893,4,candy,critical,D,25,candy15.jpg,candy35.jpg,high,NULL
1687287347,03b7f79bab2f75f6773803fafdf49a88,PennController,7,0,experiment,NULL,PennController,6,_Header_,Start,1687287278680,61517db026b2083b278df893,61517db026b2083b278df893,4,candy,critical,D,25,candy15.jpg,candy35.jpg,high,NULL
1687287347,03b7f79bab2f75f6773803fafdf49a88,PennController,7,0,experiment,NULL,PennController,6,_Header_,End,1687287278680,61517db026b2083b278df893,61517db026b2083b278df893,4,candy,critical,D,25,candy15.jpg,candy35.jpg,high,NULL
1687287347,03b7f79bab2f75f6773803fafdf49a88,PennController,7,0,experiment,NULL,Canvas,canvas6,Print,NA,1687287284383,61517db026b2083b278df893,61517db026b2083b278df893,4,candy,critical,D,25,candy15.jpg,candy35.jpg,high,NULL
1687287347,03b7f79bab2f75f6773803fafdf49a88,PennController,7,0,experiment,NULL,Video,progression,buffer,0.004169,1687287282212,61517db026b2083b278df893,61517db026b2083b278df893,4,candy,critical,D,25,candy15.jpg,candy35.jpg,high,NULL
1687287347,03b7f79bab2f75f6773803fafdf49a88,PennController,7,0,experiment,NULL,Selector,choice,Selection,option1,1687287285716,61517db026b2083b278df893,61517db026b2083b278df893,4,candy,critical,D,25,candy15.jpg,candy35.jpg,high,option1;option2
1687287347,03b7f79bab2f75f6773803fafdf49a88,PennController,7,0,experiment,NULL,PennController,6,_Trial_,End,1687287285718,61517db026b2083b278df893,61517db026b2083b278df893,4,candy,critical,D,25,candy15.jpg,candy35.jpg,high,NULL
1687287347,03b7f79bab2f75f6773803fafdf49a88,PennController,10,0,experiment,NULL,PennController,9,_Trial_,Start,1687287285721,61517db026b2083b278df893,61517db026b2083b278df893,7,stack,critical,D,25,stack15.jpg,stack35.jpg,high,NULL
1687287347,03b7f79bab2f75f6773803fafdf49a88,PennController,10,0,experiment,NULL,PennController,9,_Header_,Start,1687287285721,61517db026b2083b278df893,61517db026b2083b278df893,7,stack,critical,D,25,stack15.jpg,stack35.jpg,high,NULL
1687287347,03b7f79bab2f75f6773803fafdf49a88,PennController,10,0,experiment,NULL,PennController,9,_Header_,End,1687287285721,61517db026b2083b278df893,61517db026b2083b278df893,7,stack,critical,D,25,stack15.jpg,stack35.jpg,high,NULL
1687287347,03b7f79bab2f75f6773803fafdf49a88,PennController,10,0,experiment,NULL,Canvas,canvas6,Print,NA,1687287291409,61517db026b2083b278df893,61517db026b2083b278df893,7,stack,critical,D,25,stack15.jpg,stack35.jpg,high,NULL
1687287347,03b7f79bab2f75f6773803fafdf49a88,PennController,10,0,experiment,NULL,Video,progression,buffer,0.004522,1687287289252,61517db026b2083b278df893,61517db026b2083b278df893,7,stack,critical,D,25,stack15.jpg,stack35.jpg,high,NULL
1687287347,03b7f79bab2f75f6773803fafdf49a88,PennController,10,0,experiment,NULL,Selector,choice,Selection,option2,1687287292910,61517db026b2083b278df893,61517db026b2083b278df893,7,stack,critical,D,25,stack15.jpg,stack35.jpg,high,option1;option2
1687287347,03b7f79bab2f75f6773803fafdf49a88,PennController,10,0,experiment,NULL,PennController,9,_Trial_,End,1687287292911,61517db026b2083b278df893,61517db026b2083b278df893,7,stack,critical,D,25,stack15.jpg,stack35.jpg,high,NULL
1687287347,03b7f79bab2f75f6773803fafdf49a88,PennController,21,0,experiment,NULL,PennController,20,_Trial_,Start,1687287292912,61517db026b2083b278df893,61517db026b2083b278df893,18,ball,critical,D,75,ball65.jpg,ball85.jpg,high,NULL
1687287347,03b7f79bab2f75f6773803fafdf49a88,PennController,21,0,experiment,NULL,PennController,20,_Header_,Start,1687287292912,61517db026b2083b278df893,61517db026b2083b278df893,18,ball,critical,D,75,ball65.jpg,ball85.jpg,high,NULL
1687287347,03b7f79bab2f75f6773803fafdf49a88,PennController,21,0,experiment,NULL,PennController,20,_Header_,End,1687287292913,61517db026b2083b278df893,61517db026b2083b278df893,18,ball,critical,D,75,ball65.jpg,ball85.jpg,high,NULL
1687287347,03b7f79bab2f75f6773803fafdf49a88,PennController,21,0,experiment,NULL,Canvas,canvas6,Print,NA,1687287300611,61517db026b2083b278df893,61517db026b2083b278df893,18,ball,critical,D,75,ball65.jpg,ball85.jpg,high,NULL
1687287347,03b7f79bab2f75f6773803fafdf49a88,PennController,21,0,experiment,NULL,Video,progression,buffer,0.006148,1687287296450,61517db026b2083b278df893,61517db026b2083b278df893,18,ball,critical,D,75,ball65.jpg,ball85.jpg,high,NULL
1687287347,03b7f79bab2f75f6773803fafdf49a88,PennController,21,0,experiment,NULL,Selector,choice,Selection,option1,1687287301966,61517db026b2083b278df893,61517db026b2083b278df893,18,ball,critical,D,75,ball65.jpg,ball85.jpg,high,option1;option2
1687287347,03b7f79bab2f75f6773803fafdf49a88,PennController,21,0,experiment,NULL,PennController,20,_Trial_,End,1687287301968,61517db026b2083b278df893,61517db026b2083b278df893,18,ball,critical,D,75,ball65.jpg,ball85.jpg,high,NULL
1687287347,03b7f79bab2f75f6773803fafdf49a88,PennController,18,0,experiment,NULL,PennController,17,_Trial_,Start,1687287301969,61517db026b2083b278df893,61517db026b2083b278df893,15,zip,critical,D,75,zip65.jpg,zip85.jpg,high,NULL
1687287347,03b7f79bab2f75f6773803fafdf49a88,PennController,18,0,experiment,NULL,PennController,17,_Header_,Start,1687287301969,61517db026b2083b278df893,61517db026b2083b278df893,15,zip,critical,D,75,zip65.jpg,zip85.jpg,high,NULL
1687287347,03b7f79bab2f75f6773803fafdf49a88,PennController,18,0,experiment,NULL,PennController,17,_Header_,End,1687287301969,61517db026b2083b278df893,61517db026b2083b278df893,15,zip,critical,D,75,zip65.jpg,zip85.jpg,high,NULL
1687287347,03b7f79bab2f75f6773803fafdf49a88,PennController,18,0,experiment,NULL,Canvas,canvas6,Print,NA,1687287308872,61517db026b2083b278df893,61517db026b2083b278df893,15,zip,critical,D,75,zip65.jpg,zip85.jpg,high,NULL
1687287347,03b7f79bab2f75f6773803fafdf49a88,PennController,18,0,experiment,NULL,Video,progression,buffer,0.006255,1687287305502,61517db026b2083b278df893,61517db026b2083b278df893,15,zip,critical,D,75,zip65.jpg,zip85.jpg,high,NULL
1687287347,03b7f79bab2f75f6773803fafdf49a88,PennController,18,0,experiment,NULL,Selector,choice,Selection,option1,1687287311496,61517db026b2083b278df893,61517db026b2083b278df893,15,zip,critical,D,75,zip65.jpg,zip85.jpg,high,option1;option2
1687287347,03b7f79bab2f75f6773803fafdf49a88,PennController,18,0,experiment,NULL,PennController,17,_Trial_,End,1687287311498,61517db026b2083b278df893,61517db026b2083b278df893,15,zip,critical,D,75,zip65.jpg,zip85.jpg,high,NULL
1687287347,03b7f79bab2f75f6773803fafdf49a88,PennController,27,0,experiment,NULL,PennController,26,_Trial_,Start,1687287311501,61517db026b2083b278df893,61517db026b2083b278df893,24,match,filler,D,75,match65.jpg,match85.jpg,GoalA,NULL
1687287347,03b7f79bab2f75f6773803fafdf49a88,PennController,27,0,experiment,NULL,PennController,26,_Header_,Start,1687287311501,61517db026b2083b278df893,61517db026b2083b278df893,24,match,filler,D,75,match65.jpg,match85.jpg,GoalA,NULL
1687287347,03b7f79bab2f75f6773803fafdf49a88,PennController,27,0,experiment,NULL,PennController,26,_Header_,End,1687287311501,61517db026b2083b278df893,61517db026b2083b278df893,24,match,filler,D,75,match65.jpg,match85.jpg,GoalA,NULL
1687287347,03b7f79bab2f75f6773803fafdf49a88,PennController,27,0,experiment,NULL,Canvas,canvas6,Print,NA,1687287319208,61517db026b2083b278df893,61517db026b2083b278df893,24,match,filler,D,75,match65.jpg,match85.jpg,GoalA,NULL
1687287347,03b7f79bab2f75f6773803fafdf49a88,PennController,27,0,experiment,NULL,Video,progression,buffer,0.008083,1687287315039,61517db026b2083b278df893,61517db026b2083b278df893,24,match,filler,D,75,match65.jpg,match85.jpg,GoalA,NULL
1687287347,03b7f79bab2f75f6773803fafdf49a88,PennController,27,0,experiment,NULL,Selector,choice,Selection,option1,1687287320833,61517db026b2083b278df893,61517db026b2083b278df893,24,match,filler,D,75,match65.jpg,match85.jpg,GoalA,option1;option2
1687287347,03b7f79bab2f75f6773803fafdf49a88,PennController,27,0,experiment,NULL,PennController,26,_Trial_,End,1687287320834,61517db026b2083b278df893,61517db026b2083b278df893,24,match,filler,D,75,match65.jpg,match85.jpg,GoalA,NULL
1687287347,03b7f79bab2f75f6773803fafdf49a88,PennController,28,0,experiment,NULL,PennController,27,_Trial_,Start,1687287320836,61517db026b2083b278df893,61517db026b2083b278df893,25,house,filler,D,25,house15.jpg,house35.jpg,GoalB,NULL
1687287347,03b7f79bab2f75f6773803fafdf49a88,PennController,28,0,experiment,NULL,PennController,27,_Header_,Start,1687287320836,61517db026b2083b278df893,61517db026b2083b278df893,25,house,filler,D,25,house15.jpg,house35.jpg,GoalB,NULL
1687287347,03b7f79bab2f75f6773803fafdf49a88,PennController,28,0,experiment,NULL,PennController,27,_Header_,End,1687287320836,61517db026b2083b278df893,61517db026b2083b278df893,25,house,filler,D,25,house15.jpg,house35.jpg,GoalB,NULL
1687287347,03b7f79bab2f75f6773803fafdf49a88,PennController,28,0,experiment,NULL,Canvas,canvas6,Print,NA,1687287326535,61517db026b2083b278df893,61517db026b2083b278df893,25,house,filler,D,25,house15.jpg,house35.jpg,GoalB,NULL
1687287347,03b7f79bab2f75f6773803fafdf49a88,PennController,28,0,experiment,NULL,Video,progression,buffer,0.00429,1687287324370,61517db026b2083b278df893,61517db026b2083b278df893,25,house,filler,D,25,house15.jpg,house35.jpg,GoalB,NULL
1687287347,03b7f79bab2f75f6773803fafdf49a88,PennController,28,0,experiment,NULL,Selector,choice,Selection,option2,1687287327866,61517db026b2083b278df893,61517db026b2083b278df893,25,house,filler,D,25,house15.jpg,house35.jpg,GoalB,option1;option2
1687287347,03b7f79bab2f75f6773803fafdf49a88,PennController,28,0,experiment,NULL,PennController,27,_Trial_,End,1687287327868,61517db026b2083b278df893,61517db026b2083b278df893,25,house,filler,D,25,house15.jpg,house35.jpg,GoalB,NULL
1687287347,03b7f79bab2f75f6773803fafdf49a88,PennController,17,0,experiment,NULL,PennController,16,_Trial_,Start,1687287327870,61517db026b2083b278df893,61517db026b2083b278df893,14,cover,critical,D,50,cover42.jpg,cover60.jpg,high,NULL
1687287347,03b7f79bab2f75f6773803fafdf49a88,PennController,17,0,experiment,NULL,PennController,16,_Header_,Start,1687287327870,61517db026b2083b278df893,61517db026b2083b278df893,14,cover,critical,D,50,cover42.jpg,cover60.jpg,high,NULL
1687287347,03b7f79bab2f75f6773803fafdf49a88,PennController,17,0,experiment,NULL,PennController,16,_Header_,End,1687287327870,61517db026b2083b278df893,61517db026b2083b278df893,14,cover,critical,D,50,cover42.jpg,cover60.jpg,high,NULL
1687287347,03b7f79bab2f75f6773803fafdf49a88,PennController,17,0,experiment,NULL,Canvas,canvas6,Print,NA,1687287335979,61517db026b2083b278df893,61517db026b2083b278df893,14,cover,critical,D,50,cover42.jpg,cover60.jpg,high,NULL
1687287347,03b7f79bab2f75f6773803fafdf49a88,PennController,17,0,experiment,NULL,Video,progression,buffer,0.005987,1687287331411,61517db026b2083b278df893,61517db026b2083b278df893,14,cover,critical,D,50,cover42.jpg,cover60.jpg,high,NULL
1687287347,03b7f79bab2f75f6773803fafdf49a88,PennController,17,0,experiment,NULL,Selector,choice,Selection,option1,1687287337482,61517db026b2083b278df893,61517db026b2083b278df893,14,cover,critical,D,50,cover42.jpg,cover60.jpg,high,option1;option2
1687287347,03b7f79bab2f75f6773803fafdf49a88,PennController,17,0,experiment,NULL,PennController,16,_Trial_,End,1687287337484,61517db026b2083b278df893,61517db026b2083b278df893,14,cover,critical,D,50,cover42.jpg,cover60.jpg,high,NULL
1687287347,03b7f79bab2f75f6773803fafdf49a88,PennController,12,0,experiment,NULL,PennController,11,_Trial_,Start,1687287337486,61517db026b2083b278df893,61517db026b2083b278df893,9,cake,critical,D,75,cake66.jpg,cake84.jpg,high,NULL
1687287347,03b7f79bab2f75f6773803fafdf49a88,PennController,12,0,experiment,NULL,PennController,11,_Header_,Start,1687287337486,61517db026b2083b278df893,61517db026b2083b278df893,9,cake,critical,D,75,cake66.jpg,cake84.jpg,high,NULL
1687287347,03b7f79bab2f75f6773803fafdf49a88,PennController,12,0,experiment,NULL,PennController,11,_Header_,End,1687287337486,61517db026b2083b278df893,61517db026b2083b278df893,9,cake,critical,D,75,cake66.jpg,cake84.jpg,high,NULL
1687287347,03b7f79bab2f75f6773803fafdf49a88,PennController,12,0,experiment,NULL,Canvas,canvas6,Print,NA,1687287347182,61517db026b2083b278df893,61517db026b2083b278df893,9,cake,critical,D,75,cake66.jpg,cake84.jpg,high,NULL
1687287347,03b7f79bab2f75f6773803fafdf49a88,PennController,12,0,experiment,NULL,Video,progression,buffer,0.004268,1687287341011,61517db026b2083b278df893,61517db026b2083b278df893,9,cake,critical,D,75,cake66.jpg,cake84.jpg,high,NULL
1687287347,03b7f79bab2f75f6773803fafdf49a88,PennController,12,0,experiment,NULL,Selector,choice,Selection,option1,1687287348360,61517db026b2083b278df893,61517db026b2083b278df893,9,cake,critical,D,75,cake66.jpg,cake84.jpg,high,option2;option1
1687287347,03b7f79bab2f75f6773803fafdf49a88,PennController,12,0,experiment,NULL,PennController,11,_Trial_,End,1687287348361,61517db026b2083b278df893,61517db026b2083b278df893,9,cake,critical,D,75,cake66.jpg,cake84.jpg,high,NULL
