#
# Results on Thursday June 22 2023 05:35:50 UTC
# USER AGENT: Mozilla/5.0 (Windows NT 10.0; Win64; x64) AppleWebKit/537.36 (KHTML, like Gecko) Chrome/114.0.0.0 Safari/537.36
# Design number was non-random = 83
#
# Columns below this comment are as follows:
# 1. Results reception time.
# 2. MD5 hash of participant's IP address.
# 3. Controller name.
# 4. Order number of item.
# 5. Inner element number.
# 6. Label.
# 7. Latin Square Group.
# 8. PennElementType.
# 9. PennElementName.
# 10. Parameter.
# 11. Value.
# 12. EventTime.
# 13. PROLIFIC_ID.
# 14. Comments.
1687412150,a57c59ea1564dc80e5d2a960d0f9a847,PennController,3,0,consent,NULL,PennController,0,_Trial_,Start,1687411808023,5c0ed000fd0c0a0001f881ea,NULL
1687412150,a57c59ea1564dc80e5d2a960d0f9a847,PennController,3,0,consent,NULL,PennController,0,_Header_,Start,1687411808023,5c0ed000fd0c0a0001f881ea,NULL
1687412150,a57c59ea1564dc80e5d2a960d0f9a847,PennController,3,0,consent,NULL,PennController,0,_Header_,End,1687411808023,5c0ed000fd0c0a0001f881ea,NULL
1687412150,a57c59ea1564dc80e5d2a960d0f9a847,PennController,3,0,consent,NULL,PennController,0,_Trial_,End,1687411861294,5c0ed000fd0c0a0001f881ea,NULL
# Columns below this comment are as follows:
# 14. ID.
# 15. Comments.
1687412150,a57c59ea1564dc80e5d2a960d0f9a847,PennController,4,0,intro,NULL,PennController,1,_Trial_,Start,1687411861296,5c0ed000fd0c0a0001f881ea,5c0ed000fd0c0a0001f881ea,NULL
1687412150,a57c59ea1564dc80e5d2a960d0f9a847,PennController,4,0,intro,NULL,PennController,1,_Header_,Start,1687411861296,5c0ed000fd0c0a0001f881ea,5c0ed000fd0c0a0001f881ea,NULL
1687412150,a57c59ea1564dc80e5d2a960d0f9a847,PennController,4,0,intro,NULL,PennController,1,_Header_,End,1687411861296,5c0ed000fd0c0a0001f881ea,5c0ed000fd0c0a0001f881ea,NULL
1687412150,a57c59ea1564dc80e5d2a960d0f9a847,PennController,4,0,intro,NULL,PennController,1,_Trial_,End,1687411884627,5c0ed000fd0c0a0001f881ea,5c0ed000fd0c0a0001f881ea,NULL
# Columns below this comment are as follows:
# 15. item_number.
# 16. item.
# 17. type.
# 18. Group.
# 19. prog.
# 20. prev_image.
# 21. next_image.
# 22. height.
# 23. Comments.
1687412150,a57c59ea1564dc80e5d2a960d0f9a847,PennController,12,0,experiment,NULL,PennController,10,_Trial_,Start,1687411884628,5c0ed000fd0c0a0001f881ea,5c0ed000fd0c0a0001f881ea,8,cucumber,critical,A,50,cucumber42.jpg,cucumber60.jpg,low,NULL
1687412150,a57c59ea1564dc80e5d2a960d0f9a847,PennController,12,0,experiment,NULL,PennController,10,_Header_,Start,1687411884628,5c0ed000fd0c0a0001f881ea,5c0ed000fd0c0a0001f881ea,8,cucumber,critical,A,50,cucumber42.jpg,cucumber60.jpg,low,NULL
1687412150,a57c59ea1564dc80e5d2a960d0f9a847,PennController,12,0,experiment,NULL,PennController,10,_Header_,End,1687411884628,5c0ed000fd0c0a0001f881ea,5c0ed000fd0c0a0001f881ea,8,cucumber,critical,A,50,cucumber42.jpg,cucumber60.jpg,low,NULL
1687412150,a57c59ea1564dc80e5d2a960d0f9a847,PennController,12,0,experiment,NULL,Canvas,canvas6,Print,NA,1687411892726,5c0ed000fd0c0a0001f881ea,5c0ed000fd0c0a0001f881ea,8,cucumber,critical,A,50,cucumber42.jpg,cucumber60.jpg,low,NULL
1687412150,a57c59ea1564dc80e5d2a960d0f9a847,PennController,12,0,experiment,NULL,Video,progression,buffer,0.002384,1687411888165,5c0ed000fd0c0a0001f881ea,5c0ed000fd0c0a0001f881ea,8,cucumber,critical,A,50,cucumber42.jpg,cucumber60.jpg,low,NULL
1687412150,a57c59ea1564dc80e5d2a960d0f9a847,PennController,12,0,experiment,NULL,Selector,choice,Selection,option1,1687411894643,5c0ed000fd0c0a0001f881ea,5c0ed000fd0c0a0001f881ea,8,cucumber,critical,A,50,cucumber42.jpg,cucumber60.jpg,low,option1;option2
1687412150,a57c59ea1564dc80e5d2a960d0f9a847,PennController,12,0,experiment,NULL,PennController,10,_Trial_,End,1687411894647,5c0ed000fd0c0a0001f881ea,5c0ed000fd0c0a0001f881ea,8,cucumber,critical,A,50,cucumber42.jpg,cucumber60.jpg,low,NULL
1687412150,a57c59ea1564dc80e5d2a960d0f9a847,PennController,31,0,experiment,NULL,PennController,29,_Trial_,Start,1687411894649,5c0ed000fd0c0a0001f881ea,5c0ed000fd0c0a0001f881ea,27,square,filler,A,75,square65.jpg,square85.jpg,GoalA,NULL
1687412150,a57c59ea1564dc80e5d2a960d0f9a847,PennController,31,0,experiment,NULL,PennController,29,_Header_,Start,1687411894649,5c0ed000fd0c0a0001f881ea,5c0ed000fd0c0a0001f881ea,27,square,filler,A,75,square65.jpg,square85.jpg,GoalA,NULL
1687412150,a57c59ea1564dc80e5d2a960d0f9a847,PennController,31,0,experiment,NULL,PennController,29,_Header_,End,1687411894650,5c0ed000fd0c0a0001f881ea,5c0ed000fd0c0a0001f881ea,27,square,filler,A,75,square65.jpg,square85.jpg,GoalA,NULL
1687412150,a57c59ea1564dc80e5d2a960d0f9a847,PennController,31,0,experiment,NULL,Canvas,canvas6,Print,NA,1687411902339,5c0ed000fd0c0a0001f881ea,5c0ed000fd0c0a0001f881ea,27,square,filler,A,75,square65.jpg,square85.jpg,GoalA,NULL
1687412150,a57c59ea1564dc80e5d2a960d0f9a847,PennController,31,0,experiment,NULL,Video,progression,buffer,0.001633,1687411898172,5c0ed000fd0c0a0001f881ea,5c0ed000fd0c0a0001f881ea,27,square,filler,A,75,square65.jpg,square85.jpg,GoalA,NULL
1687412150,a57c59ea1564dc80e5d2a960d0f9a847,PennController,31,0,experiment,NULL,Selector,choice,Selection,option2,1687411904019,5c0ed000fd0c0a0001f881ea,5c0ed000fd0c0a0001f881ea,27,square,filler,A,75,square65.jpg,square85.jpg,GoalA,option2;option1
1687412150,a57c59ea1564dc80e5d2a960d0f9a847,PennController,31,0,experiment,NULL,PennController,29,_Trial_,End,1687411904021,5c0ed000fd0c0a0001f881ea,5c0ed000fd0c0a0001f881ea,27,square,filler,A,75,square65.jpg,square85.jpg,GoalA,NULL
1687412150,a57c59ea1564dc80e5d2a960d0f9a847,PennController,33,0,experiment,NULL,PennController,31,_Trial_,Start,1687411904022,5c0ed000fd0c0a0001f881ea,5c0ed000fd0c0a0001f881ea,29,frog,filler,A,50,frog40.jpg,frog60.jpg,GoalA,NULL
1687412150,a57c59ea1564dc80e5d2a960d0f9a847,PennController,33,0,experiment,NULL,PennController,31,_Header_,Start,1687411904022,5c0ed000fd0c0a0001f881ea,5c0ed000fd0c0a0001f881ea,29,frog,filler,A,50,frog40.jpg,frog60.jpg,GoalA,NULL
1687412150,a57c59ea1564dc80e5d2a960d0f9a847,PennController,33,0,experiment,NULL,PennController,31,_Header_,End,1687411904022,5c0ed000fd0c0a0001f881ea,5c0ed000fd0c0a0001f881ea,29,frog,filler,A,50,frog40.jpg,frog60.jpg,GoalA,NULL
1687412150,a57c59ea1564dc80e5d2a960d0f9a847,PennController,33,0,experiment,NULL,Canvas,canvas6,Print,NA,1687411910706,5c0ed000fd0c0a0001f881ea,5c0ed000fd0c0a0001f881ea,29,frog,filler,A,50,frog40.jpg,frog60.jpg,GoalA,NULL
1687412150,a57c59ea1564dc80e5d2a960d0f9a847,PennController,33,0,experiment,NULL,Video,progression,buffer,0.002561,1687411907542,5c0ed000fd0c0a0001f881ea,5c0ed000fd0c0a0001f881ea,29,frog,filler,A,50,frog40.jpg,frog60.jpg,GoalA,NULL
1687412150,a57c59ea1564dc80e5d2a960d0f9a847,PennController,33,0,experiment,NULL,Selector,choice,Selection,option2,1687411913709,5c0ed000fd0c0a0001f881ea,5c0ed000fd0c0a0001f881ea,29,frog,filler,A,50,frog40.jpg,frog60.jpg,GoalA,option1;option2
1687412150,a57c59ea1564dc80e5d2a960d0f9a847,PennController,33,0,experiment,NULL,PennController,31,_Trial_,End,1687411913712,5c0ed000fd0c0a0001f881ea,5c0ed000fd0c0a0001f881ea,29,frog,filler,A,50,frog40.jpg,frog60.jpg,GoalA,NULL
1687412150,a57c59ea1564dc80e5d2a960d0f9a847,PennController,5,0,experiment,NULL,PennController,3,_Trial_,Start,1687411913714,5c0ed000fd0c0a0001f881ea,5c0ed000fd0c0a0001f881ea,1,vase,critical,A,25,vase15.jpg,vase35.jpg,low,NULL
1687412150,a57c59ea1564dc80e5d2a960d0f9a847,PennController,5,0,experiment,NULL,PennController,3,_Header_,Start,1687411913714,5c0ed000fd0c0a0001f881ea,5c0ed000fd0c0a0001f881ea,1,vase,critical,A,25,vase15.jpg,vase35.jpg,low,NULL
1687412150,a57c59ea1564dc80e5d2a960d0f9a847,PennController,5,0,experiment,NULL,PennController,3,_Header_,End,1687411913714,5c0ed000fd0c0a0001f881ea,5c0ed000fd0c0a0001f881ea,1,vase,critical,A,25,vase15.jpg,vase35.jpg,low,NULL
1687412150,a57c59ea1564dc80e5d2a960d0f9a847,PennController,5,0,experiment,NULL,Canvas,canvas6,Print,NA,1687411919405,5c0ed000fd0c0a0001f881ea,5c0ed000fd0c0a0001f881ea,1,vase,critical,A,25,vase15.jpg,vase35.jpg,low,NULL
1687412150,a57c59ea1564dc80e5d2a960d0f9a847,PennController,5,0,experiment,NULL,Video,progression,buffer,0.00277,1687411917236,5c0ed000fd0c0a0001f881ea,5c0ed000fd0c0a0001f881ea,1,vase,critical,A,25,vase15.jpg,vase35.jpg,low,NULL
1687412150,a57c59ea1564dc80e5d2a960d0f9a847,PennController,5,0,experiment,NULL,Selector,choice,Selection,option2,1687411921738,5c0ed000fd0c0a0001f881ea,5c0ed000fd0c0a0001f881ea,1,vase,critical,A,25,vase15.jpg,vase35.jpg,low,option2;option1
1687412150,a57c59ea1564dc80e5d2a960d0f9a847,PennController,5,0,experiment,NULL,PennController,3,_Trial_,End,1687411921740,5c0ed000fd0c0a0001f881ea,5c0ed000fd0c0a0001f881ea,1,vase,critical,A,25,vase15.jpg,vase35.jpg,low,NULL
1687412150,a57c59ea1564dc80e5d2a960d0f9a847,PennController,6,0,experiment,NULL,PennController,4,_Trial_,Start,1687411921742,5c0ed000fd0c0a0001f881ea,5c0ed000fd0c0a0001f881ea,2,door,critical,A,50,door40.jpg,door60.jpg,low,NULL
1687412150,a57c59ea1564dc80e5d2a960d0f9a847,PennController,6,0,experiment,NULL,PennController,4,_Header_,Start,1687411921742,5c0ed000fd0c0a0001f881ea,5c0ed000fd0c0a0001f881ea,2,door,critical,A,50,door40.jpg,door60.jpg,low,NULL
1687412150,a57c59ea1564dc80e5d2a960d0f9a847,PennController,6,0,experiment,NULL,PennController,4,_Header_,End,1687411921742,5c0ed000fd0c0a0001f881ea,5c0ed000fd0c0a0001f881ea,2,door,critical,A,50,door40.jpg,door60.jpg,low,NULL
1687412150,a57c59ea1564dc80e5d2a960d0f9a847,PennController,6,0,experiment,NULL,Canvas,canvas6,Print,NA,1687411928439,5c0ed000fd0c0a0001f881ea,5c0ed000fd0c0a0001f881ea,2,door,critical,A,50,door40.jpg,door60.jpg,low,NULL
1687412150,a57c59ea1564dc80e5d2a960d0f9a847,PennController,6,0,experiment,NULL,Video,progression,buffer,0.003778,1687411925265,5c0ed000fd0c0a0001f881ea,5c0ed000fd0c0a0001f881ea,2,door,critical,A,50,door40.jpg,door60.jpg,low,NULL
1687412150,a57c59ea1564dc80e5d2a960d0f9a847,PennController,6,0,experiment,NULL,Selector,choice,Selection,option2,1687411929796,5c0ed000fd0c0a0001f881ea,5c0ed000fd0c0a0001f881ea,2,door,critical,A,50,door40.jpg,door60.jpg,low,option2;option1
1687412150,a57c59ea1564dc80e5d2a960d0f9a847,PennController,6,0,experiment,NULL,PennController,4,_Trial_,End,1687411929797,5c0ed000fd0c0a0001f881ea,5c0ed000fd0c0a0001f881ea,2,door,critical,A,50,door40.jpg,door60.jpg,low,NULL
1687412150,a57c59ea1564dc80e5d2a960d0f9a847,PennController,27,0,experiment,NULL,PennController,25,_Trial_,Start,1687411929799,5c0ed000fd0c0a0001f881ea,5c0ed000fd0c0a0001f881ea,23,color,filler,A,50,color40.jpg,color60.jpg,GoalA,NULL
1687412150,a57c59ea1564dc80e5d2a960d0f9a847,PennController,27,0,experiment,NULL,PennController,25,_Header_,Start,1687411929799,5c0ed000fd0c0a0001f881ea,5c0ed000fd0c0a0001f881ea,23,color,filler,A,50,color40.jpg,color60.jpg,GoalA,NULL
1687412150,a57c59ea1564dc80e5d2a960d0f9a847,PennController,27,0,experiment,NULL,PennController,25,_Header_,End,1687411929799,5c0ed000fd0c0a0001f881ea,5c0ed000fd0c0a0001f881ea,23,color,filler,A,50,color40.jpg,color60.jpg,GoalA,NULL
1687412150,a57c59ea1564dc80e5d2a960d0f9a847,PennController,27,0,experiment,NULL,Canvas,canvas6,Print,NA,1687411936483,5c0ed000fd0c0a0001f881ea,5c0ed000fd0c0a0001f881ea,23,color,filler,A,50,color40.jpg,color60.jpg,GoalA,NULL
1687412150,a57c59ea1564dc80e5d2a960d0f9a847,PennController,27,0,experiment,NULL,Video,progression,buffer,0.0017,1687411933321,5c0ed000fd0c0a0001f881ea,5c0ed000fd0c0a0001f881ea,23,color,filler,A,50,color40.jpg,color60.jpg,GoalA,NULL
1687412150,a57c59ea1564dc80e5d2a960d0f9a847,PennController,27,0,experiment,NULL,Selector,choice,Selection,option2,1687411938558,5c0ed000fd0c0a0001f881ea,5c0ed000fd0c0a0001f881ea,23,color,filler,A,50,color40.jpg,color60.jpg,GoalA,option2;option1
1687412150,a57c59ea1564dc80e5d2a960d0f9a847,PennController,27,0,experiment,NULL,PennController,25,_Trial_,End,1687411938560,5c0ed000fd0c0a0001f881ea,5c0ed000fd0c0a0001f881ea,23,color,filler,A,50,color40.jpg,color60.jpg,GoalA,NULL
1687412150,a57c59ea1564dc80e5d2a960d0f9a847,PennController,15,0,experiment,NULL,PennController,13,_Trial_,Start,1687411938562,5c0ed000fd0c0a0001f881ea,5c0ed000fd0c0a0001f881ea,11,beads,critical,A,50,beads40.jpg,beads60.jpg,low,NULL
1687412150,a57c59ea1564dc80e5d2a960d0f9a847,PennController,15,0,experiment,NULL,PennController,13,_Header_,Start,1687411938562,5c0ed000fd0c0a0001f881ea,5c0ed000fd0c0a0001f881ea,11,beads,critical,A,50,beads40.jpg,beads60.jpg,low,NULL
1687412150,a57c59ea1564dc80e5d2a960d0f9a847,PennController,15,0,experiment,NULL,PennController,13,_Header_,End,1687411938562,5c0ed000fd0c0a0001f881ea,5c0ed000fd0c0a0001f881ea,11,beads,critical,A,50,beads40.jpg,beads60.jpg,low,NULL
1687412150,a57c59ea1564dc80e5d2a960d0f9a847,PennController,15,0,experiment,NULL,Canvas,canvas6,Print,NA,1687411945251,5c0ed000fd0c0a0001f881ea,5c0ed000fd0c0a0001f881ea,11,beads,critical,A,50,beads40.jpg,beads60.jpg,low,NULL
1687412150,a57c59ea1564dc80e5d2a960d0f9a847,PennController,15,0,experiment,NULL,Video,progression,buffer,0.00263,1687411942085,5c0ed000fd0c0a0001f881ea,5c0ed000fd0c0a0001f881ea,11,beads,critical,A,50,beads40.jpg,beads60.jpg,low,NULL
1687412150,a57c59ea1564dc80e5d2a960d0f9a847,PennController,15,0,experiment,NULL,Selector,choice,Selection,option2,1687411947350,5c0ed000fd0c0a0001f881ea,5c0ed000fd0c0a0001f881ea,11,beads,critical,A,50,beads40.jpg,beads60.jpg,low,option1;option2
1687412150,a57c59ea1564dc80e5d2a960d0f9a847,PennController,15,0,experiment,NULL,PennController,13,_Trial_,End,1687411947351,5c0ed000fd0c0a0001f881ea,5c0ed000fd0c0a0001f881ea,11,beads,critical,A,50,beads40.jpg,beads60.jpg,low,NULL
1687412150,a57c59ea1564dc80e5d2a960d0f9a847,PennController,16,0,experiment,NULL,PennController,14,_Trial_,Start,1687411947353,5c0ed000fd0c0a0001f881ea,5c0ed000fd0c0a0001f881ea,12,erase,critical,A,75,erase66.jpg,erase84.jpg,low,NULL
1687412150,a57c59ea1564dc80e5d2a960d0f9a847,PennController,16,0,experiment,NULL,PennController,14,_Header_,Start,1687411947353,5c0ed000fd0c0a0001f881ea,5c0ed000fd0c0a0001f881ea,12,erase,critical,A,75,erase66.jpg,erase84.jpg,low,NULL
1687412150,a57c59ea1564dc80e5d2a960d0f9a847,PennController,16,0,experiment,NULL,PennController,14,_Header_,End,1687411947353,5c0ed000fd0c0a0001f881ea,5c0ed000fd0c0a0001f881ea,12,erase,critical,A,75,erase66.jpg,erase84.jpg,low,NULL
1687412150,a57c59ea1564dc80e5d2a960d0f9a847,PennController,16,0,experiment,NULL,Canvas,canvas6,Print,NA,1687411957033,5c0ed000fd0c0a0001f881ea,5c0ed000fd0c0a0001f881ea,12,erase,critical,A,75,erase66.jpg,erase84.jpg,low,NULL
1687412150,a57c59ea1564dc80e5d2a960d0f9a847,PennController,16,0,experiment,NULL,Video,progression,buffer,0.001686,1687411950871,5c0ed000fd0c0a0001f881ea,5c0ed000fd0c0a0001f881ea,12,erase,critical,A,75,erase66.jpg,erase84.jpg,low,NULL
1687412150,a57c59ea1564dc80e5d2a960d0f9a847,PennController,16,0,experiment,NULL,Selector,choice,Selection,option2,1687411959016,5c0ed000fd0c0a0001f881ea,5c0ed000fd0c0a0001f881ea,12,erase,critical,A,75,erase66.jpg,erase84.jpg,low,option2;option1
1687412150,a57c59ea1564dc80e5d2a960d0f9a847,PennController,16,0,experiment,NULL,PennController,14,_Trial_,End,1687411959017,5c0ed000fd0c0a0001f881ea,5c0ed000fd0c0a0001f881ea,12,erase,critical,A,75,erase66.jpg,erase84.jpg,low,NULL
1687412150,a57c59ea1564dc80e5d2a960d0f9a847,PennController,11,0,experiment,NULL,PennController,9,_Trial_,Start,1687411959018,5c0ed000fd0c0a0001f881ea,5c0ed000fd0c0a0001f881ea,7,stack,critical,A,25,stack15.jpg,stack35.jpg,low,NULL
1687412150,a57c59ea1564dc80e5d2a960d0f9a847,PennController,11,0,experiment,NULL,PennController,9,_Header_,Start,1687411959018,5c0ed000fd0c0a0001f881ea,5c0ed000fd0c0a0001f881ea,7,stack,critical,A,25,stack15.jpg,stack35.jpg,low,NULL
1687412150,a57c59ea1564dc80e5d2a960d0f9a847,PennController,11,0,experiment,NULL,PennController,9,_Header_,End,1687411959018,5c0ed000fd0c0a0001f881ea,5c0ed000fd0c0a0001f881ea,7,stack,critical,A,25,stack15.jpg,stack35.jpg,low,NULL
1687412150,a57c59ea1564dc80e5d2a960d0f9a847,PennController,11,0,experiment,NULL,Canvas,canvas6,Print,NA,1687411964702,5c0ed000fd0c0a0001f881ea,5c0ed000fd0c0a0001f881ea,7,stack,critical,A,25,stack15.jpg,stack35.jpg,low,NULL
1687412150,a57c59ea1564dc80e5d2a960d0f9a847,PennController,11,0,experiment,NULL,Video,progression,buffer,0.002964,1687411962541,5c0ed000fd0c0a0001f881ea,5c0ed000fd0c0a0001f881ea,7,stack,critical,A,25,stack15.jpg,stack35.jpg,low,NULL
1687412150,a57c59ea1564dc80e5d2a960d0f9a847,PennController,11,0,experiment,NULL,Selector,choice,Selection,option1,1687411966264,5c0ed000fd0c0a0001f881ea,5c0ed000fd0c0a0001f881ea,7,stack,critical,A,25,stack15.jpg,stack35.jpg,low,option2;option1
1687412150,a57c59ea1564dc80e5d2a960d0f9a847,PennController,11,0,experiment,NULL,PennController,9,_Trial_,End,1687411966266,5c0ed000fd0c0a0001f881ea,5c0ed000fd0c0a0001f881ea,7,stack,critical,A,25,stack15.jpg,stack35.jpg,low,NULL
1687412150,a57c59ea1564dc80e5d2a960d0f9a847,PennController,26,0,experiment,NULL,PennController,24,_Trial_,Start,1687411966267,5c0ed000fd0c0a0001f881ea,5c0ed000fd0c0a0001f881ea,22,wall,filler,A,25,wall15.jpg,wall35.jpg,GoalB,NULL
1687412150,a57c59ea1564dc80e5d2a960d0f9a847,PennController,26,0,experiment,NULL,PennController,24,_Header_,Start,1687411966267,5c0ed000fd0c0a0001f881ea,5c0ed000fd0c0a0001f881ea,22,wall,filler,A,25,wall15.jpg,wall35.jpg,GoalB,NULL
1687412150,a57c59ea1564dc80e5d2a960d0f9a847,PennController,26,0,experiment,NULL,PennController,24,_Header_,End,1687411966267,5c0ed000fd0c0a0001f881ea,5c0ed000fd0c0a0001f881ea,22,wall,filler,A,25,wall15.jpg,wall35.jpg,GoalB,NULL
1687412150,a57c59ea1564dc80e5d2a960d0f9a847,PennController,26,0,experiment,NULL,Canvas,canvas6,Print,NA,1687411971950,5c0ed000fd0c0a0001f881ea,5c0ed000fd0c0a0001f881ea,22,wall,filler,A,25,wall15.jpg,wall35.jpg,GoalB,NULL
1687412150,a57c59ea1564dc80e5d2a960d0f9a847,PennController,26,0,experiment,NULL,Video,progression,buffer,0.003896,1687411969792,5c0ed000fd0c0a0001f881ea,5c0ed000fd0c0a0001f881ea,22,wall,filler,A,25,wall15.jpg,wall35.jpg,GoalB,NULL
1687412150,a57c59ea1564dc80e5d2a960d0f9a847,PennController,26,0,experiment,NULL,Selector,choice,Selection,option2,1687411973370,5c0ed000fd0c0a0001f881ea,5c0ed000fd0c0a0001f881ea,22,wall,filler,A,25,wall15.jpg,wall35.jpg,GoalB,option1;option2
1687412150,a57c59ea1564dc80e5d2a960d0f9a847,PennController,26,0,experiment,NULL,PennController,24,_Trial_,End,1687411973372,5c0ed000fd0c0a0001f881ea,5c0ed000fd0c0a0001f881ea,22,wall,filler,A,25,wall15.jpg,wall35.jpg,GoalB,NULL
1687412150,a57c59ea1564dc80e5d2a960d0f9a847,PennController,21,0,experiment,NULL,PennController,19,_Trial_,Start,1687411973374,5c0ed000fd0c0a0001f881ea,5c0ed000fd0c0a0001f881ea,17,roll,critical,A,50,roll40.jpg,roll60.jpg,low,NULL
1687412150,a57c59ea1564dc80e5d2a960d0f9a847,PennController,21,0,experiment,NULL,PennController,19,_Header_,Start,1687411973374,5c0ed000fd0c0a0001f881ea,5c0ed000fd0c0a0001f881ea,17,roll,critical,A,50,roll40.jpg,roll60.jpg,low,NULL
1687412150,a57c59ea1564dc80e5d2a960d0f9a847,PennController,21,0,experiment,NULL,PennController,19,_Header_,End,1687411973374,5c0ed000fd0c0a0001f881ea,5c0ed000fd0c0a0001f881ea,17,roll,critical,A,50,roll40.jpg,roll60.jpg,low,NULL
1687412150,a57c59ea1564dc80e5d2a960d0f9a847,PennController,21,0,experiment,NULL,Canvas,canvas6,Print,NA,1687411980065,5c0ed000fd0c0a0001f881ea,5c0ed000fd0c0a0001f881ea,17,roll,critical,A,50,roll40.jpg,roll60.jpg,low,NULL
1687412150,a57c59ea1564dc80e5d2a960d0f9a847,PennController,21,0,experiment,NULL,Video,progression,buffer,0.001803,1687411976896,5c0ed000fd0c0a0001f881ea,5c0ed000fd0c0a0001f881ea,17,roll,critical,A,50,roll40.jpg,roll60.jpg,low,NULL
1687412150,a57c59ea1564dc80e5d2a960d0f9a847,PennController,21,0,experiment,NULL,Selector,choice,Selection,option2,1687411981452,5c0ed000fd0c0a0001f881ea,5c0ed000fd0c0a0001f881ea,17,roll,critical,A,50,roll40.jpg,roll60.jpg,low,option2;option1
1687412150,a57c59ea1564dc80e5d2a960d0f9a847,PennController,21,0,experiment,NULL,PennController,19,_Trial_,End,1687411981453,5c0ed000fd0c0a0001f881ea,5c0ed000fd0c0a0001f881ea,17,roll,critical,A,50,roll40.jpg,roll60.jpg,low,NULL
1687412150,a57c59ea1564dc80e5d2a960d0f9a847,PennController,25,0,experiment,NULL,PennController,23,_Trial_,Start,1687411981455,5c0ed000fd0c0a0001f881ea,5c0ed000fd0c0a0001f881ea,21,visit,filler,A,75,visit65.jpg,visit85.jpg,GoalA,NULL
1687412150,a57c59ea1564dc80e5d2a960d0f9a847,PennController,25,0,experiment,NULL,PennController,23,_Header_,Start,1687411981455,5c0ed000fd0c0a0001f881ea,5c0ed000fd0c0a0001f881ea,21,visit,filler,A,75,visit65.jpg,visit85.jpg,GoalA,NULL
1687412150,a57c59ea1564dc80e5d2a960d0f9a847,PennController,25,0,experiment,NULL,PennController,23,_Header_,End,1687411981455,5c0ed000fd0c0a0001f881ea,5c0ed000fd0c0a0001f881ea,21,visit,filler,A,75,visit65.jpg,visit85.jpg,GoalA,NULL
1687412150,a57c59ea1564dc80e5d2a960d0f9a847,PennController,25,0,experiment,NULL,Canvas,canvas6,Print,NA,1687411989143,5c0ed000fd0c0a0001f881ea,5c0ed000fd0c0a0001f881ea,21,visit,filler,A,75,visit65.jpg,visit85.jpg,GoalA,NULL
1687412150,a57c59ea1564dc80e5d2a960d0f9a847,PennController,25,0,experiment,NULL,Video,progression,buffer,0.002791,1687411984979,5c0ed000fd0c0a0001f881ea,5c0ed000fd0c0a0001f881ea,21,visit,filler,A,75,visit65.jpg,visit85.jpg,GoalA,NULL
1687412150,a57c59ea1564dc80e5d2a960d0f9a847,PennController,25,0,experiment,NULL,Selector,choice,Selection,option2,1687411990966,5c0ed000fd0c0a0001f881ea,5c0ed000fd0c0a0001f881ea,21,visit,filler,A,75,visit65.jpg,visit85.jpg,GoalA,option1;option2
1687412150,a57c59ea1564dc80e5d2a960d0f9a847,PennController,25,0,experiment,NULL,PennController,23,_Trial_,End,1687411990967,5c0ed000fd0c0a0001f881ea,5c0ed000fd0c0a0001f881ea,21,visit,filler,A,75,visit65.jpg,visit85.jpg,GoalA,NULL
1687412150,a57c59ea1564dc80e5d2a960d0f9a847,PennController,13,0,experiment,NULL,PennController,11,_Trial_,Start,1687411990968,5c0ed000fd0c0a0001f881ea,5c0ed000fd0c0a0001f881ea,9,cake,critical,A,75,cake66.jpg,cake84.jpg,low,NULL
1687412150,a57c59ea1564dc80e5d2a960d0f9a847,PennController,13,0,experiment,NULL,PennController,11,_Header_,Start,1687411990968,5c0ed000fd0c0a0001f881ea,5c0ed000fd0c0a0001f881ea,9,cake,critical,A,75,cake66.jpg,cake84.jpg,low,NULL
1687412150,a57c59ea1564dc80e5d2a960d0f9a847,PennController,13,0,experiment,NULL,PennController,11,_Header_,End,1687411990968,5c0ed000fd0c0a0001f881ea,5c0ed000fd0c0a0001f881ea,9,cake,critical,A,75,cake66.jpg,cake84.jpg,low,NULL
1687412150,a57c59ea1564dc80e5d2a960d0f9a847,PennController,13,0,experiment,NULL,Canvas,canvas6,Print,NA,1687412000646,5c0ed000fd0c0a0001f881ea,5c0ed000fd0c0a0001f881ea,9,cake,critical,A,75,cake66.jpg,cake84.jpg,low,NULL
1687412150,a57c59ea1564dc80e5d2a960d0f9a847,PennController,13,0,experiment,NULL,Video,progression,buffer,0.002055,1687411994486,5c0ed000fd0c0a0001f881ea,5c0ed000fd0c0a0001f881ea,9,cake,critical,A,75,cake66.jpg,cake84.jpg,low,NULL
1687412150,a57c59ea1564dc80e5d2a960d0f9a847,PennController,13,0,experiment,NULL,Selector,choice,Selection,option1,1687412002653,5c0ed000fd0c0a0001f881ea,5c0ed000fd0c0a0001f881ea,9,cake,critical,A,75,cake66.jpg,cake84.jpg,low,option2;option1
1687412150,a57c59ea1564dc80e5d2a960d0f9a847,PennController,13,0,experiment,NULL,PennController,11,_Trial_,End,1687412002655,5c0ed000fd0c0a0001f881ea,5c0ed000fd0c0a0001f881ea,9,cake,critical,A,75,cake66.jpg,cake84.jpg,low,NULL
1687412150,a57c59ea1564dc80e5d2a960d0f9a847,PennController,23,0,experiment,NULL,PennController,21,_Trial_,Start,1687412002657,5c0ed000fd0c0a0001f881ea,5c0ed000fd0c0a0001f881ea,19,cup,filler,A,25,cup15.jpg,cup35.jpg,GoalA,NULL
1687412150,a57c59ea1564dc80e5d2a960d0f9a847,PennController,23,0,experiment,NULL,PennController,21,_Header_,Start,1687412002657,5c0ed000fd0c0a0001f881ea,5c0ed000fd0c0a0001f881ea,19,cup,filler,A,25,cup15.jpg,cup35.jpg,GoalA,NULL
1687412150,a57c59ea1564dc80e5d2a960d0f9a847,PennController,23,0,experiment,NULL,PennController,21,_Header_,End,1687412002657,5c0ed000fd0c0a0001f881ea,5c0ed000fd0c0a0001f881ea,19,cup,filler,A,25,cup15.jpg,cup35.jpg,GoalA,NULL
1687412150,a57c59ea1564dc80e5d2a960d0f9a847,PennController,23,0,experiment,NULL,Canvas,canvas6,Print,NA,1687412008344,5c0ed000fd0c0a0001f881ea,5c0ed000fd0c0a0001f881ea,19,cup,filler,A,25,cup15.jpg,cup35.jpg,GoalA,NULL
1687412150,a57c59ea1564dc80e5d2a960d0f9a847,PennController,23,0,experiment,NULL,Video,progression,buffer,0.001655,1687412006178,5c0ed000fd0c0a0001f881ea,5c0ed000fd0c0a0001f881ea,19,cup,filler,A,25,cup15.jpg,cup35.jpg,GoalA,NULL
1687412150,a57c59ea1564dc80e5d2a960d0f9a847,PennController,23,0,experiment,NULL,Selector,choice,Selection,option2,1687412009892,5c0ed000fd0c0a0001f881ea,5c0ed000fd0c0a0001f881ea,19,cup,filler,A,25,cup15.jpg,cup35.jpg,GoalA,option1;option2
1687412150,a57c59ea1564dc80e5d2a960d0f9a847,PennController,23,0,experiment,NULL,PennController,21,_Trial_,End,1687412009893,5c0ed000fd0c0a0001f881ea,5c0ed000fd0c0a0001f881ea,19,cup,filler,A,25,cup15.jpg,cup35.jpg,GoalA,NULL
1687412150,a57c59ea1564dc80e5d2a960d0f9a847,PennController,10,0,experiment,NULL,PennController,8,_Trial_,Start,1687412009894,5c0ed000fd0c0a0001f881ea,5c0ed000fd0c0a0001f881ea,6,flower,critical,A,75,flower65.jpg,flower85.jpg,low,NULL
1687412150,a57c59ea1564dc80e5d2a960d0f9a847,PennController,10,0,experiment,NULL,PennController,8,_Header_,Start,1687412009894,5c0ed000fd0c0a0001f881ea,5c0ed000fd0c0a0001f881ea,6,flower,critical,A,75,flower65.jpg,flower85.jpg,low,NULL
1687412150,a57c59ea1564dc80e5d2a960d0f9a847,PennController,10,0,experiment,NULL,PennController,8,_Header_,End,1687412009895,5c0ed000fd0c0a0001f881ea,5c0ed000fd0c0a0001f881ea,6,flower,critical,A,75,flower65.jpg,flower85.jpg,low,NULL
1687412150,a57c59ea1564dc80e5d2a960d0f9a847,PennController,10,0,experiment,NULL,Canvas,canvas6,Print,NA,1687412017578,5c0ed000fd0c0a0001f881ea,5c0ed000fd0c0a0001f881ea,6,flower,critical,A,75,flower65.jpg,flower85.jpg,low,NULL
1687412150,a57c59ea1564dc80e5d2a960d0f9a847,PennController,10,0,experiment,NULL,Video,progression,buffer,0.003369,1687412013417,5c0ed000fd0c0a0001f881ea,5c0ed000fd0c0a0001f881ea,6,flower,critical,A,75,flower65.jpg,flower85.jpg,low,NULL
1687412150,a57c59ea1564dc80e5d2a960d0f9a847,PennController,10,0,experiment,NULL,Selector,choice,Selection,option2,1687412024710,5c0ed000fd0c0a0001f881ea,5c0ed000fd0c0a0001f881ea,6,flower,critical,A,75,flower65.jpg,flower85.jpg,low,option1;option2
1687412150,a57c59ea1564dc80e5d2a960d0f9a847,PennController,10,0,experiment,NULL,PennController,8,_Trial_,End,1687412024712,5c0ed000fd0c0a0001f881ea,5c0ed000fd0c0a0001f881ea,6,flower,critical,A,75,flower65.jpg,flower85.jpg,low,NULL
1687412150,a57c59ea1564dc80e5d2a960d0f9a847,PennController,29,0,experiment,NULL,PennController,27,_Trial_,Start,1687412024714,5c0ed000fd0c0a0001f881ea,5c0ed000fd0c0a0001f881ea,25,house,filler,A,25,house15.jpg,house35.jpg,GoalA,NULL
1687412150,a57c59ea1564dc80e5d2a960d0f9a847,PennController,29,0,experiment,NULL,PennController,27,_Header_,Start,1687412024714,5c0ed000fd0c0a0001f881ea,5c0ed000fd0c0a0001f881ea,25,house,filler,A,25,house15.jpg,house35.jpg,GoalA,NULL
1687412150,a57c59ea1564dc80e5d2a960d0f9a847,PennController,29,0,experiment,NULL,PennController,27,_Header_,End,1687412024714,5c0ed000fd0c0a0001f881ea,5c0ed000fd0c0a0001f881ea,25,house,filler,A,25,house15.jpg,house35.jpg,GoalA,NULL
1687412150,a57c59ea1564dc80e5d2a960d0f9a847,PennController,29,0,experiment,NULL,Canvas,canvas6,Print,NA,1687412030389,5c0ed000fd0c0a0001f881ea,5c0ed000fd0c0a0001f881ea,25,house,filler,A,25,house15.jpg,house35.jpg,GoalA,NULL
1687412150,a57c59ea1564dc80e5d2a960d0f9a847,PennController,29,0,experiment,NULL,Video,progression,buffer,0.001795,1687412028229,5c0ed000fd0c0a0001f881ea,5c0ed000fd0c0a0001f881ea,25,house,filler,A,25,house15.jpg,house35.jpg,GoalA,NULL
1687412150,a57c59ea1564dc80e5d2a960d0f9a847,PennController,29,0,experiment,NULL,Selector,choice,Selection,option2,1687412033099,5c0ed000fd0c0a0001f881ea,5c0ed000fd0c0a0001f881ea,25,house,filler,A,25,house15.jpg,house35.jpg,GoalA,option1;option2
1687412150,a57c59ea1564dc80e5d2a960d0f9a847,PennController,29,0,experiment,NULL,PennController,27,_Trial_,End,1687412033101,5c0ed000fd0c0a0001f881ea,5c0ed000fd0c0a0001f881ea,25,house,filler,A,25,house15.jpg,house35.jpg,GoalA,NULL
1687412150,a57c59ea1564dc80e5d2a960d0f9a847,PennController,22,0,experiment,NULL,PennController,20,_Trial_,Start,1687412033102,5c0ed000fd0c0a0001f881ea,5c0ed000fd0c0a0001f881ea,18,ball,critical,A,75,ball65.jpg,ball85.jpg,low,NULL
1687412150,a57c59ea1564dc80e5d2a960d0f9a847,PennController,22,0,experiment,NULL,PennController,20,_Header_,Start,1687412033102,5c0ed000fd0c0a0001f881ea,5c0ed000fd0c0a0001f881ea,18,ball,critical,A,75,ball65.jpg,ball85.jpg,low,NULL
1687412150,a57c59ea1564dc80e5d2a960d0f9a847,PennController,22,0,experiment,NULL,PennController,20,_Header_,End,1687412033102,5c0ed000fd0c0a0001f881ea,5c0ed000fd0c0a0001f881ea,18,ball,critical,A,75,ball65.jpg,ball85.jpg,low,NULL
1687412150,a57c59ea1564dc80e5d2a960d0f9a847,PennController,22,0,experiment,NULL,Canvas,canvas6,Print,NA,1687412040790,5c0ed000fd0c0a0001f881ea,5c0ed000fd0c0a0001f881ea,18,ball,critical,A,75,ball65.jpg,ball85.jpg,low,NULL
1687412150,a57c59ea1564dc80e5d2a960d0f9a847,PennController,22,0,experiment,NULL,Video,progression,buffer,0.002484,1687412036618,5c0ed000fd0c0a0001f881ea,5c0ed000fd0c0a0001f881ea,18,ball,critical,A,75,ball65.jpg,ball85.jpg,low,NULL
1687412150,a57c59ea1564dc80e5d2a960d0f9a847,PennController,22,0,experiment,NULL,Selector,choice,Selection,option2,1687412042311,5c0ed000fd0c0a0001f881ea,5c0ed000fd0c0a0001f881ea,18,ball,critical,A,75,ball65.jpg,ball85.jpg,low,option1;option2
1687412150,a57c59ea1564dc80e5d2a960d0f9a847,PennController,22,0,experiment,NULL,PennController,20,_Trial_,End,1687412042313,5c0ed000fd0c0a0001f881ea,5c0ed000fd0c0a0001f881ea,18,ball,critical,A,75,ball65.jpg,ball85.jpg,low,NULL
1687412150,a57c59ea1564dc80e5d2a960d0f9a847,PennController,9,0,experiment,NULL,PennController,7,_Trial_,Start,1687412042315,5c0ed000fd0c0a0001f881ea,5c0ed000fd0c0a0001f881ea,5,book,critical,A,50,book40.jpg,book60.jpg,low,NULL
1687412150,a57c59ea1564dc80e5d2a960d0f9a847,PennController,9,0,experiment,NULL,PennController,7,_Header_,Start,1687412042315,5c0ed000fd0c0a0001f881ea,5c0ed000fd0c0a0001f881ea,5,book,critical,A,50,book40.jpg,book60.jpg,low,NULL
1687412150,a57c59ea1564dc80e5d2a960d0f9a847,PennController,9,0,experiment,NULL,PennController,7,_Header_,End,1687412042315,5c0ed000fd0c0a0001f881ea,5c0ed000fd0c0a0001f881ea,5,book,critical,A,50,book40.jpg,book60.jpg,low,NULL
1687412150,a57c59ea1564dc80e5d2a960d0f9a847,PennController,9,0,experiment,NULL,Canvas,canvas6,Print,NA,1687412049005,5c0ed000fd0c0a0001f881ea,5c0ed000fd0c0a0001f881ea,5,book,critical,A,50,book40.jpg,book60.jpg,low,NULL
1687412150,a57c59ea1564dc80e5d2a960d0f9a847,PennController,9,0,experiment,NULL,Video,progression,buffer,0.002622,1687412045835,5c0ed000fd0c0a0001f881ea,5c0ed000fd0c0a0001f881ea,5,book,critical,A,50,book40.jpg,book60.jpg,low,NULL
1687412150,a57c59ea1564dc80e5d2a960d0f9a847,PennController,9,0,experiment,NULL,Selector,choice,Selection,option1,1687412052457,5c0ed000fd0c0a0001f881ea,5c0ed000fd0c0a0001f881ea,5,book,critical,A,50,book40.jpg,book60.jpg,low,option2;option1
1687412150,a57c59ea1564dc80e5d2a960d0f9a847,PennController,9,0,experiment,NULL,PennController,7,_Trial_,End,1687412052459,5c0ed000fd0c0a0001f881ea,5c0ed000fd0c0a0001f881ea,5,book,critical,A,50,book40.jpg,book60.jpg,low,NULL
1687412150,a57c59ea1564dc80e5d2a960d0f9a847,PennController,19,0,experiment,NULL,PennController,17,_Trial_,Start,1687412052460,5c0ed000fd0c0a0001f881ea,5c0ed000fd0c0a0001f881ea,15,zip,critical,A,75,zip65.jpg,zip85.jpg,low,NULL
1687412150,a57c59ea1564dc80e5d2a960d0f9a847,PennController,19,0,experiment,NULL,PennController,17,_Header_,Start,1687412052460,5c0ed000fd0c0a0001f881ea,5c0ed000fd0c0a0001f881ea,15,zip,critical,A,75,zip65.jpg,zip85.jpg,low,NULL
1687412150,a57c59ea1564dc80e5d2a960d0f9a847,PennController,19,0,experiment,NULL,PennController,17,_Header_,End,1687412052460,5c0ed000fd0c0a0001f881ea,5c0ed000fd0c0a0001f881ea,15,zip,critical,A,75,zip65.jpg,zip85.jpg,low,NULL
1687412150,a57c59ea1564dc80e5d2a960d0f9a847,PennController,19,0,experiment,NULL,Canvas,canvas6,Print,NA,1687412059353,5c0ed000fd0c0a0001f881ea,5c0ed000fd0c0a0001f881ea,15,zip,critical,A,75,zip65.jpg,zip85.jpg,low,NULL
1687412150,a57c59ea1564dc80e5d2a960d0f9a847,PennController,19,0,experiment,NULL,Video,progression,buffer,0.002268,1687412055981,5c0ed000fd0c0a0001f881ea,5c0ed000fd0c0a0001f881ea,15,zip,critical,A,75,zip65.jpg,zip85.jpg,low,NULL
1687412150,a57c59ea1564dc80e5d2a960d0f9a847,PennController,19,0,experiment,NULL,Selector,choice,Selection,option2,1687412061733,5c0ed000fd0c0a0001f881ea,5c0ed000fd0c0a0001f881ea,15,zip,critical,A,75,zip65.jpg,zip85.jpg,low,option1;option2
1687412150,a57c59ea1564dc80e5d2a960d0f9a847,PennController,19,0,experiment,NULL,PennController,17,_Trial_,End,1687412061735,5c0ed000fd0c0a0001f881ea,5c0ed000fd0c0a0001f881ea,15,zip,critical,A,75,zip65.jpg,zip85.jpg,low,NULL
1687412150,a57c59ea1564dc80e5d2a960d0f9a847,PennController,8,0,experiment,NULL,PennController,6,_Trial_,Start,1687412061737,5c0ed000fd0c0a0001f881ea,5c0ed000fd0c0a0001f881ea,4,candy,critical,A,25,candy15.jpg,candy35.jpg,low,NULL
1687412150,a57c59ea1564dc80e5d2a960d0f9a847,PennController,8,0,experiment,NULL,PennController,6,_Header_,Start,1687412061737,5c0ed000fd0c0a0001f881ea,5c0ed000fd0c0a0001f881ea,4,candy,critical,A,25,candy15.jpg,candy35.jpg,low,NULL
1687412150,a57c59ea1564dc80e5d2a960d0f9a847,PennController,8,0,experiment,NULL,PennController,6,_Header_,End,1687412061737,5c0ed000fd0c0a0001f881ea,5c0ed000fd0c0a0001f881ea,4,candy,critical,A,25,candy15.jpg,candy35.jpg,low,NULL
1687412150,a57c59ea1564dc80e5d2a960d0f9a847,PennController,8,0,experiment,NULL,Canvas,canvas6,Print,NA,1687412067419,5c0ed000fd0c0a0001f881ea,5c0ed000fd0c0a0001f881ea,4,candy,critical,A,25,candy15.jpg,candy35.jpg,low,NULL
1687412150,a57c59ea1564dc80e5d2a960d0f9a847,PennController,8,0,experiment,NULL,Video,progression,buffer,0.002046,1687412065259,5c0ed000fd0c0a0001f881ea,5c0ed000fd0c0a0001f881ea,4,candy,critical,A,25,candy15.jpg,candy35.jpg,low,NULL
1687412150,a57c59ea1564dc80e5d2a960d0f9a847,PennController,8,0,experiment,NULL,Selector,choice,Selection,option2,1687412070435,5c0ed000fd0c0a0001f881ea,5c0ed000fd0c0a0001f881ea,4,candy,critical,A,25,candy15.jpg,candy35.jpg,low,option1;option2
1687412150,a57c59ea1564dc80e5d2a960d0f9a847,PennController,8,0,experiment,NULL,PennController,6,_Trial_,End,1687412070437,5c0ed000fd0c0a0001f881ea,5c0ed000fd0c0a0001f881ea,4,candy,critical,A,25,candy15.jpg,candy35.jpg,low,NULL
1687412150,a57c59ea1564dc80e5d2a960d0f9a847,PennController,30,0,experiment,NULL,PennController,28,_Trial_,Start,1687412070438,5c0ed000fd0c0a0001f881ea,5c0ed000fd0c0a0001f881ea,26,sandwich,filler,A,50,sandwich40.jpg,sandwich60.jpg,GoalB,NULL
1687412150,a57c59ea1564dc80e5d2a960d0f9a847,PennController,30,0,experiment,NULL,PennController,28,_Header_,Start,1687412070438,5c0ed000fd0c0a0001f881ea,5c0ed000fd0c0a0001f881ea,26,sandwich,filler,A,50,sandwich40.jpg,sandwich60.jpg,GoalB,NULL
1687412150,a57c59ea1564dc80e5d2a960d0f9a847,PennController,30,0,experiment,NULL,PennController,28,_Header_,End,1687412070438,5c0ed000fd0c0a0001f881ea,5c0ed000fd0c0a0001f881ea,26,sandwich,filler,A,50,sandwich40.jpg,sandwich60.jpg,GoalB,NULL
1687412150,a57c59ea1564dc80e5d2a960d0f9a847,PennController,30,0,experiment,NULL,Canvas,canvas6,Print,NA,1687412077117,5c0ed000fd0c0a0001f881ea,5c0ed000fd0c0a0001f881ea,26,sandwich,filler,A,50,sandwich40.jpg,sandwich60.jpg,GoalB,NULL
1687412150,a57c59ea1564dc80e5d2a960d0f9a847,PennController,30,0,experiment,NULL,Video,progression,buffer,0.001776,1687412073954,5c0ed000fd0c0a0001f881ea,5c0ed000fd0c0a0001f881ea,26,sandwich,filler,A,50,sandwich40.jpg,sandwich60.jpg,GoalB,NULL
1687412150,a57c59ea1564dc80e5d2a960d0f9a847,PennController,30,0,experiment,NULL,Selector,choice,Selection,option1,1687412079265,5c0ed000fd0c0a0001f881ea,5c0ed000fd0c0a0001f881ea,26,sandwich,filler,A,50,sandwich40.jpg,sandwich60.jpg,GoalB,option2;option1
1687412150,a57c59ea1564dc80e5d2a960d0f9a847,PennController,30,0,experiment,NULL,PennController,28,_Trial_,End,1687412079267,5c0ed000fd0c0a0001f881ea,5c0ed000fd0c0a0001f881ea,26,sandwich,filler,A,50,sandwich40.jpg,sandwich60.jpg,GoalB,NULL
1687412150,a57c59ea1564dc80e5d2a960d0f9a847,PennController,14,0,experiment,NULL,PennController,12,_Trial_,Start,1687412079268,5c0ed000fd0c0a0001f881ea,5c0ed000fd0c0a0001f881ea,10,train,critical,A,25,train15.jpg,train35.jpg,low,NULL
1687412150,a57c59ea1564dc80e5d2a960d0f9a847,PennController,14,0,experiment,NULL,PennController,12,_Header_,Start,1687412079268,5c0ed000fd0c0a0001f881ea,5c0ed000fd0c0a0001f881ea,10,train,critical,A,25,train15.jpg,train35.jpg,low,NULL
1687412150,a57c59ea1564dc80e5d2a960d0f9a847,PennController,14,0,experiment,NULL,PennController,12,_Header_,End,1687412079269,5c0ed000fd0c0a0001f881ea,5c0ed000fd0c0a0001f881ea,10,train,critical,A,25,train15.jpg,train35.jpg,low,NULL
1687412150,a57c59ea1564dc80e5d2a960d0f9a847,PennController,14,0,experiment,NULL,Canvas,canvas6,Print,NA,1687412084950,5c0ed000fd0c0a0001f881ea,5c0ed000fd0c0a0001f881ea,10,train,critical,A,25,train15.jpg,train35.jpg,low,NULL
1687412150,a57c59ea1564dc80e5d2a960d0f9a847,PennController,14,0,experiment,NULL,Video,progression,buffer,0.002496,1687412082787,5c0ed000fd0c0a0001f881ea,5c0ed000fd0c0a0001f881ea,10,train,critical,A,25,train15.jpg,train35.jpg,low,NULL
1687412150,a57c59ea1564dc80e5d2a960d0f9a847,PennController,14,0,experiment,NULL,Selector,choice,Selection,option1,1687412086773,5c0ed000fd0c0a0001f881ea,5c0ed000fd0c0a0001f881ea,10,train,critical,A,25,train15.jpg,train35.jpg,low,option1;option2
1687412150,a57c59ea1564dc80e5d2a960d0f9a847,PennController,14,0,experiment,NULL,PennController,12,_Trial_,End,1687412086775,5c0ed000fd0c0a0001f881ea,5c0ed000fd0c0a0001f881ea,10,train,critical,A,25,train15.jpg,train35.jpg,low,NULL
1687412150,a57c59ea1564dc80e5d2a960d0f9a847,PennController,32,0,experiment,NULL,PennController,30,_Trial_,Start,1687412086776,5c0ed000fd0c0a0001f881ea,5c0ed000fd0c0a0001f881ea,28,sort,filler,A,25,sort15.jpg,sort35.jpg,GoalB,NULL
1687412150,a57c59ea1564dc80e5d2a960d0f9a847,PennController,32,0,experiment,NULL,PennController,30,_Header_,Start,1687412086776,5c0ed000fd0c0a0001f881ea,5c0ed000fd0c0a0001f881ea,28,sort,filler,A,25,sort15.jpg,sort35.jpg,GoalB,NULL
1687412150,a57c59ea1564dc80e5d2a960d0f9a847,PennController,32,0,experiment,NULL,PennController,30,_Header_,End,1687412086776,5c0ed000fd0c0a0001f881ea,5c0ed000fd0c0a0001f881ea,28,sort,filler,A,25,sort15.jpg,sort35.jpg,GoalB,NULL
1687412150,a57c59ea1564dc80e5d2a960d0f9a847,PennController,32,0,experiment,NULL,Canvas,canvas6,Print,NA,1687412092465,5c0ed000fd0c0a0001f881ea,5c0ed000fd0c0a0001f881ea,28,sort,filler,A,25,sort15.jpg,sort35.jpg,GoalB,NULL
1687412150,a57c59ea1564dc80e5d2a960d0f9a847,PennController,32,0,experiment,NULL,Video,progression,buffer,0.003708,1687412090298,5c0ed000fd0c0a0001f881ea,5c0ed000fd0c0a0001f881ea,28,sort,filler,A,25,sort15.jpg,sort35.jpg,GoalB,NULL
1687412150,a57c59ea1564dc80e5d2a960d0f9a847,PennController,32,0,experiment,NULL,Selector,choice,Selection,option2,1687412094987,5c0ed000fd0c0a0001f881ea,5c0ed000fd0c0a0001f881ea,28,sort,filler,A,25,sort15.jpg,sort35.jpg,GoalB,option1;option2
1687412150,a57c59ea1564dc80e5d2a960d0f9a847,PennController,32,0,experiment,NULL,PennController,30,_Trial_,End,1687412094989,5c0ed000fd0c0a0001f881ea,5c0ed000fd0c0a0001f881ea,28,sort,filler,A,25,sort15.jpg,sort35.jpg,GoalB,NULL
1687412150,a57c59ea1564dc80e5d2a960d0f9a847,PennController,28,0,experiment,NULL,PennController,26,_Trial_,Start,1687412094991,5c0ed000fd0c0a0001f881ea,5c0ed000fd0c0a0001f881ea,24,match,filler,A,75,match65.jpg,match85.jpg,GoalB,NULL
1687412150,a57c59ea1564dc80e5d2a960d0f9a847,PennController,28,0,experiment,NULL,PennController,26,_Header_,Start,1687412094991,5c0ed000fd0c0a0001f881ea,5c0ed000fd0c0a0001f881ea,24,match,filler,A,75,match65.jpg,match85.jpg,GoalB,NULL
1687412150,a57c59ea1564dc80e5d2a960d0f9a847,PennController,28,0,experiment,NULL,PennController,26,_Header_,End,1687412094991,5c0ed000fd0c0a0001f881ea,5c0ed000fd0c0a0001f881ea,24,match,filler,A,75,match65.jpg,match85.jpg,GoalB,NULL
1687412150,a57c59ea1564dc80e5d2a960d0f9a847,PennController,28,0,experiment,NULL,Canvas,canvas6,Print,NA,1687412102678,5c0ed000fd0c0a0001f881ea,5c0ed000fd0c0a0001f881ea,24,match,filler,A,75,match65.jpg,match85.jpg,GoalB,NULL
1687412150,a57c59ea1564dc80e5d2a960d0f9a847,PennController,28,0,experiment,NULL,Video,progression,buffer,0.002719,1687412098515,5c0ed000fd0c0a0001f881ea,5c0ed000fd0c0a0001f881ea,24,match,filler,A,75,match65.jpg,match85.jpg,GoalB,NULL
1687412150,a57c59ea1564dc80e5d2a960d0f9a847,PennController,28,0,experiment,NULL,Selector,choice,Selection,option1,1687412105114,5c0ed000fd0c0a0001f881ea,5c0ed000fd0c0a0001f881ea,24,match,filler,A,75,match65.jpg,match85.jpg,GoalB,option1;option2
1687412150,a57c59ea1564dc80e5d2a960d0f9a847,PennController,28,0,experiment,NULL,PennController,26,_Trial_,End,1687412105115,5c0ed000fd0c0a0001f881ea,5c0ed000fd0c0a0001f881ea,24,match,filler,A,75,match65.jpg,match85.jpg,GoalB,NULL
1687412150,a57c59ea1564dc80e5d2a960d0f9a847,PennController,7,0,experiment,NULL,PennController,5,_Trial_,Start,1687412105117,5c0ed000fd0c0a0001f881ea,5c0ed000fd0c0a0001f881ea,3,clean,critical,A,75,clean65.jpg,clean85.jpg,low,NULL
1687412150,a57c59ea1564dc80e5d2a960d0f9a847,PennController,7,0,experiment,NULL,PennController,5,_Header_,Start,1687412105117,5c0ed000fd0c0a0001f881ea,5c0ed000fd0c0a0001f881ea,3,clean,critical,A,75,clean65.jpg,clean85.jpg,low,NULL
1687412150,a57c59ea1564dc80e5d2a960d0f9a847,PennController,7,0,experiment,NULL,PennController,5,_Header_,End,1687412105117,5c0ed000fd0c0a0001f881ea,5c0ed000fd0c0a0001f881ea,3,clean,critical,A,75,clean65.jpg,clean85.jpg,low,NULL
1687412150,a57c59ea1564dc80e5d2a960d0f9a847,PennController,7,0,experiment,NULL,Canvas,canvas6,Print,NA,1687412112797,5c0ed000fd0c0a0001f881ea,5c0ed000fd0c0a0001f881ea,3,clean,critical,A,75,clean65.jpg,clean85.jpg,low,NULL
1687412150,a57c59ea1564dc80e5d2a960d0f9a847,PennController,7,0,experiment,NULL,Video,progression,buffer,0.002163,1687412108638,5c0ed000fd0c0a0001f881ea,5c0ed000fd0c0a0001f881ea,3,clean,critical,A,75,clean65.jpg,clean85.jpg,low,NULL
1687412150,a57c59ea1564dc80e5d2a960d0f9a847,PennController,7,0,experiment,NULL,Selector,choice,Selection,option1,1687412114102,5c0ed000fd0c0a0001f881ea,5c0ed000fd0c0a0001f881ea,3,clean,critical,A,75,clean65.jpg,clean85.jpg,low,option1;option2
1687412150,a57c59ea1564dc80e5d2a960d0f9a847,PennController,7,0,experiment,NULL,PennController,5,_Trial_,End,1687412114103,5c0ed000fd0c0a0001f881ea,5c0ed000fd0c0a0001f881ea,3,clean,critical,A,75,clean65.jpg,clean85.jpg,low,NULL
1687412150,a57c59ea1564dc80e5d2a960d0f9a847,PennController,17,0,experiment,NULL,PennController,15,_Trial_,Start,1687412114104,5c0ed000fd0c0a0001f881ea,5c0ed000fd0c0a0001f881ea,13,mix,critical,A,25,mix15.jpg,mix35.jpg,low,NULL
1687412150,a57c59ea1564dc80e5d2a960d0f9a847,PennController,17,0,experiment,NULL,PennController,15,_Header_,Start,1687412114104,5c0ed000fd0c0a0001f881ea,5c0ed000fd0c0a0001f881ea,13,mix,critical,A,25,mix15.jpg,mix35.jpg,low,NULL
1687412150,a57c59ea1564dc80e5d2a960d0f9a847,PennController,17,0,experiment,NULL,PennController,15,_Header_,End,1687412114105,5c0ed000fd0c0a0001f881ea,5c0ed000fd0c0a0001f881ea,13,mix,critical,A,25,mix15.jpg,mix35.jpg,low,NULL
1687412150,a57c59ea1564dc80e5d2a960d0f9a847,PennController,17,0,experiment,NULL,Canvas,canvas6,Print,NA,1687412119797,5c0ed000fd0c0a0001f881ea,5c0ed000fd0c0a0001f881ea,13,mix,critical,A,25,mix15.jpg,mix35.jpg,low,NULL
1687412150,a57c59ea1564dc80e5d2a960d0f9a847,PennController,17,0,experiment,NULL,Video,progression,buffer,0.002045,1687412117627,5c0ed000fd0c0a0001f881ea,5c0ed000fd0c0a0001f881ea,13,mix,critical,A,25,mix15.jpg,mix35.jpg,low,NULL
1687412150,a57c59ea1564dc80e5d2a960d0f9a847,PennController,17,0,experiment,NULL,Selector,choice,Selection,option1,1687412121408,5c0ed000fd0c0a0001f881ea,5c0ed000fd0c0a0001f881ea,13,mix,critical,A,25,mix15.jpg,mix35.jpg,low,option2;option1
1687412150,a57c59ea1564dc80e5d2a960d0f9a847,PennController,17,0,experiment,NULL,PennController,15,_Trial_,End,1687412121409,5c0ed000fd0c0a0001f881ea,5c0ed000fd0c0a0001f881ea,13,mix,critical,A,25,mix15.jpg,mix35.jpg,low,NULL
1687412150,a57c59ea1564dc80e5d2a960d0f9a847,PennController,18,0,experiment,NULL,PennController,16,_Trial_,Start,1687412121411,5c0ed000fd0c0a0001f881ea,5c0ed000fd0c0a0001f881ea,14,cover,critical,A,50,cover42.jpg,cover60.jpg,low,NULL
1687412150,a57c59ea1564dc80e5d2a960d0f9a847,PennController,18,0,experiment,NULL,PennController,16,_Header_,Start,1687412121411,5c0ed000fd0c0a0001f881ea,5c0ed000fd0c0a0001f881ea,14,cover,critical,A,50,cover42.jpg,cover60.jpg,low,NULL
1687412150,a57c59ea1564dc80e5d2a960d0f9a847,PennController,18,0,experiment,NULL,PennController,16,_Header_,End,1687412121411,5c0ed000fd0c0a0001f881ea,5c0ed000fd0c0a0001f881ea,14,cover,critical,A,50,cover42.jpg,cover60.jpg,low,NULL
1687412150,a57c59ea1564dc80e5d2a960d0f9a847,PennController,18,0,experiment,NULL,Canvas,canvas6,Print,NA,1687412129496,5c0ed000fd0c0a0001f881ea,5c0ed000fd0c0a0001f881ea,14,cover,critical,A,50,cover42.jpg,cover60.jpg,low,NULL
1687412150,a57c59ea1564dc80e5d2a960d0f9a847,PennController,18,0,experiment,NULL,Video,progression,buffer,0.001682,1687412124928,5c0ed000fd0c0a0001f881ea,5c0ed000fd0c0a0001f881ea,14,cover,critical,A,50,cover42.jpg,cover60.jpg,low,NULL
1687412150,a57c59ea1564dc80e5d2a960d0f9a847,PennController,18,0,experiment,NULL,Selector,choice,Selection,option1,1687412131336,5c0ed000fd0c0a0001f881ea,5c0ed000fd0c0a0001f881ea,14,cover,critical,A,50,cover42.jpg,cover60.jpg,low,option2;option1
1687412150,a57c59ea1564dc80e5d2a960d0f9a847,PennController,18,0,experiment,NULL,PennController,16,_Trial_,End,1687412131337,5c0ed000fd0c0a0001f881ea,5c0ed000fd0c0a0001f881ea,14,cover,critical,A,50,cover42.jpg,cover60.jpg,low,NULL
1687412150,a57c59ea1564dc80e5d2a960d0f9a847,PennController,20,0,experiment,NULL,PennController,18,_Trial_,Start,1687412131338,5c0ed000fd0c0a0001f881ea,5c0ed000fd0c0a0001f881ea,16,blinds,critical,A,25,blinds15.jpg,blinds33.jpg,low,NULL
1687412150,a57c59ea1564dc80e5d2a960d0f9a847,PennController,20,0,experiment,NULL,PennController,18,_Header_,Start,1687412131338,5c0ed000fd0c0a0001f881ea,5c0ed000fd0c0a0001f881ea,16,blinds,critical,A,25,blinds15.jpg,blinds33.jpg,low,NULL
1687412150,a57c59ea1564dc80e5d2a960d0f9a847,PennController,20,0,experiment,NULL,PennController,18,_Header_,End,1687412131338,5c0ed000fd0c0a0001f881ea,5c0ed000fd0c0a0001f881ea,16,blinds,critical,A,25,blinds15.jpg,blinds33.jpg,low,NULL
1687412150,a57c59ea1564dc80e5d2a960d0f9a847,PennController,20,0,experiment,NULL,Canvas,canvas6,Print,NA,1687412137628,5c0ed000fd0c0a0001f881ea,5c0ed000fd0c0a0001f881ea,16,blinds,critical,A,25,blinds15.jpg,blinds33.jpg,low,NULL
1687412150,a57c59ea1564dc80e5d2a960d0f9a847,PennController,20,0,experiment,NULL,Video,progression,buffer,0.001794,1687412134859,5c0ed000fd0c0a0001f881ea,5c0ed000fd0c0a0001f881ea,16,blinds,critical,A,25,blinds15.jpg,blinds33.jpg,low,NULL
1687412150,a57c59ea1564dc80e5d2a960d0f9a847,PennController,20,0,experiment,NULL,Selector,choice,Selection,option2,1687412139302,5c0ed000fd0c0a0001f881ea,5c0ed000fd0c0a0001f881ea,16,blinds,critical,A,25,blinds15.jpg,blinds33.jpg,low,option2;option1
1687412150,a57c59ea1564dc80e5d2a960d0f9a847,PennController,20,0,experiment,NULL,PennController,18,_Trial_,End,1687412139303,5c0ed000fd0c0a0001f881ea,5c0ed000fd0c0a0001f881ea,16,blinds,critical,A,25,blinds15.jpg,blinds33.jpg,low,NULL
1687412150,a57c59ea1564dc80e5d2a960d0f9a847,PennController,24,0,experiment,NULL,PennController,22,_Trial_,Start,1687412139305,5c0ed000fd0c0a0001f881ea,5c0ed000fd0c0a0001f881ea,20,cat,filler,A,50,cat40.jpg,cat60.jpg,GoalB,NULL
1687412150,a57c59ea1564dc80e5d2a960d0f9a847,PennController,24,0,experiment,NULL,PennController,22,_Header_,Start,1687412139305,5c0ed000fd0c0a0001f881ea,5c0ed000fd0c0a0001f881ea,20,cat,filler,A,50,cat40.jpg,cat60.jpg,GoalB,NULL
1687412150,a57c59ea1564dc80e5d2a960d0f9a847,PennController,24,0,experiment,NULL,PennController,22,_Header_,End,1687412139305,5c0ed000fd0c0a0001f881ea,5c0ed000fd0c0a0001f881ea,20,cat,filler,A,50,cat40.jpg,cat60.jpg,GoalB,NULL
1687412150,a57c59ea1564dc80e5d2a960d0f9a847,PennController,24,0,experiment,NULL,Canvas,canvas6,Print,NA,1687412145993,5c0ed000fd0c0a0001f881ea,5c0ed000fd0c0a0001f881ea,20,cat,filler,A,50,cat40.jpg,cat60.jpg,GoalB,NULL
1687412150,a57c59ea1564dc80e5d2a960d0f9a847,PennController,24,0,experiment,NULL,Video,progression,buffer,0.002633,1687412142827,5c0ed000fd0c0a0001f881ea,5c0ed000fd0c0a0001f881ea,20,cat,filler,A,50,cat40.jpg,cat60.jpg,GoalB,NULL
1687412150,a57c59ea1564dc80e5d2a960d0f9a847,PennController,24,0,experiment,NULL,Selector,choice,Selection,option2,1687412147388,5c0ed000fd0c0a0001f881ea,5c0ed000fd0c0a0001f881ea,20,cat,filler,A,50,cat40.jpg,cat60.jpg,GoalB,option2;option1
1687412150,a57c59ea1564dc80e5d2a960d0f9a847,PennController,24,0,experiment,NULL,PennController,22,_Trial_,End,1687412147389,5c0ed000fd0c0a0001f881ea,5c0ed000fd0c0a0001f881ea,20,cat,filler,A,50,cat40.jpg,cat60.jpg,GoalB,NULL
