#
# Results on Tuesday June 20 2023 18:57:09 UTC
# USER AGENT: Mozilla/5.0 (Windows NT 10.0; Win64; x64) AppleWebKit/537.36 (KHTML, like Gecko) Chrome/114.0.0.0 Safari/537.36
# Design number was non-random = 3
#
# Columns below this comment are as follows:
# 1. Results reception time.
# 2. MD5 hash of participant's IP address.
# 3. Controller name.
# 4. Order number of item.
# 5. Inner element number.
# 6. Label.
# 7. Latin Square Group.
# 8. PennElementType.
# 9. PennElementName.
# 10. Parameter.
# 11. Value.
# 12. EventTime.
# 13. PROLIFIC_ID.
# 14. Comments.
1687287429,626c1c14ca95ee2ba1bb1eb36954195d,PennController,2,0,consent,NULL,PennController,0,_Trial_,Start,1687287089626,60b651001e68c8d9f46eedcc,NULL
1687287429,626c1c14ca95ee2ba1bb1eb36954195d,PennController,2,0,consent,NULL,PennController,0,_Header_,Start,1687287089626,60b651001e68c8d9f46eedcc,NULL
1687287429,626c1c14ca95ee2ba1bb1eb36954195d,PennController,2,0,consent,NULL,PennController,0,_Header_,End,1687287089626,60b651001e68c8d9f46eedcc,NULL
1687287429,626c1c14ca95ee2ba1bb1eb36954195d,PennController,2,0,consent,NULL,PennController,0,_Trial_,End,1687287125485,60b651001e68c8d9f46eedcc,NULL
# Columns below this comment are as follows:
# 14. ID.
# 15. Comments.
1687287429,626c1c14ca95ee2ba1bb1eb36954195d,PennController,3,0,intro,NULL,PennController,1,_Trial_,Start,1687287125487,60b651001e68c8d9f46eedcc,60b651001e68c8d9f46eedcc,NULL
1687287429,626c1c14ca95ee2ba1bb1eb36954195d,PennController,3,0,intro,NULL,PennController,1,_Header_,Start,1687287125487,60b651001e68c8d9f46eedcc,60b651001e68c8d9f46eedcc,NULL
1687287429,626c1c14ca95ee2ba1bb1eb36954195d,PennController,3,0,intro,NULL,PennController,1,_Header_,End,1687287125487,60b651001e68c8d9f46eedcc,60b651001e68c8d9f46eedcc,NULL
1687287429,626c1c14ca95ee2ba1bb1eb36954195d,PennController,3,0,intro,NULL,PennController,1,_Trial_,End,1687287159315,60b651001e68c8d9f46eedcc,60b651001e68c8d9f46eedcc,NULL
# Columns below this comment are as follows:
# 15. item_number.
# 16. item.
# 17. type.
# 18. Group.
# 19. prog.
# 20. prev_image.
# 21. next_image.
# 22. height.
# 23. Comments.
1687287429,626c1c14ca95ee2ba1bb1eb36954195d,PennController,10,0,experiment,NULL,PennController,9,_Trial_,Start,1687287159317,60b651001e68c8d9f46eedcc,60b651001e68c8d9f46eedcc,7,stack,critical,D,25,stack15.jpg,stack35.jpg,high,NULL
1687287429,626c1c14ca95ee2ba1bb1eb36954195d,PennController,10,0,experiment,NULL,PennController,9,_Header_,Start,1687287159317,60b651001e68c8d9f46eedcc,60b651001e68c8d9f46eedcc,7,stack,critical,D,25,stack15.jpg,stack35.jpg,high,NULL
1687287429,626c1c14ca95ee2ba1bb1eb36954195d,PennController,10,0,experiment,NULL,PennController,9,_Header_,End,1687287159317,60b651001e68c8d9f46eedcc,60b651001e68c8d9f46eedcc,7,stack,critical,D,25,stack15.jpg,stack35.jpg,high,NULL
1687287429,626c1c14ca95ee2ba1bb1eb36954195d,PennController,10,0,experiment,NULL,Canvas,canvas6,Print,NA,1687287165082,60b651001e68c8d9f46eedcc,60b651001e68c8d9f46eedcc,7,stack,critical,D,25,stack15.jpg,stack35.jpg,high,NULL
1687287429,626c1c14ca95ee2ba1bb1eb36954195d,PennController,10,0,experiment,NULL,Video,progression,buffer,0.004114,1687287162879,60b651001e68c8d9f46eedcc,60b651001e68c8d9f46eedcc,7,stack,critical,D,25,stack15.jpg,stack35.jpg,high,NULL
1687287429,626c1c14ca95ee2ba1bb1eb36954195d,PennController,10,0,experiment,NULL,Selector,choice,Selection,option2,1687287167445,60b651001e68c8d9f46eedcc,60b651001e68c8d9f46eedcc,7,stack,critical,D,25,stack15.jpg,stack35.jpg,high,option1;option2
1687287429,626c1c14ca95ee2ba1bb1eb36954195d,PennController,10,0,experiment,NULL,PennController,9,_Trial_,End,1687287167446,60b651001e68c8d9f46eedcc,60b651001e68c8d9f46eedcc,7,stack,critical,D,25,stack15.jpg,stack35.jpg,high,NULL
1687287429,626c1c14ca95ee2ba1bb1eb36954195d,PennController,31,0,experiment,NULL,PennController,30,_Trial_,Start,1687287167447,60b651001e68c8d9f46eedcc,60b651001e68c8d9f46eedcc,28,sort,filler,D,25,sort15.jpg,sort35.jpg,GoalA,NULL
1687287429,626c1c14ca95ee2ba1bb1eb36954195d,PennController,31,0,experiment,NULL,PennController,30,_Header_,Start,1687287167447,60b651001e68c8d9f46eedcc,60b651001e68c8d9f46eedcc,28,sort,filler,D,25,sort15.jpg,sort35.jpg,GoalA,NULL
1687287429,626c1c14ca95ee2ba1bb1eb36954195d,PennController,31,0,experiment,NULL,PennController,30,_Header_,End,1687287167447,60b651001e68c8d9f46eedcc,60b651001e68c8d9f46eedcc,28,sort,filler,D,25,sort15.jpg,sort35.jpg,GoalA,NULL
1687287429,626c1c14ca95ee2ba1bb1eb36954195d,PennController,31,0,experiment,NULL,Canvas,canvas6,Print,NA,1687287173179,60b651001e68c8d9f46eedcc,60b651001e68c8d9f46eedcc,28,sort,filler,D,25,sort15.jpg,sort35.jpg,GoalA,NULL
1687287429,626c1c14ca95ee2ba1bb1eb36954195d,PennController,31,0,experiment,NULL,Video,progression,buffer,0.006691,1687287170981,60b651001e68c8d9f46eedcc,60b651001e68c8d9f46eedcc,28,sort,filler,D,25,sort15.jpg,sort35.jpg,GoalA,NULL
1687287429,626c1c14ca95ee2ba1bb1eb36954195d,PennController,31,0,experiment,NULL,Selector,choice,Selection,option2,1687287174397,60b651001e68c8d9f46eedcc,60b651001e68c8d9f46eedcc,28,sort,filler,D,25,sort15.jpg,sort35.jpg,GoalA,option1;option2
1687287429,626c1c14ca95ee2ba1bb1eb36954195d,PennController,31,0,experiment,NULL,PennController,30,_Trial_,End,1687287174398,60b651001e68c8d9f46eedcc,60b651001e68c8d9f46eedcc,28,sort,filler,D,25,sort15.jpg,sort35.jpg,GoalA,NULL
1687287429,626c1c14ca95ee2ba1bb1eb36954195d,PennController,15,0,experiment,NULL,PennController,14,_Trial_,Start,1687287174399,60b651001e68c8d9f46eedcc,60b651001e68c8d9f46eedcc,12,erase,critical,D,75,erase66.jpg,erase84.jpg,high,NULL
1687287429,626c1c14ca95ee2ba1bb1eb36954195d,PennController,15,0,experiment,NULL,PennController,14,_Header_,Start,1687287174399,60b651001e68c8d9f46eedcc,60b651001e68c8d9f46eedcc,12,erase,critical,D,75,erase66.jpg,erase84.jpg,high,NULL
1687287429,626c1c14ca95ee2ba1bb1eb36954195d,PennController,15,0,experiment,NULL,PennController,14,_Header_,End,1687287174399,60b651001e68c8d9f46eedcc,60b651001e68c8d9f46eedcc,12,erase,critical,D,75,erase66.jpg,erase84.jpg,high,NULL
1687287429,626c1c14ca95ee2ba1bb1eb36954195d,PennController,15,0,experiment,NULL,Canvas,canvas6,Print,NA,1687287184125,60b651001e68c8d9f46eedcc,60b651001e68c8d9f46eedcc,12,erase,critical,D,75,erase66.jpg,erase84.jpg,high,NULL
1687287429,626c1c14ca95ee2ba1bb1eb36954195d,PennController,15,0,experiment,NULL,Video,progression,buffer,0.002795,1687287177924,60b651001e68c8d9f46eedcc,60b651001e68c8d9f46eedcc,12,erase,critical,D,75,erase66.jpg,erase84.jpg,high,NULL
1687287429,626c1c14ca95ee2ba1bb1eb36954195d,PennController,15,0,experiment,NULL,Selector,choice,Selection,option2,1687287185665,60b651001e68c8d9f46eedcc,60b651001e68c8d9f46eedcc,12,erase,critical,D,75,erase66.jpg,erase84.jpg,high,option2;option1
1687287429,626c1c14ca95ee2ba1bb1eb36954195d,PennController,15,0,experiment,NULL,PennController,14,_Trial_,End,1687287185666,60b651001e68c8d9f46eedcc,60b651001e68c8d9f46eedcc,12,erase,critical,D,75,erase66.jpg,erase84.jpg,high,NULL
1687287429,626c1c14ca95ee2ba1bb1eb36954195d,PennController,29,0,experiment,NULL,PennController,28,_Trial_,Start,1687287185667,60b651001e68c8d9f46eedcc,60b651001e68c8d9f46eedcc,26,sandwich,filler,D,50,sandwich40.jpg,sandwich60.jpg,GoalA,NULL
1687287429,626c1c14ca95ee2ba1bb1eb36954195d,PennController,29,0,experiment,NULL,PennController,28,_Header_,Start,1687287185667,60b651001e68c8d9f46eedcc,60b651001e68c8d9f46eedcc,26,sandwich,filler,D,50,sandwich40.jpg,sandwich60.jpg,GoalA,NULL
1687287429,626c1c14ca95ee2ba1bb1eb36954195d,PennController,29,0,experiment,NULL,PennController,28,_Header_,End,1687287185667,60b651001e68c8d9f46eedcc,60b651001e68c8d9f46eedcc,26,sandwich,filler,D,50,sandwich40.jpg,sandwich60.jpg,GoalA,NULL
1687287429,626c1c14ca95ee2ba1bb1eb36954195d,PennController,29,0,experiment,NULL,Canvas,canvas6,Print,NA,1687287192408,60b651001e68c8d9f46eedcc,60b651001e68c8d9f46eedcc,26,sandwich,filler,D,50,sandwich40.jpg,sandwich60.jpg,GoalA,NULL
1687287429,626c1c14ca95ee2ba1bb1eb36954195d,PennController,29,0,experiment,NULL,Video,progression,buffer,0.008415,1687287189214,60b651001e68c8d9f46eedcc,60b651001e68c8d9f46eedcc,26,sandwich,filler,D,50,sandwich40.jpg,sandwich60.jpg,GoalA,NULL
1687287429,626c1c14ca95ee2ba1bb1eb36954195d,PennController,29,0,experiment,NULL,Selector,choice,Selection,option1,1687287193908,60b651001e68c8d9f46eedcc,60b651001e68c8d9f46eedcc,26,sandwich,filler,D,50,sandwich40.jpg,sandwich60.jpg,GoalA,option1;option2
1687287429,626c1c14ca95ee2ba1bb1eb36954195d,PennController,29,0,experiment,NULL,PennController,28,_Trial_,End,1687287193909,60b651001e68c8d9f46eedcc,60b651001e68c8d9f46eedcc,26,sandwich,filler,D,50,sandwich40.jpg,sandwich60.jpg,GoalA,NULL
1687287429,626c1c14ca95ee2ba1bb1eb36954195d,PennController,27,0,experiment,NULL,PennController,26,_Trial_,Start,1687287193910,60b651001e68c8d9f46eedcc,60b651001e68c8d9f46eedcc,24,match,filler,D,75,match65.jpg,match85.jpg,GoalA,NULL
1687287429,626c1c14ca95ee2ba1bb1eb36954195d,PennController,27,0,experiment,NULL,PennController,26,_Header_,Start,1687287193910,60b651001e68c8d9f46eedcc,60b651001e68c8d9f46eedcc,24,match,filler,D,75,match65.jpg,match85.jpg,GoalA,NULL
1687287429,626c1c14ca95ee2ba1bb1eb36954195d,PennController,27,0,experiment,NULL,PennController,26,_Header_,End,1687287193910,60b651001e68c8d9f46eedcc,60b651001e68c8d9f46eedcc,24,match,filler,D,75,match65.jpg,match85.jpg,GoalA,NULL
1687287429,626c1c14ca95ee2ba1bb1eb36954195d,PennController,27,0,experiment,NULL,Canvas,canvas6,Print,NA,1687287201638,60b651001e68c8d9f46eedcc,60b651001e68c8d9f46eedcc,24,match,filler,D,75,match65.jpg,match85.jpg,GoalA,NULL
1687287429,626c1c14ca95ee2ba1bb1eb36954195d,PennController,27,0,experiment,NULL,Video,progression,buffer,0.001899,1687287197438,60b651001e68c8d9f46eedcc,60b651001e68c8d9f46eedcc,24,match,filler,D,75,match65.jpg,match85.jpg,GoalA,NULL
1687287429,626c1c14ca95ee2ba1bb1eb36954195d,PennController,27,0,experiment,NULL,Selector,choice,Selection,option1,1687287203729,60b651001e68c8d9f46eedcc,60b651001e68c8d9f46eedcc,24,match,filler,D,75,match65.jpg,match85.jpg,GoalA,option2;option1
1687287429,626c1c14ca95ee2ba1bb1eb36954195d,PennController,27,0,experiment,NULL,PennController,26,_Trial_,End,1687287203729,60b651001e68c8d9f46eedcc,60b651001e68c8d9f46eedcc,24,match,filler,D,75,match65.jpg,match85.jpg,GoalA,NULL
1687287429,626c1c14ca95ee2ba1bb1eb36954195d,PennController,22,0,experiment,NULL,PennController,21,_Trial_,Start,1687287203730,60b651001e68c8d9f46eedcc,60b651001e68c8d9f46eedcc,19,cup,filler,D,25,cup15.jpg,cup35.jpg,GoalB,NULL
1687287429,626c1c14ca95ee2ba1bb1eb36954195d,PennController,22,0,experiment,NULL,PennController,21,_Header_,Start,1687287203730,60b651001e68c8d9f46eedcc,60b651001e68c8d9f46eedcc,19,cup,filler,D,25,cup15.jpg,cup35.jpg,GoalB,NULL
1687287429,626c1c14ca95ee2ba1bb1eb36954195d,PennController,22,0,experiment,NULL,PennController,21,_Header_,End,1687287203730,60b651001e68c8d9f46eedcc,60b651001e68c8d9f46eedcc,19,cup,filler,D,25,cup15.jpg,cup35.jpg,GoalB,NULL
1687287429,626c1c14ca95ee2ba1bb1eb36954195d,PennController,22,0,experiment,NULL,Canvas,canvas6,Print,NA,1687287209476,60b651001e68c8d9f46eedcc,60b651001e68c8d9f46eedcc,19,cup,filler,D,25,cup15.jpg,cup35.jpg,GoalB,NULL
1687287429,626c1c14ca95ee2ba1bb1eb36954195d,PennController,22,0,experiment,NULL,Video,progression,buffer,0.006175,1687287207269,60b651001e68c8d9f46eedcc,60b651001e68c8d9f46eedcc,19,cup,filler,D,25,cup15.jpg,cup35.jpg,GoalB,NULL
1687287429,626c1c14ca95ee2ba1bb1eb36954195d,PennController,22,0,experiment,NULL,Selector,choice,Selection,option2,1687287210677,60b651001e68c8d9f46eedcc,60b651001e68c8d9f46eedcc,19,cup,filler,D,25,cup15.jpg,cup35.jpg,GoalB,option1;option2
1687287429,626c1c14ca95ee2ba1bb1eb36954195d,PennController,22,0,experiment,NULL,PennController,21,_Trial_,End,1687287210678,60b651001e68c8d9f46eedcc,60b651001e68c8d9f46eedcc,19,cup,filler,D,25,cup15.jpg,cup35.jpg,GoalB,NULL
1687287429,626c1c14ca95ee2ba1bb1eb36954195d,PennController,9,0,experiment,NULL,PennController,8,_Trial_,Start,1687287210678,60b651001e68c8d9f46eedcc,60b651001e68c8d9f46eedcc,6,flower,critical,D,75,flower65.jpg,flower85.jpg,high,NULL
1687287429,626c1c14ca95ee2ba1bb1eb36954195d,PennController,9,0,experiment,NULL,PennController,8,_Header_,Start,1687287210678,60b651001e68c8d9f46eedcc,60b651001e68c8d9f46eedcc,6,flower,critical,D,75,flower65.jpg,flower85.jpg,high,NULL
1687287429,626c1c14ca95ee2ba1bb1eb36954195d,PennController,9,0,experiment,NULL,PennController,8,_Header_,End,1687287210678,60b651001e68c8d9f46eedcc,60b651001e68c8d9f46eedcc,6,flower,critical,D,75,flower65.jpg,flower85.jpg,high,NULL
1687287429,626c1c14ca95ee2ba1bb1eb36954195d,PennController,9,0,experiment,NULL,Canvas,canvas6,Print,NA,1687287218406,60b651001e68c8d9f46eedcc,60b651001e68c8d9f46eedcc,6,flower,critical,D,75,flower65.jpg,flower85.jpg,high,NULL
1687287429,626c1c14ca95ee2ba1bb1eb36954195d,PennController,9,0,experiment,NULL,Video,progression,buffer,0.001214,1687287214195,60b651001e68c8d9f46eedcc,60b651001e68c8d9f46eedcc,6,flower,critical,D,75,flower65.jpg,flower85.jpg,high,NULL
1687287429,626c1c14ca95ee2ba1bb1eb36954195d,PennController,9,0,experiment,NULL,Selector,choice,Selection,option1,1687287220717,60b651001e68c8d9f46eedcc,60b651001e68c8d9f46eedcc,6,flower,critical,D,75,flower65.jpg,flower85.jpg,high,option2;option1
1687287429,626c1c14ca95ee2ba1bb1eb36954195d,PennController,9,0,experiment,NULL,PennController,8,_Trial_,End,1687287220718,60b651001e68c8d9f46eedcc,60b651001e68c8d9f46eedcc,6,flower,critical,D,75,flower65.jpg,flower85.jpg,high,NULL
1687287429,626c1c14ca95ee2ba1bb1eb36954195d,PennController,8,0,experiment,NULL,PennController,7,_Trial_,Start,1687287220718,60b651001e68c8d9f46eedcc,60b651001e68c8d9f46eedcc,5,book,critical,D,50,book40.jpg,book60.jpg,high,NULL
1687287429,626c1c14ca95ee2ba1bb1eb36954195d,PennController,8,0,experiment,NULL,PennController,7,_Header_,Start,1687287220718,60b651001e68c8d9f46eedcc,60b651001e68c8d9f46eedcc,5,book,critical,D,50,book40.jpg,book60.jpg,high,NULL
1687287429,626c1c14ca95ee2ba1bb1eb36954195d,PennController,8,0,experiment,NULL,PennController,7,_Header_,End,1687287220718,60b651001e68c8d9f46eedcc,60b651001e68c8d9f46eedcc,5,book,critical,D,50,book40.jpg,book60.jpg,high,NULL
1687287429,626c1c14ca95ee2ba1bb1eb36954195d,PennController,8,0,experiment,NULL,Canvas,canvas6,Print,NA,1687287227461,60b651001e68c8d9f46eedcc,60b651001e68c8d9f46eedcc,5,book,critical,D,50,book40.jpg,book60.jpg,high,NULL
1687287429,626c1c14ca95ee2ba1bb1eb36954195d,PennController,8,0,experiment,NULL,Video,progression,buffer,0.007959,1687287224258,60b651001e68c8d9f46eedcc,60b651001e68c8d9f46eedcc,5,book,critical,D,50,book40.jpg,book60.jpg,high,NULL
1687287429,626c1c14ca95ee2ba1bb1eb36954195d,PennController,8,0,experiment,NULL,Selector,choice,Selection,option2,1687287232192,60b651001e68c8d9f46eedcc,60b651001e68c8d9f46eedcc,5,book,critical,D,50,book40.jpg,book60.jpg,high,option2;option1
1687287429,626c1c14ca95ee2ba1bb1eb36954195d,PennController,8,0,experiment,NULL,PennController,7,_Trial_,End,1687287232193,60b651001e68c8d9f46eedcc,60b651001e68c8d9f46eedcc,5,book,critical,D,50,book40.jpg,book60.jpg,high,NULL
1687287429,626c1c14ca95ee2ba1bb1eb36954195d,PennController,14,0,experiment,NULL,PennController,13,_Trial_,Start,1687287232194,60b651001e68c8d9f46eedcc,60b651001e68c8d9f46eedcc,11,beads,critical,D,50,beads40.jpg,beads60.jpg,high,NULL
1687287429,626c1c14ca95ee2ba1bb1eb36954195d,PennController,14,0,experiment,NULL,PennController,13,_Header_,Start,1687287232194,60b651001e68c8d9f46eedcc,60b651001e68c8d9f46eedcc,11,beads,critical,D,50,beads40.jpg,beads60.jpg,high,NULL
1687287429,626c1c14ca95ee2ba1bb1eb36954195d,PennController,14,0,experiment,NULL,PennController,13,_Header_,End,1687287232194,60b651001e68c8d9f46eedcc,60b651001e68c8d9f46eedcc,11,beads,critical,D,50,beads40.jpg,beads60.jpg,high,NULL
1687287429,626c1c14ca95ee2ba1bb1eb36954195d,PennController,14,0,experiment,NULL,Canvas,canvas6,Print,NA,1687287238924,60b651001e68c8d9f46eedcc,60b651001e68c8d9f46eedcc,11,beads,critical,D,50,beads40.jpg,beads60.jpg,high,NULL
1687287429,626c1c14ca95ee2ba1bb1eb36954195d,PennController,14,0,experiment,NULL,Video,progression,buffer,0.006951,1687287235725,60b651001e68c8d9f46eedcc,60b651001e68c8d9f46eedcc,11,beads,critical,D,50,beads40.jpg,beads60.jpg,high,NULL
1687287429,626c1c14ca95ee2ba1bb1eb36954195d,PennController,14,0,experiment,NULL,Selector,choice,Selection,option1,1687287245609,60b651001e68c8d9f46eedcc,60b651001e68c8d9f46eedcc,11,beads,critical,D,50,beads40.jpg,beads60.jpg,high,option2;option1
1687287429,626c1c14ca95ee2ba1bb1eb36954195d,PennController,14,0,experiment,NULL,PennController,13,_Trial_,End,1687287245610,60b651001e68c8d9f46eedcc,60b651001e68c8d9f46eedcc,11,beads,critical,D,50,beads40.jpg,beads60.jpg,high,NULL
1687287429,626c1c14ca95ee2ba1bb1eb36954195d,PennController,7,0,experiment,NULL,PennController,6,_Trial_,Start,1687287245611,60b651001e68c8d9f46eedcc,60b651001e68c8d9f46eedcc,4,candy,critical,D,25,candy15.jpg,candy35.jpg,high,NULL
1687287429,626c1c14ca95ee2ba1bb1eb36954195d,PennController,7,0,experiment,NULL,PennController,6,_Header_,Start,1687287245611,60b651001e68c8d9f46eedcc,60b651001e68c8d9f46eedcc,4,candy,critical,D,25,candy15.jpg,candy35.jpg,high,NULL
1687287429,626c1c14ca95ee2ba1bb1eb36954195d,PennController,7,0,experiment,NULL,PennController,6,_Header_,End,1687287245611,60b651001e68c8d9f46eedcc,60b651001e68c8d9f46eedcc,4,candy,critical,D,25,candy15.jpg,candy35.jpg,high,NULL
1687287429,626c1c14ca95ee2ba1bb1eb36954195d,PennController,7,0,experiment,NULL,Canvas,canvas6,Print,NA,1687287251336,60b651001e68c8d9f46eedcc,60b651001e68c8d9f46eedcc,4,candy,critical,D,25,candy15.jpg,candy35.jpg,high,NULL
1687287429,626c1c14ca95ee2ba1bb1eb36954195d,PennController,7,0,experiment,NULL,Video,progression,buffer,0.00196,1687287249143,60b651001e68c8d9f46eedcc,60b651001e68c8d9f46eedcc,4,candy,critical,D,25,candy15.jpg,candy35.jpg,high,NULL
1687287429,626c1c14ca95ee2ba1bb1eb36954195d,PennController,7,0,experiment,NULL,Selector,choice,Selection,option2,1687287255097,60b651001e68c8d9f46eedcc,60b651001e68c8d9f46eedcc,4,candy,critical,D,25,candy15.jpg,candy35.jpg,high,option2;option1
1687287429,626c1c14ca95ee2ba1bb1eb36954195d,PennController,7,0,experiment,NULL,PennController,6,_Trial_,End,1687287255098,60b651001e68c8d9f46eedcc,60b651001e68c8d9f46eedcc,4,candy,critical,D,25,candy15.jpg,candy35.jpg,high,NULL
1687287429,626c1c14ca95ee2ba1bb1eb36954195d,PennController,20,0,experiment,NULL,PennController,19,_Trial_,Start,1687287255098,60b651001e68c8d9f46eedcc,60b651001e68c8d9f46eedcc,17,roll,critical,D,50,roll40.jpg,roll60.jpg,high,NULL
1687287429,626c1c14ca95ee2ba1bb1eb36954195d,PennController,20,0,experiment,NULL,PennController,19,_Header_,Start,1687287255098,60b651001e68c8d9f46eedcc,60b651001e68c8d9f46eedcc,17,roll,critical,D,50,roll40.jpg,roll60.jpg,high,NULL
1687287429,626c1c14ca95ee2ba1bb1eb36954195d,PennController,20,0,experiment,NULL,PennController,19,_Header_,End,1687287255098,60b651001e68c8d9f46eedcc,60b651001e68c8d9f46eedcc,17,roll,critical,D,50,roll40.jpg,roll60.jpg,high,NULL
1687287429,626c1c14ca95ee2ba1bb1eb36954195d,PennController,20,0,experiment,NULL,Canvas,canvas6,Print,NA,1687287261812,60b651001e68c8d9f46eedcc,60b651001e68c8d9f46eedcc,17,roll,critical,D,50,roll40.jpg,roll60.jpg,high,NULL
1687287429,626c1c14ca95ee2ba1bb1eb36954195d,PennController,20,0,experiment,NULL,Video,progression,buffer,0.00265,1687287258618,60b651001e68c8d9f46eedcc,60b651001e68c8d9f46eedcc,17,roll,critical,D,50,roll40.jpg,roll60.jpg,high,NULL
1687287429,626c1c14ca95ee2ba1bb1eb36954195d,PennController,20,0,experiment,NULL,Selector,choice,Selection,option1,1687287264077,60b651001e68c8d9f46eedcc,60b651001e68c8d9f46eedcc,17,roll,critical,D,50,roll40.jpg,roll60.jpg,high,option1;option2
1687287429,626c1c14ca95ee2ba1bb1eb36954195d,PennController,20,0,experiment,NULL,PennController,19,_Trial_,End,1687287264078,60b651001e68c8d9f46eedcc,60b651001e68c8d9f46eedcc,17,roll,critical,D,50,roll40.jpg,roll60.jpg,high,NULL
1687287429,626c1c14ca95ee2ba1bb1eb36954195d,PennController,5,0,experiment,NULL,PennController,4,_Trial_,Start,1687287264078,60b651001e68c8d9f46eedcc,60b651001e68c8d9f46eedcc,2,door,critical,D,50,door40.jpg,door60.jpg,high,NULL
1687287429,626c1c14ca95ee2ba1bb1eb36954195d,PennController,5,0,experiment,NULL,PennController,4,_Header_,Start,1687287264078,60b651001e68c8d9f46eedcc,60b651001e68c8d9f46eedcc,2,door,critical,D,50,door40.jpg,door60.jpg,high,NULL
1687287429,626c1c14ca95ee2ba1bb1eb36954195d,PennController,5,0,experiment,NULL,PennController,4,_Header_,End,1687287264078,60b651001e68c8d9f46eedcc,60b651001e68c8d9f46eedcc,2,door,critical,D,50,door40.jpg,door60.jpg,high,NULL
1687287429,626c1c14ca95ee2ba1bb1eb36954195d,PennController,5,0,experiment,NULL,Canvas,canvas6,Print,NA,1687287270802,60b651001e68c8d9f46eedcc,60b651001e68c8d9f46eedcc,2,door,critical,D,50,door40.jpg,door60.jpg,high,NULL
1687287429,626c1c14ca95ee2ba1bb1eb36954195d,PennController,5,0,experiment,NULL,Video,progression,buffer,0.007104,1687287267605,60b651001e68c8d9f46eedcc,60b651001e68c8d9f46eedcc,2,door,critical,D,50,door40.jpg,door60.jpg,high,NULL
1687287429,626c1c14ca95ee2ba1bb1eb36954195d,PennController,5,0,experiment,NULL,Selector,choice,Selection,option1,1687287272453,60b651001e68c8d9f46eedcc,60b651001e68c8d9f46eedcc,2,door,critical,D,50,door40.jpg,door60.jpg,high,option1;option2
1687287429,626c1c14ca95ee2ba1bb1eb36954195d,PennController,5,0,experiment,NULL,PennController,4,_Trial_,End,1687287272453,60b651001e68c8d9f46eedcc,60b651001e68c8d9f46eedcc,2,door,critical,D,50,door40.jpg,door60.jpg,high,NULL
1687287429,626c1c14ca95ee2ba1bb1eb36954195d,PennController,26,0,experiment,NULL,PennController,25,_Trial_,Start,1687287272454,60b651001e68c8d9f46eedcc,60b651001e68c8d9f46eedcc,23,color,filler,D,50,color40.jpg,color60.jpg,GoalB,NULL
1687287429,626c1c14ca95ee2ba1bb1eb36954195d,PennController,26,0,experiment,NULL,PennController,25,_Header_,Start,1687287272454,60b651001e68c8d9f46eedcc,60b651001e68c8d9f46eedcc,23,color,filler,D,50,color40.jpg,color60.jpg,GoalB,NULL
1687287429,626c1c14ca95ee2ba1bb1eb36954195d,PennController,26,0,experiment,NULL,PennController,25,_Header_,End,1687287272454,60b651001e68c8d9f46eedcc,60b651001e68c8d9f46eedcc,23,color,filler,D,50,color40.jpg,color60.jpg,GoalB,NULL
1687287429,626c1c14ca95ee2ba1bb1eb36954195d,PennController,26,0,experiment,NULL,Canvas,canvas6,Print,NA,1687287279193,60b651001e68c8d9f46eedcc,60b651001e68c8d9f46eedcc,23,color,filler,D,50,color40.jpg,color60.jpg,GoalB,NULL
1687287429,626c1c14ca95ee2ba1bb1eb36954195d,PennController,26,0,experiment,NULL,Video,progression,buffer,0.008466,1687287275997,60b651001e68c8d9f46eedcc,60b651001e68c8d9f46eedcc,23,color,filler,D,50,color40.jpg,color60.jpg,GoalB,NULL
1687287429,626c1c14ca95ee2ba1bb1eb36954195d,PennController,26,0,experiment,NULL,Selector,choice,Selection,option1,1687287280913,60b651001e68c8d9f46eedcc,60b651001e68c8d9f46eedcc,23,color,filler,D,50,color40.jpg,color60.jpg,GoalB,option2;option1
1687287429,626c1c14ca95ee2ba1bb1eb36954195d,PennController,26,0,experiment,NULL,PennController,25,_Trial_,End,1687287280914,60b651001e68c8d9f46eedcc,60b651001e68c8d9f46eedcc,23,color,filler,D,50,color40.jpg,color60.jpg,GoalB,NULL
1687287429,626c1c14ca95ee2ba1bb1eb36954195d,PennController,24,0,experiment,NULL,PennController,23,_Trial_,Start,1687287280914,60b651001e68c8d9f46eedcc,60b651001e68c8d9f46eedcc,21,visit,filler,D,75,visit65.jpg,visit85.jpg,GoalB,NULL
1687287429,626c1c14ca95ee2ba1bb1eb36954195d,PennController,24,0,experiment,NULL,PennController,23,_Header_,Start,1687287280914,60b651001e68c8d9f46eedcc,60b651001e68c8d9f46eedcc,21,visit,filler,D,75,visit65.jpg,visit85.jpg,GoalB,NULL
1687287429,626c1c14ca95ee2ba1bb1eb36954195d,PennController,24,0,experiment,NULL,PennController,23,_Header_,End,1687287280914,60b651001e68c8d9f46eedcc,60b651001e68c8d9f46eedcc,21,visit,filler,D,75,visit65.jpg,visit85.jpg,GoalB,NULL
1687287429,626c1c14ca95ee2ba1bb1eb36954195d,PennController,24,0,experiment,NULL,Canvas,canvas6,Print,NA,1687287288652,60b651001e68c8d9f46eedcc,60b651001e68c8d9f46eedcc,21,visit,filler,D,75,visit65.jpg,visit85.jpg,GoalB,NULL
1687287429,626c1c14ca95ee2ba1bb1eb36954195d,PennController,24,0,experiment,NULL,Video,progression,buffer,0.010339,1687287284452,60b651001e68c8d9f46eedcc,60b651001e68c8d9f46eedcc,21,visit,filler,D,75,visit65.jpg,visit85.jpg,GoalB,NULL
1687287429,626c1c14ca95ee2ba1bb1eb36954195d,PennController,24,0,experiment,NULL,Selector,choice,Selection,option2,1687287289844,60b651001e68c8d9f46eedcc,60b651001e68c8d9f46eedcc,21,visit,filler,D,75,visit65.jpg,visit85.jpg,GoalB,option2;option1
1687287429,626c1c14ca95ee2ba1bb1eb36954195d,PennController,24,0,experiment,NULL,PennController,23,_Trial_,End,1687287289845,60b651001e68c8d9f46eedcc,60b651001e68c8d9f46eedcc,21,visit,filler,D,75,visit65.jpg,visit85.jpg,GoalB,NULL
1687287429,626c1c14ca95ee2ba1bb1eb36954195d,PennController,32,0,experiment,NULL,PennController,31,_Trial_,Start,1687287289846,60b651001e68c8d9f46eedcc,60b651001e68c8d9f46eedcc,29,frog,filler,D,50,frog40.jpg,frog60.jpg,GoalB,NULL
1687287429,626c1c14ca95ee2ba1bb1eb36954195d,PennController,32,0,experiment,NULL,PennController,31,_Header_,Start,1687287289846,60b651001e68c8d9f46eedcc,60b651001e68c8d9f46eedcc,29,frog,filler,D,50,frog40.jpg,frog60.jpg,GoalB,NULL
1687287429,626c1c14ca95ee2ba1bb1eb36954195d,PennController,32,0,experiment,NULL,PennController,31,_Header_,End,1687287289846,60b651001e68c8d9f46eedcc,60b651001e68c8d9f46eedcc,29,frog,filler,D,50,frog40.jpg,frog60.jpg,GoalB,NULL
1687287429,626c1c14ca95ee2ba1bb1eb36954195d,PennController,32,0,experiment,NULL,Canvas,canvas6,Print,NA,1687287296578,60b651001e68c8d9f46eedcc,60b651001e68c8d9f46eedcc,29,frog,filler,D,50,frog40.jpg,frog60.jpg,GoalB,NULL
1687287429,626c1c14ca95ee2ba1bb1eb36954195d,PennController,32,0,experiment,NULL,Video,progression,buffer,0.00674,1687287293376,60b651001e68c8d9f46eedcc,60b651001e68c8d9f46eedcc,29,frog,filler,D,50,frog40.jpg,frog60.jpg,GoalB,NULL
1687287429,626c1c14ca95ee2ba1bb1eb36954195d,PennController,32,0,experiment,NULL,Selector,choice,Selection,option1,1687287297973,60b651001e68c8d9f46eedcc,60b651001e68c8d9f46eedcc,29,frog,filler,D,50,frog40.jpg,frog60.jpg,GoalB,option2;option1
1687287429,626c1c14ca95ee2ba1bb1eb36954195d,PennController,32,0,experiment,NULL,PennController,31,_Trial_,End,1687287297973,60b651001e68c8d9f46eedcc,60b651001e68c8d9f46eedcc,29,frog,filler,D,50,frog40.jpg,frog60.jpg,GoalB,NULL
1687287429,626c1c14ca95ee2ba1bb1eb36954195d,PennController,21,0,experiment,NULL,PennController,20,_Trial_,Start,1687287297974,60b651001e68c8d9f46eedcc,60b651001e68c8d9f46eedcc,18,ball,critical,D,75,ball65.jpg,ball85.jpg,high,NULL
1687287429,626c1c14ca95ee2ba1bb1eb36954195d,PennController,21,0,experiment,NULL,PennController,20,_Header_,Start,1687287297974,60b651001e68c8d9f46eedcc,60b651001e68c8d9f46eedcc,18,ball,critical,D,75,ball65.jpg,ball85.jpg,high,NULL
1687287429,626c1c14ca95ee2ba1bb1eb36954195d,PennController,21,0,experiment,NULL,PennController,20,_Header_,End,1687287297974,60b651001e68c8d9f46eedcc,60b651001e68c8d9f46eedcc,18,ball,critical,D,75,ball65.jpg,ball85.jpg,high,NULL
1687287429,626c1c14ca95ee2ba1bb1eb36954195d,PennController,21,0,experiment,NULL,Canvas,canvas6,Print,NA,1687287305712,60b651001e68c8d9f46eedcc,60b651001e68c8d9f46eedcc,18,ball,critical,D,75,ball65.jpg,ball85.jpg,high,NULL
1687287429,626c1c14ca95ee2ba1bb1eb36954195d,PennController,21,0,experiment,NULL,Video,progression,buffer,0.008431,1687287301508,60b651001e68c8d9f46eedcc,60b651001e68c8d9f46eedcc,18,ball,critical,D,75,ball65.jpg,ball85.jpg,high,NULL
1687287429,626c1c14ca95ee2ba1bb1eb36954195d,PennController,21,0,experiment,NULL,Selector,choice,Selection,option1,1687287307305,60b651001e68c8d9f46eedcc,60b651001e68c8d9f46eedcc,18,ball,critical,D,75,ball65.jpg,ball85.jpg,high,option2;option1
1687287429,626c1c14ca95ee2ba1bb1eb36954195d,PennController,21,0,experiment,NULL,PennController,20,_Trial_,End,1687287307306,60b651001e68c8d9f46eedcc,60b651001e68c8d9f46eedcc,18,ball,critical,D,75,ball65.jpg,ball85.jpg,high,NULL
1687287429,626c1c14ca95ee2ba1bb1eb36954195d,PennController,17,0,experiment,NULL,PennController,16,_Trial_,Start,1687287307306,60b651001e68c8d9f46eedcc,60b651001e68c8d9f46eedcc,14,cover,critical,D,50,cover42.jpg,cover60.jpg,high,NULL
1687287429,626c1c14ca95ee2ba1bb1eb36954195d,PennController,17,0,experiment,NULL,PennController,16,_Header_,Start,1687287307306,60b651001e68c8d9f46eedcc,60b651001e68c8d9f46eedcc,14,cover,critical,D,50,cover42.jpg,cover60.jpg,high,NULL
1687287429,626c1c14ca95ee2ba1bb1eb36954195d,PennController,17,0,experiment,NULL,PennController,16,_Header_,End,1687287307306,60b651001e68c8d9f46eedcc,60b651001e68c8d9f46eedcc,14,cover,critical,D,50,cover42.jpg,cover60.jpg,high,NULL
1687287429,626c1c14ca95ee2ba1bb1eb36954195d,PennController,17,0,experiment,NULL,Canvas,canvas6,Print,NA,1687287315435,60b651001e68c8d9f46eedcc,60b651001e68c8d9f46eedcc,14,cover,critical,D,50,cover42.jpg,cover60.jpg,high,NULL
1687287429,626c1c14ca95ee2ba1bb1eb36954195d,PennController,17,0,experiment,NULL,Video,progression,buffer,0.007177,1687287310844,60b651001e68c8d9f46eedcc,60b651001e68c8d9f46eedcc,14,cover,critical,D,50,cover42.jpg,cover60.jpg,high,NULL
1687287429,626c1c14ca95ee2ba1bb1eb36954195d,PennController,17,0,experiment,NULL,Selector,choice,Selection,option1,1687287316240,60b651001e68c8d9f46eedcc,60b651001e68c8d9f46eedcc,14,cover,critical,D,50,cover42.jpg,cover60.jpg,high,option2;option1
1687287429,626c1c14ca95ee2ba1bb1eb36954195d,PennController,17,0,experiment,NULL,PennController,16,_Trial_,End,1687287316241,60b651001e68c8d9f46eedcc,60b651001e68c8d9f46eedcc,14,cover,critical,D,50,cover42.jpg,cover60.jpg,high,NULL
1687287429,626c1c14ca95ee2ba1bb1eb36954195d,PennController,23,0,experiment,NULL,PennController,22,_Trial_,Start,1687287316243,60b651001e68c8d9f46eedcc,60b651001e68c8d9f46eedcc,20,cat,filler,D,50,cat40.jpg,cat60.jpg,GoalA,NULL
1687287429,626c1c14ca95ee2ba1bb1eb36954195d,PennController,23,0,experiment,NULL,PennController,22,_Header_,Start,1687287316243,60b651001e68c8d9f46eedcc,60b651001e68c8d9f46eedcc,20,cat,filler,D,50,cat40.jpg,cat60.jpg,GoalA,NULL
1687287429,626c1c14ca95ee2ba1bb1eb36954195d,PennController,23,0,experiment,NULL,PennController,22,_Header_,End,1687287316243,60b651001e68c8d9f46eedcc,60b651001e68c8d9f46eedcc,20,cat,filler,D,50,cat40.jpg,cat60.jpg,GoalA,NULL
1687287429,626c1c14ca95ee2ba1bb1eb36954195d,PennController,23,0,experiment,NULL,Canvas,canvas6,Print,NA,1687287322966,60b651001e68c8d9f46eedcc,60b651001e68c8d9f46eedcc,20,cat,filler,D,50,cat40.jpg,cat60.jpg,GoalA,NULL
1687287429,626c1c14ca95ee2ba1bb1eb36954195d,PennController,23,0,experiment,NULL,Video,progression,buffer,0.007041,1687287319779,60b651001e68c8d9f46eedcc,60b651001e68c8d9f46eedcc,20,cat,filler,D,50,cat40.jpg,cat60.jpg,GoalA,NULL
1687287429,626c1c14ca95ee2ba1bb1eb36954195d,PennController,23,0,experiment,NULL,Selector,choice,Selection,option1,1687287330297,60b651001e68c8d9f46eedcc,60b651001e68c8d9f46eedcc,20,cat,filler,D,50,cat40.jpg,cat60.jpg,GoalA,option2;option1
1687287429,626c1c14ca95ee2ba1bb1eb36954195d,PennController,23,0,experiment,NULL,PennController,22,_Trial_,End,1687287330298,60b651001e68c8d9f46eedcc,60b651001e68c8d9f46eedcc,20,cat,filler,D,50,cat40.jpg,cat60.jpg,GoalA,NULL
1687287429,626c1c14ca95ee2ba1bb1eb36954195d,PennController,16,0,experiment,NULL,PennController,15,_Trial_,Start,1687287330298,60b651001e68c8d9f46eedcc,60b651001e68c8d9f46eedcc,13,mix,critical,D,25,mix15.jpg,mix35.jpg,high,NULL
1687287429,626c1c14ca95ee2ba1bb1eb36954195d,PennController,16,0,experiment,NULL,PennController,15,_Header_,Start,1687287330298,60b651001e68c8d9f46eedcc,60b651001e68c8d9f46eedcc,13,mix,critical,D,25,mix15.jpg,mix35.jpg,high,NULL
1687287429,626c1c14ca95ee2ba1bb1eb36954195d,PennController,16,0,experiment,NULL,PennController,15,_Header_,End,1687287330298,60b651001e68c8d9f46eedcc,60b651001e68c8d9f46eedcc,13,mix,critical,D,25,mix15.jpg,mix35.jpg,high,NULL
1687287429,626c1c14ca95ee2ba1bb1eb36954195d,PennController,16,0,experiment,NULL,Canvas,canvas6,Print,NA,1687287336042,60b651001e68c8d9f46eedcc,60b651001e68c8d9f46eedcc,13,mix,critical,D,25,mix15.jpg,mix35.jpg,high,NULL
1687287429,626c1c14ca95ee2ba1bb1eb36954195d,PennController,16,0,experiment,NULL,Video,progression,buffer,0.006879,1687287333841,60b651001e68c8d9f46eedcc,60b651001e68c8d9f46eedcc,13,mix,critical,D,25,mix15.jpg,mix35.jpg,high,NULL
1687287429,626c1c14ca95ee2ba1bb1eb36954195d,PennController,16,0,experiment,NULL,Selector,choice,Selection,option1,1687287337621,60b651001e68c8d9f46eedcc,60b651001e68c8d9f46eedcc,13,mix,critical,D,25,mix15.jpg,mix35.jpg,high,option1;option2
1687287429,626c1c14ca95ee2ba1bb1eb36954195d,PennController,16,0,experiment,NULL,PennController,15,_Trial_,End,1687287337622,60b651001e68c8d9f46eedcc,60b651001e68c8d9f46eedcc,13,mix,critical,D,25,mix15.jpg,mix35.jpg,high,NULL
1687287429,626c1c14ca95ee2ba1bb1eb36954195d,PennController,18,0,experiment,NULL,PennController,17,_Trial_,Start,1687287337622,60b651001e68c8d9f46eedcc,60b651001e68c8d9f46eedcc,15,zip,critical,D,75,zip65.jpg,zip85.jpg,high,NULL
1687287429,626c1c14ca95ee2ba1bb1eb36954195d,PennController,18,0,experiment,NULL,PennController,17,_Header_,Start,1687287337622,60b651001e68c8d9f46eedcc,60b651001e68c8d9f46eedcc,15,zip,critical,D,75,zip65.jpg,zip85.jpg,high,NULL
1687287429,626c1c14ca95ee2ba1bb1eb36954195d,PennController,18,0,experiment,NULL,PennController,17,_Header_,End,1687287337622,60b651001e68c8d9f46eedcc,60b651001e68c8d9f46eedcc,15,zip,critical,D,75,zip65.jpg,zip85.jpg,high,NULL
1687287429,626c1c14ca95ee2ba1bb1eb36954195d,PennController,18,0,experiment,NULL,Canvas,canvas6,Print,NA,1687287344548,60b651001e68c8d9f46eedcc,60b651001e68c8d9f46eedcc,15,zip,critical,D,75,zip65.jpg,zip85.jpg,high,NULL
1687287429,626c1c14ca95ee2ba1bb1eb36954195d,PennController,18,0,experiment,NULL,Video,progression,buffer,0.001872,1687287341155,60b651001e68c8d9f46eedcc,60b651001e68c8d9f46eedcc,15,zip,critical,D,75,zip65.jpg,zip85.jpg,high,NULL
1687287429,626c1c14ca95ee2ba1bb1eb36954195d,PennController,18,0,experiment,NULL,Selector,choice,Selection,option2,1687287350269,60b651001e68c8d9f46eedcc,60b651001e68c8d9f46eedcc,15,zip,critical,D,75,zip65.jpg,zip85.jpg,high,option2;option1
1687287429,626c1c14ca95ee2ba1bb1eb36954195d,PennController,18,0,experiment,NULL,PennController,17,_Trial_,End,1687287350270,60b651001e68c8d9f46eedcc,60b651001e68c8d9f46eedcc,15,zip,critical,D,75,zip65.jpg,zip85.jpg,high,NULL
1687287429,626c1c14ca95ee2ba1bb1eb36954195d,PennController,28,0,experiment,NULL,PennController,27,_Trial_,Start,1687287350270,60b651001e68c8d9f46eedcc,60b651001e68c8d9f46eedcc,25,house,filler,D,25,house15.jpg,house35.jpg,GoalB,NULL
1687287429,626c1c14ca95ee2ba1bb1eb36954195d,PennController,28,0,experiment,NULL,PennController,27,_Header_,Start,1687287350270,60b651001e68c8d9f46eedcc,60b651001e68c8d9f46eedcc,25,house,filler,D,25,house15.jpg,house35.jpg,GoalB,NULL
1687287429,626c1c14ca95ee2ba1bb1eb36954195d,PennController,28,0,experiment,NULL,PennController,27,_Header_,End,1687287350270,60b651001e68c8d9f46eedcc,60b651001e68c8d9f46eedcc,25,house,filler,D,25,house15.jpg,house35.jpg,GoalB,NULL
1687287429,626c1c14ca95ee2ba1bb1eb36954195d,PennController,28,0,experiment,NULL,Canvas,canvas6,Print,NA,1687287356012,60b651001e68c8d9f46eedcc,60b651001e68c8d9f46eedcc,25,house,filler,D,25,house15.jpg,house35.jpg,GoalB,NULL
1687287429,626c1c14ca95ee2ba1bb1eb36954195d,PennController,28,0,experiment,NULL,Video,progression,buffer,0.007479,1687287353812,60b651001e68c8d9f46eedcc,60b651001e68c8d9f46eedcc,25,house,filler,D,25,house15.jpg,house35.jpg,GoalB,NULL
1687287429,626c1c14ca95ee2ba1bb1eb36954195d,PennController,28,0,experiment,NULL,Selector,choice,Selection,option1,1687287357529,60b651001e68c8d9f46eedcc,60b651001e68c8d9f46eedcc,25,house,filler,D,25,house15.jpg,house35.jpg,GoalB,option1;option2
1687287429,626c1c14ca95ee2ba1bb1eb36954195d,PennController,28,0,experiment,NULL,PennController,27,_Trial_,End,1687287357529,60b651001e68c8d9f46eedcc,60b651001e68c8d9f46eedcc,25,house,filler,D,25,house15.jpg,house35.jpg,GoalB,NULL
1687287429,626c1c14ca95ee2ba1bb1eb36954195d,PennController,12,0,experiment,NULL,PennController,11,_Trial_,Start,1687287357530,60b651001e68c8d9f46eedcc,60b651001e68c8d9f46eedcc,9,cake,critical,D,75,cake66.jpg,cake84.jpg,high,NULL
1687287429,626c1c14ca95ee2ba1bb1eb36954195d,PennController,12,0,experiment,NULL,PennController,11,_Header_,Start,1687287357530,60b651001e68c8d9f46eedcc,60b651001e68c8d9f46eedcc,9,cake,critical,D,75,cake66.jpg,cake84.jpg,high,NULL
1687287429,626c1c14ca95ee2ba1bb1eb36954195d,PennController,12,0,experiment,NULL,PennController,11,_Header_,End,1687287357530,60b651001e68c8d9f46eedcc,60b651001e68c8d9f46eedcc,9,cake,critical,D,75,cake66.jpg,cake84.jpg,high,NULL
1687287429,626c1c14ca95ee2ba1bb1eb36954195d,PennController,12,0,experiment,NULL,Canvas,canvas6,Print,NA,1687287367256,60b651001e68c8d9f46eedcc,60b651001e68c8d9f46eedcc,9,cake,critical,D,75,cake66.jpg,cake84.jpg,high,NULL
1687287429,626c1c14ca95ee2ba1bb1eb36954195d,PennController,12,0,experiment,NULL,Video,progression,buffer,0.00202,1687287361052,60b651001e68c8d9f46eedcc,60b651001e68c8d9f46eedcc,9,cake,critical,D,75,cake66.jpg,cake84.jpg,high,NULL
1687287429,626c1c14ca95ee2ba1bb1eb36954195d,PennController,12,0,experiment,NULL,Selector,choice,Selection,option1,1687287371605,60b651001e68c8d9f46eedcc,60b651001e68c8d9f46eedcc,9,cake,critical,D,75,cake66.jpg,cake84.jpg,high,option1;option2
1687287429,626c1c14ca95ee2ba1bb1eb36954195d,PennController,12,0,experiment,NULL,PennController,11,_Trial_,End,1687287371606,60b651001e68c8d9f46eedcc,60b651001e68c8d9f46eedcc,9,cake,critical,D,75,cake66.jpg,cake84.jpg,high,NULL
1687287429,626c1c14ca95ee2ba1bb1eb36954195d,PennController,4,0,experiment,NULL,PennController,3,_Trial_,Start,1687287371606,60b651001e68c8d9f46eedcc,60b651001e68c8d9f46eedcc,1,vase,critical,D,25,vase15.jpg,vase35.jpg,high,NULL
1687287429,626c1c14ca95ee2ba1bb1eb36954195d,PennController,4,0,experiment,NULL,PennController,3,_Header_,Start,1687287371606,60b651001e68c8d9f46eedcc,60b651001e68c8d9f46eedcc,1,vase,critical,D,25,vase15.jpg,vase35.jpg,high,NULL
1687287429,626c1c14ca95ee2ba1bb1eb36954195d,PennController,4,0,experiment,NULL,PennController,3,_Header_,End,1687287371606,60b651001e68c8d9f46eedcc,60b651001e68c8d9f46eedcc,1,vase,critical,D,25,vase15.jpg,vase35.jpg,high,NULL
1687287429,626c1c14ca95ee2ba1bb1eb36954195d,PennController,4,0,experiment,NULL,Canvas,canvas6,Print,NA,1687287377337,60b651001e68c8d9f46eedcc,60b651001e68c8d9f46eedcc,1,vase,critical,D,25,vase15.jpg,vase35.jpg,high,NULL
1687287429,626c1c14ca95ee2ba1bb1eb36954195d,PennController,4,0,experiment,NULL,Video,progression,buffer,0.007534,1687287375144,60b651001e68c8d9f46eedcc,60b651001e68c8d9f46eedcc,1,vase,critical,D,25,vase15.jpg,vase35.jpg,high,NULL
1687287429,626c1c14ca95ee2ba1bb1eb36954195d,PennController,4,0,experiment,NULL,Selector,choice,Selection,option2,1687287381037,60b651001e68c8d9f46eedcc,60b651001e68c8d9f46eedcc,1,vase,critical,D,25,vase15.jpg,vase35.jpg,high,option2;option1
1687287429,626c1c14ca95ee2ba1bb1eb36954195d,PennController,4,0,experiment,NULL,PennController,3,_Trial_,End,1687287381037,60b651001e68c8d9f46eedcc,60b651001e68c8d9f46eedcc,1,vase,critical,D,25,vase15.jpg,vase35.jpg,high,NULL
1687287429,626c1c14ca95ee2ba1bb1eb36954195d,PennController,6,0,experiment,NULL,PennController,5,_Trial_,Start,1687287381038,60b651001e68c8d9f46eedcc,60b651001e68c8d9f46eedcc,3,clean,critical,D,75,clean65.jpg,clean85.jpg,high,NULL
1687287429,626c1c14ca95ee2ba1bb1eb36954195d,PennController,6,0,experiment,NULL,PennController,5,_Header_,Start,1687287381038,60b651001e68c8d9f46eedcc,60b651001e68c8d9f46eedcc,3,clean,critical,D,75,clean65.jpg,clean85.jpg,high,NULL
1687287429,626c1c14ca95ee2ba1bb1eb36954195d,PennController,6,0,experiment,NULL,PennController,5,_Header_,End,1687287381038,60b651001e68c8d9f46eedcc,60b651001e68c8d9f46eedcc,3,clean,critical,D,75,clean65.jpg,clean85.jpg,high,NULL
1687287429,626c1c14ca95ee2ba1bb1eb36954195d,PennController,6,0,experiment,NULL,Canvas,canvas6,Print,NA,1687287388783,60b651001e68c8d9f46eedcc,60b651001e68c8d9f46eedcc,3,clean,critical,D,75,clean65.jpg,clean85.jpg,high,NULL
1687287429,626c1c14ca95ee2ba1bb1eb36954195d,PennController,6,0,experiment,NULL,Video,progression,buffer,0.005729,1687287384574,60b651001e68c8d9f46eedcc,60b651001e68c8d9f46eedcc,3,clean,critical,D,75,clean65.jpg,clean85.jpg,high,NULL
1687287429,626c1c14ca95ee2ba1bb1eb36954195d,PennController,6,0,experiment,NULL,Selector,choice,Selection,option1,1687287389849,60b651001e68c8d9f46eedcc,60b651001e68c8d9f46eedcc,3,clean,critical,D,75,clean65.jpg,clean85.jpg,high,option2;option1
1687287429,626c1c14ca95ee2ba1bb1eb36954195d,PennController,6,0,experiment,NULL,PennController,5,_Trial_,End,1687287389850,60b651001e68c8d9f46eedcc,60b651001e68c8d9f46eedcc,3,clean,critical,D,75,clean65.jpg,clean85.jpg,high,NULL
1687287429,626c1c14ca95ee2ba1bb1eb36954195d,PennController,19,0,experiment,NULL,PennController,18,_Trial_,Start,1687287389850,60b651001e68c8d9f46eedcc,60b651001e68c8d9f46eedcc,16,blinds,critical,D,25,blinds15.jpg,blinds33.jpg,high,NULL
1687287429,626c1c14ca95ee2ba1bb1eb36954195d,PennController,19,0,experiment,NULL,PennController,18,_Header_,Start,1687287389850,60b651001e68c8d9f46eedcc,60b651001e68c8d9f46eedcc,16,blinds,critical,D,25,blinds15.jpg,blinds33.jpg,high,NULL
1687287429,626c1c14ca95ee2ba1bb1eb36954195d,PennController,19,0,experiment,NULL,PennController,18,_Header_,End,1687287389850,60b651001e68c8d9f46eedcc,60b651001e68c8d9f46eedcc,16,blinds,critical,D,25,blinds15.jpg,blinds33.jpg,high,NULL
1687287429,626c1c14ca95ee2ba1bb1eb36954195d,PennController,19,0,experiment,NULL,Canvas,canvas6,Print,NA,1687287396173,60b651001e68c8d9f46eedcc,60b651001e68c8d9f46eedcc,16,blinds,critical,D,25,blinds15.jpg,blinds33.jpg,high,NULL
1687287429,626c1c14ca95ee2ba1bb1eb36954195d,PennController,19,0,experiment,NULL,Video,progression,buffer,0.002835,1687287393380,60b651001e68c8d9f46eedcc,60b651001e68c8d9f46eedcc,16,blinds,critical,D,25,blinds15.jpg,blinds33.jpg,high,NULL
1687287429,626c1c14ca95ee2ba1bb1eb36954195d,PennController,19,0,experiment,NULL,Selector,choice,Selection,option1,1687287397777,60b651001e68c8d9f46eedcc,60b651001e68c8d9f46eedcc,16,blinds,critical,D,25,blinds15.jpg,blinds33.jpg,high,option2;option1
1687287429,626c1c14ca95ee2ba1bb1eb36954195d,PennController,19,0,experiment,NULL,PennController,18,_Trial_,End,1687287397778,60b651001e68c8d9f46eedcc,60b651001e68c8d9f46eedcc,16,blinds,critical,D,25,blinds15.jpg,blinds33.jpg,high,NULL
1687287429,626c1c14ca95ee2ba1bb1eb36954195d,PennController,11,0,experiment,NULL,PennController,10,_Trial_,Start,1687287397778,60b651001e68c8d9f46eedcc,60b651001e68c8d9f46eedcc,8,cucumber,critical,D,50,cucumber42.jpg,cucumber60.jpg,high,NULL
1687287429,626c1c14ca95ee2ba1bb1eb36954195d,PennController,11,0,experiment,NULL,PennController,10,_Header_,Start,1687287397778,60b651001e68c8d9f46eedcc,60b651001e68c8d9f46eedcc,8,cucumber,critical,D,50,cucumber42.jpg,cucumber60.jpg,high,NULL
1687287429,626c1c14ca95ee2ba1bb1eb36954195d,PennController,11,0,experiment,NULL,PennController,10,_Header_,End,1687287397778,60b651001e68c8d9f46eedcc,60b651001e68c8d9f46eedcc,8,cucumber,critical,D,50,cucumber42.jpg,cucumber60.jpg,high,NULL
1687287429,626c1c14ca95ee2ba1bb1eb36954195d,PennController,11,0,experiment,NULL,Canvas,canvas6,Print,NA,1687287405912,60b651001e68c8d9f46eedcc,60b651001e68c8d9f46eedcc,8,cucumber,critical,D,50,cucumber42.jpg,cucumber60.jpg,high,NULL
1687287429,626c1c14ca95ee2ba1bb1eb36954195d,PennController,11,0,experiment,NULL,Video,progression,buffer,0.007291,1687287401319,60b651001e68c8d9f46eedcc,60b651001e68c8d9f46eedcc,8,cucumber,critical,D,50,cucumber42.jpg,cucumber60.jpg,high,NULL
1687287429,626c1c14ca95ee2ba1bb1eb36954195d,PennController,11,0,experiment,NULL,Selector,choice,Selection,option1,1687287407156,60b651001e68c8d9f46eedcc,60b651001e68c8d9f46eedcc,8,cucumber,critical,D,50,cucumber42.jpg,cucumber60.jpg,high,option2;option1
1687287429,626c1c14ca95ee2ba1bb1eb36954195d,PennController,11,0,experiment,NULL,PennController,10,_Trial_,End,1687287407157,60b651001e68c8d9f46eedcc,60b651001e68c8d9f46eedcc,8,cucumber,critical,D,50,cucumber42.jpg,cucumber60.jpg,high,NULL
1687287429,626c1c14ca95ee2ba1bb1eb36954195d,PennController,25,0,experiment,NULL,PennController,24,_Trial_,Start,1687287407157,60b651001e68c8d9f46eedcc,60b651001e68c8d9f46eedcc,22,wall,filler,D,25,wall15.jpg,wall35.jpg,GoalA,NULL
1687287429,626c1c14ca95ee2ba1bb1eb36954195d,PennController,25,0,experiment,NULL,PennController,24,_Header_,Start,1687287407157,60b651001e68c8d9f46eedcc,60b651001e68c8d9f46eedcc,22,wall,filler,D,25,wall15.jpg,wall35.jpg,GoalA,NULL
1687287429,626c1c14ca95ee2ba1bb1eb36954195d,PennController,25,0,experiment,NULL,PennController,24,_Header_,End,1687287407158,60b651001e68c8d9f46eedcc,60b651001e68c8d9f46eedcc,22,wall,filler,D,25,wall15.jpg,wall35.jpg,GoalA,NULL
1687287429,626c1c14ca95ee2ba1bb1eb36954195d,PennController,25,0,experiment,NULL,Canvas,canvas6,Print,NA,1687287412882,60b651001e68c8d9f46eedcc,60b651001e68c8d9f46eedcc,22,wall,filler,D,25,wall15.jpg,wall35.jpg,GoalA,NULL
1687287429,626c1c14ca95ee2ba1bb1eb36954195d,PennController,25,0,experiment,NULL,Video,progression,buffer,0.002764,1687287410689,60b651001e68c8d9f46eedcc,60b651001e68c8d9f46eedcc,22,wall,filler,D,25,wall15.jpg,wall35.jpg,GoalA,NULL
1687287429,626c1c14ca95ee2ba1bb1eb36954195d,PennController,25,0,experiment,NULL,Selector,choice,Selection,option1,1687287413913,60b651001e68c8d9f46eedcc,60b651001e68c8d9f46eedcc,22,wall,filler,D,25,wall15.jpg,wall35.jpg,GoalA,option2;option1
1687287429,626c1c14ca95ee2ba1bb1eb36954195d,PennController,25,0,experiment,NULL,PennController,24,_Trial_,End,1687287413914,60b651001e68c8d9f46eedcc,60b651001e68c8d9f46eedcc,22,wall,filler,D,25,wall15.jpg,wall35.jpg,GoalA,NULL
1687287429,626c1c14ca95ee2ba1bb1eb36954195d,PennController,13,0,experiment,NULL,PennController,12,_Trial_,Start,1687287413914,60b651001e68c8d9f46eedcc,60b651001e68c8d9f46eedcc,10,train,critical,D,25,train15.jpg,train35.jpg,high,NULL
1687287429,626c1c14ca95ee2ba1bb1eb36954195d,PennController,13,0,experiment,NULL,PennController,12,_Header_,Start,1687287413914,60b651001e68c8d9f46eedcc,60b651001e68c8d9f46eedcc,10,train,critical,D,25,train15.jpg,train35.jpg,high,NULL
1687287429,626c1c14ca95ee2ba1bb1eb36954195d,PennController,13,0,experiment,NULL,PennController,12,_Header_,End,1687287413914,60b651001e68c8d9f46eedcc,60b651001e68c8d9f46eedcc,10,train,critical,D,25,train15.jpg,train35.jpg,high,NULL
1687287429,626c1c14ca95ee2ba1bb1eb36954195d,PennController,13,0,experiment,NULL,Canvas,canvas6,Print,NA,1687287419627,60b651001e68c8d9f46eedcc,60b651001e68c8d9f46eedcc,10,train,critical,D,25,train15.jpg,train35.jpg,high,NULL
1687287429,626c1c14ca95ee2ba1bb1eb36954195d,PennController,13,0,experiment,NULL,Video,progression,buffer,0.002259,1687287417436,60b651001e68c8d9f46eedcc,60b651001e68c8d9f46eedcc,10,train,critical,D,25,train15.jpg,train35.jpg,high,NULL
1687287429,626c1c14ca95ee2ba1bb1eb36954195d,PennController,13,0,experiment,NULL,Selector,choice,Selection,option2,1687287422277,60b651001e68c8d9f46eedcc,60b651001e68c8d9f46eedcc,10,train,critical,D,25,train15.jpg,train35.jpg,high,option1;option2
1687287429,626c1c14ca95ee2ba1bb1eb36954195d,PennController,13,0,experiment,NULL,PennController,12,_Trial_,End,1687287422278,60b651001e68c8d9f46eedcc,60b651001e68c8d9f46eedcc,10,train,critical,D,25,train15.jpg,train35.jpg,high,NULL
1687287429,626c1c14ca95ee2ba1bb1eb36954195d,PennController,30,0,experiment,NULL,PennController,29,_Trial_,Start,1687287422278,60b651001e68c8d9f46eedcc,60b651001e68c8d9f46eedcc,27,square,filler,D,75,square65.jpg,square85.jpg,GoalB,NULL
1687287429,626c1c14ca95ee2ba1bb1eb36954195d,PennController,30,0,experiment,NULL,PennController,29,_Header_,Start,1687287422278,60b651001e68c8d9f46eedcc,60b651001e68c8d9f46eedcc,27,square,filler,D,75,square65.jpg,square85.jpg,GoalB,NULL
1687287429,626c1c14ca95ee2ba1bb1eb36954195d,PennController,30,0,experiment,NULL,PennController,29,_Header_,End,1687287422278,60b651001e68c8d9f46eedcc,60b651001e68c8d9f46eedcc,27,square,filler,D,75,square65.jpg,square85.jpg,GoalB,NULL
1687287429,626c1c14ca95ee2ba1bb1eb36954195d,PennController,30,0,experiment,NULL,Canvas,canvas6,Print,NA,1687287430008,60b651001e68c8d9f46eedcc,60b651001e68c8d9f46eedcc,27,square,filler,D,75,square65.jpg,square85.jpg,GoalB,NULL
1687287429,626c1c14ca95ee2ba1bb1eb36954195d,PennController,30,0,experiment,NULL,Video,progression,buffer,0.001854,1687287425803,60b651001e68c8d9f46eedcc,60b651001e68c8d9f46eedcc,27,square,filler,D,75,square65.jpg,square85.jpg,GoalB,NULL
1687287429,626c1c14ca95ee2ba1bb1eb36954195d,PennController,30,0,experiment,NULL,Selector,choice,Selection,option1,1687287430973,60b651001e68c8d9f46eedcc,60b651001e68c8d9f46eedcc,27,square,filler,D,75,square65.jpg,square85.jpg,GoalB,option1;option2
1687287429,626c1c14ca95ee2ba1bb1eb36954195d,PennController,30,0,experiment,NULL,PennController,29,_Trial_,End,1687287430974,60b651001e68c8d9f46eedcc,60b651001e68c8d9f46eedcc,27,square,filler,D,75,square65.jpg,square85.jpg,GoalB,NULL
