#
# Results on Tuesday June 20 2023 18:56:50 UTC
# USER AGENT: Mozilla/5.0 (Windows NT 10.0; Win64; x64) AppleWebKit/537.36 (KHTML, like Gecko) Chrome/113.0.0.0 Safari/537.36 OPR/99.0.0.0
# Design number was non-random = 3
#
# Columns below this comment are as follows:
# 1. Results reception time.
# 2. MD5 hash of participant's IP address.
# 3. Controller name.
# 4. Order number of item.
# 5. Inner element number.
# 6. Label.
# 7. Latin Square Group.
# 8. PennElementType.
# 9. PennElementName.
# 10. Parameter.
# 11. Value.
# 12. EventTime.
# 13. PROLIFIC_ID.
# 14. Comments.
1687287410,4e535eb033cc3c4fda64b90f9535bdae,PennController,2,0,consent,NULL,PennController,0,_Trial_,Start,1687287042507,615091ea67fa6004f95be93a,NULL
1687287410,4e535eb033cc3c4fda64b90f9535bdae,PennController,2,0,consent,NULL,PennController,0,_Header_,Start,1687287042507,615091ea67fa6004f95be93a,NULL
1687287410,4e535eb033cc3c4fda64b90f9535bdae,PennController,2,0,consent,NULL,PennController,0,_Header_,End,1687287042507,615091ea67fa6004f95be93a,NULL
1687287410,4e535eb033cc3c4fda64b90f9535bdae,PennController,2,0,consent,NULL,PennController,0,_Trial_,End,1687287052637,615091ea67fa6004f95be93a,NULL
# Columns below this comment are as follows:
# 14. ID.
# 15. Comments.
1687287410,4e535eb033cc3c4fda64b90f9535bdae,PennController,3,0,intro,NULL,PennController,1,_Trial_,Start,1687287052639,615091ea67fa6004f95be93a,615091ea67fa6004f95be93a,NULL
1687287410,4e535eb033cc3c4fda64b90f9535bdae,PennController,3,0,intro,NULL,PennController,1,_Header_,Start,1687287052639,615091ea67fa6004f95be93a,615091ea67fa6004f95be93a,NULL
1687287410,4e535eb033cc3c4fda64b90f9535bdae,PennController,3,0,intro,NULL,PennController,1,_Header_,End,1687287052639,615091ea67fa6004f95be93a,615091ea67fa6004f95be93a,NULL
1687287410,4e535eb033cc3c4fda64b90f9535bdae,PennController,3,0,intro,NULL,PennController,1,_Trial_,End,1687287064589,615091ea67fa6004f95be93a,615091ea67fa6004f95be93a,NULL
# Columns below this comment are as follows:
# 15. item_number.
# 16. item.
# 17. type.
# 18. Group.
# 19. prog.
# 20. prev_image.
# 21. next_image.
# 22. height.
# 23. Comments.
1687287410,4e535eb033cc3c4fda64b90f9535bdae,PennController,16,0,experiment,NULL,PennController,15,_Trial_,Start,1687287064590,615091ea67fa6004f95be93a,615091ea67fa6004f95be93a,13,mix,critical,D,25,mix15.jpg,mix35.jpg,high,NULL
1687287410,4e535eb033cc3c4fda64b90f9535bdae,PennController,16,0,experiment,NULL,PennController,15,_Header_,Start,1687287064590,615091ea67fa6004f95be93a,615091ea67fa6004f95be93a,13,mix,critical,D,25,mix15.jpg,mix35.jpg,high,NULL
1687287410,4e535eb033cc3c4fda64b90f9535bdae,PennController,16,0,experiment,NULL,PennController,15,_Header_,End,1687287064590,615091ea67fa6004f95be93a,615091ea67fa6004f95be93a,13,mix,critical,D,25,mix15.jpg,mix35.jpg,high,NULL
1687287410,4e535eb033cc3c4fda64b90f9535bdae,PennController,16,0,experiment,NULL,Canvas,canvas6,Print,NA,1687287070272,615091ea67fa6004f95be93a,615091ea67fa6004f95be93a,13,mix,critical,D,25,mix15.jpg,mix35.jpg,high,NULL
1687287410,4e535eb033cc3c4fda64b90f9535bdae,PennController,16,0,experiment,NULL,Video,progression,buffer,0.004151,1687287068116,615091ea67fa6004f95be93a,615091ea67fa6004f95be93a,13,mix,critical,D,25,mix15.jpg,mix35.jpg,high,NULL
1687287410,4e535eb033cc3c4fda64b90f9535bdae,PennController,16,0,experiment,NULL,Selector,choice,Selection,option2,1687287074289,615091ea67fa6004f95be93a,615091ea67fa6004f95be93a,13,mix,critical,D,25,mix15.jpg,mix35.jpg,high,option2;option1
1687287410,4e535eb033cc3c4fda64b90f9535bdae,PennController,16,0,experiment,NULL,PennController,15,_Trial_,End,1687287074290,615091ea67fa6004f95be93a,615091ea67fa6004f95be93a,13,mix,critical,D,25,mix15.jpg,mix35.jpg,high,NULL
1687287410,4e535eb033cc3c4fda64b90f9535bdae,PennController,29,0,experiment,NULL,PennController,28,_Trial_,Start,1687287074291,615091ea67fa6004f95be93a,615091ea67fa6004f95be93a,26,sandwich,filler,D,50,sandwich40.jpg,sandwich60.jpg,GoalA,NULL
1687287410,4e535eb033cc3c4fda64b90f9535bdae,PennController,29,0,experiment,NULL,PennController,28,_Header_,Start,1687287074291,615091ea67fa6004f95be93a,615091ea67fa6004f95be93a,26,sandwich,filler,D,50,sandwich40.jpg,sandwich60.jpg,GoalA,NULL
1687287410,4e535eb033cc3c4fda64b90f9535bdae,PennController,29,0,experiment,NULL,PennController,28,_Header_,End,1687287074291,615091ea67fa6004f95be93a,615091ea67fa6004f95be93a,26,sandwich,filler,D,50,sandwich40.jpg,sandwich60.jpg,GoalA,NULL
1687287410,4e535eb033cc3c4fda64b90f9535bdae,PennController,29,0,experiment,NULL,Canvas,canvas6,Print,NA,1687287080975,615091ea67fa6004f95be93a,615091ea67fa6004f95be93a,26,sandwich,filler,D,50,sandwich40.jpg,sandwich60.jpg,GoalA,NULL
1687287410,4e535eb033cc3c4fda64b90f9535bdae,PennController,29,0,experiment,NULL,Video,progression,buffer,0.001804,1687287077809,615091ea67fa6004f95be93a,615091ea67fa6004f95be93a,26,sandwich,filler,D,50,sandwich40.jpg,sandwich60.jpg,GoalA,NULL
1687287410,4e535eb033cc3c4fda64b90f9535bdae,PennController,29,0,experiment,NULL,Selector,choice,Selection,option1,1687287084424,615091ea67fa6004f95be93a,615091ea67fa6004f95be93a,26,sandwich,filler,D,50,sandwich40.jpg,sandwich60.jpg,GoalA,option1;option2
1687287410,4e535eb033cc3c4fda64b90f9535bdae,PennController,29,0,experiment,NULL,PennController,28,_Trial_,End,1687287084425,615091ea67fa6004f95be93a,615091ea67fa6004f95be93a,26,sandwich,filler,D,50,sandwich40.jpg,sandwich60.jpg,GoalA,NULL
1687287410,4e535eb033cc3c4fda64b90f9535bdae,PennController,18,0,experiment,NULL,PennController,17,_Trial_,Start,1687287084426,615091ea67fa6004f95be93a,615091ea67fa6004f95be93a,15,zip,critical,D,75,zip65.jpg,zip85.jpg,high,NULL
1687287410,4e535eb033cc3c4fda64b90f9535bdae,PennController,18,0,experiment,NULL,PennController,17,_Header_,Start,1687287084426,615091ea67fa6004f95be93a,615091ea67fa6004f95be93a,15,zip,critical,D,75,zip65.jpg,zip85.jpg,high,NULL
1687287410,4e535eb033cc3c4fda64b90f9535bdae,PennController,18,0,experiment,NULL,PennController,17,_Header_,End,1687287084426,615091ea67fa6004f95be93a,615091ea67fa6004f95be93a,15,zip,critical,D,75,zip65.jpg,zip85.jpg,high,NULL
1687287410,4e535eb033cc3c4fda64b90f9535bdae,PennController,18,0,experiment,NULL,Canvas,canvas6,Print,NA,1687287091306,615091ea67fa6004f95be93a,615091ea67fa6004f95be93a,15,zip,critical,D,75,zip65.jpg,zip85.jpg,high,NULL
1687287410,4e535eb033cc3c4fda64b90f9535bdae,PennController,18,0,experiment,NULL,Video,progression,buffer,0.001669,1687287087939,615091ea67fa6004f95be93a,615091ea67fa6004f95be93a,15,zip,critical,D,75,zip65.jpg,zip85.jpg,high,NULL
1687287410,4e535eb033cc3c4fda64b90f9535bdae,PennController,18,0,experiment,NULL,Selector,choice,Selection,option2,1687287095288,615091ea67fa6004f95be93a,615091ea67fa6004f95be93a,15,zip,critical,D,75,zip65.jpg,zip85.jpg,high,option2;option1
1687287410,4e535eb033cc3c4fda64b90f9535bdae,PennController,18,0,experiment,NULL,PennController,17,_Trial_,End,1687287095289,615091ea67fa6004f95be93a,615091ea67fa6004f95be93a,15,zip,critical,D,75,zip65.jpg,zip85.jpg,high,NULL
1687287410,4e535eb033cc3c4fda64b90f9535bdae,PennController,4,0,experiment,NULL,PennController,3,_Trial_,Start,1687287095291,615091ea67fa6004f95be93a,615091ea67fa6004f95be93a,1,vase,critical,D,25,vase15.jpg,vase35.jpg,high,NULL
1687287410,4e535eb033cc3c4fda64b90f9535bdae,PennController,4,0,experiment,NULL,PennController,3,_Header_,Start,1687287095291,615091ea67fa6004f95be93a,615091ea67fa6004f95be93a,1,vase,critical,D,25,vase15.jpg,vase35.jpg,high,NULL
1687287410,4e535eb033cc3c4fda64b90f9535bdae,PennController,4,0,experiment,NULL,PennController,3,_Header_,End,1687287095291,615091ea67fa6004f95be93a,615091ea67fa6004f95be93a,1,vase,critical,D,25,vase15.jpg,vase35.jpg,high,NULL
1687287410,4e535eb033cc3c4fda64b90f9535bdae,PennController,4,0,experiment,NULL,Canvas,canvas6,Print,NA,1687287100970,615091ea67fa6004f95be93a,615091ea67fa6004f95be93a,1,vase,critical,D,25,vase15.jpg,vase35.jpg,high,NULL
1687287410,4e535eb033cc3c4fda64b90f9535bdae,PennController,4,0,experiment,NULL,Video,progression,buffer,0.001834,1687287098805,615091ea67fa6004f95be93a,615091ea67fa6004f95be93a,1,vase,critical,D,25,vase15.jpg,vase35.jpg,high,NULL
1687287410,4e535eb033cc3c4fda64b90f9535bdae,PennController,4,0,experiment,NULL,Selector,choice,Selection,option2,1687287102536,615091ea67fa6004f95be93a,615091ea67fa6004f95be93a,1,vase,critical,D,25,vase15.jpg,vase35.jpg,high,option2;option1
1687287410,4e535eb033cc3c4fda64b90f9535bdae,PennController,4,0,experiment,NULL,PennController,3,_Trial_,End,1687287102537,615091ea67fa6004f95be93a,615091ea67fa6004f95be93a,1,vase,critical,D,25,vase15.jpg,vase35.jpg,high,NULL
1687287410,4e535eb033cc3c4fda64b90f9535bdae,PennController,13,0,experiment,NULL,PennController,12,_Trial_,Start,1687287102538,615091ea67fa6004f95be93a,615091ea67fa6004f95be93a,10,train,critical,D,25,train15.jpg,train35.jpg,high,NULL
1687287410,4e535eb033cc3c4fda64b90f9535bdae,PennController,13,0,experiment,NULL,PennController,12,_Header_,Start,1687287102538,615091ea67fa6004f95be93a,615091ea67fa6004f95be93a,10,train,critical,D,25,train15.jpg,train35.jpg,high,NULL
1687287410,4e535eb033cc3c4fda64b90f9535bdae,PennController,13,0,experiment,NULL,PennController,12,_Header_,End,1687287102538,615091ea67fa6004f95be93a,615091ea67fa6004f95be93a,10,train,critical,D,25,train15.jpg,train35.jpg,high,NULL
1687287410,4e535eb033cc3c4fda64b90f9535bdae,PennController,13,0,experiment,NULL,Canvas,canvas6,Print,NA,1687287108224,615091ea67fa6004f95be93a,615091ea67fa6004f95be93a,10,train,critical,D,25,train15.jpg,train35.jpg,high,NULL
1687287410,4e535eb033cc3c4fda64b90f9535bdae,PennController,13,0,experiment,NULL,Video,progression,buffer,0.002466,1687287106054,615091ea67fa6004f95be93a,615091ea67fa6004f95be93a,10,train,critical,D,25,train15.jpg,train35.jpg,high,NULL
1687287410,4e535eb033cc3c4fda64b90f9535bdae,PennController,13,0,experiment,NULL,Selector,choice,Selection,option1,1687287110296,615091ea67fa6004f95be93a,615091ea67fa6004f95be93a,10,train,critical,D,25,train15.jpg,train35.jpg,high,option1;option2
1687287410,4e535eb033cc3c4fda64b90f9535bdae,PennController,13,0,experiment,NULL,PennController,12,_Trial_,End,1687287110297,615091ea67fa6004f95be93a,615091ea67fa6004f95be93a,10,train,critical,D,25,train15.jpg,train35.jpg,high,NULL
1687287410,4e535eb033cc3c4fda64b90f9535bdae,PennController,32,0,experiment,NULL,PennController,31,_Trial_,Start,1687287110298,615091ea67fa6004f95be93a,615091ea67fa6004f95be93a,29,frog,filler,D,50,frog40.jpg,frog60.jpg,GoalB,NULL
1687287410,4e535eb033cc3c4fda64b90f9535bdae,PennController,32,0,experiment,NULL,PennController,31,_Header_,Start,1687287110298,615091ea67fa6004f95be93a,615091ea67fa6004f95be93a,29,frog,filler,D,50,frog40.jpg,frog60.jpg,GoalB,NULL
1687287410,4e535eb033cc3c4fda64b90f9535bdae,PennController,32,0,experiment,NULL,PennController,31,_Header_,End,1687287110298,615091ea67fa6004f95be93a,615091ea67fa6004f95be93a,29,frog,filler,D,50,frog40.jpg,frog60.jpg,GoalB,NULL
1687287410,4e535eb033cc3c4fda64b90f9535bdae,PennController,32,0,experiment,NULL,Canvas,canvas6,Print,NA,1687287116973,615091ea67fa6004f95be93a,615091ea67fa6004f95be93a,29,frog,filler,D,50,frog40.jpg,frog60.jpg,GoalB,NULL
1687287410,4e535eb033cc3c4fda64b90f9535bdae,PennController,32,0,experiment,NULL,Video,progression,buffer,0.001735,1687287113815,615091ea67fa6004f95be93a,615091ea67fa6004f95be93a,29,frog,filler,D,50,frog40.jpg,frog60.jpg,GoalB,NULL
1687287410,4e535eb033cc3c4fda64b90f9535bdae,PennController,32,0,experiment,NULL,Selector,choice,Selection,option2,1687287118120,615091ea67fa6004f95be93a,615091ea67fa6004f95be93a,29,frog,filler,D,50,frog40.jpg,frog60.jpg,GoalB,option1;option2
1687287410,4e535eb033cc3c4fda64b90f9535bdae,PennController,32,0,experiment,NULL,PennController,31,_Trial_,End,1687287118121,615091ea67fa6004f95be93a,615091ea67fa6004f95be93a,29,frog,filler,D,50,frog40.jpg,frog60.jpg,GoalB,NULL
1687287410,4e535eb033cc3c4fda64b90f9535bdae,PennController,8,0,experiment,NULL,PennController,7,_Trial_,Start,1687287118122,615091ea67fa6004f95be93a,615091ea67fa6004f95be93a,5,book,critical,D,50,book40.jpg,book60.jpg,high,NULL
1687287410,4e535eb033cc3c4fda64b90f9535bdae,PennController,8,0,experiment,NULL,PennController,7,_Header_,Start,1687287118122,615091ea67fa6004f95be93a,615091ea67fa6004f95be93a,5,book,critical,D,50,book40.jpg,book60.jpg,high,NULL
1687287410,4e535eb033cc3c4fda64b90f9535bdae,PennController,8,0,experiment,NULL,PennController,7,_Header_,End,1687287118123,615091ea67fa6004f95be93a,615091ea67fa6004f95be93a,5,book,critical,D,50,book40.jpg,book60.jpg,high,NULL
1687287410,4e535eb033cc3c4fda64b90f9535bdae,PennController,8,0,experiment,NULL,Canvas,canvas6,Print,NA,1687287124803,615091ea67fa6004f95be93a,615091ea67fa6004f95be93a,5,book,critical,D,50,book40.jpg,book60.jpg,high,NULL
1687287410,4e535eb033cc3c4fda64b90f9535bdae,PennController,8,0,experiment,NULL,Video,progression,buffer,0.001646,1687287121639,615091ea67fa6004f95be93a,615091ea67fa6004f95be93a,5,book,critical,D,50,book40.jpg,book60.jpg,high,NULL
1687287410,4e535eb033cc3c4fda64b90f9535bdae,PennController,8,0,experiment,NULL,Selector,choice,Selection,option2,1687287127312,615091ea67fa6004f95be93a,615091ea67fa6004f95be93a,5,book,critical,D,50,book40.jpg,book60.jpg,high,option2;option1
1687287410,4e535eb033cc3c4fda64b90f9535bdae,PennController,8,0,experiment,NULL,PennController,7,_Trial_,End,1687287127313,615091ea67fa6004f95be93a,615091ea67fa6004f95be93a,5,book,critical,D,50,book40.jpg,book60.jpg,high,NULL
1687287410,4e535eb033cc3c4fda64b90f9535bdae,PennController,6,0,experiment,NULL,PennController,5,_Trial_,Start,1687287127314,615091ea67fa6004f95be93a,615091ea67fa6004f95be93a,3,clean,critical,D,75,clean65.jpg,clean85.jpg,high,NULL
1687287410,4e535eb033cc3c4fda64b90f9535bdae,PennController,6,0,experiment,NULL,PennController,5,_Header_,Start,1687287127314,615091ea67fa6004f95be93a,615091ea67fa6004f95be93a,3,clean,critical,D,75,clean65.jpg,clean85.jpg,high,NULL
1687287410,4e535eb033cc3c4fda64b90f9535bdae,PennController,6,0,experiment,NULL,PennController,5,_Header_,End,1687287127314,615091ea67fa6004f95be93a,615091ea67fa6004f95be93a,3,clean,critical,D,75,clean65.jpg,clean85.jpg,high,NULL
1687287410,4e535eb033cc3c4fda64b90f9535bdae,PennController,6,0,experiment,NULL,Canvas,canvas6,Print,NA,1687287134986,615091ea67fa6004f95be93a,615091ea67fa6004f95be93a,3,clean,critical,D,75,clean65.jpg,clean85.jpg,high,NULL
1687287410,4e535eb033cc3c4fda64b90f9535bdae,PennController,6,0,experiment,NULL,Video,progression,buffer,0.00183,1687287130827,615091ea67fa6004f95be93a,615091ea67fa6004f95be93a,3,clean,critical,D,75,clean65.jpg,clean85.jpg,high,NULL
1687287410,4e535eb033cc3c4fda64b90f9535bdae,PennController,6,0,experiment,NULL,Selector,choice,Selection,option1,1687287136696,615091ea67fa6004f95be93a,615091ea67fa6004f95be93a,3,clean,critical,D,75,clean65.jpg,clean85.jpg,high,option1;option2
1687287410,4e535eb033cc3c4fda64b90f9535bdae,PennController,6,0,experiment,NULL,PennController,5,_Trial_,End,1687287136697,615091ea67fa6004f95be93a,615091ea67fa6004f95be93a,3,clean,critical,D,75,clean65.jpg,clean85.jpg,high,NULL
1687287410,4e535eb033cc3c4fda64b90f9535bdae,PennController,17,0,experiment,NULL,PennController,16,_Trial_,Start,1687287136698,615091ea67fa6004f95be93a,615091ea67fa6004f95be93a,14,cover,critical,D,50,cover42.jpg,cover60.jpg,high,NULL
1687287410,4e535eb033cc3c4fda64b90f9535bdae,PennController,17,0,experiment,NULL,PennController,16,_Header_,Start,1687287136698,615091ea67fa6004f95be93a,615091ea67fa6004f95be93a,14,cover,critical,D,50,cover42.jpg,cover60.jpg,high,NULL
1687287410,4e535eb033cc3c4fda64b90f9535bdae,PennController,17,0,experiment,NULL,PennController,16,_Header_,End,1687287136698,615091ea67fa6004f95be93a,615091ea67fa6004f95be93a,14,cover,critical,D,50,cover42.jpg,cover60.jpg,high,NULL
1687287410,4e535eb033cc3c4fda64b90f9535bdae,PennController,17,0,experiment,NULL,Canvas,canvas6,Print,NA,1687287144786,615091ea67fa6004f95be93a,615091ea67fa6004f95be93a,14,cover,critical,D,50,cover42.jpg,cover60.jpg,high,NULL
1687287410,4e535eb033cc3c4fda64b90f9535bdae,PennController,17,0,experiment,NULL,Video,progression,buffer,0.002846,1687287140220,615091ea67fa6004f95be93a,615091ea67fa6004f95be93a,14,cover,critical,D,50,cover42.jpg,cover60.jpg,high,NULL
1687287410,4e535eb033cc3c4fda64b90f9535bdae,PennController,17,0,experiment,NULL,Selector,choice,Selection,option2,1687287147520,615091ea67fa6004f95be93a,615091ea67fa6004f95be93a,14,cover,critical,D,50,cover42.jpg,cover60.jpg,high,option1;option2
1687287410,4e535eb033cc3c4fda64b90f9535bdae,PennController,17,0,experiment,NULL,PennController,16,_Trial_,End,1687287147521,615091ea67fa6004f95be93a,615091ea67fa6004f95be93a,14,cover,critical,D,50,cover42.jpg,cover60.jpg,high,NULL
1687287410,4e535eb033cc3c4fda64b90f9535bdae,PennController,20,0,experiment,NULL,PennController,19,_Trial_,Start,1687287147522,615091ea67fa6004f95be93a,615091ea67fa6004f95be93a,17,roll,critical,D,50,roll40.jpg,roll60.jpg,high,NULL
1687287410,4e535eb033cc3c4fda64b90f9535bdae,PennController,20,0,experiment,NULL,PennController,19,_Header_,Start,1687287147522,615091ea67fa6004f95be93a,615091ea67fa6004f95be93a,17,roll,critical,D,50,roll40.jpg,roll60.jpg,high,NULL
1687287410,4e535eb033cc3c4fda64b90f9535bdae,PennController,20,0,experiment,NULL,PennController,19,_Header_,End,1687287147522,615091ea67fa6004f95be93a,615091ea67fa6004f95be93a,17,roll,critical,D,50,roll40.jpg,roll60.jpg,high,NULL
1687287410,4e535eb033cc3c4fda64b90f9535bdae,PennController,20,0,experiment,NULL,Canvas,canvas6,Print,NA,1687287154203,615091ea67fa6004f95be93a,615091ea67fa6004f95be93a,17,roll,critical,D,50,roll40.jpg,roll60.jpg,high,NULL
1687287410,4e535eb033cc3c4fda64b90f9535bdae,PennController,20,0,experiment,NULL,Video,progression,buffer,0.002022,1687287151040,615091ea67fa6004f95be93a,615091ea67fa6004f95be93a,17,roll,critical,D,50,roll40.jpg,roll60.jpg,high,NULL
1687287410,4e535eb033cc3c4fda64b90f9535bdae,PennController,20,0,experiment,NULL,Selector,choice,Selection,option1,1687287155256,615091ea67fa6004f95be93a,615091ea67fa6004f95be93a,17,roll,critical,D,50,roll40.jpg,roll60.jpg,high,option1;option2
1687287410,4e535eb033cc3c4fda64b90f9535bdae,PennController,20,0,experiment,NULL,PennController,19,_Trial_,End,1687287155257,615091ea67fa6004f95be93a,615091ea67fa6004f95be93a,17,roll,critical,D,50,roll40.jpg,roll60.jpg,high,NULL
1687287410,4e535eb033cc3c4fda64b90f9535bdae,PennController,11,0,experiment,NULL,PennController,10,_Trial_,Start,1687287155258,615091ea67fa6004f95be93a,615091ea67fa6004f95be93a,8,cucumber,critical,D,50,cucumber42.jpg,cucumber60.jpg,high,NULL
1687287410,4e535eb033cc3c4fda64b90f9535bdae,PennController,11,0,experiment,NULL,PennController,10,_Header_,Start,1687287155258,615091ea67fa6004f95be93a,615091ea67fa6004f95be93a,8,cucumber,critical,D,50,cucumber42.jpg,cucumber60.jpg,high,NULL
1687287410,4e535eb033cc3c4fda64b90f9535bdae,PennController,11,0,experiment,NULL,PennController,10,_Header_,End,1687287155258,615091ea67fa6004f95be93a,615091ea67fa6004f95be93a,8,cucumber,critical,D,50,cucumber42.jpg,cucumber60.jpg,high,NULL
1687287410,4e535eb033cc3c4fda64b90f9535bdae,PennController,11,0,experiment,NULL,Canvas,canvas6,Print,NA,1687287163336,615091ea67fa6004f95be93a,615091ea67fa6004f95be93a,8,cucumber,critical,D,50,cucumber42.jpg,cucumber60.jpg,high,NULL
1687287410,4e535eb033cc3c4fda64b90f9535bdae,PennController,11,0,experiment,NULL,Video,progression,buffer,0.002635,1687287158775,615091ea67fa6004f95be93a,615091ea67fa6004f95be93a,8,cucumber,critical,D,50,cucumber42.jpg,cucumber60.jpg,high,NULL
1687287410,4e535eb033cc3c4fda64b90f9535bdae,PennController,11,0,experiment,NULL,Selector,choice,Selection,option2,1687287167224,615091ea67fa6004f95be93a,615091ea67fa6004f95be93a,8,cucumber,critical,D,50,cucumber42.jpg,cucumber60.jpg,high,option1;option2
1687287410,4e535eb033cc3c4fda64b90f9535bdae,PennController,11,0,experiment,NULL,PennController,10,_Trial_,End,1687287167225,615091ea67fa6004f95be93a,615091ea67fa6004f95be93a,8,cucumber,critical,D,50,cucumber42.jpg,cucumber60.jpg,high,NULL
1687287410,4e535eb033cc3c4fda64b90f9535bdae,PennController,5,0,experiment,NULL,PennController,4,_Trial_,Start,1687287167226,615091ea67fa6004f95be93a,615091ea67fa6004f95be93a,2,door,critical,D,50,door40.jpg,door60.jpg,high,NULL
1687287410,4e535eb033cc3c4fda64b90f9535bdae,PennController,5,0,experiment,NULL,PennController,4,_Header_,Start,1687287167226,615091ea67fa6004f95be93a,615091ea67fa6004f95be93a,2,door,critical,D,50,door40.jpg,door60.jpg,high,NULL
1687287410,4e535eb033cc3c4fda64b90f9535bdae,PennController,5,0,experiment,NULL,PennController,4,_Header_,End,1687287167226,615091ea67fa6004f95be93a,615091ea67fa6004f95be93a,2,door,critical,D,50,door40.jpg,door60.jpg,high,NULL
1687287410,4e535eb033cc3c4fda64b90f9535bdae,PennController,5,0,experiment,NULL,Canvas,canvas6,Print,NA,1687287173921,615091ea67fa6004f95be93a,615091ea67fa6004f95be93a,2,door,critical,D,50,door40.jpg,door60.jpg,high,NULL
1687287410,4e535eb033cc3c4fda64b90f9535bdae,PennController,5,0,experiment,NULL,Video,progression,buffer,0,1687287170742,615091ea67fa6004f95be93a,615091ea67fa6004f95be93a,2,door,critical,D,50,door40.jpg,door60.jpg,high,NULL
1687287410,4e535eb033cc3c4fda64b90f9535bdae,PennController,5,0,experiment,NULL,Selector,choice,Selection,option2,1687287177008,615091ea67fa6004f95be93a,615091ea67fa6004f95be93a,2,door,critical,D,50,door40.jpg,door60.jpg,high,option1;option2
1687287410,4e535eb033cc3c4fda64b90f9535bdae,PennController,5,0,experiment,NULL,PennController,4,_Trial_,End,1687287177009,615091ea67fa6004f95be93a,615091ea67fa6004f95be93a,2,door,critical,D,50,door40.jpg,door60.jpg,high,NULL
1687287410,4e535eb033cc3c4fda64b90f9535bdae,PennController,15,0,experiment,NULL,PennController,14,_Trial_,Start,1687287177010,615091ea67fa6004f95be93a,615091ea67fa6004f95be93a,12,erase,critical,D,75,erase66.jpg,erase84.jpg,high,NULL
1687287410,4e535eb033cc3c4fda64b90f9535bdae,PennController,15,0,experiment,NULL,PennController,14,_Header_,Start,1687287177010,615091ea67fa6004f95be93a,615091ea67fa6004f95be93a,12,erase,critical,D,75,erase66.jpg,erase84.jpg,high,NULL
1687287410,4e535eb033cc3c4fda64b90f9535bdae,PennController,15,0,experiment,NULL,PennController,14,_Header_,End,1687287177010,615091ea67fa6004f95be93a,615091ea67fa6004f95be93a,12,erase,critical,D,75,erase66.jpg,erase84.jpg,high,NULL
1687287410,4e535eb033cc3c4fda64b90f9535bdae,PennController,15,0,experiment,NULL,Canvas,canvas6,Print,NA,1687287186685,615091ea67fa6004f95be93a,615091ea67fa6004f95be93a,12,erase,critical,D,75,erase66.jpg,erase84.jpg,high,NULL
1687287410,4e535eb033cc3c4fda64b90f9535bdae,PennController,15,0,experiment,NULL,Video,progression,buffer,0.001703,1687287180527,615091ea67fa6004f95be93a,615091ea67fa6004f95be93a,12,erase,critical,D,75,erase66.jpg,erase84.jpg,high,NULL
1687287410,4e535eb033cc3c4fda64b90f9535bdae,PennController,15,0,experiment,NULL,Selector,choice,Selection,option2,1687287188072,615091ea67fa6004f95be93a,615091ea67fa6004f95be93a,12,erase,critical,D,75,erase66.jpg,erase84.jpg,high,option2;option1
1687287410,4e535eb033cc3c4fda64b90f9535bdae,PennController,15,0,experiment,NULL,PennController,14,_Trial_,End,1687287188073,615091ea67fa6004f95be93a,615091ea67fa6004f95be93a,12,erase,critical,D,75,erase66.jpg,erase84.jpg,high,NULL
1687287410,4e535eb033cc3c4fda64b90f9535bdae,PennController,19,0,experiment,NULL,PennController,18,_Trial_,Start,1687287188074,615091ea67fa6004f95be93a,615091ea67fa6004f95be93a,16,blinds,critical,D,25,blinds15.jpg,blinds33.jpg,high,NULL
1687287410,4e535eb033cc3c4fda64b90f9535bdae,PennController,19,0,experiment,NULL,PennController,18,_Header_,Start,1687287188074,615091ea67fa6004f95be93a,615091ea67fa6004f95be93a,16,blinds,critical,D,25,blinds15.jpg,blinds33.jpg,high,NULL
1687287410,4e535eb033cc3c4fda64b90f9535bdae,PennController,19,0,experiment,NULL,PennController,18,_Header_,End,1687287188074,615091ea67fa6004f95be93a,615091ea67fa6004f95be93a,16,blinds,critical,D,25,blinds15.jpg,blinds33.jpg,high,NULL
1687287410,4e535eb033cc3c4fda64b90f9535bdae,PennController,19,0,experiment,NULL,Canvas,canvas6,Print,NA,1687287194353,615091ea67fa6004f95be93a,615091ea67fa6004f95be93a,16,blinds,critical,D,25,blinds15.jpg,blinds33.jpg,high,NULL
1687287410,4e535eb033cc3c4fda64b90f9535bdae,PennController,19,0,experiment,NULL,Video,progression,buffer,0.002474,1687287191588,615091ea67fa6004f95be93a,615091ea67fa6004f95be93a,16,blinds,critical,D,25,blinds15.jpg,blinds33.jpg,high,NULL
1687287410,4e535eb033cc3c4fda64b90f9535bdae,PennController,19,0,experiment,NULL,Selector,choice,Selection,option2,1687287195560,615091ea67fa6004f95be93a,615091ea67fa6004f95be93a,16,blinds,critical,D,25,blinds15.jpg,blinds33.jpg,high,option2;option1
1687287410,4e535eb033cc3c4fda64b90f9535bdae,PennController,19,0,experiment,NULL,PennController,18,_Trial_,End,1687287195561,615091ea67fa6004f95be93a,615091ea67fa6004f95be93a,16,blinds,critical,D,25,blinds15.jpg,blinds33.jpg,high,NULL
1687287410,4e535eb033cc3c4fda64b90f9535bdae,PennController,7,0,experiment,NULL,PennController,6,_Trial_,Start,1687287195561,615091ea67fa6004f95be93a,615091ea67fa6004f95be93a,4,candy,critical,D,25,candy15.jpg,candy35.jpg,high,NULL
1687287410,4e535eb033cc3c4fda64b90f9535bdae,PennController,7,0,experiment,NULL,PennController,6,_Header_,Start,1687287195562,615091ea67fa6004f95be93a,615091ea67fa6004f95be93a,4,candy,critical,D,25,candy15.jpg,candy35.jpg,high,NULL
1687287410,4e535eb033cc3c4fda64b90f9535bdae,PennController,7,0,experiment,NULL,PennController,6,_Header_,End,1687287195562,615091ea67fa6004f95be93a,615091ea67fa6004f95be93a,4,candy,critical,D,25,candy15.jpg,candy35.jpg,high,NULL
1687287410,4e535eb033cc3c4fda64b90f9535bdae,PennController,7,0,experiment,NULL,Canvas,canvas6,Print,NA,1687287201235,615091ea67fa6004f95be93a,615091ea67fa6004f95be93a,4,candy,critical,D,25,candy15.jpg,candy35.jpg,high,NULL
1687287410,4e535eb033cc3c4fda64b90f9535bdae,PennController,7,0,experiment,NULL,Video,progression,buffer,0.001683,1687287199073,615091ea67fa6004f95be93a,615091ea67fa6004f95be93a,4,candy,critical,D,25,candy15.jpg,candy35.jpg,high,NULL
1687287410,4e535eb033cc3c4fda64b90f9535bdae,PennController,7,0,experiment,NULL,Selector,choice,Selection,option1,1687287202592,615091ea67fa6004f95be93a,615091ea67fa6004f95be93a,4,candy,critical,D,25,candy15.jpg,candy35.jpg,high,option1;option2
1687287410,4e535eb033cc3c4fda64b90f9535bdae,PennController,7,0,experiment,NULL,PennController,6,_Trial_,End,1687287202593,615091ea67fa6004f95be93a,615091ea67fa6004f95be93a,4,candy,critical,D,25,candy15.jpg,candy35.jpg,high,NULL
1687287410,4e535eb033cc3c4fda64b90f9535bdae,PennController,31,0,experiment,NULL,PennController,30,_Trial_,Start,1687287202594,615091ea67fa6004f95be93a,615091ea67fa6004f95be93a,28,sort,filler,D,25,sort15.jpg,sort35.jpg,GoalA,NULL
1687287410,4e535eb033cc3c4fda64b90f9535bdae,PennController,31,0,experiment,NULL,PennController,30,_Header_,Start,1687287202594,615091ea67fa6004f95be93a,615091ea67fa6004f95be93a,28,sort,filler,D,25,sort15.jpg,sort35.jpg,GoalA,NULL
1687287410,4e535eb033cc3c4fda64b90f9535bdae,PennController,31,0,experiment,NULL,PennController,30,_Header_,End,1687287202594,615091ea67fa6004f95be93a,615091ea67fa6004f95be93a,28,sort,filler,D,25,sort15.jpg,sort35.jpg,GoalA,NULL
1687287410,4e535eb033cc3c4fda64b90f9535bdae,PennController,31,0,experiment,NULL,Canvas,canvas6,Print,NA,1687287208268,615091ea67fa6004f95be93a,615091ea67fa6004f95be93a,28,sort,filler,D,25,sort15.jpg,sort35.jpg,GoalA,NULL
1687287410,4e535eb033cc3c4fda64b90f9535bdae,PennController,31,0,experiment,NULL,Video,progression,buffer,0.001902,1687287206105,615091ea67fa6004f95be93a,615091ea67fa6004f95be93a,28,sort,filler,D,25,sort15.jpg,sort35.jpg,GoalA,NULL
1687287410,4e535eb033cc3c4fda64b90f9535bdae,PennController,31,0,experiment,NULL,Selector,choice,Selection,option2,1687287211152,615091ea67fa6004f95be93a,615091ea67fa6004f95be93a,28,sort,filler,D,25,sort15.jpg,sort35.jpg,GoalA,option1;option2
1687287410,4e535eb033cc3c4fda64b90f9535bdae,PennController,31,0,experiment,NULL,PennController,30,_Trial_,End,1687287211153,615091ea67fa6004f95be93a,615091ea67fa6004f95be93a,28,sort,filler,D,25,sort15.jpg,sort35.jpg,GoalA,NULL
1687287410,4e535eb033cc3c4fda64b90f9535bdae,PennController,26,0,experiment,NULL,PennController,25,_Trial_,Start,1687287211153,615091ea67fa6004f95be93a,615091ea67fa6004f95be93a,23,color,filler,D,50,color40.jpg,color60.jpg,GoalB,NULL
1687287410,4e535eb033cc3c4fda64b90f9535bdae,PennController,26,0,experiment,NULL,PennController,25,_Header_,Start,1687287211153,615091ea67fa6004f95be93a,615091ea67fa6004f95be93a,23,color,filler,D,50,color40.jpg,color60.jpg,GoalB,NULL
1687287410,4e535eb033cc3c4fda64b90f9535bdae,PennController,26,0,experiment,NULL,PennController,25,_Header_,End,1687287211153,615091ea67fa6004f95be93a,615091ea67fa6004f95be93a,23,color,filler,D,50,color40.jpg,color60.jpg,GoalB,NULL
1687287410,4e535eb033cc3c4fda64b90f9535bdae,PennController,26,0,experiment,NULL,Canvas,canvas6,Print,NA,1687287217834,615091ea67fa6004f95be93a,615091ea67fa6004f95be93a,23,color,filler,D,50,color40.jpg,color60.jpg,GoalB,NULL
1687287410,4e535eb033cc3c4fda64b90f9535bdae,PennController,26,0,experiment,NULL,Video,progression,buffer,0.001654,1687287214667,615091ea67fa6004f95be93a,615091ea67fa6004f95be93a,23,color,filler,D,50,color40.jpg,color60.jpg,GoalB,NULL
1687287410,4e535eb033cc3c4fda64b90f9535bdae,PennController,26,0,experiment,NULL,Selector,choice,Selection,option1,1687287225785,615091ea67fa6004f95be93a,615091ea67fa6004f95be93a,23,color,filler,D,50,color40.jpg,color60.jpg,GoalB,option2;option1
1687287410,4e535eb033cc3c4fda64b90f9535bdae,PennController,26,0,experiment,NULL,PennController,25,_Trial_,End,1687287225786,615091ea67fa6004f95be93a,615091ea67fa6004f95be93a,23,color,filler,D,50,color40.jpg,color60.jpg,GoalB,NULL
1687287410,4e535eb033cc3c4fda64b90f9535bdae,PennController,24,0,experiment,NULL,PennController,23,_Trial_,Start,1687287225787,615091ea67fa6004f95be93a,615091ea67fa6004f95be93a,21,visit,filler,D,75,visit65.jpg,visit85.jpg,GoalB,NULL
1687287410,4e535eb033cc3c4fda64b90f9535bdae,PennController,24,0,experiment,NULL,PennController,23,_Header_,Start,1687287225787,615091ea67fa6004f95be93a,615091ea67fa6004f95be93a,21,visit,filler,D,75,visit65.jpg,visit85.jpg,GoalB,NULL
1687287410,4e535eb033cc3c4fda64b90f9535bdae,PennController,24,0,experiment,NULL,PennController,23,_Header_,End,1687287225787,615091ea67fa6004f95be93a,615091ea67fa6004f95be93a,21,visit,filler,D,75,visit65.jpg,visit85.jpg,GoalB,NULL
1687287410,4e535eb033cc3c4fda64b90f9535bdae,PennController,24,0,experiment,NULL,Canvas,canvas6,Print,NA,1687287233467,615091ea67fa6004f95be93a,615091ea67fa6004f95be93a,21,visit,filler,D,75,visit65.jpg,visit85.jpg,GoalB,NULL
1687287410,4e535eb033cc3c4fda64b90f9535bdae,PennController,24,0,experiment,NULL,Video,progression,buffer,0.002631,1687287229304,615091ea67fa6004f95be93a,615091ea67fa6004f95be93a,21,visit,filler,D,75,visit65.jpg,visit85.jpg,GoalB,NULL
1687287410,4e535eb033cc3c4fda64b90f9535bdae,PennController,24,0,experiment,NULL,Selector,choice,Selection,option2,1687287235984,615091ea67fa6004f95be93a,615091ea67fa6004f95be93a,21,visit,filler,D,75,visit65.jpg,visit85.jpg,GoalB,option2;option1
1687287410,4e535eb033cc3c4fda64b90f9535bdae,PennController,24,0,experiment,NULL,PennController,23,_Trial_,End,1687287235985,615091ea67fa6004f95be93a,615091ea67fa6004f95be93a,21,visit,filler,D,75,visit65.jpg,visit85.jpg,GoalB,NULL
1687287410,4e535eb033cc3c4fda64b90f9535bdae,PennController,12,0,experiment,NULL,PennController,11,_Trial_,Start,1687287235986,615091ea67fa6004f95be93a,615091ea67fa6004f95be93a,9,cake,critical,D,75,cake66.jpg,cake84.jpg,high,NULL
1687287410,4e535eb033cc3c4fda64b90f9535bdae,PennController,12,0,experiment,NULL,PennController,11,_Header_,Start,1687287235986,615091ea67fa6004f95be93a,615091ea67fa6004f95be93a,9,cake,critical,D,75,cake66.jpg,cake84.jpg,high,NULL
1687287410,4e535eb033cc3c4fda64b90f9535bdae,PennController,12,0,experiment,NULL,PennController,11,_Header_,End,1687287235986,615091ea67fa6004f95be93a,615091ea67fa6004f95be93a,9,cake,critical,D,75,cake66.jpg,cake84.jpg,high,NULL
1687287410,4e535eb033cc3c4fda64b90f9535bdae,PennController,12,0,experiment,NULL,Canvas,canvas6,Print,NA,1687287245667,615091ea67fa6004f95be93a,615091ea67fa6004f95be93a,9,cake,critical,D,75,cake66.jpg,cake84.jpg,high,NULL
1687287410,4e535eb033cc3c4fda64b90f9535bdae,PennController,12,0,experiment,NULL,Video,progression,buffer,0.001639,1687287239505,615091ea67fa6004f95be93a,615091ea67fa6004f95be93a,9,cake,critical,D,75,cake66.jpg,cake84.jpg,high,NULL
1687287410,4e535eb033cc3c4fda64b90f9535bdae,PennController,12,0,experiment,NULL,Selector,choice,Selection,option1,1687287247608,615091ea67fa6004f95be93a,615091ea67fa6004f95be93a,9,cake,critical,D,75,cake66.jpg,cake84.jpg,high,option2;option1
1687287410,4e535eb033cc3c4fda64b90f9535bdae,PennController,12,0,experiment,NULL,PennController,11,_Trial_,End,1687287247609,615091ea67fa6004f95be93a,615091ea67fa6004f95be93a,9,cake,critical,D,75,cake66.jpg,cake84.jpg,high,NULL
1687287410,4e535eb033cc3c4fda64b90f9535bdae,PennController,9,0,experiment,NULL,PennController,8,_Trial_,Start,1687287247610,615091ea67fa6004f95be93a,615091ea67fa6004f95be93a,6,flower,critical,D,75,flower65.jpg,flower85.jpg,high,NULL
1687287410,4e535eb033cc3c4fda64b90f9535bdae,PennController,9,0,experiment,NULL,PennController,8,_Header_,Start,1687287247610,615091ea67fa6004f95be93a,615091ea67fa6004f95be93a,6,flower,critical,D,75,flower65.jpg,flower85.jpg,high,NULL
1687287410,4e535eb033cc3c4fda64b90f9535bdae,PennController,9,0,experiment,NULL,PennController,8,_Header_,End,1687287247610,615091ea67fa6004f95be93a,615091ea67fa6004f95be93a,6,flower,critical,D,75,flower65.jpg,flower85.jpg,high,NULL
1687287410,4e535eb033cc3c4fda64b90f9535bdae,PennController,9,0,experiment,NULL,Canvas,canvas6,Print,NA,1687287255281,615091ea67fa6004f95be93a,615091ea67fa6004f95be93a,6,flower,critical,D,75,flower65.jpg,flower85.jpg,high,NULL
1687287410,4e535eb033cc3c4fda64b90f9535bdae,PennController,9,0,experiment,NULL,Video,progression,buffer,0.00171,1687287251123,615091ea67fa6004f95be93a,615091ea67fa6004f95be93a,6,flower,critical,D,75,flower65.jpg,flower85.jpg,high,NULL
1687287410,4e535eb033cc3c4fda64b90f9535bdae,PennController,9,0,experiment,NULL,Selector,choice,Selection,option1,1687287256680,615091ea67fa6004f95be93a,615091ea67fa6004f95be93a,6,flower,critical,D,75,flower65.jpg,flower85.jpg,high,option2;option1
1687287410,4e535eb033cc3c4fda64b90f9535bdae,PennController,9,0,experiment,NULL,PennController,8,_Trial_,End,1687287256681,615091ea67fa6004f95be93a,615091ea67fa6004f95be93a,6,flower,critical,D,75,flower65.jpg,flower85.jpg,high,NULL
1687287410,4e535eb033cc3c4fda64b90f9535bdae,PennController,21,0,experiment,NULL,PennController,20,_Trial_,Start,1687287256682,615091ea67fa6004f95be93a,615091ea67fa6004f95be93a,18,ball,critical,D,75,ball65.jpg,ball85.jpg,high,NULL
1687287410,4e535eb033cc3c4fda64b90f9535bdae,PennController,21,0,experiment,NULL,PennController,20,_Header_,Start,1687287256682,615091ea67fa6004f95be93a,615091ea67fa6004f95be93a,18,ball,critical,D,75,ball65.jpg,ball85.jpg,high,NULL
1687287410,4e535eb033cc3c4fda64b90f9535bdae,PennController,21,0,experiment,NULL,PennController,20,_Header_,End,1687287256682,615091ea67fa6004f95be93a,615091ea67fa6004f95be93a,18,ball,critical,D,75,ball65.jpg,ball85.jpg,high,NULL
1687287410,4e535eb033cc3c4fda64b90f9535bdae,PennController,21,0,experiment,NULL,Canvas,canvas6,Print,NA,1687287264364,615091ea67fa6004f95be93a,615091ea67fa6004f95be93a,18,ball,critical,D,75,ball65.jpg,ball85.jpg,high,NULL
1687287410,4e535eb033cc3c4fda64b90f9535bdae,PennController,21,0,experiment,NULL,Video,progression,buffer,0.00306,1687287260197,615091ea67fa6004f95be93a,615091ea67fa6004f95be93a,18,ball,critical,D,75,ball65.jpg,ball85.jpg,high,NULL
1687287410,4e535eb033cc3c4fda64b90f9535bdae,PennController,21,0,experiment,NULL,Selector,choice,Selection,option2,1687287342288,615091ea67fa6004f95be93a,615091ea67fa6004f95be93a,18,ball,critical,D,75,ball65.jpg,ball85.jpg,high,option2;option1
1687287410,4e535eb033cc3c4fda64b90f9535bdae,PennController,21,0,experiment,NULL,PennController,20,_Trial_,End,1687287342289,615091ea67fa6004f95be93a,615091ea67fa6004f95be93a,18,ball,critical,D,75,ball65.jpg,ball85.jpg,high,NULL
1687287410,4e535eb033cc3c4fda64b90f9535bdae,PennController,10,0,experiment,NULL,PennController,9,_Trial_,Start,1687287342290,615091ea67fa6004f95be93a,615091ea67fa6004f95be93a,7,stack,critical,D,25,stack15.jpg,stack35.jpg,high,NULL
1687287410,4e535eb033cc3c4fda64b90f9535bdae,PennController,10,0,experiment,NULL,PennController,9,_Header_,Start,1687287342290,615091ea67fa6004f95be93a,615091ea67fa6004f95be93a,7,stack,critical,D,25,stack15.jpg,stack35.jpg,high,NULL
1687287410,4e535eb033cc3c4fda64b90f9535bdae,PennController,10,0,experiment,NULL,PennController,9,_Header_,End,1687287342290,615091ea67fa6004f95be93a,615091ea67fa6004f95be93a,7,stack,critical,D,25,stack15.jpg,stack35.jpg,high,NULL
1687287410,4e535eb033cc3c4fda64b90f9535bdae,PennController,10,0,experiment,NULL,Canvas,canvas6,Print,NA,1687287347961,615091ea67fa6004f95be93a,615091ea67fa6004f95be93a,7,stack,critical,D,25,stack15.jpg,stack35.jpg,high,NULL
1687287410,4e535eb033cc3c4fda64b90f9535bdae,PennController,10,0,experiment,NULL,Video,progression,buffer,0.001651,1687287345806,615091ea67fa6004f95be93a,615091ea67fa6004f95be93a,7,stack,critical,D,25,stack15.jpg,stack35.jpg,high,NULL
1687287410,4e535eb033cc3c4fda64b90f9535bdae,PennController,10,0,experiment,NULL,Selector,choice,Selection,option2,1687287349672,615091ea67fa6004f95be93a,615091ea67fa6004f95be93a,7,stack,critical,D,25,stack15.jpg,stack35.jpg,high,option2;option1
1687287410,4e535eb033cc3c4fda64b90f9535bdae,PennController,10,0,experiment,NULL,PennController,9,_Trial_,End,1687287349673,615091ea67fa6004f95be93a,615091ea67fa6004f95be93a,7,stack,critical,D,25,stack15.jpg,stack35.jpg,high,NULL
1687287410,4e535eb033cc3c4fda64b90f9535bdae,PennController,22,0,experiment,NULL,PennController,21,_Trial_,Start,1687287349674,615091ea67fa6004f95be93a,615091ea67fa6004f95be93a,19,cup,filler,D,25,cup15.jpg,cup35.jpg,GoalB,NULL
1687287410,4e535eb033cc3c4fda64b90f9535bdae,PennController,22,0,experiment,NULL,PennController,21,_Header_,Start,1687287349674,615091ea67fa6004f95be93a,615091ea67fa6004f95be93a,19,cup,filler,D,25,cup15.jpg,cup35.jpg,GoalB,NULL
1687287410,4e535eb033cc3c4fda64b90f9535bdae,PennController,22,0,experiment,NULL,PennController,21,_Header_,End,1687287349674,615091ea67fa6004f95be93a,615091ea67fa6004f95be93a,19,cup,filler,D,25,cup15.jpg,cup35.jpg,GoalB,NULL
1687287410,4e535eb033cc3c4fda64b90f9535bdae,PennController,22,0,experiment,NULL,Canvas,canvas6,Print,NA,1687287355345,615091ea67fa6004f95be93a,615091ea67fa6004f95be93a,19,cup,filler,D,25,cup15.jpg,cup35.jpg,GoalB,NULL
1687287410,4e535eb033cc3c4fda64b90f9535bdae,PennController,22,0,experiment,NULL,Video,progression,buffer,0.001795,1687287353188,615091ea67fa6004f95be93a,615091ea67fa6004f95be93a,19,cup,filler,D,25,cup15.jpg,cup35.jpg,GoalB,NULL
1687287410,4e535eb033cc3c4fda64b90f9535bdae,PennController,22,0,experiment,NULL,Selector,choice,Selection,option2,1687287357072,615091ea67fa6004f95be93a,615091ea67fa6004f95be93a,19,cup,filler,D,25,cup15.jpg,cup35.jpg,GoalB,option1;option2
1687287410,4e535eb033cc3c4fda64b90f9535bdae,PennController,22,0,experiment,NULL,PennController,21,_Trial_,End,1687287357073,615091ea67fa6004f95be93a,615091ea67fa6004f95be93a,19,cup,filler,D,25,cup15.jpg,cup35.jpg,GoalB,NULL
1687287410,4e535eb033cc3c4fda64b90f9535bdae,PennController,28,0,experiment,NULL,PennController,27,_Trial_,Start,1687287357074,615091ea67fa6004f95be93a,615091ea67fa6004f95be93a,25,house,filler,D,25,house15.jpg,house35.jpg,GoalB,NULL
1687287410,4e535eb033cc3c4fda64b90f9535bdae,PennController,28,0,experiment,NULL,PennController,27,_Header_,Start,1687287357074,615091ea67fa6004f95be93a,615091ea67fa6004f95be93a,25,house,filler,D,25,house15.jpg,house35.jpg,GoalB,NULL
1687287410,4e535eb033cc3c4fda64b90f9535bdae,PennController,28,0,experiment,NULL,PennController,27,_Header_,End,1687287357074,615091ea67fa6004f95be93a,615091ea67fa6004f95be93a,25,house,filler,D,25,house15.jpg,house35.jpg,GoalB,NULL
1687287410,4e535eb033cc3c4fda64b90f9535bdae,PennController,28,0,experiment,NULL,Canvas,canvas6,Print,NA,1687287362746,615091ea67fa6004f95be93a,615091ea67fa6004f95be93a,25,house,filler,D,25,house15.jpg,house35.jpg,GoalB,NULL
1687287410,4e535eb033cc3c4fda64b90f9535bdae,PennController,28,0,experiment,NULL,Video,progression,buffer,0.002354,1687287360591,615091ea67fa6004f95be93a,615091ea67fa6004f95be93a,25,house,filler,D,25,house15.jpg,house35.jpg,GoalB,NULL
1687287410,4e535eb033cc3c4fda64b90f9535bdae,PennController,28,0,experiment,NULL,Selector,choice,Selection,option1,1687287364648,615091ea67fa6004f95be93a,615091ea67fa6004f95be93a,25,house,filler,D,25,house15.jpg,house35.jpg,GoalB,option2;option1
1687287410,4e535eb033cc3c4fda64b90f9535bdae,PennController,28,0,experiment,NULL,PennController,27,_Trial_,End,1687287364649,615091ea67fa6004f95be93a,615091ea67fa6004f95be93a,25,house,filler,D,25,house15.jpg,house35.jpg,GoalB,NULL
1687287410,4e535eb033cc3c4fda64b90f9535bdae,PennController,23,0,experiment,NULL,PennController,22,_Trial_,Start,1687287364650,615091ea67fa6004f95be93a,615091ea67fa6004f95be93a,20,cat,filler,D,50,cat40.jpg,cat60.jpg,GoalA,NULL
1687287410,4e535eb033cc3c4fda64b90f9535bdae,PennController,23,0,experiment,NULL,PennController,22,_Header_,Start,1687287364650,615091ea67fa6004f95be93a,615091ea67fa6004f95be93a,20,cat,filler,D,50,cat40.jpg,cat60.jpg,GoalA,NULL
1687287410,4e535eb033cc3c4fda64b90f9535bdae,PennController,23,0,experiment,NULL,PennController,22,_Header_,End,1687287364650,615091ea67fa6004f95be93a,615091ea67fa6004f95be93a,20,cat,filler,D,50,cat40.jpg,cat60.jpg,GoalA,NULL
1687287410,4e535eb033cc3c4fda64b90f9535bdae,PennController,23,0,experiment,NULL,Canvas,canvas6,Print,NA,1687287371332,615091ea67fa6004f95be93a,615091ea67fa6004f95be93a,20,cat,filler,D,50,cat40.jpg,cat60.jpg,GoalA,NULL
1687287410,4e535eb033cc3c4fda64b90f9535bdae,PennController,23,0,experiment,NULL,Video,progression,buffer,0.001765,1687287368165,615091ea67fa6004f95be93a,615091ea67fa6004f95be93a,20,cat,filler,D,50,cat40.jpg,cat60.jpg,GoalA,NULL
1687287410,4e535eb033cc3c4fda64b90f9535bdae,PennController,23,0,experiment,NULL,Selector,choice,Selection,option2,1687287372528,615091ea67fa6004f95be93a,615091ea67fa6004f95be93a,20,cat,filler,D,50,cat40.jpg,cat60.jpg,GoalA,option1;option2
1687287410,4e535eb033cc3c4fda64b90f9535bdae,PennController,23,0,experiment,NULL,PennController,22,_Trial_,End,1687287372529,615091ea67fa6004f95be93a,615091ea67fa6004f95be93a,20,cat,filler,D,50,cat40.jpg,cat60.jpg,GoalA,NULL
1687287410,4e535eb033cc3c4fda64b90f9535bdae,PennController,27,0,experiment,NULL,PennController,26,_Trial_,Start,1687287372530,615091ea67fa6004f95be93a,615091ea67fa6004f95be93a,24,match,filler,D,75,match65.jpg,match85.jpg,GoalA,NULL
1687287410,4e535eb033cc3c4fda64b90f9535bdae,PennController,27,0,experiment,NULL,PennController,26,_Header_,Start,1687287372530,615091ea67fa6004f95be93a,615091ea67fa6004f95be93a,24,match,filler,D,75,match65.jpg,match85.jpg,GoalA,NULL
1687287410,4e535eb033cc3c4fda64b90f9535bdae,PennController,27,0,experiment,NULL,PennController,26,_Header_,End,1687287372530,615091ea67fa6004f95be93a,615091ea67fa6004f95be93a,24,match,filler,D,75,match65.jpg,match85.jpg,GoalA,NULL
1687287410,4e535eb033cc3c4fda64b90f9535bdae,PennController,27,0,experiment,NULL,Canvas,canvas6,Print,NA,1687287380215,615091ea67fa6004f95be93a,615091ea67fa6004f95be93a,24,match,filler,D,75,match65.jpg,match85.jpg,GoalA,NULL
1687287410,4e535eb033cc3c4fda64b90f9535bdae,PennController,27,0,experiment,NULL,Video,progression,buffer,0.001631,1687287376050,615091ea67fa6004f95be93a,615091ea67fa6004f95be93a,24,match,filler,D,75,match65.jpg,match85.jpg,GoalA,NULL
1687287410,4e535eb033cc3c4fda64b90f9535bdae,PennController,27,0,experiment,NULL,Selector,choice,Selection,option1,1687287385904,615091ea67fa6004f95be93a,615091ea67fa6004f95be93a,24,match,filler,D,75,match65.jpg,match85.jpg,GoalA,option2;option1
1687287410,4e535eb033cc3c4fda64b90f9535bdae,PennController,27,0,experiment,NULL,PennController,26,_Trial_,End,1687287385905,615091ea67fa6004f95be93a,615091ea67fa6004f95be93a,24,match,filler,D,75,match65.jpg,match85.jpg,GoalA,NULL
1687287410,4e535eb033cc3c4fda64b90f9535bdae,PennController,14,0,experiment,NULL,PennController,13,_Trial_,Start,1687287385906,615091ea67fa6004f95be93a,615091ea67fa6004f95be93a,11,beads,critical,D,50,beads40.jpg,beads60.jpg,high,NULL
1687287410,4e535eb033cc3c4fda64b90f9535bdae,PennController,14,0,experiment,NULL,PennController,13,_Header_,Start,1687287385906,615091ea67fa6004f95be93a,615091ea67fa6004f95be93a,11,beads,critical,D,50,beads40.jpg,beads60.jpg,high,NULL
1687287410,4e535eb033cc3c4fda64b90f9535bdae,PennController,14,0,experiment,NULL,PennController,13,_Header_,End,1687287385906,615091ea67fa6004f95be93a,615091ea67fa6004f95be93a,11,beads,critical,D,50,beads40.jpg,beads60.jpg,high,NULL
1687287410,4e535eb033cc3c4fda64b90f9535bdae,PennController,14,0,experiment,NULL,Canvas,canvas6,Print,NA,1687287392577,615091ea67fa6004f95be93a,615091ea67fa6004f95be93a,11,beads,critical,D,50,beads40.jpg,beads60.jpg,high,NULL
1687287410,4e535eb033cc3c4fda64b90f9535bdae,PennController,14,0,experiment,NULL,Video,progression,buffer,0.001885,1687287389421,615091ea67fa6004f95be93a,615091ea67fa6004f95be93a,11,beads,critical,D,50,beads40.jpg,beads60.jpg,high,NULL
1687287410,4e535eb033cc3c4fda64b90f9535bdae,PennController,14,0,experiment,NULL,Selector,choice,Selection,option2,1687287393888,615091ea67fa6004f95be93a,615091ea67fa6004f95be93a,11,beads,critical,D,50,beads40.jpg,beads60.jpg,high,option1;option2
1687287410,4e535eb033cc3c4fda64b90f9535bdae,PennController,14,0,experiment,NULL,PennController,13,_Trial_,End,1687287393889,615091ea67fa6004f95be93a,615091ea67fa6004f95be93a,11,beads,critical,D,50,beads40.jpg,beads60.jpg,high,NULL
1687287410,4e535eb033cc3c4fda64b90f9535bdae,PennController,25,0,experiment,NULL,PennController,24,_Trial_,Start,1687287393890,615091ea67fa6004f95be93a,615091ea67fa6004f95be93a,22,wall,filler,D,25,wall15.jpg,wall35.jpg,GoalA,NULL
1687287410,4e535eb033cc3c4fda64b90f9535bdae,PennController,25,0,experiment,NULL,PennController,24,_Header_,Start,1687287393890,615091ea67fa6004f95be93a,615091ea67fa6004f95be93a,22,wall,filler,D,25,wall15.jpg,wall35.jpg,GoalA,NULL
1687287410,4e535eb033cc3c4fda64b90f9535bdae,PennController,25,0,experiment,NULL,PennController,24,_Header_,End,1687287393890,615091ea67fa6004f95be93a,615091ea67fa6004f95be93a,22,wall,filler,D,25,wall15.jpg,wall35.jpg,GoalA,NULL
1687287410,4e535eb033cc3c4fda64b90f9535bdae,PennController,25,0,experiment,NULL,Canvas,canvas6,Print,NA,1687287399579,615091ea67fa6004f95be93a,615091ea67fa6004f95be93a,22,wall,filler,D,25,wall15.jpg,wall35.jpg,GoalA,NULL
1687287410,4e535eb033cc3c4fda64b90f9535bdae,PennController,25,0,experiment,NULL,Video,progression,buffer,0.003673,1687287397410,615091ea67fa6004f95be93a,615091ea67fa6004f95be93a,22,wall,filler,D,25,wall15.jpg,wall35.jpg,GoalA,NULL
1687287410,4e535eb033cc3c4fda64b90f9535bdae,PennController,25,0,experiment,NULL,Selector,choice,Selection,option1,1687287400912,615091ea67fa6004f95be93a,615091ea67fa6004f95be93a,22,wall,filler,D,25,wall15.jpg,wall35.jpg,GoalA,option1;option2
1687287410,4e535eb033cc3c4fda64b90f9535bdae,PennController,25,0,experiment,NULL,PennController,24,_Trial_,End,1687287400913,615091ea67fa6004f95be93a,615091ea67fa6004f95be93a,22,wall,filler,D,25,wall15.jpg,wall35.jpg,GoalA,NULL
1687287410,4e535eb033cc3c4fda64b90f9535bdae,PennController,30,0,experiment,NULL,PennController,29,_Trial_,Start,1687287400914,615091ea67fa6004f95be93a,615091ea67fa6004f95be93a,27,square,filler,D,75,square65.jpg,square85.jpg,GoalB,NULL
1687287410,4e535eb033cc3c4fda64b90f9535bdae,PennController,30,0,experiment,NULL,PennController,29,_Header_,Start,1687287400914,615091ea67fa6004f95be93a,615091ea67fa6004f95be93a,27,square,filler,D,75,square65.jpg,square85.jpg,GoalB,NULL
1687287410,4e535eb033cc3c4fda64b90f9535bdae,PennController,30,0,experiment,NULL,PennController,29,_Header_,End,1687287400914,615091ea67fa6004f95be93a,615091ea67fa6004f95be93a,27,square,filler,D,75,square65.jpg,square85.jpg,GoalB,NULL
1687287410,4e535eb033cc3c4fda64b90f9535bdae,PennController,30,0,experiment,NULL,Canvas,canvas6,Print,NA,1687287408594,615091ea67fa6004f95be93a,615091ea67fa6004f95be93a,27,square,filler,D,75,square65.jpg,square85.jpg,GoalB,NULL
1687287410,4e535eb033cc3c4fda64b90f9535bdae,PennController,30,0,experiment,NULL,Video,progression,buffer,0.001621,1687287404427,615091ea67fa6004f95be93a,615091ea67fa6004f95be93a,27,square,filler,D,75,square65.jpg,square85.jpg,GoalB,NULL
1687287410,4e535eb033cc3c4fda64b90f9535bdae,PennController,30,0,experiment,NULL,Selector,choice,Selection,option1,1687287409968,615091ea67fa6004f95be93a,615091ea67fa6004f95be93a,27,square,filler,D,75,square65.jpg,square85.jpg,GoalB,option2;option1
1687287410,4e535eb033cc3c4fda64b90f9535bdae,PennController,30,0,experiment,NULL,PennController,29,_Trial_,End,1687287409969,615091ea67fa6004f95be93a,615091ea67fa6004f95be93a,27,square,filler,D,75,square65.jpg,square85.jpg,GoalB,NULL
