#
# Results on Tuesday June 20 2023 18:55:50 UTC
# USER AGENT: Mozilla/5.0 (Windows NT 10.0; Win64; x64) AppleWebKit/537.36 (KHTML, like Gecko) Chrome/114.0.0.0 Safari/537.36
# Design number was non-random = 3
#
# Columns below this comment are as follows:
# 1. Results reception time.
# 2. MD5 hash of participant's IP address.
# 3. Controller name.
# 4. Order number of item.
# 5. Inner element number.
# 6. Label.
# 7. Latin Square Group.
# 8. PennElementType.
# 9. PennElementName.
# 10. Parameter.
# 11. Value.
# 12. EventTime.
# 13. PROLIFIC_ID.
# 14. Comments.
1687287350,fdc833bde6593f54ea31b5b9b9171f4b,PennController,2,0,consent,NULL,PennController,0,_Trial_,Start,1687287018288,6106c5624da5dabd8b780133,NULL
1687287350,fdc833bde6593f54ea31b5b9b9171f4b,PennController,2,0,consent,NULL,PennController,0,_Header_,Start,1687287018288,6106c5624da5dabd8b780133,NULL
1687287350,fdc833bde6593f54ea31b5b9b9171f4b,PennController,2,0,consent,NULL,PennController,0,_Header_,End,1687287018288,6106c5624da5dabd8b780133,NULL
1687287350,fdc833bde6593f54ea31b5b9b9171f4b,PennController,2,0,consent,NULL,PennController,0,_Trial_,End,1687287022913,6106c5624da5dabd8b780133,NULL
# Columns below this comment are as follows:
# 14. ID.
# 15. Comments.
1687287350,fdc833bde6593f54ea31b5b9b9171f4b,PennController,3,0,intro,NULL,PennController,1,_Trial_,Start,1687287022915,6106c5624da5dabd8b780133,6106c5624da5dabd8b780133,NULL
1687287350,fdc833bde6593f54ea31b5b9b9171f4b,PennController,3,0,intro,NULL,PennController,1,_Header_,Start,1687287022915,6106c5624da5dabd8b780133,6106c5624da5dabd8b780133,NULL
1687287350,fdc833bde6593f54ea31b5b9b9171f4b,PennController,3,0,intro,NULL,PennController,1,_Header_,End,1687287022915,6106c5624da5dabd8b780133,6106c5624da5dabd8b780133,NULL
1687287350,fdc833bde6593f54ea31b5b9b9171f4b,PennController,3,0,intro,NULL,PennController,1,_Trial_,End,1687287047363,6106c5624da5dabd8b780133,6106c5624da5dabd8b780133,NULL
# Columns below this comment are as follows:
# 15. item_number.
# 16. item.
# 17. type.
# 18. Group.
# 19. prog.
# 20. prev_image.
# 21. next_image.
# 22. height.
# 23. Comments.
1687287350,fdc833bde6593f54ea31b5b9b9171f4b,PennController,7,0,experiment,NULL,PennController,6,_Trial_,Start,1687287047365,6106c5624da5dabd8b780133,6106c5624da5dabd8b780133,4,candy,critical,D,25,candy15.jpg,candy35.jpg,high,NULL
1687287350,fdc833bde6593f54ea31b5b9b9171f4b,PennController,7,0,experiment,NULL,PennController,6,_Header_,Start,1687287047365,6106c5624da5dabd8b780133,6106c5624da5dabd8b780133,4,candy,critical,D,25,candy15.jpg,candy35.jpg,high,NULL
1687287350,fdc833bde6593f54ea31b5b9b9171f4b,PennController,7,0,experiment,NULL,PennController,6,_Header_,End,1687287047365,6106c5624da5dabd8b780133,6106c5624da5dabd8b780133,4,candy,critical,D,25,candy15.jpg,candy35.jpg,high,NULL
1687287350,fdc833bde6593f54ea31b5b9b9171f4b,PennController,7,0,experiment,NULL,Canvas,canvas6,Print,NA,1687287053093,6106c5624da5dabd8b780133,6106c5624da5dabd8b780133,4,candy,critical,D,25,candy15.jpg,candy35.jpg,high,NULL
1687287350,fdc833bde6593f54ea31b5b9b9171f4b,PennController,7,0,experiment,NULL,Video,progression,buffer,0.003141,1687287050926,6106c5624da5dabd8b780133,6106c5624da5dabd8b780133,4,candy,critical,D,25,candy15.jpg,candy35.jpg,high,NULL
1687287350,fdc833bde6593f54ea31b5b9b9171f4b,PennController,7,0,experiment,NULL,Selector,choice,Selection,option2,1687287060594,6106c5624da5dabd8b780133,6106c5624da5dabd8b780133,4,candy,critical,D,25,candy15.jpg,candy35.jpg,high,option1;option2
1687287350,fdc833bde6593f54ea31b5b9b9171f4b,PennController,7,0,experiment,NULL,PennController,6,_Trial_,End,1687287060596,6106c5624da5dabd8b780133,6106c5624da5dabd8b780133,4,candy,critical,D,25,candy15.jpg,candy35.jpg,high,NULL
1687287350,fdc833bde6593f54ea31b5b9b9171f4b,PennController,31,0,experiment,NULL,PennController,30,_Trial_,Start,1687287060597,6106c5624da5dabd8b780133,6106c5624da5dabd8b780133,28,sort,filler,D,25,sort15.jpg,sort35.jpg,GoalA,NULL
1687287350,fdc833bde6593f54ea31b5b9b9171f4b,PennController,31,0,experiment,NULL,PennController,30,_Header_,Start,1687287060597,6106c5624da5dabd8b780133,6106c5624da5dabd8b780133,28,sort,filler,D,25,sort15.jpg,sort35.jpg,GoalA,NULL
1687287350,fdc833bde6593f54ea31b5b9b9171f4b,PennController,31,0,experiment,NULL,PennController,30,_Header_,End,1687287060597,6106c5624da5dabd8b780133,6106c5624da5dabd8b780133,28,sort,filler,D,25,sort15.jpg,sort35.jpg,GoalA,NULL
1687287350,fdc833bde6593f54ea31b5b9b9171f4b,PennController,31,0,experiment,NULL,Canvas,canvas6,Print,NA,1687287066279,6106c5624da5dabd8b780133,6106c5624da5dabd8b780133,28,sort,filler,D,25,sort15.jpg,sort35.jpg,GoalA,NULL
1687287350,fdc833bde6593f54ea31b5b9b9171f4b,PennController,31,0,experiment,NULL,Video,progression,buffer,0.002473,1687287064116,6106c5624da5dabd8b780133,6106c5624da5dabd8b780133,28,sort,filler,D,25,sort15.jpg,sort35.jpg,GoalA,NULL
1687287350,fdc833bde6593f54ea31b5b9b9171f4b,PennController,31,0,experiment,NULL,Selector,choice,Selection,option2,1687287069235,6106c5624da5dabd8b780133,6106c5624da5dabd8b780133,28,sort,filler,D,25,sort15.jpg,sort35.jpg,GoalA,option2;option1
1687287350,fdc833bde6593f54ea31b5b9b9171f4b,PennController,31,0,experiment,NULL,PennController,30,_Trial_,End,1687287069236,6106c5624da5dabd8b780133,6106c5624da5dabd8b780133,28,sort,filler,D,25,sort15.jpg,sort35.jpg,GoalA,NULL
1687287350,fdc833bde6593f54ea31b5b9b9171f4b,PennController,17,0,experiment,NULL,PennController,16,_Trial_,Start,1687287069238,6106c5624da5dabd8b780133,6106c5624da5dabd8b780133,14,cover,critical,D,50,cover42.jpg,cover60.jpg,high,NULL
1687287350,fdc833bde6593f54ea31b5b9b9171f4b,PennController,17,0,experiment,NULL,PennController,16,_Header_,Start,1687287069238,6106c5624da5dabd8b780133,6106c5624da5dabd8b780133,14,cover,critical,D,50,cover42.jpg,cover60.jpg,high,NULL
1687287350,fdc833bde6593f54ea31b5b9b9171f4b,PennController,17,0,experiment,NULL,PennController,16,_Header_,End,1687287069238,6106c5624da5dabd8b780133,6106c5624da5dabd8b780133,14,cover,critical,D,50,cover42.jpg,cover60.jpg,high,NULL
1687287350,fdc833bde6593f54ea31b5b9b9171f4b,PennController,17,0,experiment,NULL,Canvas,canvas6,Print,NA,1687287077336,6106c5624da5dabd8b780133,6106c5624da5dabd8b780133,14,cover,critical,D,50,cover42.jpg,cover60.jpg,high,NULL
1687287350,fdc833bde6593f54ea31b5b9b9171f4b,PennController,17,0,experiment,NULL,Video,progression,buffer,0.00203,1687287072773,6106c5624da5dabd8b780133,6106c5624da5dabd8b780133,14,cover,critical,D,50,cover42.jpg,cover60.jpg,high,NULL
1687287350,fdc833bde6593f54ea31b5b9b9171f4b,PennController,17,0,experiment,NULL,Selector,choice,Selection,option1,1687287083169,6106c5624da5dabd8b780133,6106c5624da5dabd8b780133,14,cover,critical,D,50,cover42.jpg,cover60.jpg,high,option2;option1
1687287350,fdc833bde6593f54ea31b5b9b9171f4b,PennController,17,0,experiment,NULL,PennController,16,_Trial_,End,1687287083170,6106c5624da5dabd8b780133,6106c5624da5dabd8b780133,14,cover,critical,D,50,cover42.jpg,cover60.jpg,high,NULL
1687287350,fdc833bde6593f54ea31b5b9b9171f4b,PennController,6,0,experiment,NULL,PennController,5,_Trial_,Start,1687287083171,6106c5624da5dabd8b780133,6106c5624da5dabd8b780133,3,clean,critical,D,75,clean65.jpg,clean85.jpg,high,NULL
1687287350,fdc833bde6593f54ea31b5b9b9171f4b,PennController,6,0,experiment,NULL,PennController,5,_Header_,Start,1687287083171,6106c5624da5dabd8b780133,6106c5624da5dabd8b780133,3,clean,critical,D,75,clean65.jpg,clean85.jpg,high,NULL
1687287350,fdc833bde6593f54ea31b5b9b9171f4b,PennController,6,0,experiment,NULL,PennController,5,_Header_,End,1687287083171,6106c5624da5dabd8b780133,6106c5624da5dabd8b780133,3,clean,critical,D,75,clean65.jpg,clean85.jpg,high,NULL
1687287350,fdc833bde6593f54ea31b5b9b9171f4b,PennController,6,0,experiment,NULL,Canvas,canvas6,Print,NA,1687287090864,6106c5624da5dabd8b780133,6106c5624da5dabd8b780133,3,clean,critical,D,75,clean65.jpg,clean85.jpg,high,NULL
1687287350,fdc833bde6593f54ea31b5b9b9171f4b,PennController,6,0,experiment,NULL,Video,progression,buffer,0.002398,1687287086695,6106c5624da5dabd8b780133,6106c5624da5dabd8b780133,3,clean,critical,D,75,clean65.jpg,clean85.jpg,high,NULL
1687287350,fdc833bde6593f54ea31b5b9b9171f4b,PennController,6,0,experiment,NULL,Selector,choice,Selection,option1,1687287094379,6106c5624da5dabd8b780133,6106c5624da5dabd8b780133,3,clean,critical,D,75,clean65.jpg,clean85.jpg,high,option2;option1
1687287350,fdc833bde6593f54ea31b5b9b9171f4b,PennController,6,0,experiment,NULL,PennController,5,_Trial_,End,1687287094380,6106c5624da5dabd8b780133,6106c5624da5dabd8b780133,3,clean,critical,D,75,clean65.jpg,clean85.jpg,high,NULL
1687287350,fdc833bde6593f54ea31b5b9b9171f4b,PennController,19,0,experiment,NULL,PennController,18,_Trial_,Start,1687287094381,6106c5624da5dabd8b780133,6106c5624da5dabd8b780133,16,blinds,critical,D,25,blinds15.jpg,blinds33.jpg,high,NULL
1687287350,fdc833bde6593f54ea31b5b9b9171f4b,PennController,19,0,experiment,NULL,PennController,18,_Header_,Start,1687287094381,6106c5624da5dabd8b780133,6106c5624da5dabd8b780133,16,blinds,critical,D,25,blinds15.jpg,blinds33.jpg,high,NULL
1687287350,fdc833bde6593f54ea31b5b9b9171f4b,PennController,19,0,experiment,NULL,PennController,18,_Header_,End,1687287094381,6106c5624da5dabd8b780133,6106c5624da5dabd8b780133,16,blinds,critical,D,25,blinds15.jpg,blinds33.jpg,high,NULL
1687287350,fdc833bde6593f54ea31b5b9b9171f4b,PennController,19,0,experiment,NULL,Canvas,canvas6,Print,NA,1687287100673,6106c5624da5dabd8b780133,6106c5624da5dabd8b780133,16,blinds,critical,D,25,blinds15.jpg,blinds33.jpg,high,NULL
1687287350,fdc833bde6593f54ea31b5b9b9171f4b,PennController,19,0,experiment,NULL,Video,progression,buffer,0.004488,1687287097897,6106c5624da5dabd8b780133,6106c5624da5dabd8b780133,16,blinds,critical,D,25,blinds15.jpg,blinds33.jpg,high,NULL
1687287350,fdc833bde6593f54ea31b5b9b9171f4b,PennController,19,0,experiment,NULL,Selector,choice,Selection,option2,1687287104680,6106c5624da5dabd8b780133,6106c5624da5dabd8b780133,16,blinds,critical,D,25,blinds15.jpg,blinds33.jpg,high,option2;option1
1687287350,fdc833bde6593f54ea31b5b9b9171f4b,PennController,19,0,experiment,NULL,PennController,18,_Trial_,End,1687287104681,6106c5624da5dabd8b780133,6106c5624da5dabd8b780133,16,blinds,critical,D,25,blinds15.jpg,blinds33.jpg,high,NULL
1687287350,fdc833bde6593f54ea31b5b9b9171f4b,PennController,14,0,experiment,NULL,PennController,13,_Trial_,Start,1687287104682,6106c5624da5dabd8b780133,6106c5624da5dabd8b780133,11,beads,critical,D,50,beads40.jpg,beads60.jpg,high,NULL
1687287350,fdc833bde6593f54ea31b5b9b9171f4b,PennController,14,0,experiment,NULL,PennController,13,_Header_,Start,1687287104682,6106c5624da5dabd8b780133,6106c5624da5dabd8b780133,11,beads,critical,D,50,beads40.jpg,beads60.jpg,high,NULL
1687287350,fdc833bde6593f54ea31b5b9b9171f4b,PennController,14,0,experiment,NULL,PennController,13,_Header_,End,1687287104682,6106c5624da5dabd8b780133,6106c5624da5dabd8b780133,11,beads,critical,D,50,beads40.jpg,beads60.jpg,high,NULL
1687287350,fdc833bde6593f54ea31b5b9b9171f4b,PennController,14,0,experiment,NULL,Canvas,canvas6,Print,NA,1687287111379,6106c5624da5dabd8b780133,6106c5624da5dabd8b780133,11,beads,critical,D,50,beads40.jpg,beads60.jpg,high,NULL
1687287350,fdc833bde6593f54ea31b5b9b9171f4b,PennController,14,0,experiment,NULL,Video,progression,buffer,0.004053,1687287108215,6106c5624da5dabd8b780133,6106c5624da5dabd8b780133,11,beads,critical,D,50,beads40.jpg,beads60.jpg,high,NULL
1687287350,fdc833bde6593f54ea31b5b9b9171f4b,PennController,14,0,experiment,NULL,Selector,choice,Selection,option2,1687287115084,6106c5624da5dabd8b780133,6106c5624da5dabd8b780133,11,beads,critical,D,50,beads40.jpg,beads60.jpg,high,option1;option2
1687287350,fdc833bde6593f54ea31b5b9b9171f4b,PennController,14,0,experiment,NULL,PennController,13,_Trial_,End,1687287115089,6106c5624da5dabd8b780133,6106c5624da5dabd8b780133,11,beads,critical,D,50,beads40.jpg,beads60.jpg,high,NULL
1687287350,fdc833bde6593f54ea31b5b9b9171f4b,PennController,16,0,experiment,NULL,PennController,15,_Trial_,Start,1687287115092,6106c5624da5dabd8b780133,6106c5624da5dabd8b780133,13,mix,critical,D,25,mix15.jpg,mix35.jpg,high,NULL
1687287350,fdc833bde6593f54ea31b5b9b9171f4b,PennController,16,0,experiment,NULL,PennController,15,_Header_,Start,1687287115092,6106c5624da5dabd8b780133,6106c5624da5dabd8b780133,13,mix,critical,D,25,mix15.jpg,mix35.jpg,high,NULL
1687287350,fdc833bde6593f54ea31b5b9b9171f4b,PennController,16,0,experiment,NULL,PennController,15,_Header_,End,1687287115093,6106c5624da5dabd8b780133,6106c5624da5dabd8b780133,13,mix,critical,D,25,mix15.jpg,mix35.jpg,high,NULL
1687287350,fdc833bde6593f54ea31b5b9b9171f4b,PennController,16,0,experiment,NULL,Canvas,canvas6,Print,NA,1687287120808,6106c5624da5dabd8b780133,6106c5624da5dabd8b780133,13,mix,critical,D,25,mix15.jpg,mix35.jpg,high,NULL
1687287350,fdc833bde6593f54ea31b5b9b9171f4b,PennController,16,0,experiment,NULL,Video,progression,buffer,0.006621,1687287118637,6106c5624da5dabd8b780133,6106c5624da5dabd8b780133,13,mix,critical,D,25,mix15.jpg,mix35.jpg,high,NULL
1687287350,fdc833bde6593f54ea31b5b9b9171f4b,PennController,16,0,experiment,NULL,Selector,choice,Selection,option2,1687287125557,6106c5624da5dabd8b780133,6106c5624da5dabd8b780133,13,mix,critical,D,25,mix15.jpg,mix35.jpg,high,option1;option2
1687287350,fdc833bde6593f54ea31b5b9b9171f4b,PennController,16,0,experiment,NULL,PennController,15,_Trial_,End,1687287125561,6106c5624da5dabd8b780133,6106c5624da5dabd8b780133,13,mix,critical,D,25,mix15.jpg,mix35.jpg,high,NULL
1687287350,fdc833bde6593f54ea31b5b9b9171f4b,PennController,28,0,experiment,NULL,PennController,27,_Trial_,Start,1687287125566,6106c5624da5dabd8b780133,6106c5624da5dabd8b780133,25,house,filler,D,25,house15.jpg,house35.jpg,GoalB,NULL
1687287350,fdc833bde6593f54ea31b5b9b9171f4b,PennController,28,0,experiment,NULL,PennController,27,_Header_,Start,1687287125566,6106c5624da5dabd8b780133,6106c5624da5dabd8b780133,25,house,filler,D,25,house15.jpg,house35.jpg,GoalB,NULL
1687287350,fdc833bde6593f54ea31b5b9b9171f4b,PennController,28,0,experiment,NULL,PennController,27,_Header_,End,1687287125567,6106c5624da5dabd8b780133,6106c5624da5dabd8b780133,25,house,filler,D,25,house15.jpg,house35.jpg,GoalB,NULL
1687287350,fdc833bde6593f54ea31b5b9b9171f4b,PennController,28,0,experiment,NULL,Canvas,canvas6,Print,NA,1687287131294,6106c5624da5dabd8b780133,6106c5624da5dabd8b780133,25,house,filler,D,25,house15.jpg,house35.jpg,GoalB,NULL
1687287350,fdc833bde6593f54ea31b5b9b9171f4b,PennController,28,0,experiment,NULL,Video,progression,buffer,0.00675,1687287129110,6106c5624da5dabd8b780133,6106c5624da5dabd8b780133,25,house,filler,D,25,house15.jpg,house35.jpg,GoalB,NULL
1687287350,fdc833bde6593f54ea31b5b9b9171f4b,PennController,28,0,experiment,NULL,Selector,choice,Selection,option2,1687287132935,6106c5624da5dabd8b780133,6106c5624da5dabd8b780133,25,house,filler,D,25,house15.jpg,house35.jpg,GoalB,option1;option2
1687287350,fdc833bde6593f54ea31b5b9b9171f4b,PennController,28,0,experiment,NULL,PennController,27,_Trial_,End,1687287132939,6106c5624da5dabd8b780133,6106c5624da5dabd8b780133,25,house,filler,D,25,house15.jpg,house35.jpg,GoalB,NULL
1687287350,fdc833bde6593f54ea31b5b9b9171f4b,PennController,4,0,experiment,NULL,PennController,3,_Trial_,Start,1687287132940,6106c5624da5dabd8b780133,6106c5624da5dabd8b780133,1,vase,critical,D,25,vase15.jpg,vase35.jpg,high,NULL
1687287350,fdc833bde6593f54ea31b5b9b9171f4b,PennController,4,0,experiment,NULL,PennController,3,_Header_,Start,1687287132940,6106c5624da5dabd8b780133,6106c5624da5dabd8b780133,1,vase,critical,D,25,vase15.jpg,vase35.jpg,high,NULL
1687287350,fdc833bde6593f54ea31b5b9b9171f4b,PennController,4,0,experiment,NULL,PennController,3,_Header_,End,1687287132940,6106c5624da5dabd8b780133,6106c5624da5dabd8b780133,1,vase,critical,D,25,vase15.jpg,vase35.jpg,high,NULL
1687287350,fdc833bde6593f54ea31b5b9b9171f4b,PennController,4,0,experiment,NULL,Canvas,canvas6,Print,NA,1687287138653,6106c5624da5dabd8b780133,6106c5624da5dabd8b780133,1,vase,critical,D,25,vase15.jpg,vase35.jpg,high,NULL
1687287350,fdc833bde6593f54ea31b5b9b9171f4b,PennController,4,0,experiment,NULL,Video,progression,buffer,0.007454,1687287136485,6106c5624da5dabd8b780133,6106c5624da5dabd8b780133,1,vase,critical,D,25,vase15.jpg,vase35.jpg,high,NULL
1687287350,fdc833bde6593f54ea31b5b9b9171f4b,PennController,4,0,experiment,NULL,Selector,choice,Selection,option2,1687287140526,6106c5624da5dabd8b780133,6106c5624da5dabd8b780133,1,vase,critical,D,25,vase15.jpg,vase35.jpg,high,option2;option1
1687287350,fdc833bde6593f54ea31b5b9b9171f4b,PennController,4,0,experiment,NULL,PennController,3,_Trial_,End,1687287140528,6106c5624da5dabd8b780133,6106c5624da5dabd8b780133,1,vase,critical,D,25,vase15.jpg,vase35.jpg,high,NULL
1687287350,fdc833bde6593f54ea31b5b9b9171f4b,PennController,30,0,experiment,NULL,PennController,29,_Trial_,Start,1687287140529,6106c5624da5dabd8b780133,6106c5624da5dabd8b780133,27,square,filler,D,75,square65.jpg,square85.jpg,GoalB,NULL
1687287350,fdc833bde6593f54ea31b5b9b9171f4b,PennController,30,0,experiment,NULL,PennController,29,_Header_,Start,1687287140529,6106c5624da5dabd8b780133,6106c5624da5dabd8b780133,27,square,filler,D,75,square65.jpg,square85.jpg,GoalB,NULL
1687287350,fdc833bde6593f54ea31b5b9b9171f4b,PennController,30,0,experiment,NULL,PennController,29,_Header_,End,1687287140529,6106c5624da5dabd8b780133,6106c5624da5dabd8b780133,27,square,filler,D,75,square65.jpg,square85.jpg,GoalB,NULL
1687287350,fdc833bde6593f54ea31b5b9b9171f4b,PennController,30,0,experiment,NULL,Canvas,canvas6,Print,NA,1687287148250,6106c5624da5dabd8b780133,6106c5624da5dabd8b780133,27,square,filler,D,75,square65.jpg,square85.jpg,GoalB,NULL
1687287350,fdc833bde6593f54ea31b5b9b9171f4b,PennController,30,0,experiment,NULL,Video,progression,buffer,0.008275,1687287144074,6106c5624da5dabd8b780133,6106c5624da5dabd8b780133,27,square,filler,D,75,square65.jpg,square85.jpg,GoalB,NULL
1687287350,fdc833bde6593f54ea31b5b9b9171f4b,PennController,30,0,experiment,NULL,Selector,choice,Selection,option1,1687287150608,6106c5624da5dabd8b780133,6106c5624da5dabd8b780133,27,square,filler,D,75,square65.jpg,square85.jpg,GoalB,option1;option2
1687287350,fdc833bde6593f54ea31b5b9b9171f4b,PennController,30,0,experiment,NULL,PennController,29,_Trial_,End,1687287150612,6106c5624da5dabd8b780133,6106c5624da5dabd8b780133,27,square,filler,D,75,square65.jpg,square85.jpg,GoalB,NULL
1687287350,fdc833bde6593f54ea31b5b9b9171f4b,PennController,5,0,experiment,NULL,PennController,4,_Trial_,Start,1687287150613,6106c5624da5dabd8b780133,6106c5624da5dabd8b780133,2,door,critical,D,50,door40.jpg,door60.jpg,high,NULL
1687287350,fdc833bde6593f54ea31b5b9b9171f4b,PennController,5,0,experiment,NULL,PennController,4,_Header_,Start,1687287150613,6106c5624da5dabd8b780133,6106c5624da5dabd8b780133,2,door,critical,D,50,door40.jpg,door60.jpg,high,NULL
1687287350,fdc833bde6593f54ea31b5b9b9171f4b,PennController,5,0,experiment,NULL,PennController,4,_Header_,End,1687287150613,6106c5624da5dabd8b780133,6106c5624da5dabd8b780133,2,door,critical,D,50,door40.jpg,door60.jpg,high,NULL
1687287350,fdc833bde6593f54ea31b5b9b9171f4b,PennController,5,0,experiment,NULL,Canvas,canvas6,Print,NA,1687287157323,6106c5624da5dabd8b780133,6106c5624da5dabd8b780133,2,door,critical,D,50,door40.jpg,door60.jpg,high,NULL
1687287350,fdc833bde6593f54ea31b5b9b9171f4b,PennController,5,0,experiment,NULL,Video,progression,buffer,0.011801,1687287154152,6106c5624da5dabd8b780133,6106c5624da5dabd8b780133,2,door,critical,D,50,door40.jpg,door60.jpg,high,NULL
1687287350,fdc833bde6593f54ea31b5b9b9171f4b,PennController,5,0,experiment,NULL,Selector,choice,Selection,option2,1687287159610,6106c5624da5dabd8b780133,6106c5624da5dabd8b780133,2,door,critical,D,50,door40.jpg,door60.jpg,high,option2;option1
1687287350,fdc833bde6593f54ea31b5b9b9171f4b,PennController,5,0,experiment,NULL,PennController,4,_Trial_,End,1687287159612,6106c5624da5dabd8b780133,6106c5624da5dabd8b780133,2,door,critical,D,50,door40.jpg,door60.jpg,high,NULL
1687287350,fdc833bde6593f54ea31b5b9b9171f4b,PennController,11,0,experiment,NULL,PennController,10,_Trial_,Start,1687287159613,6106c5624da5dabd8b780133,6106c5624da5dabd8b780133,8,cucumber,critical,D,50,cucumber42.jpg,cucumber60.jpg,high,NULL
1687287350,fdc833bde6593f54ea31b5b9b9171f4b,PennController,11,0,experiment,NULL,PennController,10,_Header_,Start,1687287159613,6106c5624da5dabd8b780133,6106c5624da5dabd8b780133,8,cucumber,critical,D,50,cucumber42.jpg,cucumber60.jpg,high,NULL
1687287350,fdc833bde6593f54ea31b5b9b9171f4b,PennController,11,0,experiment,NULL,PennController,10,_Header_,End,1687287159613,6106c5624da5dabd8b780133,6106c5624da5dabd8b780133,8,cucumber,critical,D,50,cucumber42.jpg,cucumber60.jpg,high,NULL
1687287350,fdc833bde6593f54ea31b5b9b9171f4b,PennController,11,0,experiment,NULL,Canvas,canvas6,Print,NA,1687287167734,6106c5624da5dabd8b780133,6106c5624da5dabd8b780133,8,cucumber,critical,D,50,cucumber42.jpg,cucumber60.jpg,high,NULL
1687287350,fdc833bde6593f54ea31b5b9b9171f4b,PennController,11,0,experiment,NULL,Video,progression,buffer,0.006527,1687287163163,6106c5624da5dabd8b780133,6106c5624da5dabd8b780133,8,cucumber,critical,D,50,cucumber42.jpg,cucumber60.jpg,high,NULL
1687287350,fdc833bde6593f54ea31b5b9b9171f4b,PennController,11,0,experiment,NULL,Selector,choice,Selection,option2,1687287172763,6106c5624da5dabd8b780133,6106c5624da5dabd8b780133,8,cucumber,critical,D,50,cucumber42.jpg,cucumber60.jpg,high,option2;option1
1687287350,fdc833bde6593f54ea31b5b9b9171f4b,PennController,11,0,experiment,NULL,PennController,10,_Trial_,End,1687287172767,6106c5624da5dabd8b780133,6106c5624da5dabd8b780133,8,cucumber,critical,D,50,cucumber42.jpg,cucumber60.jpg,high,NULL
1687287350,fdc833bde6593f54ea31b5b9b9171f4b,PennController,29,0,experiment,NULL,PennController,28,_Trial_,Start,1687287172770,6106c5624da5dabd8b780133,6106c5624da5dabd8b780133,26,sandwich,filler,D,50,sandwich40.jpg,sandwich60.jpg,GoalA,NULL
1687287350,fdc833bde6593f54ea31b5b9b9171f4b,PennController,29,0,experiment,NULL,PennController,28,_Header_,Start,1687287172770,6106c5624da5dabd8b780133,6106c5624da5dabd8b780133,26,sandwich,filler,D,50,sandwich40.jpg,sandwich60.jpg,GoalA,NULL
1687287350,fdc833bde6593f54ea31b5b9b9171f4b,PennController,29,0,experiment,NULL,PennController,28,_Header_,End,1687287172770,6106c5624da5dabd8b780133,6106c5624da5dabd8b780133,26,sandwich,filler,D,50,sandwich40.jpg,sandwich60.jpg,GoalA,NULL
1687287350,fdc833bde6593f54ea31b5b9b9171f4b,PennController,29,0,experiment,NULL,Canvas,canvas6,Print,NA,1687287179472,6106c5624da5dabd8b780133,6106c5624da5dabd8b780133,26,sandwich,filler,D,50,sandwich40.jpg,sandwich60.jpg,GoalA,NULL
1687287350,fdc833bde6593f54ea31b5b9b9171f4b,PennController,29,0,experiment,NULL,Video,progression,buffer,0.002102,1687287176309,6106c5624da5dabd8b780133,6106c5624da5dabd8b780133,26,sandwich,filler,D,50,sandwich40.jpg,sandwich60.jpg,GoalA,NULL
1687287350,fdc833bde6593f54ea31b5b9b9171f4b,PennController,29,0,experiment,NULL,Selector,choice,Selection,option1,1687287181370,6106c5624da5dabd8b780133,6106c5624da5dabd8b780133,26,sandwich,filler,D,50,sandwich40.jpg,sandwich60.jpg,GoalA,option2;option1
1687287350,fdc833bde6593f54ea31b5b9b9171f4b,PennController,29,0,experiment,NULL,PennController,28,_Trial_,End,1687287181374,6106c5624da5dabd8b780133,6106c5624da5dabd8b780133,26,sandwich,filler,D,50,sandwich40.jpg,sandwich60.jpg,GoalA,NULL
1687287350,fdc833bde6593f54ea31b5b9b9171f4b,PennController,23,0,experiment,NULL,PennController,22,_Trial_,Start,1687287181378,6106c5624da5dabd8b780133,6106c5624da5dabd8b780133,20,cat,filler,D,50,cat40.jpg,cat60.jpg,GoalA,NULL
1687287350,fdc833bde6593f54ea31b5b9b9171f4b,PennController,23,0,experiment,NULL,PennController,22,_Header_,Start,1687287181378,6106c5624da5dabd8b780133,6106c5624da5dabd8b780133,20,cat,filler,D,50,cat40.jpg,cat60.jpg,GoalA,NULL
1687287350,fdc833bde6593f54ea31b5b9b9171f4b,PennController,23,0,experiment,NULL,PennController,22,_Header_,End,1687287181379,6106c5624da5dabd8b780133,6106c5624da5dabd8b780133,20,cat,filler,D,50,cat40.jpg,cat60.jpg,GoalA,NULL
1687287350,fdc833bde6593f54ea31b5b9b9171f4b,PennController,23,0,experiment,NULL,Canvas,canvas6,Print,NA,1687287188085,6106c5624da5dabd8b780133,6106c5624da5dabd8b780133,20,cat,filler,D,50,cat40.jpg,cat60.jpg,GoalA,NULL
1687287350,fdc833bde6593f54ea31b5b9b9171f4b,PennController,23,0,experiment,NULL,Video,progression,buffer,0.006851,1687287184928,6106c5624da5dabd8b780133,6106c5624da5dabd8b780133,20,cat,filler,D,50,cat40.jpg,cat60.jpg,GoalA,NULL
1687287350,fdc833bde6593f54ea31b5b9b9171f4b,PennController,23,0,experiment,NULL,Selector,choice,Selection,option2,1687287190872,6106c5624da5dabd8b780133,6106c5624da5dabd8b780133,20,cat,filler,D,50,cat40.jpg,cat60.jpg,GoalA,option2;option1
1687287350,fdc833bde6593f54ea31b5b9b9171f4b,PennController,23,0,experiment,NULL,PennController,22,_Trial_,End,1687287190876,6106c5624da5dabd8b780133,6106c5624da5dabd8b780133,20,cat,filler,D,50,cat40.jpg,cat60.jpg,GoalA,NULL
1687287350,fdc833bde6593f54ea31b5b9b9171f4b,PennController,21,0,experiment,NULL,PennController,20,_Trial_,Start,1687287190879,6106c5624da5dabd8b780133,6106c5624da5dabd8b780133,18,ball,critical,D,75,ball65.jpg,ball85.jpg,high,NULL
1687287350,fdc833bde6593f54ea31b5b9b9171f4b,PennController,21,0,experiment,NULL,PennController,20,_Header_,Start,1687287190879,6106c5624da5dabd8b780133,6106c5624da5dabd8b780133,18,ball,critical,D,75,ball65.jpg,ball85.jpg,high,NULL
1687287350,fdc833bde6593f54ea31b5b9b9171f4b,PennController,21,0,experiment,NULL,PennController,20,_Header_,End,1687287190879,6106c5624da5dabd8b780133,6106c5624da5dabd8b780133,18,ball,critical,D,75,ball65.jpg,ball85.jpg,high,NULL
1687287350,fdc833bde6593f54ea31b5b9b9171f4b,PennController,21,0,experiment,NULL,Canvas,canvas6,Print,NA,1687287198586,6106c5624da5dabd8b780133,6106c5624da5dabd8b780133,18,ball,critical,D,75,ball65.jpg,ball85.jpg,high,NULL
1687287350,fdc833bde6593f54ea31b5b9b9171f4b,PennController,21,0,experiment,NULL,Video,progression,buffer,0.002179,1687287194416,6106c5624da5dabd8b780133,6106c5624da5dabd8b780133,18,ball,critical,D,75,ball65.jpg,ball85.jpg,high,NULL
1687287350,fdc833bde6593f54ea31b5b9b9171f4b,PennController,21,0,experiment,NULL,Selector,choice,Selection,option1,1687287203381,6106c5624da5dabd8b780133,6106c5624da5dabd8b780133,18,ball,critical,D,75,ball65.jpg,ball85.jpg,high,option2;option1
1687287350,fdc833bde6593f54ea31b5b9b9171f4b,PennController,21,0,experiment,NULL,PennController,20,_Trial_,End,1687287203382,6106c5624da5dabd8b780133,6106c5624da5dabd8b780133,18,ball,critical,D,75,ball65.jpg,ball85.jpg,high,NULL
1687287350,fdc833bde6593f54ea31b5b9b9171f4b,PennController,20,0,experiment,NULL,PennController,19,_Trial_,Start,1687287203383,6106c5624da5dabd8b780133,6106c5624da5dabd8b780133,17,roll,critical,D,50,roll40.jpg,roll60.jpg,high,NULL
1687287350,fdc833bde6593f54ea31b5b9b9171f4b,PennController,20,0,experiment,NULL,PennController,19,_Header_,Start,1687287203383,6106c5624da5dabd8b780133,6106c5624da5dabd8b780133,17,roll,critical,D,50,roll40.jpg,roll60.jpg,high,NULL
1687287350,fdc833bde6593f54ea31b5b9b9171f4b,PennController,20,0,experiment,NULL,PennController,19,_Header_,End,1687287203383,6106c5624da5dabd8b780133,6106c5624da5dabd8b780133,17,roll,critical,D,50,roll40.jpg,roll60.jpg,high,NULL
1687287350,fdc833bde6593f54ea31b5b9b9171f4b,PennController,20,0,experiment,NULL,Canvas,canvas6,Print,NA,1687287210085,6106c5624da5dabd8b780133,6106c5624da5dabd8b780133,17,roll,critical,D,50,roll40.jpg,roll60.jpg,high,NULL
1687287350,fdc833bde6593f54ea31b5b9b9171f4b,PennController,20,0,experiment,NULL,Video,progression,buffer,0.007896,1687287206921,6106c5624da5dabd8b780133,6106c5624da5dabd8b780133,17,roll,critical,D,50,roll40.jpg,roll60.jpg,high,NULL
1687287350,fdc833bde6593f54ea31b5b9b9171f4b,PennController,20,0,experiment,NULL,Selector,choice,Selection,option1,1687287214418,6106c5624da5dabd8b780133,6106c5624da5dabd8b780133,17,roll,critical,D,50,roll40.jpg,roll60.jpg,high,option2;option1
1687287350,fdc833bde6593f54ea31b5b9b9171f4b,PennController,20,0,experiment,NULL,PennController,19,_Trial_,End,1687287214419,6106c5624da5dabd8b780133,6106c5624da5dabd8b780133,17,roll,critical,D,50,roll40.jpg,roll60.jpg,high,NULL
1687287350,fdc833bde6593f54ea31b5b9b9171f4b,PennController,10,0,experiment,NULL,PennController,9,_Trial_,Start,1687287214420,6106c5624da5dabd8b780133,6106c5624da5dabd8b780133,7,stack,critical,D,25,stack15.jpg,stack35.jpg,high,NULL
1687287350,fdc833bde6593f54ea31b5b9b9171f4b,PennController,10,0,experiment,NULL,PennController,9,_Header_,Start,1687287214420,6106c5624da5dabd8b780133,6106c5624da5dabd8b780133,7,stack,critical,D,25,stack15.jpg,stack35.jpg,high,NULL
1687287350,fdc833bde6593f54ea31b5b9b9171f4b,PennController,10,0,experiment,NULL,PennController,9,_Header_,End,1687287214420,6106c5624da5dabd8b780133,6106c5624da5dabd8b780133,7,stack,critical,D,25,stack15.jpg,stack35.jpg,high,NULL
1687287350,fdc833bde6593f54ea31b5b9b9171f4b,PennController,10,0,experiment,NULL,Canvas,canvas6,Print,NA,1687287220116,6106c5624da5dabd8b780133,6106c5624da5dabd8b780133,7,stack,critical,D,25,stack15.jpg,stack35.jpg,high,NULL
1687287350,fdc833bde6593f54ea31b5b9b9171f4b,PennController,10,0,experiment,NULL,Video,progression,buffer,0.007569,1687287217958,6106c5624da5dabd8b780133,6106c5624da5dabd8b780133,7,stack,critical,D,25,stack15.jpg,stack35.jpg,high,NULL
1687287350,fdc833bde6593f54ea31b5b9b9171f4b,PennController,10,0,experiment,NULL,Selector,choice,Selection,option2,1687287225778,6106c5624da5dabd8b780133,6106c5624da5dabd8b780133,7,stack,critical,D,25,stack15.jpg,stack35.jpg,high,option1;option2
1687287350,fdc833bde6593f54ea31b5b9b9171f4b,PennController,10,0,experiment,NULL,PennController,9,_Trial_,End,1687287225781,6106c5624da5dabd8b780133,6106c5624da5dabd8b780133,7,stack,critical,D,25,stack15.jpg,stack35.jpg,high,NULL
1687287350,fdc833bde6593f54ea31b5b9b9171f4b,PennController,9,0,experiment,NULL,PennController,8,_Trial_,Start,1687287225783,6106c5624da5dabd8b780133,6106c5624da5dabd8b780133,6,flower,critical,D,75,flower65.jpg,flower85.jpg,high,NULL
1687287350,fdc833bde6593f54ea31b5b9b9171f4b,PennController,9,0,experiment,NULL,PennController,8,_Header_,Start,1687287225783,6106c5624da5dabd8b780133,6106c5624da5dabd8b780133,6,flower,critical,D,75,flower65.jpg,flower85.jpg,high,NULL
1687287350,fdc833bde6593f54ea31b5b9b9171f4b,PennController,9,0,experiment,NULL,PennController,8,_Header_,End,1687287225783,6106c5624da5dabd8b780133,6106c5624da5dabd8b780133,6,flower,critical,D,75,flower65.jpg,flower85.jpg,high,NULL
1687287350,fdc833bde6593f54ea31b5b9b9171f4b,PennController,9,0,experiment,NULL,Canvas,canvas6,Print,NA,1687287233498,6106c5624da5dabd8b780133,6106c5624da5dabd8b780133,6,flower,critical,D,75,flower65.jpg,flower85.jpg,high,NULL
1687287350,fdc833bde6593f54ea31b5b9b9171f4b,PennController,9,0,experiment,NULL,Video,progression,buffer,0.0063,1687287229328,6106c5624da5dabd8b780133,6106c5624da5dabd8b780133,6,flower,critical,D,75,flower65.jpg,flower85.jpg,high,NULL
1687287350,fdc833bde6593f54ea31b5b9b9171f4b,PennController,9,0,experiment,NULL,Selector,choice,Selection,option2,1687287239121,6106c5624da5dabd8b780133,6106c5624da5dabd8b780133,6,flower,critical,D,75,flower65.jpg,flower85.jpg,high,option1;option2
1687287350,fdc833bde6593f54ea31b5b9b9171f4b,PennController,9,0,experiment,NULL,PennController,8,_Trial_,End,1687287239125,6106c5624da5dabd8b780133,6106c5624da5dabd8b780133,6,flower,critical,D,75,flower65.jpg,flower85.jpg,high,NULL
1687287350,fdc833bde6593f54ea31b5b9b9171f4b,PennController,8,0,experiment,NULL,PennController,7,_Trial_,Start,1687287239128,6106c5624da5dabd8b780133,6106c5624da5dabd8b780133,5,book,critical,D,50,book40.jpg,book60.jpg,high,NULL
1687287350,fdc833bde6593f54ea31b5b9b9171f4b,PennController,8,0,experiment,NULL,PennController,7,_Header_,Start,1687287239128,6106c5624da5dabd8b780133,6106c5624da5dabd8b780133,5,book,critical,D,50,book40.jpg,book60.jpg,high,NULL
1687287350,fdc833bde6593f54ea31b5b9b9171f4b,PennController,8,0,experiment,NULL,PennController,7,_Header_,End,1687287239128,6106c5624da5dabd8b780133,6106c5624da5dabd8b780133,5,book,critical,D,50,book40.jpg,book60.jpg,high,NULL
1687287350,fdc833bde6593f54ea31b5b9b9171f4b,PennController,8,0,experiment,NULL,Canvas,canvas6,Print,NA,1687287245835,6106c5624da5dabd8b780133,6106c5624da5dabd8b780133,5,book,critical,D,50,book40.jpg,book60.jpg,high,NULL
1687287350,fdc833bde6593f54ea31b5b9b9171f4b,PennController,8,0,experiment,NULL,Video,progression,buffer,0.003149,1687287242663,6106c5624da5dabd8b780133,6106c5624da5dabd8b780133,5,book,critical,D,50,book40.jpg,book60.jpg,high,NULL
1687287350,fdc833bde6593f54ea31b5b9b9171f4b,PennController,8,0,experiment,NULL,Selector,choice,Selection,option1,1687287251414,6106c5624da5dabd8b780133,6106c5624da5dabd8b780133,5,book,critical,D,50,book40.jpg,book60.jpg,high,option2;option1
1687287350,fdc833bde6593f54ea31b5b9b9171f4b,PennController,8,0,experiment,NULL,PennController,7,_Trial_,End,1687287251418,6106c5624da5dabd8b780133,6106c5624da5dabd8b780133,5,book,critical,D,50,book40.jpg,book60.jpg,high,NULL
1687287350,fdc833bde6593f54ea31b5b9b9171f4b,PennController,24,0,experiment,NULL,PennController,23,_Trial_,Start,1687287251422,6106c5624da5dabd8b780133,6106c5624da5dabd8b780133,21,visit,filler,D,75,visit65.jpg,visit85.jpg,GoalB,NULL
1687287350,fdc833bde6593f54ea31b5b9b9171f4b,PennController,24,0,experiment,NULL,PennController,23,_Header_,Start,1687287251422,6106c5624da5dabd8b780133,6106c5624da5dabd8b780133,21,visit,filler,D,75,visit65.jpg,visit85.jpg,GoalB,NULL
1687287350,fdc833bde6593f54ea31b5b9b9171f4b,PennController,24,0,experiment,NULL,PennController,23,_Header_,End,1687287251423,6106c5624da5dabd8b780133,6106c5624da5dabd8b780133,21,visit,filler,D,75,visit65.jpg,visit85.jpg,GoalB,NULL
1687287350,fdc833bde6593f54ea31b5b9b9171f4b,PennController,24,0,experiment,NULL,Canvas,canvas6,Print,NA,1687287259150,6106c5624da5dabd8b780133,6106c5624da5dabd8b780133,21,visit,filler,D,75,visit65.jpg,visit85.jpg,GoalB,NULL
1687287350,fdc833bde6593f54ea31b5b9b9171f4b,PennController,24,0,experiment,NULL,Video,progression,buffer,0.002028,1687287254971,6106c5624da5dabd8b780133,6106c5624da5dabd8b780133,21,visit,filler,D,75,visit65.jpg,visit85.jpg,GoalB,NULL
1687287350,fdc833bde6593f54ea31b5b9b9171f4b,PennController,24,0,experiment,NULL,Selector,choice,Selection,option2,1687287260890,6106c5624da5dabd8b780133,6106c5624da5dabd8b780133,21,visit,filler,D,75,visit65.jpg,visit85.jpg,GoalB,option1;option2
1687287350,fdc833bde6593f54ea31b5b9b9171f4b,PennController,24,0,experiment,NULL,PennController,23,_Trial_,End,1687287260894,6106c5624da5dabd8b780133,6106c5624da5dabd8b780133,21,visit,filler,D,75,visit65.jpg,visit85.jpg,GoalB,NULL
1687287350,fdc833bde6593f54ea31b5b9b9171f4b,PennController,27,0,experiment,NULL,PennController,26,_Trial_,Start,1687287260896,6106c5624da5dabd8b780133,6106c5624da5dabd8b780133,24,match,filler,D,75,match65.jpg,match85.jpg,GoalA,NULL
1687287350,fdc833bde6593f54ea31b5b9b9171f4b,PennController,27,0,experiment,NULL,PennController,26,_Header_,Start,1687287260896,6106c5624da5dabd8b780133,6106c5624da5dabd8b780133,24,match,filler,D,75,match65.jpg,match85.jpg,GoalA,NULL
1687287350,fdc833bde6593f54ea31b5b9b9171f4b,PennController,27,0,experiment,NULL,PennController,26,_Header_,End,1687287260896,6106c5624da5dabd8b780133,6106c5624da5dabd8b780133,24,match,filler,D,75,match65.jpg,match85.jpg,GoalA,NULL
1687287350,fdc833bde6593f54ea31b5b9b9171f4b,PennController,27,0,experiment,NULL,Canvas,canvas6,Print,NA,1687287268606,6106c5624da5dabd8b780133,6106c5624da5dabd8b780133,24,match,filler,D,75,match65.jpg,match85.jpg,GoalA,NULL
1687287350,fdc833bde6593f54ea31b5b9b9171f4b,PennController,27,0,experiment,NULL,Video,progression,buffer,0.006456,1687287264445,6106c5624da5dabd8b780133,6106c5624da5dabd8b780133,24,match,filler,D,75,match65.jpg,match85.jpg,GoalA,NULL
1687287350,fdc833bde6593f54ea31b5b9b9171f4b,PennController,27,0,experiment,NULL,Selector,choice,Selection,option1,1687287270888,6106c5624da5dabd8b780133,6106c5624da5dabd8b780133,24,match,filler,D,75,match65.jpg,match85.jpg,GoalA,option1;option2
1687287350,fdc833bde6593f54ea31b5b9b9171f4b,PennController,27,0,experiment,NULL,PennController,26,_Trial_,End,1687287270893,6106c5624da5dabd8b780133,6106c5624da5dabd8b780133,24,match,filler,D,75,match65.jpg,match85.jpg,GoalA,NULL
1687287350,fdc833bde6593f54ea31b5b9b9171f4b,PennController,15,0,experiment,NULL,PennController,14,_Trial_,Start,1687287270897,6106c5624da5dabd8b780133,6106c5624da5dabd8b780133,12,erase,critical,D,75,erase66.jpg,erase84.jpg,high,NULL
1687287350,fdc833bde6593f54ea31b5b9b9171f4b,PennController,15,0,experiment,NULL,PennController,14,_Header_,Start,1687287270897,6106c5624da5dabd8b780133,6106c5624da5dabd8b780133,12,erase,critical,D,75,erase66.jpg,erase84.jpg,high,NULL
1687287350,fdc833bde6593f54ea31b5b9b9171f4b,PennController,15,0,experiment,NULL,PennController,14,_Header_,End,1687287270897,6106c5624da5dabd8b780133,6106c5624da5dabd8b780133,12,erase,critical,D,75,erase66.jpg,erase84.jpg,high,NULL
1687287350,fdc833bde6593f54ea31b5b9b9171f4b,PennController,15,0,experiment,NULL,Canvas,canvas6,Print,NA,1687287280608,6106c5624da5dabd8b780133,6106c5624da5dabd8b780133,12,erase,critical,D,75,erase66.jpg,erase84.jpg,high,NULL
1687287350,fdc833bde6593f54ea31b5b9b9171f4b,PennController,15,0,experiment,NULL,Video,progression,buffer,0.008868,1687287274436,6106c5624da5dabd8b780133,6106c5624da5dabd8b780133,12,erase,critical,D,75,erase66.jpg,erase84.jpg,high,NULL
1687287350,fdc833bde6593f54ea31b5b9b9171f4b,PennController,15,0,experiment,NULL,Selector,choice,Selection,option2,1687287283605,6106c5624da5dabd8b780133,6106c5624da5dabd8b780133,12,erase,critical,D,75,erase66.jpg,erase84.jpg,high,option2;option1
1687287350,fdc833bde6593f54ea31b5b9b9171f4b,PennController,15,0,experiment,NULL,PennController,14,_Trial_,End,1687287283609,6106c5624da5dabd8b780133,6106c5624da5dabd8b780133,12,erase,critical,D,75,erase66.jpg,erase84.jpg,high,NULL
1687287350,fdc833bde6593f54ea31b5b9b9171f4b,PennController,32,0,experiment,NULL,PennController,31,_Trial_,Start,1687287283611,6106c5624da5dabd8b780133,6106c5624da5dabd8b780133,29,frog,filler,D,50,frog40.jpg,frog60.jpg,GoalB,NULL
1687287350,fdc833bde6593f54ea31b5b9b9171f4b,PennController,32,0,experiment,NULL,PennController,31,_Header_,Start,1687287283611,6106c5624da5dabd8b780133,6106c5624da5dabd8b780133,29,frog,filler,D,50,frog40.jpg,frog60.jpg,GoalB,NULL
1687287350,fdc833bde6593f54ea31b5b9b9171f4b,PennController,32,0,experiment,NULL,PennController,31,_Header_,End,1687287283612,6106c5624da5dabd8b780133,6106c5624da5dabd8b780133,29,frog,filler,D,50,frog40.jpg,frog60.jpg,GoalB,NULL
1687287350,fdc833bde6593f54ea31b5b9b9171f4b,PennController,32,0,experiment,NULL,Canvas,canvas6,Print,NA,1687287290318,6106c5624da5dabd8b780133,6106c5624da5dabd8b780133,29,frog,filler,D,50,frog40.jpg,frog60.jpg,GoalB,NULL
1687287350,fdc833bde6593f54ea31b5b9b9171f4b,PennController,32,0,experiment,NULL,Video,progression,buffer,0.007417,1687287287146,6106c5624da5dabd8b780133,6106c5624da5dabd8b780133,29,frog,filler,D,50,frog40.jpg,frog60.jpg,GoalB,NULL
1687287350,fdc833bde6593f54ea31b5b9b9171f4b,PennController,32,0,experiment,NULL,Selector,choice,Selection,option1,1687287292234,6106c5624da5dabd8b780133,6106c5624da5dabd8b780133,29,frog,filler,D,50,frog40.jpg,frog60.jpg,GoalB,option2;option1
1687287350,fdc833bde6593f54ea31b5b9b9171f4b,PennController,32,0,experiment,NULL,PennController,31,_Trial_,End,1687287292235,6106c5624da5dabd8b780133,6106c5624da5dabd8b780133,29,frog,filler,D,50,frog40.jpg,frog60.jpg,GoalB,NULL
1687287350,fdc833bde6593f54ea31b5b9b9171f4b,PennController,18,0,experiment,NULL,PennController,17,_Trial_,Start,1687287292236,6106c5624da5dabd8b780133,6106c5624da5dabd8b780133,15,zip,critical,D,75,zip65.jpg,zip85.jpg,high,NULL
1687287350,fdc833bde6593f54ea31b5b9b9171f4b,PennController,18,0,experiment,NULL,PennController,17,_Header_,Start,1687287292236,6106c5624da5dabd8b780133,6106c5624da5dabd8b780133,15,zip,critical,D,75,zip65.jpg,zip85.jpg,high,NULL
1687287350,fdc833bde6593f54ea31b5b9b9171f4b,PennController,18,0,experiment,NULL,PennController,17,_Header_,End,1687287292236,6106c5624da5dabd8b780133,6106c5624da5dabd8b780133,15,zip,critical,D,75,zip65.jpg,zip85.jpg,high,NULL
1687287350,fdc833bde6593f54ea31b5b9b9171f4b,PennController,18,0,experiment,NULL,Canvas,canvas6,Print,NA,1687287299136,6106c5624da5dabd8b780133,6106c5624da5dabd8b780133,15,zip,critical,D,75,zip65.jpg,zip85.jpg,high,NULL
1687287350,fdc833bde6593f54ea31b5b9b9171f4b,PennController,18,0,experiment,NULL,Video,progression,buffer,0.001713,1687287295763,6106c5624da5dabd8b780133,6106c5624da5dabd8b780133,15,zip,critical,D,75,zip65.jpg,zip85.jpg,high,NULL
1687287350,fdc833bde6593f54ea31b5b9b9171f4b,PennController,18,0,experiment,NULL,Selector,choice,Selection,option2,1687287301753,6106c5624da5dabd8b780133,6106c5624da5dabd8b780133,15,zip,critical,D,75,zip65.jpg,zip85.jpg,high,option2;option1
1687287350,fdc833bde6593f54ea31b5b9b9171f4b,PennController,18,0,experiment,NULL,PennController,17,_Trial_,End,1687287301757,6106c5624da5dabd8b780133,6106c5624da5dabd8b780133,15,zip,critical,D,75,zip65.jpg,zip85.jpg,high,NULL
1687287350,fdc833bde6593f54ea31b5b9b9171f4b,PennController,12,0,experiment,NULL,PennController,11,_Trial_,Start,1687287301759,6106c5624da5dabd8b780133,6106c5624da5dabd8b780133,9,cake,critical,D,75,cake66.jpg,cake84.jpg,high,NULL
1687287350,fdc833bde6593f54ea31b5b9b9171f4b,PennController,12,0,experiment,NULL,PennController,11,_Header_,Start,1687287301759,6106c5624da5dabd8b780133,6106c5624da5dabd8b780133,9,cake,critical,D,75,cake66.jpg,cake84.jpg,high,NULL
1687287350,fdc833bde6593f54ea31b5b9b9171f4b,PennController,12,0,experiment,NULL,PennController,11,_Header_,End,1687287301760,6106c5624da5dabd8b780133,6106c5624da5dabd8b780133,9,cake,critical,D,75,cake66.jpg,cake84.jpg,high,NULL
1687287350,fdc833bde6593f54ea31b5b9b9171f4b,PennController,12,0,experiment,NULL,Canvas,canvas6,Print,NA,1687287311484,6106c5624da5dabd8b780133,6106c5624da5dabd8b780133,9,cake,critical,D,75,cake66.jpg,cake84.jpg,high,NULL
1687287350,fdc833bde6593f54ea31b5b9b9171f4b,PennController,12,0,experiment,NULL,Video,progression,buffer,0.008088,1687287305309,6106c5624da5dabd8b780133,6106c5624da5dabd8b780133,9,cake,critical,D,75,cake66.jpg,cake84.jpg,high,NULL
1687287350,fdc833bde6593f54ea31b5b9b9171f4b,PennController,12,0,experiment,NULL,Selector,choice,Selection,option1,1687287313403,6106c5624da5dabd8b780133,6106c5624da5dabd8b780133,9,cake,critical,D,75,cake66.jpg,cake84.jpg,high,option2;option1
1687287350,fdc833bde6593f54ea31b5b9b9171f4b,PennController,12,0,experiment,NULL,PennController,11,_Trial_,End,1687287313404,6106c5624da5dabd8b780133,6106c5624da5dabd8b780133,9,cake,critical,D,75,cake66.jpg,cake84.jpg,high,NULL
1687287350,fdc833bde6593f54ea31b5b9b9171f4b,PennController,26,0,experiment,NULL,PennController,25,_Trial_,Start,1687287313405,6106c5624da5dabd8b780133,6106c5624da5dabd8b780133,23,color,filler,D,50,color40.jpg,color60.jpg,GoalB,NULL
1687287350,fdc833bde6593f54ea31b5b9b9171f4b,PennController,26,0,experiment,NULL,PennController,25,_Header_,Start,1687287313405,6106c5624da5dabd8b780133,6106c5624da5dabd8b780133,23,color,filler,D,50,color40.jpg,color60.jpg,GoalB,NULL
1687287350,fdc833bde6593f54ea31b5b9b9171f4b,PennController,26,0,experiment,NULL,PennController,25,_Header_,End,1687287313405,6106c5624da5dabd8b780133,6106c5624da5dabd8b780133,23,color,filler,D,50,color40.jpg,color60.jpg,GoalB,NULL
1687287350,fdc833bde6593f54ea31b5b9b9171f4b,PennController,26,0,experiment,NULL,Canvas,canvas6,Print,NA,1687287320117,6106c5624da5dabd8b780133,6106c5624da5dabd8b780133,23,color,filler,D,50,color40.jpg,color60.jpg,GoalB,NULL
1687287350,fdc833bde6593f54ea31b5b9b9171f4b,PennController,26,0,experiment,NULL,Video,progression,buffer,0.007654,1687287316940,6106c5624da5dabd8b780133,6106c5624da5dabd8b780133,23,color,filler,D,50,color40.jpg,color60.jpg,GoalB,NULL
1687287350,fdc833bde6593f54ea31b5b9b9171f4b,PennController,26,0,experiment,NULL,Selector,choice,Selection,option2,1687287323351,6106c5624da5dabd8b780133,6106c5624da5dabd8b780133,23,color,filler,D,50,color40.jpg,color60.jpg,GoalB,option2;option1
1687287350,fdc833bde6593f54ea31b5b9b9171f4b,PennController,26,0,experiment,NULL,PennController,25,_Trial_,End,1687287323355,6106c5624da5dabd8b780133,6106c5624da5dabd8b780133,23,color,filler,D,50,color40.jpg,color60.jpg,GoalB,NULL
1687287350,fdc833bde6593f54ea31b5b9b9171f4b,PennController,13,0,experiment,NULL,PennController,12,_Trial_,Start,1687287323358,6106c5624da5dabd8b780133,6106c5624da5dabd8b780133,10,train,critical,D,25,train15.jpg,train35.jpg,high,NULL
1687287350,fdc833bde6593f54ea31b5b9b9171f4b,PennController,13,0,experiment,NULL,PennController,12,_Header_,Start,1687287323358,6106c5624da5dabd8b780133,6106c5624da5dabd8b780133,10,train,critical,D,25,train15.jpg,train35.jpg,high,NULL
1687287350,fdc833bde6593f54ea31b5b9b9171f4b,PennController,13,0,experiment,NULL,PennController,12,_Header_,End,1687287323358,6106c5624da5dabd8b780133,6106c5624da5dabd8b780133,10,train,critical,D,25,train15.jpg,train35.jpg,high,NULL
1687287350,fdc833bde6593f54ea31b5b9b9171f4b,PennController,13,0,experiment,NULL,Canvas,canvas6,Print,NA,1687287329057,6106c5624da5dabd8b780133,6106c5624da5dabd8b780133,10,train,critical,D,25,train15.jpg,train35.jpg,high,NULL
1687287350,fdc833bde6593f54ea31b5b9b9171f4b,PennController,13,0,experiment,NULL,Video,progression,buffer,0.00211,1687287326891,6106c5624da5dabd8b780133,6106c5624da5dabd8b780133,10,train,critical,D,25,train15.jpg,train35.jpg,high,NULL
1687287350,fdc833bde6593f54ea31b5b9b9171f4b,PennController,13,0,experiment,NULL,Selector,choice,Selection,option2,1687287331962,6106c5624da5dabd8b780133,6106c5624da5dabd8b780133,10,train,critical,D,25,train15.jpg,train35.jpg,high,option2;option1
1687287350,fdc833bde6593f54ea31b5b9b9171f4b,PennController,13,0,experiment,NULL,PennController,12,_Trial_,End,1687287331963,6106c5624da5dabd8b780133,6106c5624da5dabd8b780133,10,train,critical,D,25,train15.jpg,train35.jpg,high,NULL
1687287350,fdc833bde6593f54ea31b5b9b9171f4b,PennController,25,0,experiment,NULL,PennController,24,_Trial_,Start,1687287331963,6106c5624da5dabd8b780133,6106c5624da5dabd8b780133,22,wall,filler,D,25,wall15.jpg,wall35.jpg,GoalA,NULL
1687287350,fdc833bde6593f54ea31b5b9b9171f4b,PennController,25,0,experiment,NULL,PennController,24,_Header_,Start,1687287331963,6106c5624da5dabd8b780133,6106c5624da5dabd8b780133,22,wall,filler,D,25,wall15.jpg,wall35.jpg,GoalA,NULL
1687287350,fdc833bde6593f54ea31b5b9b9171f4b,PennController,25,0,experiment,NULL,PennController,24,_Header_,End,1687287331964,6106c5624da5dabd8b780133,6106c5624da5dabd8b780133,22,wall,filler,D,25,wall15.jpg,wall35.jpg,GoalA,NULL
1687287350,fdc833bde6593f54ea31b5b9b9171f4b,PennController,25,0,experiment,NULL,Canvas,canvas6,Print,NA,1687287337683,6106c5624da5dabd8b780133,6106c5624da5dabd8b780133,22,wall,filler,D,25,wall15.jpg,wall35.jpg,GoalA,NULL
1687287350,fdc833bde6593f54ea31b5b9b9171f4b,PennController,25,0,experiment,NULL,Video,progression,buffer,0.006661,1687287335505,6106c5624da5dabd8b780133,6106c5624da5dabd8b780133,22,wall,filler,D,25,wall15.jpg,wall35.jpg,GoalA,NULL
1687287350,fdc833bde6593f54ea31b5b9b9171f4b,PennController,25,0,experiment,NULL,Selector,choice,Selection,option1,1687287340967,6106c5624da5dabd8b780133,6106c5624da5dabd8b780133,22,wall,filler,D,25,wall15.jpg,wall35.jpg,GoalA,option2;option1
1687287350,fdc833bde6593f54ea31b5b9b9171f4b,PennController,25,0,experiment,NULL,PennController,24,_Trial_,End,1687287340968,6106c5624da5dabd8b780133,6106c5624da5dabd8b780133,22,wall,filler,D,25,wall15.jpg,wall35.jpg,GoalA,NULL
1687287350,fdc833bde6593f54ea31b5b9b9171f4b,PennController,22,0,experiment,NULL,PennController,21,_Trial_,Start,1687287340968,6106c5624da5dabd8b780133,6106c5624da5dabd8b780133,19,cup,filler,D,25,cup15.jpg,cup35.jpg,GoalB,NULL
1687287350,fdc833bde6593f54ea31b5b9b9171f4b,PennController,22,0,experiment,NULL,PennController,21,_Header_,Start,1687287340968,6106c5624da5dabd8b780133,6106c5624da5dabd8b780133,19,cup,filler,D,25,cup15.jpg,cup35.jpg,GoalB,NULL
1687287350,fdc833bde6593f54ea31b5b9b9171f4b,PennController,22,0,experiment,NULL,PennController,21,_Header_,End,1687287340969,6106c5624da5dabd8b780133,6106c5624da5dabd8b780133,19,cup,filler,D,25,cup15.jpg,cup35.jpg,GoalB,NULL
1687287350,fdc833bde6593f54ea31b5b9b9171f4b,PennController,22,0,experiment,NULL,Canvas,canvas6,Print,NA,1687287346673,6106c5624da5dabd8b780133,6106c5624da5dabd8b780133,19,cup,filler,D,25,cup15.jpg,cup35.jpg,GoalB,NULL
1687287350,fdc833bde6593f54ea31b5b9b9171f4b,PennController,22,0,experiment,NULL,Video,progression,buffer,0.009191,1687287344512,6106c5624da5dabd8b780133,6106c5624da5dabd8b780133,19,cup,filler,D,25,cup15.jpg,cup35.jpg,GoalB,NULL
1687287350,fdc833bde6593f54ea31b5b9b9171f4b,PennController,22,0,experiment,NULL,Selector,choice,Selection,option2,1687287348379,6106c5624da5dabd8b780133,6106c5624da5dabd8b780133,19,cup,filler,D,25,cup15.jpg,cup35.jpg,GoalB,option1;option2
1687287350,fdc833bde6593f54ea31b5b9b9171f4b,PennController,22,0,experiment,NULL,PennController,21,_Trial_,End,1687287348381,6106c5624da5dabd8b780133,6106c5624da5dabd8b780133,19,cup,filler,D,25,cup15.jpg,cup35.jpg,GoalB,NULL
