#
# Results on Thursday June 22 2023 05:55:48 UTC
# USER AGENT: Mozilla/5.0 (Macintosh; Intel Mac OS X 10_15_7) AppleWebKit/537.36 (KHTML, like Gecko) Chrome/114.0.0.0 Safari/537.36
# Design number was non-random = 87
#
# Columns below this comment are as follows:
# 1. Results reception time.
# 2. MD5 hash of participant's IP address.
# 3. Controller name.
# 4. Order number of item.
# 5. Inner element number.
# 6. Label.
# 7. Latin Square Group.
# 8. PennElementType.
# 9. PennElementName.
# 10. Parameter.
# 11. Value.
# 12. EventTime.
# 13. PROLIFIC_ID.
# 14. Comments.
1687413348,4fb43e225b501e273b8e1e7d43c81653,PennController,3,0,consent,NULL,PennController,0,_Trial_,Start,1687413023933,62f3b543dce069211e8e982c,NULL
1687413348,4fb43e225b501e273b8e1e7d43c81653,PennController,3,0,consent,NULL,PennController,0,_Header_,Start,1687413023933,62f3b543dce069211e8e982c,NULL
1687413348,4fb43e225b501e273b8e1e7d43c81653,PennController,3,0,consent,NULL,PennController,0,_Header_,End,1687413023933,62f3b543dce069211e8e982c,NULL
1687413348,4fb43e225b501e273b8e1e7d43c81653,PennController,3,0,consent,NULL,PennController,0,_Trial_,End,1687413051412,62f3b543dce069211e8e982c,NULL
# Columns below this comment are as follows:
# 14. ID.
# 15. Comments.
1687413348,4fb43e225b501e273b8e1e7d43c81653,PennController,4,0,intro,NULL,PennController,1,_Trial_,Start,1687413051415,62f3b543dce069211e8e982c,62f3b543dce069211e8e982c,NULL
1687413348,4fb43e225b501e273b8e1e7d43c81653,PennController,4,0,intro,NULL,PennController,1,_Header_,Start,1687413051415,62f3b543dce069211e8e982c,62f3b543dce069211e8e982c,NULL
1687413348,4fb43e225b501e273b8e1e7d43c81653,PennController,4,0,intro,NULL,PennController,1,_Header_,End,1687413051415,62f3b543dce069211e8e982c,62f3b543dce069211e8e982c,NULL
1687413348,4fb43e225b501e273b8e1e7d43c81653,PennController,4,0,intro,NULL,PennController,1,_Trial_,End,1687413069465,62f3b543dce069211e8e982c,62f3b543dce069211e8e982c,NULL
# Columns below this comment are as follows:
# 15. item_number.
# 16. item.
# 17. type.
# 18. Group.
# 19. prog.
# 20. prev_image.
# 21. next_image.
# 22. height.
# 23. Comments.
1687413348,4fb43e225b501e273b8e1e7d43c81653,PennController,14,0,experiment,NULL,PennController,12,_Trial_,Start,1687413069472,62f3b543dce069211e8e982c,62f3b543dce069211e8e982c,10,train,critical,B,50,train40.jpg,train60.jpg,low,NULL
1687413348,4fb43e225b501e273b8e1e7d43c81653,PennController,14,0,experiment,NULL,PennController,12,_Header_,Start,1687413069472,62f3b543dce069211e8e982c,62f3b543dce069211e8e982c,10,train,critical,B,50,train40.jpg,train60.jpg,low,NULL
1687413348,4fb43e225b501e273b8e1e7d43c81653,PennController,14,0,experiment,NULL,PennController,12,_Header_,End,1687413069472,62f3b543dce069211e8e982c,62f3b543dce069211e8e982c,10,train,critical,B,50,train40.jpg,train60.jpg,low,NULL
1687413348,4fb43e225b501e273b8e1e7d43c81653,PennController,14,0,experiment,NULL,Canvas,canvas6,Print,NA,1687413076190,62f3b543dce069211e8e982c,62f3b543dce069211e8e982c,10,train,critical,B,50,train40.jpg,train60.jpg,low,NULL
1687413348,4fb43e225b501e273b8e1e7d43c81653,PennController,14,0,experiment,NULL,Video,progression,buffer,0.004031,1687413073018,62f3b543dce069211e8e982c,62f3b543dce069211e8e982c,10,train,critical,B,50,train40.jpg,train60.jpg,low,NULL
1687413348,4fb43e225b501e273b8e1e7d43c81653,PennController,14,0,experiment,NULL,Selector,choice,Selection,option2,1687413079370,62f3b543dce069211e8e982c,62f3b543dce069211e8e982c,10,train,critical,B,50,train40.jpg,train60.jpg,low,option1;option2
1687413348,4fb43e225b501e273b8e1e7d43c81653,PennController,14,0,experiment,NULL,PennController,12,_Trial_,End,1687413079376,62f3b543dce069211e8e982c,62f3b543dce069211e8e982c,10,train,critical,B,50,train40.jpg,train60.jpg,low,NULL
1687413348,4fb43e225b501e273b8e1e7d43c81653,PennController,15,0,experiment,NULL,PennController,13,_Trial_,Start,1687413079378,62f3b543dce069211e8e982c,62f3b543dce069211e8e982c,11,beads,critical,B,75,beads65.jpg,beads85.jpg,low,NULL
1687413348,4fb43e225b501e273b8e1e7d43c81653,PennController,15,0,experiment,NULL,PennController,13,_Header_,Start,1687413079378,62f3b543dce069211e8e982c,62f3b543dce069211e8e982c,11,beads,critical,B,75,beads65.jpg,beads85.jpg,low,NULL
1687413348,4fb43e225b501e273b8e1e7d43c81653,PennController,15,0,experiment,NULL,PennController,13,_Header_,End,1687413079378,62f3b543dce069211e8e982c,62f3b543dce069211e8e982c,11,beads,critical,B,75,beads65.jpg,beads85.jpg,low,NULL
1687413348,4fb43e225b501e273b8e1e7d43c81653,PennController,15,0,experiment,NULL,Canvas,canvas6,Print,NA,1687413087092,62f3b543dce069211e8e982c,62f3b543dce069211e8e982c,11,beads,critical,B,75,beads65.jpg,beads85.jpg,low,NULL
1687413348,4fb43e225b501e273b8e1e7d43c81653,PennController,15,0,experiment,NULL,Video,progression,buffer,0.00762,1687413082912,62f3b543dce069211e8e982c,62f3b543dce069211e8e982c,11,beads,critical,B,75,beads65.jpg,beads85.jpg,low,NULL
1687413348,4fb43e225b501e273b8e1e7d43c81653,PennController,15,0,experiment,NULL,Selector,choice,Selection,option1,1687413090023,62f3b543dce069211e8e982c,62f3b543dce069211e8e982c,11,beads,critical,B,75,beads65.jpg,beads85.jpg,low,option2;option1
1687413348,4fb43e225b501e273b8e1e7d43c81653,PennController,15,0,experiment,NULL,PennController,13,_Trial_,End,1687413090025,62f3b543dce069211e8e982c,62f3b543dce069211e8e982c,11,beads,critical,B,75,beads65.jpg,beads85.jpg,low,NULL
1687413348,4fb43e225b501e273b8e1e7d43c81653,PennController,30,0,experiment,NULL,PennController,28,_Trial_,Start,1687413090029,62f3b543dce069211e8e982c,62f3b543dce069211e8e982c,26,sandwich,filler,B,75,sandwich65.jpg,sandwich85.jpg,GoalB,NULL
1687413348,4fb43e225b501e273b8e1e7d43c81653,PennController,30,0,experiment,NULL,PennController,28,_Header_,Start,1687413090029,62f3b543dce069211e8e982c,62f3b543dce069211e8e982c,26,sandwich,filler,B,75,sandwich65.jpg,sandwich85.jpg,GoalB,NULL
1687413348,4fb43e225b501e273b8e1e7d43c81653,PennController,30,0,experiment,NULL,PennController,28,_Header_,End,1687413090029,62f3b543dce069211e8e982c,62f3b543dce069211e8e982c,26,sandwich,filler,B,75,sandwich65.jpg,sandwich85.jpg,GoalB,NULL
1687413348,4fb43e225b501e273b8e1e7d43c81653,PennController,30,0,experiment,NULL,Canvas,canvas6,Print,NA,1687413097730,62f3b543dce069211e8e982c,62f3b543dce069211e8e982c,26,sandwich,filler,B,75,sandwich65.jpg,sandwich85.jpg,GoalB,NULL
1687413348,4fb43e225b501e273b8e1e7d43c81653,PennController,30,0,experiment,NULL,Video,progression,buffer,0.005323,1687413093559,62f3b543dce069211e8e982c,62f3b543dce069211e8e982c,26,sandwich,filler,B,75,sandwich65.jpg,sandwich85.jpg,GoalB,NULL
1687413348,4fb43e225b501e273b8e1e7d43c81653,PennController,30,0,experiment,NULL,Selector,choice,Selection,option2,1687413100653,62f3b543dce069211e8e982c,62f3b543dce069211e8e982c,26,sandwich,filler,B,75,sandwich65.jpg,sandwich85.jpg,GoalB,option1;option2
1687413348,4fb43e225b501e273b8e1e7d43c81653,PennController,30,0,experiment,NULL,PennController,28,_Trial_,End,1687413100654,62f3b543dce069211e8e982c,62f3b543dce069211e8e982c,26,sandwich,filler,B,75,sandwich65.jpg,sandwich85.jpg,GoalB,NULL
1687413348,4fb43e225b501e273b8e1e7d43c81653,PennController,9,0,experiment,NULL,PennController,7,_Trial_,Start,1687413100655,62f3b543dce069211e8e982c,62f3b543dce069211e8e982c,5,book,critical,B,75,book65.jpg,book85.jpg,low,NULL
1687413348,4fb43e225b501e273b8e1e7d43c81653,PennController,9,0,experiment,NULL,PennController,7,_Header_,Start,1687413100655,62f3b543dce069211e8e982c,62f3b543dce069211e8e982c,5,book,critical,B,75,book65.jpg,book85.jpg,low,NULL
1687413348,4fb43e225b501e273b8e1e7d43c81653,PennController,9,0,experiment,NULL,PennController,7,_Header_,End,1687413100655,62f3b543dce069211e8e982c,62f3b543dce069211e8e982c,5,book,critical,B,75,book65.jpg,book85.jpg,low,NULL
1687413348,4fb43e225b501e273b8e1e7d43c81653,PennController,9,0,experiment,NULL,Canvas,canvas6,Print,NA,1687413108362,62f3b543dce069211e8e982c,62f3b543dce069211e8e982c,5,book,critical,B,75,book65.jpg,book85.jpg,low,NULL
1687413348,4fb43e225b501e273b8e1e7d43c81653,PennController,9,0,experiment,NULL,Video,progression,buffer,0.005515,1687413104188,62f3b543dce069211e8e982c,62f3b543dce069211e8e982c,5,book,critical,B,75,book65.jpg,book85.jpg,low,NULL
1687413348,4fb43e225b501e273b8e1e7d43c81653,PennController,9,0,experiment,NULL,Selector,choice,Selection,option1,1687413110884,62f3b543dce069211e8e982c,62f3b543dce069211e8e982c,5,book,critical,B,75,book65.jpg,book85.jpg,low,option2;option1
1687413348,4fb43e225b501e273b8e1e7d43c81653,PennController,9,0,experiment,NULL,PennController,7,_Trial_,End,1687413110886,62f3b543dce069211e8e982c,62f3b543dce069211e8e982c,5,book,critical,B,75,book65.jpg,book85.jpg,low,NULL
1687413348,4fb43e225b501e273b8e1e7d43c81653,PennController,16,0,experiment,NULL,PennController,14,_Trial_,Start,1687413110890,62f3b543dce069211e8e982c,62f3b543dce069211e8e982c,12,erase,critical,B,25,erase15.jpg,erase33.jpg,low,NULL
1687413348,4fb43e225b501e273b8e1e7d43c81653,PennController,16,0,experiment,NULL,PennController,14,_Header_,Start,1687413110890,62f3b543dce069211e8e982c,62f3b543dce069211e8e982c,12,erase,critical,B,25,erase15.jpg,erase33.jpg,low,NULL
1687413348,4fb43e225b501e273b8e1e7d43c81653,PennController,16,0,experiment,NULL,PennController,14,_Header_,End,1687413110890,62f3b543dce069211e8e982c,62f3b543dce069211e8e982c,12,erase,critical,B,25,erase15.jpg,erase33.jpg,low,NULL
1687413348,4fb43e225b501e273b8e1e7d43c81653,PennController,16,0,experiment,NULL,Canvas,canvas6,Print,NA,1687413117203,62f3b543dce069211e8e982c,62f3b543dce069211e8e982c,12,erase,critical,B,25,erase15.jpg,erase33.jpg,low,NULL
1687413348,4fb43e225b501e273b8e1e7d43c81653,PennController,16,0,experiment,NULL,Video,progression,buffer,0.004155,1687413114420,62f3b543dce069211e8e982c,62f3b543dce069211e8e982c,12,erase,critical,B,25,erase15.jpg,erase33.jpg,low,NULL
1687413348,4fb43e225b501e273b8e1e7d43c81653,PennController,16,0,experiment,NULL,Selector,choice,Selection,option2,1687413119772,62f3b543dce069211e8e982c,62f3b543dce069211e8e982c,12,erase,critical,B,25,erase15.jpg,erase33.jpg,low,option2;option1
1687413348,4fb43e225b501e273b8e1e7d43c81653,PennController,16,0,experiment,NULL,PennController,14,_Trial_,End,1687413119774,62f3b543dce069211e8e982c,62f3b543dce069211e8e982c,12,erase,critical,B,25,erase15.jpg,erase33.jpg,low,NULL
1687413348,4fb43e225b501e273b8e1e7d43c81653,PennController,11,0,experiment,NULL,PennController,9,_Trial_,Start,1687413119776,62f3b543dce069211e8e982c,62f3b543dce069211e8e982c,7,stack,critical,B,50,stack40.jpg,stack60.jpg,low,NULL
1687413348,4fb43e225b501e273b8e1e7d43c81653,PennController,11,0,experiment,NULL,PennController,9,_Header_,Start,1687413119776,62f3b543dce069211e8e982c,62f3b543dce069211e8e982c,7,stack,critical,B,50,stack40.jpg,stack60.jpg,low,NULL
1687413348,4fb43e225b501e273b8e1e7d43c81653,PennController,11,0,experiment,NULL,PennController,9,_Header_,End,1687413119776,62f3b543dce069211e8e982c,62f3b543dce069211e8e982c,7,stack,critical,B,50,stack40.jpg,stack60.jpg,low,NULL
1687413348,4fb43e225b501e273b8e1e7d43c81653,PennController,11,0,experiment,NULL,Canvas,canvas6,Print,NA,1687413126476,62f3b543dce069211e8e982c,62f3b543dce069211e8e982c,7,stack,critical,B,50,stack40.jpg,stack60.jpg,low,NULL
1687413348,4fb43e225b501e273b8e1e7d43c81653,PennController,11,0,experiment,NULL,Video,progression,buffer,0.004384,1687413123307,62f3b543dce069211e8e982c,62f3b543dce069211e8e982c,7,stack,critical,B,50,stack40.jpg,stack60.jpg,low,NULL
1687413348,4fb43e225b501e273b8e1e7d43c81653,PennController,11,0,experiment,NULL,Selector,choice,Selection,option2,1687413131979,62f3b543dce069211e8e982c,62f3b543dce069211e8e982c,7,stack,critical,B,50,stack40.jpg,stack60.jpg,low,option2;option1
1687413348,4fb43e225b501e273b8e1e7d43c81653,PennController,11,0,experiment,NULL,PennController,9,_Trial_,End,1687413131982,62f3b543dce069211e8e982c,62f3b543dce069211e8e982c,7,stack,critical,B,50,stack40.jpg,stack60.jpg,low,NULL
1687413348,4fb43e225b501e273b8e1e7d43c81653,PennController,18,0,experiment,NULL,PennController,16,_Trial_,Start,1687413131985,62f3b543dce069211e8e982c,62f3b543dce069211e8e982c,14,cover,critical,B,75,cover66.jpg,cover84.jpg,low,NULL
1687413348,4fb43e225b501e273b8e1e7d43c81653,PennController,18,0,experiment,NULL,PennController,16,_Header_,Start,1687413131985,62f3b543dce069211e8e982c,62f3b543dce069211e8e982c,14,cover,critical,B,75,cover66.jpg,cover84.jpg,low,NULL
1687413348,4fb43e225b501e273b8e1e7d43c81653,PennController,18,0,experiment,NULL,PennController,16,_Header_,End,1687413131985,62f3b543dce069211e8e982c,62f3b543dce069211e8e982c,14,cover,critical,B,75,cover66.jpg,cover84.jpg,low,NULL
1687413348,4fb43e225b501e273b8e1e7d43c81653,PennController,18,0,experiment,NULL,Canvas,canvas6,Print,NA,1687413141704,62f3b543dce069211e8e982c,62f3b543dce069211e8e982c,14,cover,critical,B,75,cover66.jpg,cover84.jpg,low,NULL
1687413348,4fb43e225b501e273b8e1e7d43c81653,PennController,18,0,experiment,NULL,Video,progression,buffer,0.004865,1687413135517,62f3b543dce069211e8e982c,62f3b543dce069211e8e982c,14,cover,critical,B,75,cover66.jpg,cover84.jpg,low,NULL
1687413348,4fb43e225b501e273b8e1e7d43c81653,PennController,18,0,experiment,NULL,Selector,choice,Selection,option1,1687413144027,62f3b543dce069211e8e982c,62f3b543dce069211e8e982c,14,cover,critical,B,75,cover66.jpg,cover84.jpg,low,option1;option2
1687413348,4fb43e225b501e273b8e1e7d43c81653,PennController,18,0,experiment,NULL,PennController,16,_Trial_,End,1687413144029,62f3b543dce069211e8e982c,62f3b543dce069211e8e982c,14,cover,critical,B,75,cover66.jpg,cover84.jpg,low,NULL
1687413348,4fb43e225b501e273b8e1e7d43c81653,PennController,26,0,experiment,NULL,PennController,24,_Trial_,Start,1687413144035,62f3b543dce069211e8e982c,62f3b543dce069211e8e982c,22,wall,filler,B,50,wall40.jpg,wall60.jpg,GoalB,NULL
1687413348,4fb43e225b501e273b8e1e7d43c81653,PennController,26,0,experiment,NULL,PennController,24,_Header_,Start,1687413144035,62f3b543dce069211e8e982c,62f3b543dce069211e8e982c,22,wall,filler,B,50,wall40.jpg,wall60.jpg,GoalB,NULL
1687413348,4fb43e225b501e273b8e1e7d43c81653,PennController,26,0,experiment,NULL,PennController,24,_Header_,End,1687413144035,62f3b543dce069211e8e982c,62f3b543dce069211e8e982c,22,wall,filler,B,50,wall40.jpg,wall60.jpg,GoalB,NULL
1687413348,4fb43e225b501e273b8e1e7d43c81653,PennController,26,0,experiment,NULL,Canvas,canvas6,Print,NA,1687413150743,62f3b543dce069211e8e982c,62f3b543dce069211e8e982c,22,wall,filler,B,50,wall40.jpg,wall60.jpg,GoalB,NULL
1687413348,4fb43e225b501e273b8e1e7d43c81653,PennController,26,0,experiment,NULL,Video,progression,buffer,0.005938,1687413147563,62f3b543dce069211e8e982c,62f3b543dce069211e8e982c,22,wall,filler,B,50,wall40.jpg,wall60.jpg,GoalB,NULL
1687413348,4fb43e225b501e273b8e1e7d43c81653,PennController,26,0,experiment,NULL,Selector,choice,Selection,option2,1687413152825,62f3b543dce069211e8e982c,62f3b543dce069211e8e982c,22,wall,filler,B,50,wall40.jpg,wall60.jpg,GoalB,option2;option1
1687413348,4fb43e225b501e273b8e1e7d43c81653,PennController,26,0,experiment,NULL,PennController,24,_Trial_,End,1687413152827,62f3b543dce069211e8e982c,62f3b543dce069211e8e982c,22,wall,filler,B,50,wall40.jpg,wall60.jpg,GoalB,NULL
1687413348,4fb43e225b501e273b8e1e7d43c81653,PennController,31,0,experiment,NULL,PennController,29,_Trial_,Start,1687413152829,62f3b543dce069211e8e982c,62f3b543dce069211e8e982c,27,square,filler,B,25,square15.jpg,square35.jpg,GoalA,NULL
1687413348,4fb43e225b501e273b8e1e7d43c81653,PennController,31,0,experiment,NULL,PennController,29,_Header_,Start,1687413152829,62f3b543dce069211e8e982c,62f3b543dce069211e8e982c,27,square,filler,B,25,square15.jpg,square35.jpg,GoalA,NULL
1687413348,4fb43e225b501e273b8e1e7d43c81653,PennController,31,0,experiment,NULL,PennController,29,_Header_,End,1687413152829,62f3b543dce069211e8e982c,62f3b543dce069211e8e982c,27,square,filler,B,25,square15.jpg,square35.jpg,GoalA,NULL
1687413348,4fb43e225b501e273b8e1e7d43c81653,PennController,31,0,experiment,NULL,Canvas,canvas6,Print,NA,1687413158528,62f3b543dce069211e8e982c,62f3b543dce069211e8e982c,27,square,filler,B,25,square15.jpg,square35.jpg,GoalA,NULL
1687413348,4fb43e225b501e273b8e1e7d43c81653,PennController,31,0,experiment,NULL,Video,progression,buffer,0.007415,1687413156359,62f3b543dce069211e8e982c,62f3b543dce069211e8e982c,27,square,filler,B,25,square15.jpg,square35.jpg,GoalA,NULL
1687413348,4fb43e225b501e273b8e1e7d43c81653,PennController,31,0,experiment,NULL,Selector,choice,Selection,option2,1687413160263,62f3b543dce069211e8e982c,62f3b543dce069211e8e982c,27,square,filler,B,25,square15.jpg,square35.jpg,GoalA,option2;option1
1687413348,4fb43e225b501e273b8e1e7d43c81653,PennController,31,0,experiment,NULL,PennController,29,_Trial_,End,1687413160265,62f3b543dce069211e8e982c,62f3b543dce069211e8e982c,27,square,filler,B,25,square15.jpg,square35.jpg,GoalA,NULL
1687413348,4fb43e225b501e273b8e1e7d43c81653,PennController,7,0,experiment,NULL,PennController,5,_Trial_,Start,1687413160267,62f3b543dce069211e8e982c,62f3b543dce069211e8e982c,3,clean,critical,B,25,clean15.jpg,clean35.jpg,low,NULL
1687413348,4fb43e225b501e273b8e1e7d43c81653,PennController,7,0,experiment,NULL,PennController,5,_Header_,Start,1687413160267,62f3b543dce069211e8e982c,62f3b543dce069211e8e982c,3,clean,critical,B,25,clean15.jpg,clean35.jpg,low,NULL
1687413348,4fb43e225b501e273b8e1e7d43c81653,PennController,7,0,experiment,NULL,PennController,5,_Header_,End,1687413160267,62f3b543dce069211e8e982c,62f3b543dce069211e8e982c,3,clean,critical,B,25,clean15.jpg,clean35.jpg,low,NULL
1687413348,4fb43e225b501e273b8e1e7d43c81653,PennController,7,0,experiment,NULL,Canvas,canvas6,Print,NA,1687413165968,62f3b543dce069211e8e982c,62f3b543dce069211e8e982c,3,clean,critical,B,25,clean15.jpg,clean35.jpg,low,NULL
1687413348,4fb43e225b501e273b8e1e7d43c81653,PennController,7,0,experiment,NULL,Video,progression,buffer,0.005211,1687413163800,62f3b543dce069211e8e982c,62f3b543dce069211e8e982c,3,clean,critical,B,25,clean15.jpg,clean35.jpg,low,NULL
1687413348,4fb43e225b501e273b8e1e7d43c81653,PennController,7,0,experiment,NULL,Selector,choice,Selection,option1,1687413169577,62f3b543dce069211e8e982c,62f3b543dce069211e8e982c,3,clean,critical,B,25,clean15.jpg,clean35.jpg,low,option1;option2
1687413348,4fb43e225b501e273b8e1e7d43c81653,PennController,7,0,experiment,NULL,PennController,5,_Trial_,End,1687413169579,62f3b543dce069211e8e982c,62f3b543dce069211e8e982c,3,clean,critical,B,25,clean15.jpg,clean35.jpg,low,NULL
1687413348,4fb43e225b501e273b8e1e7d43c81653,PennController,23,0,experiment,NULL,PennController,21,_Trial_,Start,1687413169580,62f3b543dce069211e8e982c,62f3b543dce069211e8e982c,19,cup,filler,B,50,cup40.jpg,cup60.jpg,GoalA,NULL
1687413348,4fb43e225b501e273b8e1e7d43c81653,PennController,23,0,experiment,NULL,PennController,21,_Header_,Start,1687413169580,62f3b543dce069211e8e982c,62f3b543dce069211e8e982c,19,cup,filler,B,50,cup40.jpg,cup60.jpg,GoalA,NULL
1687413348,4fb43e225b501e273b8e1e7d43c81653,PennController,23,0,experiment,NULL,PennController,21,_Header_,End,1687413169580,62f3b543dce069211e8e982c,62f3b543dce069211e8e982c,19,cup,filler,B,50,cup40.jpg,cup60.jpg,GoalA,NULL
1687413348,4fb43e225b501e273b8e1e7d43c81653,PennController,23,0,experiment,NULL,Canvas,canvas6,Print,NA,1687413176295,62f3b543dce069211e8e982c,62f3b543dce069211e8e982c,19,cup,filler,B,50,cup40.jpg,cup60.jpg,GoalA,NULL
1687413348,4fb43e225b501e273b8e1e7d43c81653,PennController,23,0,experiment,NULL,Video,progression,buffer,0.004293,1687413173111,62f3b543dce069211e8e982c,62f3b543dce069211e8e982c,19,cup,filler,B,50,cup40.jpg,cup60.jpg,GoalA,NULL
1687413348,4fb43e225b501e273b8e1e7d43c81653,PennController,23,0,experiment,NULL,Selector,choice,Selection,option1,1687413178090,62f3b543dce069211e8e982c,62f3b543dce069211e8e982c,19,cup,filler,B,50,cup40.jpg,cup60.jpg,GoalA,option1;option2
1687413348,4fb43e225b501e273b8e1e7d43c81653,PennController,23,0,experiment,NULL,PennController,21,_Trial_,End,1687413178092,62f3b543dce069211e8e982c,62f3b543dce069211e8e982c,19,cup,filler,B,50,cup40.jpg,cup60.jpg,GoalA,NULL
1687413348,4fb43e225b501e273b8e1e7d43c81653,PennController,17,0,experiment,NULL,PennController,15,_Trial_,Start,1687413178095,62f3b543dce069211e8e982c,62f3b543dce069211e8e982c,13,mix,critical,B,50,mix40.jpg,mix60.jpg,low,NULL
1687413348,4fb43e225b501e273b8e1e7d43c81653,PennController,17,0,experiment,NULL,PennController,15,_Header_,Start,1687413178095,62f3b543dce069211e8e982c,62f3b543dce069211e8e982c,13,mix,critical,B,50,mix40.jpg,mix60.jpg,low,NULL
1687413348,4fb43e225b501e273b8e1e7d43c81653,PennController,17,0,experiment,NULL,PennController,15,_Header_,End,1687413178095,62f3b543dce069211e8e982c,62f3b543dce069211e8e982c,13,mix,critical,B,50,mix40.jpg,mix60.jpg,low,NULL
1687413348,4fb43e225b501e273b8e1e7d43c81653,PennController,17,0,experiment,NULL,Canvas,canvas6,Print,NA,1687413184800,62f3b543dce069211e8e982c,62f3b543dce069211e8e982c,13,mix,critical,B,50,mix40.jpg,mix60.jpg,low,NULL
1687413348,4fb43e225b501e273b8e1e7d43c81653,PennController,17,0,experiment,NULL,Video,progression,buffer,0.005741,1687413181626,62f3b543dce069211e8e982c,62f3b543dce069211e8e982c,13,mix,critical,B,50,mix40.jpg,mix60.jpg,low,NULL
1687413348,4fb43e225b501e273b8e1e7d43c81653,PennController,17,0,experiment,NULL,Selector,choice,Selection,option1,1687413186310,62f3b543dce069211e8e982c,62f3b543dce069211e8e982c,13,mix,critical,B,50,mix40.jpg,mix60.jpg,low,option2;option1
1687413348,4fb43e225b501e273b8e1e7d43c81653,PennController,17,0,experiment,NULL,PennController,15,_Trial_,End,1687413186313,62f3b543dce069211e8e982c,62f3b543dce069211e8e982c,13,mix,critical,B,50,mix40.jpg,mix60.jpg,low,NULL
1687413348,4fb43e225b501e273b8e1e7d43c81653,PennController,33,0,experiment,NULL,PennController,31,_Trial_,Start,1687413186314,62f3b543dce069211e8e982c,62f3b543dce069211e8e982c,29,frog,filler,B,75,frog65.jpg,frog85.jpg,GoalA,NULL
1687413348,4fb43e225b501e273b8e1e7d43c81653,PennController,33,0,experiment,NULL,PennController,31,_Header_,Start,1687413186314,62f3b543dce069211e8e982c,62f3b543dce069211e8e982c,29,frog,filler,B,75,frog65.jpg,frog85.jpg,GoalA,NULL
1687413348,4fb43e225b501e273b8e1e7d43c81653,PennController,33,0,experiment,NULL,PennController,31,_Header_,End,1687413186314,62f3b543dce069211e8e982c,62f3b543dce069211e8e982c,29,frog,filler,B,75,frog65.jpg,frog85.jpg,GoalA,NULL
1687413348,4fb43e225b501e273b8e1e7d43c81653,PennController,33,0,experiment,NULL,Canvas,canvas6,Print,NA,1687413194026,62f3b543dce069211e8e982c,62f3b543dce069211e8e982c,29,frog,filler,B,75,frog65.jpg,frog85.jpg,GoalA,NULL
1687413348,4fb43e225b501e273b8e1e7d43c81653,PennController,33,0,experiment,NULL,Video,progression,buffer,0.005607,1687413189846,62f3b543dce069211e8e982c,62f3b543dce069211e8e982c,29,frog,filler,B,75,frog65.jpg,frog85.jpg,GoalA,NULL
1687413348,4fb43e225b501e273b8e1e7d43c81653,PennController,33,0,experiment,NULL,Selector,choice,Selection,option1,1687413197349,62f3b543dce069211e8e982c,62f3b543dce069211e8e982c,29,frog,filler,B,75,frog65.jpg,frog85.jpg,GoalA,option1;option2
1687413348,4fb43e225b501e273b8e1e7d43c81653,PennController,33,0,experiment,NULL,PennController,31,_Trial_,End,1687413197351,62f3b543dce069211e8e982c,62f3b543dce069211e8e982c,29,frog,filler,B,75,frog65.jpg,frog85.jpg,GoalA,NULL
1687413348,4fb43e225b501e273b8e1e7d43c81653,PennController,8,0,experiment,NULL,PennController,6,_Trial_,Start,1687413197353,62f3b543dce069211e8e982c,62f3b543dce069211e8e982c,4,candy,critical,B,50,candy40.jpg,candy60.jpg,low,NULL
1687413348,4fb43e225b501e273b8e1e7d43c81653,PennController,8,0,experiment,NULL,PennController,6,_Header_,Start,1687413197353,62f3b543dce069211e8e982c,62f3b543dce069211e8e982c,4,candy,critical,B,50,candy40.jpg,candy60.jpg,low,NULL
1687413348,4fb43e225b501e273b8e1e7d43c81653,PennController,8,0,experiment,NULL,PennController,6,_Header_,End,1687413197353,62f3b543dce069211e8e982c,62f3b543dce069211e8e982c,4,candy,critical,B,50,candy40.jpg,candy60.jpg,low,NULL
1687413348,4fb43e225b501e273b8e1e7d43c81653,PennController,8,0,experiment,NULL,Canvas,canvas6,Print,NA,1687413204070,62f3b543dce069211e8e982c,62f3b543dce069211e8e982c,4,candy,critical,B,50,candy40.jpg,candy60.jpg,low,NULL
1687413348,4fb43e225b501e273b8e1e7d43c81653,PennController,8,0,experiment,NULL,Video,progression,buffer,0.003858,1687413200885,62f3b543dce069211e8e982c,62f3b543dce069211e8e982c,4,candy,critical,B,50,candy40.jpg,candy60.jpg,low,NULL
1687413348,4fb43e225b501e273b8e1e7d43c81653,PennController,8,0,experiment,NULL,Selector,choice,Selection,option2,1687413206149,62f3b543dce069211e8e982c,62f3b543dce069211e8e982c,4,candy,critical,B,50,candy40.jpg,candy60.jpg,low,option2;option1
1687413348,4fb43e225b501e273b8e1e7d43c81653,PennController,8,0,experiment,NULL,PennController,6,_Trial_,End,1687413206151,62f3b543dce069211e8e982c,62f3b543dce069211e8e982c,4,candy,critical,B,50,candy40.jpg,candy60.jpg,low,NULL
1687413348,4fb43e225b501e273b8e1e7d43c81653,PennController,13,0,experiment,NULL,PennController,11,_Trial_,Start,1687413206155,62f3b543dce069211e8e982c,62f3b543dce069211e8e982c,9,cake,critical,B,25,cake15.jpg,cake33.jpg,low,NULL
1687413348,4fb43e225b501e273b8e1e7d43c81653,PennController,13,0,experiment,NULL,PennController,11,_Header_,Start,1687413206155,62f3b543dce069211e8e982c,62f3b543dce069211e8e982c,9,cake,critical,B,25,cake15.jpg,cake33.jpg,low,NULL
1687413348,4fb43e225b501e273b8e1e7d43c81653,PennController,13,0,experiment,NULL,PennController,11,_Header_,End,1687413206155,62f3b543dce069211e8e982c,62f3b543dce069211e8e982c,9,cake,critical,B,25,cake15.jpg,cake33.jpg,low,NULL
1687413348,4fb43e225b501e273b8e1e7d43c81653,PennController,13,0,experiment,NULL,Canvas,canvas6,Print,NA,1687413212458,62f3b543dce069211e8e982c,62f3b543dce069211e8e982c,9,cake,critical,B,25,cake15.jpg,cake33.jpg,low,NULL
1687413348,4fb43e225b501e273b8e1e7d43c81653,PennController,13,0,experiment,NULL,Video,progression,buffer,0.005377,1687413209686,62f3b543dce069211e8e982c,62f3b543dce069211e8e982c,9,cake,critical,B,25,cake15.jpg,cake33.jpg,low,NULL
1687413348,4fb43e225b501e273b8e1e7d43c81653,PennController,13,0,experiment,NULL,Selector,choice,Selection,option1,1687413215224,62f3b543dce069211e8e982c,62f3b543dce069211e8e982c,9,cake,critical,B,25,cake15.jpg,cake33.jpg,low,option1;option2
1687413348,4fb43e225b501e273b8e1e7d43c81653,PennController,13,0,experiment,NULL,PennController,11,_Trial_,End,1687413215225,62f3b543dce069211e8e982c,62f3b543dce069211e8e982c,9,cake,critical,B,25,cake15.jpg,cake33.jpg,low,NULL
1687413348,4fb43e225b501e273b8e1e7d43c81653,PennController,32,0,experiment,NULL,PennController,30,_Trial_,Start,1687413215227,62f3b543dce069211e8e982c,62f3b543dce069211e8e982c,28,sort,filler,B,50,sort40.jpg,sort60.jpg,GoalB,NULL
1687413348,4fb43e225b501e273b8e1e7d43c81653,PennController,32,0,experiment,NULL,PennController,30,_Header_,Start,1687413215227,62f3b543dce069211e8e982c,62f3b543dce069211e8e982c,28,sort,filler,B,50,sort40.jpg,sort60.jpg,GoalB,NULL
1687413348,4fb43e225b501e273b8e1e7d43c81653,PennController,32,0,experiment,NULL,PennController,30,_Header_,End,1687413215227,62f3b543dce069211e8e982c,62f3b543dce069211e8e982c,28,sort,filler,B,50,sort40.jpg,sort60.jpg,GoalB,NULL
1687413348,4fb43e225b501e273b8e1e7d43c81653,PennController,32,0,experiment,NULL,Canvas,canvas6,Print,NA,1687413221926,62f3b543dce069211e8e982c,62f3b543dce069211e8e982c,28,sort,filler,B,50,sort40.jpg,sort60.jpg,GoalB,NULL
1687413348,4fb43e225b501e273b8e1e7d43c81653,PennController,32,0,experiment,NULL,Video,progression,buffer,0.004244,1687413218755,62f3b543dce069211e8e982c,62f3b543dce069211e8e982c,28,sort,filler,B,50,sort40.jpg,sort60.jpg,GoalB,NULL
1687413348,4fb43e225b501e273b8e1e7d43c81653,PennController,32,0,experiment,NULL,Selector,choice,Selection,option1,1687413224583,62f3b543dce069211e8e982c,62f3b543dce069211e8e982c,28,sort,filler,B,50,sort40.jpg,sort60.jpg,GoalB,option1;option2
1687413348,4fb43e225b501e273b8e1e7d43c81653,PennController,32,0,experiment,NULL,PennController,30,_Trial_,End,1687413224584,62f3b543dce069211e8e982c,62f3b543dce069211e8e982c,28,sort,filler,B,50,sort40.jpg,sort60.jpg,GoalB,NULL
1687413348,4fb43e225b501e273b8e1e7d43c81653,PennController,29,0,experiment,NULL,PennController,27,_Trial_,Start,1687413224586,62f3b543dce069211e8e982c,62f3b543dce069211e8e982c,25,house,filler,B,50,house40.jpg,house60.jpg,GoalA,NULL
1687413348,4fb43e225b501e273b8e1e7d43c81653,PennController,29,0,experiment,NULL,PennController,27,_Header_,Start,1687413224586,62f3b543dce069211e8e982c,62f3b543dce069211e8e982c,25,house,filler,B,50,house40.jpg,house60.jpg,GoalA,NULL
1687413348,4fb43e225b501e273b8e1e7d43c81653,PennController,29,0,experiment,NULL,PennController,27,_Header_,End,1687413224586,62f3b543dce069211e8e982c,62f3b543dce069211e8e982c,25,house,filler,B,50,house40.jpg,house60.jpg,GoalA,NULL
1687413348,4fb43e225b501e273b8e1e7d43c81653,PennController,29,0,experiment,NULL,Canvas,canvas6,Print,NA,1687413231290,62f3b543dce069211e8e982c,62f3b543dce069211e8e982c,25,house,filler,B,50,house40.jpg,house60.jpg,GoalA,NULL
1687413348,4fb43e225b501e273b8e1e7d43c81653,PennController,29,0,experiment,NULL,Video,progression,buffer,0.005438,1687413228115,62f3b543dce069211e8e982c,62f3b543dce069211e8e982c,25,house,filler,B,50,house40.jpg,house60.jpg,GoalA,NULL
1687413348,4fb43e225b501e273b8e1e7d43c81653,PennController,29,0,experiment,NULL,Selector,choice,Selection,option2,1687413232964,62f3b543dce069211e8e982c,62f3b543dce069211e8e982c,25,house,filler,B,50,house40.jpg,house60.jpg,GoalA,option1;option2
1687413348,4fb43e225b501e273b8e1e7d43c81653,PennController,29,0,experiment,NULL,PennController,27,_Trial_,End,1687413232965,62f3b543dce069211e8e982c,62f3b543dce069211e8e982c,25,house,filler,B,50,house40.jpg,house60.jpg,GoalA,NULL
1687413348,4fb43e225b501e273b8e1e7d43c81653,PennController,12,0,experiment,NULL,PennController,10,_Trial_,Start,1687413232966,62f3b543dce069211e8e982c,62f3b543dce069211e8e982c,8,cucumber,critical,B,75,cucumber66.jpg,cucumber84.jpg,low,NULL
1687413348,4fb43e225b501e273b8e1e7d43c81653,PennController,12,0,experiment,NULL,PennController,10,_Header_,Start,1687413232966,62f3b543dce069211e8e982c,62f3b543dce069211e8e982c,8,cucumber,critical,B,75,cucumber66.jpg,cucumber84.jpg,low,NULL
1687413348,4fb43e225b501e273b8e1e7d43c81653,PennController,12,0,experiment,NULL,PennController,10,_Header_,End,1687413232966,62f3b543dce069211e8e982c,62f3b543dce069211e8e982c,8,cucumber,critical,B,75,cucumber66.jpg,cucumber84.jpg,low,NULL
1687413348,4fb43e225b501e273b8e1e7d43c81653,PennController,12,0,experiment,NULL,Canvas,canvas6,Print,NA,1687413242681,62f3b543dce069211e8e982c,62f3b543dce069211e8e982c,8,cucumber,critical,B,75,cucumber66.jpg,cucumber84.jpg,low,NULL
1687413348,4fb43e225b501e273b8e1e7d43c81653,PennController,12,0,experiment,NULL,Video,progression,buffer,0.005416,1687413236492,62f3b543dce069211e8e982c,62f3b543dce069211e8e982c,8,cucumber,critical,B,75,cucumber66.jpg,cucumber84.jpg,low,NULL
1687413348,4fb43e225b501e273b8e1e7d43c81653,PennController,12,0,experiment,NULL,Selector,choice,Selection,option2,1687413244869,62f3b543dce069211e8e982c,62f3b543dce069211e8e982c,8,cucumber,critical,B,75,cucumber66.jpg,cucumber84.jpg,low,option2;option1
1687413348,4fb43e225b501e273b8e1e7d43c81653,PennController,12,0,experiment,NULL,PennController,10,_Trial_,End,1687413244870,62f3b543dce069211e8e982c,62f3b543dce069211e8e982c,8,cucumber,critical,B,75,cucumber66.jpg,cucumber84.jpg,low,NULL
1687413348,4fb43e225b501e273b8e1e7d43c81653,PennController,28,0,experiment,NULL,PennController,26,_Trial_,Start,1687413244872,62f3b543dce069211e8e982c,62f3b543dce069211e8e982c,24,match,filler,B,25,match15.jpg,match35.jpg,GoalB,NULL
1687413348,4fb43e225b501e273b8e1e7d43c81653,PennController,28,0,experiment,NULL,PennController,26,_Header_,Start,1687413244872,62f3b543dce069211e8e982c,62f3b543dce069211e8e982c,24,match,filler,B,25,match15.jpg,match35.jpg,GoalB,NULL
1687413348,4fb43e225b501e273b8e1e7d43c81653,PennController,28,0,experiment,NULL,PennController,26,_Header_,End,1687413244872,62f3b543dce069211e8e982c,62f3b543dce069211e8e982c,24,match,filler,B,25,match15.jpg,match35.jpg,GoalB,NULL
1687413348,4fb43e225b501e273b8e1e7d43c81653,PennController,28,0,experiment,NULL,Canvas,canvas6,Print,NA,1687413250568,62f3b543dce069211e8e982c,62f3b543dce069211e8e982c,24,match,filler,B,25,match15.jpg,match35.jpg,GoalB,NULL
1687413348,4fb43e225b501e273b8e1e7d43c81653,PennController,28,0,experiment,NULL,Video,progression,buffer,0.004143,1687413248403,62f3b543dce069211e8e982c,62f3b543dce069211e8e982c,24,match,filler,B,25,match15.jpg,match35.jpg,GoalB,NULL
1687413348,4fb43e225b501e273b8e1e7d43c81653,PennController,28,0,experiment,NULL,Selector,choice,Selection,option1,1687413254016,62f3b543dce069211e8e982c,62f3b543dce069211e8e982c,24,match,filler,B,25,match15.jpg,match35.jpg,GoalB,option1;option2
1687413348,4fb43e225b501e273b8e1e7d43c81653,PennController,28,0,experiment,NULL,PennController,26,_Trial_,End,1687413254019,62f3b543dce069211e8e982c,62f3b543dce069211e8e982c,24,match,filler,B,25,match15.jpg,match35.jpg,GoalB,NULL
1687413348,4fb43e225b501e273b8e1e7d43c81653,PennController,21,0,experiment,NULL,PennController,19,_Trial_,Start,1687413254023,62f3b543dce069211e8e982c,62f3b543dce069211e8e982c,17,roll,critical,B,75,roll65.jpg,roll85.jpg,low,NULL
1687413348,4fb43e225b501e273b8e1e7d43c81653,PennController,21,0,experiment,NULL,PennController,19,_Header_,Start,1687413254023,62f3b543dce069211e8e982c,62f3b543dce069211e8e982c,17,roll,critical,B,75,roll65.jpg,roll85.jpg,low,NULL
1687413348,4fb43e225b501e273b8e1e7d43c81653,PennController,21,0,experiment,NULL,PennController,19,_Header_,End,1687413254023,62f3b543dce069211e8e982c,62f3b543dce069211e8e982c,17,roll,critical,B,75,roll65.jpg,roll85.jpg,low,NULL
1687413348,4fb43e225b501e273b8e1e7d43c81653,PennController,21,0,experiment,NULL,Canvas,canvas6,Print,NA,1687413261731,62f3b543dce069211e8e982c,62f3b543dce069211e8e982c,17,roll,critical,B,75,roll65.jpg,roll85.jpg,low,NULL
1687413348,4fb43e225b501e273b8e1e7d43c81653,PennController,21,0,experiment,NULL,Video,progression,buffer,0.004643,1687413257545,62f3b543dce069211e8e982c,62f3b543dce069211e8e982c,17,roll,critical,B,75,roll65.jpg,roll85.jpg,low,NULL
1687413348,4fb43e225b501e273b8e1e7d43c81653,PennController,21,0,experiment,NULL,Selector,choice,Selection,option1,1687413263698,62f3b543dce069211e8e982c,62f3b543dce069211e8e982c,17,roll,critical,B,75,roll65.jpg,roll85.jpg,low,option1;option2
1687413348,4fb43e225b501e273b8e1e7d43c81653,PennController,21,0,experiment,NULL,PennController,19,_Trial_,End,1687413263700,62f3b543dce069211e8e982c,62f3b543dce069211e8e982c,17,roll,critical,B,75,roll65.jpg,roll85.jpg,low,NULL
1687413348,4fb43e225b501e273b8e1e7d43c81653,PennController,6,0,experiment,NULL,PennController,4,_Trial_,Start,1687413263701,62f3b543dce069211e8e982c,62f3b543dce069211e8e982c,2,door,critical,B,75,door65.jpg,door85.jpg,low,NULL
1687413348,4fb43e225b501e273b8e1e7d43c81653,PennController,6,0,experiment,NULL,PennController,4,_Header_,Start,1687413263701,62f3b543dce069211e8e982c,62f3b543dce069211e8e982c,2,door,critical,B,75,door65.jpg,door85.jpg,low,NULL
1687413348,4fb43e225b501e273b8e1e7d43c81653,PennController,6,0,experiment,NULL,PennController,4,_Header_,End,1687413263701,62f3b543dce069211e8e982c,62f3b543dce069211e8e982c,2,door,critical,B,75,door65.jpg,door85.jpg,low,NULL
1687413348,4fb43e225b501e273b8e1e7d43c81653,PennController,6,0,experiment,NULL,Canvas,canvas6,Print,NA,1687413271459,62f3b543dce069211e8e982c,62f3b543dce069211e8e982c,2,door,critical,B,75,door65.jpg,door85.jpg,low,NULL
1687413348,4fb43e225b501e273b8e1e7d43c81653,PennController,6,0,experiment,NULL,Video,progression,buffer,0,1687413267231,62f3b543dce069211e8e982c,62f3b543dce069211e8e982c,2,door,critical,B,75,door65.jpg,door85.jpg,low,NULL
1687413348,4fb43e225b501e273b8e1e7d43c81653,PennController,6,0,experiment,NULL,Selector,choice,Selection,option2,1687413272923,62f3b543dce069211e8e982c,62f3b543dce069211e8e982c,2,door,critical,B,75,door65.jpg,door85.jpg,low,option1;option2
1687413348,4fb43e225b501e273b8e1e7d43c81653,PennController,6,0,experiment,NULL,PennController,4,_Trial_,End,1687413272925,62f3b543dce069211e8e982c,62f3b543dce069211e8e982c,2,door,critical,B,75,door65.jpg,door85.jpg,low,NULL
1687413348,4fb43e225b501e273b8e1e7d43c81653,PennController,27,0,experiment,NULL,PennController,25,_Trial_,Start,1687413272927,62f3b543dce069211e8e982c,62f3b543dce069211e8e982c,23,color,filler,B,75,color65.jpg,color85.jpg,GoalA,NULL
1687413348,4fb43e225b501e273b8e1e7d43c81653,PennController,27,0,experiment,NULL,PennController,25,_Header_,Start,1687413272927,62f3b543dce069211e8e982c,62f3b543dce069211e8e982c,23,color,filler,B,75,color65.jpg,color85.jpg,GoalA,NULL
1687413348,4fb43e225b501e273b8e1e7d43c81653,PennController,27,0,experiment,NULL,PennController,25,_Header_,End,1687413272927,62f3b543dce069211e8e982c,62f3b543dce069211e8e982c,23,color,filler,B,75,color65.jpg,color85.jpg,GoalA,NULL
1687413348,4fb43e225b501e273b8e1e7d43c81653,PennController,27,0,experiment,NULL,Canvas,canvas6,Print,NA,1687413280634,62f3b543dce069211e8e982c,62f3b543dce069211e8e982c,23,color,filler,B,75,color65.jpg,color85.jpg,GoalA,NULL
1687413348,4fb43e225b501e273b8e1e7d43c81653,PennController,27,0,experiment,NULL,Video,progression,buffer,0.005293,1687413276457,62f3b543dce069211e8e982c,62f3b543dce069211e8e982c,23,color,filler,B,75,color65.jpg,color85.jpg,GoalA,NULL
1687413348,4fb43e225b501e273b8e1e7d43c81653,PennController,27,0,experiment,NULL,Selector,choice,Selection,option1,1687413284516,62f3b543dce069211e8e982c,62f3b543dce069211e8e982c,23,color,filler,B,75,color65.jpg,color85.jpg,GoalA,option2;option1
1687413348,4fb43e225b501e273b8e1e7d43c81653,PennController,27,0,experiment,NULL,PennController,25,_Trial_,End,1687413284518,62f3b543dce069211e8e982c,62f3b543dce069211e8e982c,23,color,filler,B,75,color65.jpg,color85.jpg,GoalA,NULL
1687413348,4fb43e225b501e273b8e1e7d43c81653,PennController,10,0,experiment,NULL,PennController,8,_Trial_,Start,1687413284521,62f3b543dce069211e8e982c,62f3b543dce069211e8e982c,6,flower,critical,B,25,flower15.jpg,flower35.jpg,low,NULL
1687413348,4fb43e225b501e273b8e1e7d43c81653,PennController,10,0,experiment,NULL,PennController,8,_Header_,Start,1687413284521,62f3b543dce069211e8e982c,62f3b543dce069211e8e982c,6,flower,critical,B,25,flower15.jpg,flower35.jpg,low,NULL
1687413348,4fb43e225b501e273b8e1e7d43c81653,PennController,10,0,experiment,NULL,PennController,8,_Header_,End,1687413284521,62f3b543dce069211e8e982c,62f3b543dce069211e8e982c,6,flower,critical,B,25,flower15.jpg,flower35.jpg,low,NULL
1687413348,4fb43e225b501e273b8e1e7d43c81653,PennController,10,0,experiment,NULL,Canvas,canvas6,Print,NA,1687413290226,62f3b543dce069211e8e982c,62f3b543dce069211e8e982c,6,flower,critical,B,25,flower15.jpg,flower35.jpg,low,NULL
1687413348,4fb43e225b501e273b8e1e7d43c81653,PennController,10,0,experiment,NULL,Video,progression,buffer,0.005803,1687413288050,62f3b543dce069211e8e982c,62f3b543dce069211e8e982c,6,flower,critical,B,25,flower15.jpg,flower35.jpg,low,NULL
1687413348,4fb43e225b501e273b8e1e7d43c81653,PennController,10,0,experiment,NULL,Selector,choice,Selection,option1,1687413291692,62f3b543dce069211e8e982c,62f3b543dce069211e8e982c,6,flower,critical,B,25,flower15.jpg,flower35.jpg,low,option2;option1
1687413348,4fb43e225b501e273b8e1e7d43c81653,PennController,10,0,experiment,NULL,PennController,8,_Trial_,End,1687413291693,62f3b543dce069211e8e982c,62f3b543dce069211e8e982c,6,flower,critical,B,25,flower15.jpg,flower35.jpg,low,NULL
1687413348,4fb43e225b501e273b8e1e7d43c81653,PennController,25,0,experiment,NULL,PennController,23,_Trial_,Start,1687413291695,62f3b543dce069211e8e982c,62f3b543dce069211e8e982c,21,visit,filler,B,25,visit15.jpg,visit35.jpg,GoalA,NULL
1687413348,4fb43e225b501e273b8e1e7d43c81653,PennController,25,0,experiment,NULL,PennController,23,_Header_,Start,1687413291695,62f3b543dce069211e8e982c,62f3b543dce069211e8e982c,21,visit,filler,B,25,visit15.jpg,visit35.jpg,GoalA,NULL
1687413348,4fb43e225b501e273b8e1e7d43c81653,PennController,25,0,experiment,NULL,PennController,23,_Header_,End,1687413291695,62f3b543dce069211e8e982c,62f3b543dce069211e8e982c,21,visit,filler,B,25,visit15.jpg,visit35.jpg,GoalA,NULL
1687413348,4fb43e225b501e273b8e1e7d43c81653,PennController,25,0,experiment,NULL,Canvas,canvas6,Print,NA,1687413297395,62f3b543dce069211e8e982c,62f3b543dce069211e8e982c,21,visit,filler,B,25,visit15.jpg,visit35.jpg,GoalA,NULL
1687413348,4fb43e225b501e273b8e1e7d43c81653,PennController,25,0,experiment,NULL,Video,progression,buffer,0.006198,1687413295225,62f3b543dce069211e8e982c,62f3b543dce069211e8e982c,21,visit,filler,B,25,visit15.jpg,visit35.jpg,GoalA,NULL
1687413348,4fb43e225b501e273b8e1e7d43c81653,PennController,25,0,experiment,NULL,Selector,choice,Selection,option1,1687413301385,62f3b543dce069211e8e982c,62f3b543dce069211e8e982c,21,visit,filler,B,25,visit15.jpg,visit35.jpg,GoalA,option2;option1
1687413348,4fb43e225b501e273b8e1e7d43c81653,PennController,25,0,experiment,NULL,PennController,23,_Trial_,End,1687413301387,62f3b543dce069211e8e982c,62f3b543dce069211e8e982c,21,visit,filler,B,25,visit15.jpg,visit35.jpg,GoalA,NULL
1687413348,4fb43e225b501e273b8e1e7d43c81653,PennController,22,0,experiment,NULL,PennController,20,_Trial_,Start,1687413301389,62f3b543dce069211e8e982c,62f3b543dce069211e8e982c,18,ball,critical,B,25,ball15.jpg,ball35.jpg,low,NULL
1687413348,4fb43e225b501e273b8e1e7d43c81653,PennController,22,0,experiment,NULL,PennController,20,_Header_,Start,1687413301389,62f3b543dce069211e8e982c,62f3b543dce069211e8e982c,18,ball,critical,B,25,ball15.jpg,ball35.jpg,low,NULL
1687413348,4fb43e225b501e273b8e1e7d43c81653,PennController,22,0,experiment,NULL,PennController,20,_Header_,End,1687413301389,62f3b543dce069211e8e982c,62f3b543dce069211e8e982c,18,ball,critical,B,25,ball15.jpg,ball35.jpg,low,NULL
1687413348,4fb43e225b501e273b8e1e7d43c81653,PennController,22,0,experiment,NULL,Canvas,canvas6,Print,NA,1687413307090,62f3b543dce069211e8e982c,62f3b543dce069211e8e982c,18,ball,critical,B,25,ball15.jpg,ball35.jpg,low,NULL
1687413348,4fb43e225b501e273b8e1e7d43c81653,PennController,22,0,experiment,NULL,Video,progression,buffer,0.007082,1687413304918,62f3b543dce069211e8e982c,62f3b543dce069211e8e982c,18,ball,critical,B,25,ball15.jpg,ball35.jpg,low,NULL
1687413348,4fb43e225b501e273b8e1e7d43c81653,PennController,22,0,experiment,NULL,Selector,choice,Selection,option1,1687413309144,62f3b543dce069211e8e982c,62f3b543dce069211e8e982c,18,ball,critical,B,25,ball15.jpg,ball35.jpg,low,option1;option2
1687413348,4fb43e225b501e273b8e1e7d43c81653,PennController,22,0,experiment,NULL,PennController,20,_Trial_,End,1687413309146,62f3b543dce069211e8e982c,62f3b543dce069211e8e982c,18,ball,critical,B,25,ball15.jpg,ball35.jpg,low,NULL
1687413348,4fb43e225b501e273b8e1e7d43c81653,PennController,20,0,experiment,NULL,PennController,18,_Trial_,Start,1687413309147,62f3b543dce069211e8e982c,62f3b543dce069211e8e982c,16,blinds,critical,B,50,blinds42.jpg,blinds60.jpg,low,NULL
1687413348,4fb43e225b501e273b8e1e7d43c81653,PennController,20,0,experiment,NULL,PennController,18,_Header_,Start,1687413309147,62f3b543dce069211e8e982c,62f3b543dce069211e8e982c,16,blinds,critical,B,50,blinds42.jpg,blinds60.jpg,low,NULL
1687413348,4fb43e225b501e273b8e1e7d43c81653,PennController,20,0,experiment,NULL,PennController,18,_Header_,End,1687413309147,62f3b543dce069211e8e982c,62f3b543dce069211e8e982c,16,blinds,critical,B,50,blinds42.jpg,blinds60.jpg,low,NULL
1687413348,4fb43e225b501e273b8e1e7d43c81653,PennController,20,0,experiment,NULL,Canvas,canvas6,Print,NA,1687413317248,62f3b543dce069211e8e982c,62f3b543dce069211e8e982c,16,blinds,critical,B,50,blinds42.jpg,blinds60.jpg,low,NULL
1687413348,4fb43e225b501e273b8e1e7d43c81653,PennController,20,0,experiment,NULL,Video,progression,buffer,0.000782,1687413312667,62f3b543dce069211e8e982c,62f3b543dce069211e8e982c,16,blinds,critical,B,50,blinds42.jpg,blinds60.jpg,low,NULL
1687413348,4fb43e225b501e273b8e1e7d43c81653,PennController,20,0,experiment,NULL,Selector,choice,Selection,option1,1687413321037,62f3b543dce069211e8e982c,62f3b543dce069211e8e982c,16,blinds,critical,B,50,blinds42.jpg,blinds60.jpg,low,option2;option1
1687413348,4fb43e225b501e273b8e1e7d43c81653,PennController,20,0,experiment,NULL,PennController,18,_Trial_,End,1687413321039,62f3b543dce069211e8e982c,62f3b543dce069211e8e982c,16,blinds,critical,B,50,blinds42.jpg,blinds60.jpg,low,NULL
1687413348,4fb43e225b501e273b8e1e7d43c81653,PennController,24,0,experiment,NULL,PennController,22,_Trial_,Start,1687413321041,62f3b543dce069211e8e982c,62f3b543dce069211e8e982c,20,cat,filler,B,75,cat65.jpg,cat85.jpg,GoalB,NULL
1687413348,4fb43e225b501e273b8e1e7d43c81653,PennController,24,0,experiment,NULL,PennController,22,_Header_,Start,1687413321041,62f3b543dce069211e8e982c,62f3b543dce069211e8e982c,20,cat,filler,B,75,cat65.jpg,cat85.jpg,GoalB,NULL
1687413348,4fb43e225b501e273b8e1e7d43c81653,PennController,24,0,experiment,NULL,PennController,22,_Header_,End,1687413321041,62f3b543dce069211e8e982c,62f3b543dce069211e8e982c,20,cat,filler,B,75,cat65.jpg,cat85.jpg,GoalB,NULL
1687413348,4fb43e225b501e273b8e1e7d43c81653,PennController,24,0,experiment,NULL,Canvas,canvas6,Print,NA,1687413328751,62f3b543dce069211e8e982c,62f3b543dce069211e8e982c,20,cat,filler,B,75,cat65.jpg,cat85.jpg,GoalB,NULL
1687413348,4fb43e225b501e273b8e1e7d43c81653,PennController,24,0,experiment,NULL,Video,progression,buffer,0.005419,1687413324571,62f3b543dce069211e8e982c,62f3b543dce069211e8e982c,20,cat,filler,B,75,cat65.jpg,cat85.jpg,GoalB,NULL
1687413348,4fb43e225b501e273b8e1e7d43c81653,PennController,24,0,experiment,NULL,Selector,choice,Selection,option1,1687413331989,62f3b543dce069211e8e982c,62f3b543dce069211e8e982c,20,cat,filler,B,75,cat65.jpg,cat85.jpg,GoalB,option2;option1
1687413348,4fb43e225b501e273b8e1e7d43c81653,PennController,24,0,experiment,NULL,PennController,22,_Trial_,End,1687413331990,62f3b543dce069211e8e982c,62f3b543dce069211e8e982c,20,cat,filler,B,75,cat65.jpg,cat85.jpg,GoalB,NULL
1687413348,4fb43e225b501e273b8e1e7d43c81653,PennController,5,0,experiment,NULL,PennController,3,_Trial_,Start,1687413331992,62f3b543dce069211e8e982c,62f3b543dce069211e8e982c,1,vase,critical,B,50,vase40.jpg,vase60.jpg,low,NULL
1687413348,4fb43e225b501e273b8e1e7d43c81653,PennController,5,0,experiment,NULL,PennController,3,_Header_,Start,1687413331992,62f3b543dce069211e8e982c,62f3b543dce069211e8e982c,1,vase,critical,B,50,vase40.jpg,vase60.jpg,low,NULL
1687413348,4fb43e225b501e273b8e1e7d43c81653,PennController,5,0,experiment,NULL,PennController,3,_Header_,End,1687413331992,62f3b543dce069211e8e982c,62f3b543dce069211e8e982c,1,vase,critical,B,50,vase40.jpg,vase60.jpg,low,NULL
1687413348,4fb43e225b501e273b8e1e7d43c81653,PennController,5,0,experiment,NULL,Canvas,canvas6,Print,NA,1687413338691,62f3b543dce069211e8e982c,62f3b543dce069211e8e982c,1,vase,critical,B,50,vase40.jpg,vase60.jpg,low,NULL
1687413348,4fb43e225b501e273b8e1e7d43c81653,PennController,5,0,experiment,NULL,Video,progression,buffer,0.004528,1687413335522,62f3b543dce069211e8e982c,62f3b543dce069211e8e982c,1,vase,critical,B,50,vase40.jpg,vase60.jpg,low,NULL
1687413348,4fb43e225b501e273b8e1e7d43c81653,PennController,5,0,experiment,NULL,Selector,choice,Selection,option1,1687413340506,62f3b543dce069211e8e982c,62f3b543dce069211e8e982c,1,vase,critical,B,50,vase40.jpg,vase60.jpg,low,option1;option2
1687413348,4fb43e225b501e273b8e1e7d43c81653,PennController,5,0,experiment,NULL,PennController,3,_Trial_,End,1687413340507,62f3b543dce069211e8e982c,62f3b543dce069211e8e982c,1,vase,critical,B,50,vase40.jpg,vase60.jpg,low,NULL
1687413348,4fb43e225b501e273b8e1e7d43c81653,PennController,19,0,experiment,NULL,PennController,17,_Trial_,Start,1687413340510,62f3b543dce069211e8e982c,62f3b543dce069211e8e982c,15,zip,critical,B,25,zip15.jpg,zip35.jpg,low,NULL
1687413348,4fb43e225b501e273b8e1e7d43c81653,PennController,19,0,experiment,NULL,PennController,17,_Header_,Start,1687413340510,62f3b543dce069211e8e982c,62f3b543dce069211e8e982c,15,zip,critical,B,25,zip15.jpg,zip35.jpg,low,NULL
1687413348,4fb43e225b501e273b8e1e7d43c81653,PennController,19,0,experiment,NULL,PennController,17,_Header_,End,1687413340510,62f3b543dce069211e8e982c,62f3b543dce069211e8e982c,15,zip,critical,B,25,zip15.jpg,zip35.jpg,low,NULL
1687413348,4fb43e225b501e273b8e1e7d43c81653,PennController,19,0,experiment,NULL,Canvas,canvas6,Print,NA,1687413346211,62f3b543dce069211e8e982c,62f3b543dce069211e8e982c,15,zip,critical,B,25,zip15.jpg,zip35.jpg,low,NULL
1687413348,4fb43e225b501e273b8e1e7d43c81653,PennController,19,0,experiment,NULL,Video,progression,buffer,0.007526,1687413344038,62f3b543dce069211e8e982c,62f3b543dce069211e8e982c,15,zip,critical,B,25,zip15.jpg,zip35.jpg,low,NULL
1687413348,4fb43e225b501e273b8e1e7d43c81653,PennController,19,0,experiment,NULL,Selector,choice,Selection,option1,1687413348566,62f3b543dce069211e8e982c,62f3b543dce069211e8e982c,15,zip,critical,B,25,zip15.jpg,zip35.jpg,low,option2;option1
1687413348,4fb43e225b501e273b8e1e7d43c81653,PennController,19,0,experiment,NULL,PennController,17,_Trial_,End,1687413348567,62f3b543dce069211e8e982c,62f3b543dce069211e8e982c,15,zip,critical,B,25,zip15.jpg,zip35.jpg,low,NULL
