#
# Results on Thursday June 22 2023 05:50:59 UTC
# USER AGENT: Mozilla/5.0 (Windows NT 10.0; Win64; x64; rv:109.0) Gecko/20100101 Firefox/114.0
# Design number was non-random = 87
#
# Columns below this comment are as follows:
# 1. Results reception time.
# 2. MD5 hash of participant's IP address.
# 3. Controller name.
# 4. Order number of item.
# 5. Inner element number.
# 6. Label.
# 7. Latin Square Group.
# 8. PennElementType.
# 9. PennElementName.
# 10. Parameter.
# 11. Value.
# 12. EventTime.
# 13. PROLIFIC_ID.
# 14. Comments.
1687413059,a274f7df95c299983816ac3e2c01547f,PennController,3,0,consent,NULL,PennController,0,_Trial_,Start,1687412745960,5d7f65da7fcc5f00189df913,NULL
1687413059,a274f7df95c299983816ac3e2c01547f,PennController,3,0,consent,NULL,PennController,0,_Header_,Start,1687412745960,5d7f65da7fcc5f00189df913,NULL
1687413059,a274f7df95c299983816ac3e2c01547f,PennController,3,0,consent,NULL,PennController,0,_Header_,End,1687412745960,5d7f65da7fcc5f00189df913,NULL
1687413059,a274f7df95c299983816ac3e2c01547f,PennController,3,0,consent,NULL,PennController,0,_Trial_,End,1687412780634,5d7f65da7fcc5f00189df913,NULL
# Columns below this comment are as follows:
# 14. ID.
# 15. Comments.
1687413059,a274f7df95c299983816ac3e2c01547f,PennController,4,0,intro,NULL,PennController,1,_Trial_,Start,1687412780638,5d7f65da7fcc5f00189df913,5d7f65da7fcc5f00189df913,NULL
1687413059,a274f7df95c299983816ac3e2c01547f,PennController,4,0,intro,NULL,PennController,1,_Header_,Start,1687412780638,5d7f65da7fcc5f00189df913,5d7f65da7fcc5f00189df913,NULL
1687413059,a274f7df95c299983816ac3e2c01547f,PennController,4,0,intro,NULL,PennController,1,_Header_,End,1687412780638,5d7f65da7fcc5f00189df913,5d7f65da7fcc5f00189df913,NULL
1687413059,a274f7df95c299983816ac3e2c01547f,PennController,4,0,intro,NULL,PennController,1,_Trial_,End,1687412788373,5d7f65da7fcc5f00189df913,5d7f65da7fcc5f00189df913,NULL
# Columns below this comment are as follows:
# 15. item_number.
# 16. item.
# 17. type.
# 18. Group.
# 19. prog.
# 20. prev_image.
# 21. next_image.
# 22. height.
# 23. Comments.
1687413059,a274f7df95c299983816ac3e2c01547f,PennController,30,0,experiment,NULL,PennController,28,_Trial_,Start,1687412788374,5d7f65da7fcc5f00189df913,5d7f65da7fcc5f00189df913,26,sandwich,filler,B,75,sandwich65.jpg,sandwich85.jpg,GoalB,NULL
1687413059,a274f7df95c299983816ac3e2c01547f,PennController,30,0,experiment,NULL,PennController,28,_Header_,Start,1687412788374,5d7f65da7fcc5f00189df913,5d7f65da7fcc5f00189df913,26,sandwich,filler,B,75,sandwich65.jpg,sandwich85.jpg,GoalB,NULL
1687413059,a274f7df95c299983816ac3e2c01547f,PennController,30,0,experiment,NULL,PennController,28,_Header_,End,1687412788374,5d7f65da7fcc5f00189df913,5d7f65da7fcc5f00189df913,26,sandwich,filler,B,75,sandwich65.jpg,sandwich85.jpg,GoalB,NULL
1687413059,a274f7df95c299983816ac3e2c01547f,PennController,30,0,experiment,NULL,Video,progression,buffer,0,1687412791937,5d7f65da7fcc5f00189df913,5d7f65da7fcc5f00189df913,26,sandwich,filler,B,75,sandwich65.jpg,sandwich85.jpg,GoalB,NULL
1687413059,a274f7df95c299983816ac3e2c01547f,PennController,30,0,experiment,NULL,Canvas,canvas6,Print,NA,1687412796181,5d7f65da7fcc5f00189df913,5d7f65da7fcc5f00189df913,26,sandwich,filler,B,75,sandwich65.jpg,sandwich85.jpg,GoalB,NULL
1687413059,a274f7df95c299983816ac3e2c01547f,PennController,30,0,experiment,NULL,Selector,choice,Selection,option1,1687412800686,5d7f65da7fcc5f00189df913,5d7f65da7fcc5f00189df913,26,sandwich,filler,B,75,sandwich65.jpg,sandwich85.jpg,GoalB,option2;option1
1687413059,a274f7df95c299983816ac3e2c01547f,PennController,30,0,experiment,NULL,PennController,28,_Trial_,End,1687412800688,5d7f65da7fcc5f00189df913,5d7f65da7fcc5f00189df913,26,sandwich,filler,B,75,sandwich65.jpg,sandwich85.jpg,GoalB,NULL
1687413059,a274f7df95c299983816ac3e2c01547f,PennController,10,0,experiment,NULL,PennController,8,_Trial_,Start,1687412800689,5d7f65da7fcc5f00189df913,5d7f65da7fcc5f00189df913,6,flower,critical,B,25,flower15.jpg,flower35.jpg,low,NULL
1687413059,a274f7df95c299983816ac3e2c01547f,PennController,10,0,experiment,NULL,PennController,8,_Header_,Start,1687412800689,5d7f65da7fcc5f00189df913,5d7f65da7fcc5f00189df913,6,flower,critical,B,25,flower15.jpg,flower35.jpg,low,NULL
1687413059,a274f7df95c299983816ac3e2c01547f,PennController,10,0,experiment,NULL,PennController,8,_Header_,End,1687412800689,5d7f65da7fcc5f00189df913,5d7f65da7fcc5f00189df913,6,flower,critical,B,25,flower15.jpg,flower35.jpg,low,NULL
1687413059,a274f7df95c299983816ac3e2c01547f,PennController,10,0,experiment,NULL,Video,progression,buffer,0,1687412804226,5d7f65da7fcc5f00189df913,5d7f65da7fcc5f00189df913,6,flower,critical,B,25,flower15.jpg,flower35.jpg,low,NULL
1687413059,a274f7df95c299983816ac3e2c01547f,PennController,10,0,experiment,NULL,Canvas,canvas6,Print,NA,1687412806463,5d7f65da7fcc5f00189df913,5d7f65da7fcc5f00189df913,6,flower,critical,B,25,flower15.jpg,flower35.jpg,low,NULL
1687413059,a274f7df95c299983816ac3e2c01547f,PennController,10,0,experiment,NULL,Selector,choice,Selection,option2,1687412810414,5d7f65da7fcc5f00189df913,5d7f65da7fcc5f00189df913,6,flower,critical,B,25,flower15.jpg,flower35.jpg,low,option1;option2
1687413059,a274f7df95c299983816ac3e2c01547f,PennController,10,0,experiment,NULL,PennController,8,_Trial_,End,1687412810416,5d7f65da7fcc5f00189df913,5d7f65da7fcc5f00189df913,6,flower,critical,B,25,flower15.jpg,flower35.jpg,low,NULL
1687413059,a274f7df95c299983816ac3e2c01547f,PennController,21,0,experiment,NULL,PennController,19,_Trial_,Start,1687412810417,5d7f65da7fcc5f00189df913,5d7f65da7fcc5f00189df913,17,roll,critical,B,75,roll65.jpg,roll85.jpg,low,NULL
1687413059,a274f7df95c299983816ac3e2c01547f,PennController,21,0,experiment,NULL,PennController,19,_Header_,Start,1687412810417,5d7f65da7fcc5f00189df913,5d7f65da7fcc5f00189df913,17,roll,critical,B,75,roll65.jpg,roll85.jpg,low,NULL
1687413059,a274f7df95c299983816ac3e2c01547f,PennController,21,0,experiment,NULL,PennController,19,_Header_,End,1687412810417,5d7f65da7fcc5f00189df913,5d7f65da7fcc5f00189df913,17,roll,critical,B,75,roll65.jpg,roll85.jpg,low,NULL
1687413059,a274f7df95c299983816ac3e2c01547f,PennController,21,0,experiment,NULL,Video,progression,buffer,0,1687412813966,5d7f65da7fcc5f00189df913,5d7f65da7fcc5f00189df913,17,roll,critical,B,75,roll65.jpg,roll85.jpg,low,NULL
1687413059,a274f7df95c299983816ac3e2c01547f,PennController,21,0,experiment,NULL,Canvas,canvas6,Print,NA,1687412818221,5d7f65da7fcc5f00189df913,5d7f65da7fcc5f00189df913,17,roll,critical,B,75,roll65.jpg,roll85.jpg,low,NULL
1687413059,a274f7df95c299983816ac3e2c01547f,PennController,21,0,experiment,NULL,Selector,choice,Selection,option2,1687412820013,5d7f65da7fcc5f00189df913,5d7f65da7fcc5f00189df913,17,roll,critical,B,75,roll65.jpg,roll85.jpg,low,option2;option1
1687413059,a274f7df95c299983816ac3e2c01547f,PennController,21,0,experiment,NULL,PennController,19,_Trial_,End,1687412820015,5d7f65da7fcc5f00189df913,5d7f65da7fcc5f00189df913,17,roll,critical,B,75,roll65.jpg,roll85.jpg,low,NULL
1687413059,a274f7df95c299983816ac3e2c01547f,PennController,13,0,experiment,NULL,PennController,11,_Trial_,Start,1687412820017,5d7f65da7fcc5f00189df913,5d7f65da7fcc5f00189df913,9,cake,critical,B,25,cake15.jpg,cake33.jpg,low,NULL
1687413059,a274f7df95c299983816ac3e2c01547f,PennController,13,0,experiment,NULL,PennController,11,_Header_,Start,1687412820017,5d7f65da7fcc5f00189df913,5d7f65da7fcc5f00189df913,9,cake,critical,B,25,cake15.jpg,cake33.jpg,low,NULL
1687413059,a274f7df95c299983816ac3e2c01547f,PennController,13,0,experiment,NULL,PennController,11,_Header_,End,1687412820018,5d7f65da7fcc5f00189df913,5d7f65da7fcc5f00189df913,9,cake,critical,B,25,cake15.jpg,cake33.jpg,low,NULL
1687413059,a274f7df95c299983816ac3e2c01547f,PennController,13,0,experiment,NULL,Video,progression,buffer,0,1687412823552,5d7f65da7fcc5f00189df913,5d7f65da7fcc5f00189df913,9,cake,critical,B,25,cake15.jpg,cake33.jpg,low,NULL
1687413059,a274f7df95c299983816ac3e2c01547f,PennController,13,0,experiment,NULL,Canvas,canvas6,Print,NA,1687412826385,5d7f65da7fcc5f00189df913,5d7f65da7fcc5f00189df913,9,cake,critical,B,25,cake15.jpg,cake33.jpg,low,NULL
1687413059,a274f7df95c299983816ac3e2c01547f,PennController,13,0,experiment,NULL,Selector,choice,Selection,option1,1687412828405,5d7f65da7fcc5f00189df913,5d7f65da7fcc5f00189df913,9,cake,critical,B,25,cake15.jpg,cake33.jpg,low,option1;option2
1687413059,a274f7df95c299983816ac3e2c01547f,PennController,13,0,experiment,NULL,PennController,11,_Trial_,End,1687412828408,5d7f65da7fcc5f00189df913,5d7f65da7fcc5f00189df913,9,cake,critical,B,25,cake15.jpg,cake33.jpg,low,NULL
1687413059,a274f7df95c299983816ac3e2c01547f,PennController,17,0,experiment,NULL,PennController,15,_Trial_,Start,1687412828409,5d7f65da7fcc5f00189df913,5d7f65da7fcc5f00189df913,13,mix,critical,B,50,mix40.jpg,mix60.jpg,low,NULL
1687413059,a274f7df95c299983816ac3e2c01547f,PennController,17,0,experiment,NULL,PennController,15,_Header_,Start,1687412828409,5d7f65da7fcc5f00189df913,5d7f65da7fcc5f00189df913,13,mix,critical,B,50,mix40.jpg,mix60.jpg,low,NULL
1687413059,a274f7df95c299983816ac3e2c01547f,PennController,17,0,experiment,NULL,PennController,15,_Header_,End,1687412828409,5d7f65da7fcc5f00189df913,5d7f65da7fcc5f00189df913,13,mix,critical,B,50,mix40.jpg,mix60.jpg,low,NULL
1687413059,a274f7df95c299983816ac3e2c01547f,PennController,17,0,experiment,NULL,Video,progression,buffer,0,1687412831939,5d7f65da7fcc5f00189df913,5d7f65da7fcc5f00189df913,13,mix,critical,B,50,mix40.jpg,mix60.jpg,low,NULL
1687413059,a274f7df95c299983816ac3e2c01547f,PennController,17,0,experiment,NULL,Canvas,canvas6,Print,NA,1687412835172,5d7f65da7fcc5f00189df913,5d7f65da7fcc5f00189df913,13,mix,critical,B,50,mix40.jpg,mix60.jpg,low,NULL
1687413059,a274f7df95c299983816ac3e2c01547f,PennController,17,0,experiment,NULL,Selector,choice,Selection,option1,1687412837037,5d7f65da7fcc5f00189df913,5d7f65da7fcc5f00189df913,13,mix,critical,B,50,mix40.jpg,mix60.jpg,low,option1;option2
1687413059,a274f7df95c299983816ac3e2c01547f,PennController,17,0,experiment,NULL,PennController,15,_Trial_,End,1687412837039,5d7f65da7fcc5f00189df913,5d7f65da7fcc5f00189df913,13,mix,critical,B,50,mix40.jpg,mix60.jpg,low,NULL
1687413059,a274f7df95c299983816ac3e2c01547f,PennController,7,0,experiment,NULL,PennController,5,_Trial_,Start,1687412837041,5d7f65da7fcc5f00189df913,5d7f65da7fcc5f00189df913,3,clean,critical,B,25,clean15.jpg,clean35.jpg,low,NULL
1687413059,a274f7df95c299983816ac3e2c01547f,PennController,7,0,experiment,NULL,PennController,5,_Header_,Start,1687412837041,5d7f65da7fcc5f00189df913,5d7f65da7fcc5f00189df913,3,clean,critical,B,25,clean15.jpg,clean35.jpg,low,NULL
1687413059,a274f7df95c299983816ac3e2c01547f,PennController,7,0,experiment,NULL,PennController,5,_Header_,End,1687412837041,5d7f65da7fcc5f00189df913,5d7f65da7fcc5f00189df913,3,clean,critical,B,25,clean15.jpg,clean35.jpg,low,NULL
1687413059,a274f7df95c299983816ac3e2c01547f,PennController,7,0,experiment,NULL,Video,progression,buffer,0,1687412840586,5d7f65da7fcc5f00189df913,5d7f65da7fcc5f00189df913,3,clean,critical,B,25,clean15.jpg,clean35.jpg,low,NULL
1687413059,a274f7df95c299983816ac3e2c01547f,PennController,7,0,experiment,NULL,Canvas,canvas6,Print,NA,1687412842823,5d7f65da7fcc5f00189df913,5d7f65da7fcc5f00189df913,3,clean,critical,B,25,clean15.jpg,clean35.jpg,low,NULL
1687413059,a274f7df95c299983816ac3e2c01547f,PennController,7,0,experiment,NULL,Selector,choice,Selection,option2,1687412844062,5d7f65da7fcc5f00189df913,5d7f65da7fcc5f00189df913,3,clean,critical,B,25,clean15.jpg,clean35.jpg,low,option2;option1
1687413059,a274f7df95c299983816ac3e2c01547f,PennController,7,0,experiment,NULL,PennController,5,_Trial_,End,1687412844063,5d7f65da7fcc5f00189df913,5d7f65da7fcc5f00189df913,3,clean,critical,B,25,clean15.jpg,clean35.jpg,low,NULL
1687413059,a274f7df95c299983816ac3e2c01547f,PennController,22,0,experiment,NULL,PennController,20,_Trial_,Start,1687412844064,5d7f65da7fcc5f00189df913,5d7f65da7fcc5f00189df913,18,ball,critical,B,25,ball15.jpg,ball35.jpg,low,NULL
1687413059,a274f7df95c299983816ac3e2c01547f,PennController,22,0,experiment,NULL,PennController,20,_Header_,Start,1687412844064,5d7f65da7fcc5f00189df913,5d7f65da7fcc5f00189df913,18,ball,critical,B,25,ball15.jpg,ball35.jpg,low,NULL
1687413059,a274f7df95c299983816ac3e2c01547f,PennController,22,0,experiment,NULL,PennController,20,_Header_,End,1687412844064,5d7f65da7fcc5f00189df913,5d7f65da7fcc5f00189df913,18,ball,critical,B,25,ball15.jpg,ball35.jpg,low,NULL
1687413059,a274f7df95c299983816ac3e2c01547f,PennController,22,0,experiment,NULL,Video,progression,buffer,0,1687412847597,5d7f65da7fcc5f00189df913,5d7f65da7fcc5f00189df913,18,ball,critical,B,25,ball15.jpg,ball35.jpg,low,NULL
1687413059,a274f7df95c299983816ac3e2c01547f,PennController,22,0,experiment,NULL,Canvas,canvas6,Print,NA,1687412849831,5d7f65da7fcc5f00189df913,5d7f65da7fcc5f00189df913,18,ball,critical,B,25,ball15.jpg,ball35.jpg,low,NULL
1687413059,a274f7df95c299983816ac3e2c01547f,PennController,22,0,experiment,NULL,Selector,choice,Selection,option1,1687412851333,5d7f65da7fcc5f00189df913,5d7f65da7fcc5f00189df913,18,ball,critical,B,25,ball15.jpg,ball35.jpg,low,option1;option2
1687413059,a274f7df95c299983816ac3e2c01547f,PennController,22,0,experiment,NULL,PennController,20,_Trial_,End,1687412851335,5d7f65da7fcc5f00189df913,5d7f65da7fcc5f00189df913,18,ball,critical,B,25,ball15.jpg,ball35.jpg,low,NULL
1687413059,a274f7df95c299983816ac3e2c01547f,PennController,9,0,experiment,NULL,PennController,7,_Trial_,Start,1687412851336,5d7f65da7fcc5f00189df913,5d7f65da7fcc5f00189df913,5,book,critical,B,75,book65.jpg,book85.jpg,low,NULL
1687413059,a274f7df95c299983816ac3e2c01547f,PennController,9,0,experiment,NULL,PennController,7,_Header_,Start,1687412851336,5d7f65da7fcc5f00189df913,5d7f65da7fcc5f00189df913,5,book,critical,B,75,book65.jpg,book85.jpg,low,NULL
1687413059,a274f7df95c299983816ac3e2c01547f,PennController,9,0,experiment,NULL,PennController,7,_Header_,End,1687412851336,5d7f65da7fcc5f00189df913,5d7f65da7fcc5f00189df913,5,book,critical,B,75,book65.jpg,book85.jpg,low,NULL
1687413059,a274f7df95c299983816ac3e2c01547f,PennController,9,0,experiment,NULL,Video,progression,buffer,0,1687412854874,5d7f65da7fcc5f00189df913,5d7f65da7fcc5f00189df913,5,book,critical,B,75,book65.jpg,book85.jpg,low,NULL
1687413059,a274f7df95c299983816ac3e2c01547f,PennController,9,0,experiment,NULL,Canvas,canvas6,Print,NA,1687412859108,5d7f65da7fcc5f00189df913,5d7f65da7fcc5f00189df913,5,book,critical,B,75,book65.jpg,book85.jpg,low,NULL
1687413059,a274f7df95c299983816ac3e2c01547f,PennController,9,0,experiment,NULL,Selector,choice,Selection,option1,1687412860341,5d7f65da7fcc5f00189df913,5d7f65da7fcc5f00189df913,5,book,critical,B,75,book65.jpg,book85.jpg,low,option2;option1
1687413059,a274f7df95c299983816ac3e2c01547f,PennController,9,0,experiment,NULL,PennController,7,_Trial_,End,1687412860342,5d7f65da7fcc5f00189df913,5d7f65da7fcc5f00189df913,5,book,critical,B,75,book65.jpg,book85.jpg,low,NULL
1687413059,a274f7df95c299983816ac3e2c01547f,PennController,16,0,experiment,NULL,PennController,14,_Trial_,Start,1687412860343,5d7f65da7fcc5f00189df913,5d7f65da7fcc5f00189df913,12,erase,critical,B,25,erase15.jpg,erase33.jpg,low,NULL
1687413059,a274f7df95c299983816ac3e2c01547f,PennController,16,0,experiment,NULL,PennController,14,_Header_,Start,1687412860343,5d7f65da7fcc5f00189df913,5d7f65da7fcc5f00189df913,12,erase,critical,B,25,erase15.jpg,erase33.jpg,low,NULL
1687413059,a274f7df95c299983816ac3e2c01547f,PennController,16,0,experiment,NULL,PennController,14,_Header_,End,1687412860343,5d7f65da7fcc5f00189df913,5d7f65da7fcc5f00189df913,12,erase,critical,B,25,erase15.jpg,erase33.jpg,low,NULL
1687413059,a274f7df95c299983816ac3e2c01547f,PennController,16,0,experiment,NULL,Video,progression,buffer,0,1687412863890,5d7f65da7fcc5f00189df913,5d7f65da7fcc5f00189df913,12,erase,critical,B,25,erase15.jpg,erase33.jpg,low,NULL
1687413059,a274f7df95c299983816ac3e2c01547f,PennController,16,0,experiment,NULL,Canvas,canvas6,Print,NA,1687412866727,5d7f65da7fcc5f00189df913,5d7f65da7fcc5f00189df913,12,erase,critical,B,25,erase15.jpg,erase33.jpg,low,NULL
1687413059,a274f7df95c299983816ac3e2c01547f,PennController,16,0,experiment,NULL,Selector,choice,Selection,option1,1687412872270,5d7f65da7fcc5f00189df913,5d7f65da7fcc5f00189df913,12,erase,critical,B,25,erase15.jpg,erase33.jpg,low,option2;option1
1687413059,a274f7df95c299983816ac3e2c01547f,PennController,16,0,experiment,NULL,PennController,14,_Trial_,End,1687412872271,5d7f65da7fcc5f00189df913,5d7f65da7fcc5f00189df913,12,erase,critical,B,25,erase15.jpg,erase33.jpg,low,NULL
1687413059,a274f7df95c299983816ac3e2c01547f,PennController,26,0,experiment,NULL,PennController,24,_Trial_,Start,1687412872272,5d7f65da7fcc5f00189df913,5d7f65da7fcc5f00189df913,22,wall,filler,B,50,wall40.jpg,wall60.jpg,GoalB,NULL
1687413059,a274f7df95c299983816ac3e2c01547f,PennController,26,0,experiment,NULL,PennController,24,_Header_,Start,1687412872272,5d7f65da7fcc5f00189df913,5d7f65da7fcc5f00189df913,22,wall,filler,B,50,wall40.jpg,wall60.jpg,GoalB,NULL
1687413059,a274f7df95c299983816ac3e2c01547f,PennController,26,0,experiment,NULL,PennController,24,_Header_,End,1687412872272,5d7f65da7fcc5f00189df913,5d7f65da7fcc5f00189df913,22,wall,filler,B,50,wall40.jpg,wall60.jpg,GoalB,NULL
1687413059,a274f7df95c299983816ac3e2c01547f,PennController,26,0,experiment,NULL,Video,progression,buffer,0,1687412875807,5d7f65da7fcc5f00189df913,5d7f65da7fcc5f00189df913,22,wall,filler,B,50,wall40.jpg,wall60.jpg,GoalB,NULL
1687413059,a274f7df95c299983816ac3e2c01547f,PennController,26,0,experiment,NULL,Canvas,canvas6,Print,NA,1687412879033,5d7f65da7fcc5f00189df913,5d7f65da7fcc5f00189df913,22,wall,filler,B,50,wall40.jpg,wall60.jpg,GoalB,NULL
1687413059,a274f7df95c299983816ac3e2c01547f,PennController,26,0,experiment,NULL,Selector,choice,Selection,option2,1687412882397,5d7f65da7fcc5f00189df913,5d7f65da7fcc5f00189df913,22,wall,filler,B,50,wall40.jpg,wall60.jpg,GoalB,option1;option2
1687413059,a274f7df95c299983816ac3e2c01547f,PennController,26,0,experiment,NULL,PennController,24,_Trial_,End,1687412882399,5d7f65da7fcc5f00189df913,5d7f65da7fcc5f00189df913,22,wall,filler,B,50,wall40.jpg,wall60.jpg,GoalB,NULL
1687413059,a274f7df95c299983816ac3e2c01547f,PennController,14,0,experiment,NULL,PennController,12,_Trial_,Start,1687412882402,5d7f65da7fcc5f00189df913,5d7f65da7fcc5f00189df913,10,train,critical,B,50,train40.jpg,train60.jpg,low,NULL
1687413059,a274f7df95c299983816ac3e2c01547f,PennController,14,0,experiment,NULL,PennController,12,_Header_,Start,1687412882402,5d7f65da7fcc5f00189df913,5d7f65da7fcc5f00189df913,10,train,critical,B,50,train40.jpg,train60.jpg,low,NULL
1687413059,a274f7df95c299983816ac3e2c01547f,PennController,14,0,experiment,NULL,PennController,12,_Header_,End,1687412882402,5d7f65da7fcc5f00189df913,5d7f65da7fcc5f00189df913,10,train,critical,B,50,train40.jpg,train60.jpg,low,NULL
1687413059,a274f7df95c299983816ac3e2c01547f,PennController,14,0,experiment,NULL,Video,progression,buffer,0,1687412885937,5d7f65da7fcc5f00189df913,5d7f65da7fcc5f00189df913,10,train,critical,B,50,train40.jpg,train60.jpg,low,NULL
1687413059,a274f7df95c299983816ac3e2c01547f,PennController,14,0,experiment,NULL,Canvas,canvas6,Print,NA,1687412889171,5d7f65da7fcc5f00189df913,5d7f65da7fcc5f00189df913,10,train,critical,B,50,train40.jpg,train60.jpg,low,NULL
1687413059,a274f7df95c299983816ac3e2c01547f,PennController,14,0,experiment,NULL,Selector,choice,Selection,option1,1687412890837,5d7f65da7fcc5f00189df913,5d7f65da7fcc5f00189df913,10,train,critical,B,50,train40.jpg,train60.jpg,low,option1;option2
1687413059,a274f7df95c299983816ac3e2c01547f,PennController,14,0,experiment,NULL,PennController,12,_Trial_,End,1687412890838,5d7f65da7fcc5f00189df913,5d7f65da7fcc5f00189df913,10,train,critical,B,50,train40.jpg,train60.jpg,low,NULL
1687413059,a274f7df95c299983816ac3e2c01547f,PennController,6,0,experiment,NULL,PennController,4,_Trial_,Start,1687412890840,5d7f65da7fcc5f00189df913,5d7f65da7fcc5f00189df913,2,door,critical,B,75,door65.jpg,door85.jpg,low,NULL
1687413059,a274f7df95c299983816ac3e2c01547f,PennController,6,0,experiment,NULL,PennController,4,_Header_,Start,1687412890840,5d7f65da7fcc5f00189df913,5d7f65da7fcc5f00189df913,2,door,critical,B,75,door65.jpg,door85.jpg,low,NULL
1687413059,a274f7df95c299983816ac3e2c01547f,PennController,6,0,experiment,NULL,PennController,4,_Header_,End,1687412890840,5d7f65da7fcc5f00189df913,5d7f65da7fcc5f00189df913,2,door,critical,B,75,door65.jpg,door85.jpg,low,NULL
1687413059,a274f7df95c299983816ac3e2c01547f,PennController,6,0,experiment,NULL,Video,progression,buffer,0,1687412894371,5d7f65da7fcc5f00189df913,5d7f65da7fcc5f00189df913,2,door,critical,B,75,door65.jpg,door85.jpg,low,NULL
1687413059,a274f7df95c299983816ac3e2c01547f,PennController,6,0,experiment,NULL,Canvas,canvas6,Print,NA,1687412898610,5d7f65da7fcc5f00189df913,5d7f65da7fcc5f00189df913,2,door,critical,B,75,door65.jpg,door85.jpg,low,NULL
1687413059,a274f7df95c299983816ac3e2c01547f,PennController,6,0,experiment,NULL,Selector,choice,Selection,option1,1687412900669,5d7f65da7fcc5f00189df913,5d7f65da7fcc5f00189df913,2,door,critical,B,75,door65.jpg,door85.jpg,low,option1;option2
1687413059,a274f7df95c299983816ac3e2c01547f,PennController,6,0,experiment,NULL,PennController,4,_Trial_,End,1687412900671,5d7f65da7fcc5f00189df913,5d7f65da7fcc5f00189df913,2,door,critical,B,75,door65.jpg,door85.jpg,low,NULL
1687413059,a274f7df95c299983816ac3e2c01547f,PennController,33,0,experiment,NULL,PennController,31,_Trial_,Start,1687412900672,5d7f65da7fcc5f00189df913,5d7f65da7fcc5f00189df913,29,frog,filler,B,75,frog65.jpg,frog85.jpg,GoalA,NULL
1687413059,a274f7df95c299983816ac3e2c01547f,PennController,33,0,experiment,NULL,PennController,31,_Header_,Start,1687412900672,5d7f65da7fcc5f00189df913,5d7f65da7fcc5f00189df913,29,frog,filler,B,75,frog65.jpg,frog85.jpg,GoalA,NULL
1687413059,a274f7df95c299983816ac3e2c01547f,PennController,33,0,experiment,NULL,PennController,31,_Header_,End,1687412900672,5d7f65da7fcc5f00189df913,5d7f65da7fcc5f00189df913,29,frog,filler,B,75,frog65.jpg,frog85.jpg,GoalA,NULL
1687413059,a274f7df95c299983816ac3e2c01547f,PennController,33,0,experiment,NULL,Video,progression,buffer,0,1687412904197,5d7f65da7fcc5f00189df913,5d7f65da7fcc5f00189df913,29,frog,filler,B,75,frog65.jpg,frog85.jpg,GoalA,NULL
1687413059,a274f7df95c299983816ac3e2c01547f,PennController,33,0,experiment,NULL,Canvas,canvas6,Print,NA,1687412908427,5d7f65da7fcc5f00189df913,5d7f65da7fcc5f00189df913,29,frog,filler,B,75,frog65.jpg,frog85.jpg,GoalA,NULL
1687413059,a274f7df95c299983816ac3e2c01547f,PennController,33,0,experiment,NULL,Selector,choice,Selection,option1,1687412910085,5d7f65da7fcc5f00189df913,5d7f65da7fcc5f00189df913,29,frog,filler,B,75,frog65.jpg,frog85.jpg,GoalA,option2;option1
1687413059,a274f7df95c299983816ac3e2c01547f,PennController,33,0,experiment,NULL,PennController,31,_Trial_,End,1687412910086,5d7f65da7fcc5f00189df913,5d7f65da7fcc5f00189df913,29,frog,filler,B,75,frog65.jpg,frog85.jpg,GoalA,NULL
1687413059,a274f7df95c299983816ac3e2c01547f,PennController,31,0,experiment,NULL,PennController,29,_Trial_,Start,1687412910087,5d7f65da7fcc5f00189df913,5d7f65da7fcc5f00189df913,27,square,filler,B,25,square15.jpg,square35.jpg,GoalA,NULL
1687413059,a274f7df95c299983816ac3e2c01547f,PennController,31,0,experiment,NULL,PennController,29,_Header_,Start,1687412910087,5d7f65da7fcc5f00189df913,5d7f65da7fcc5f00189df913,27,square,filler,B,25,square15.jpg,square35.jpg,GoalA,NULL
1687413059,a274f7df95c299983816ac3e2c01547f,PennController,31,0,experiment,NULL,PennController,29,_Header_,End,1687412910087,5d7f65da7fcc5f00189df913,5d7f65da7fcc5f00189df913,27,square,filler,B,25,square15.jpg,square35.jpg,GoalA,NULL
1687413059,a274f7df95c299983816ac3e2c01547f,PennController,31,0,experiment,NULL,Video,progression,buffer,0,1687412913631,5d7f65da7fcc5f00189df913,5d7f65da7fcc5f00189df913,27,square,filler,B,25,square15.jpg,square35.jpg,GoalA,NULL
1687413059,a274f7df95c299983816ac3e2c01547f,PennController,31,0,experiment,NULL,Canvas,canvas6,Print,NA,1687412915862,5d7f65da7fcc5f00189df913,5d7f65da7fcc5f00189df913,27,square,filler,B,25,square15.jpg,square35.jpg,GoalA,NULL
1687413059,a274f7df95c299983816ac3e2c01547f,PennController,31,0,experiment,NULL,Selector,choice,Selection,option2,1687412919437,5d7f65da7fcc5f00189df913,5d7f65da7fcc5f00189df913,27,square,filler,B,25,square15.jpg,square35.jpg,GoalA,option1;option2
1687413059,a274f7df95c299983816ac3e2c01547f,PennController,31,0,experiment,NULL,PennController,29,_Trial_,End,1687412919438,5d7f65da7fcc5f00189df913,5d7f65da7fcc5f00189df913,27,square,filler,B,25,square15.jpg,square35.jpg,GoalA,NULL
1687413059,a274f7df95c299983816ac3e2c01547f,PennController,28,0,experiment,NULL,PennController,26,_Trial_,Start,1687412919439,5d7f65da7fcc5f00189df913,5d7f65da7fcc5f00189df913,24,match,filler,B,25,match15.jpg,match35.jpg,GoalB,NULL
1687413059,a274f7df95c299983816ac3e2c01547f,PennController,28,0,experiment,NULL,PennController,26,_Header_,Start,1687412919439,5d7f65da7fcc5f00189df913,5d7f65da7fcc5f00189df913,24,match,filler,B,25,match15.jpg,match35.jpg,GoalB,NULL
1687413059,a274f7df95c299983816ac3e2c01547f,PennController,28,0,experiment,NULL,PennController,26,_Header_,End,1687412919439,5d7f65da7fcc5f00189df913,5d7f65da7fcc5f00189df913,24,match,filler,B,25,match15.jpg,match35.jpg,GoalB,NULL
1687413059,a274f7df95c299983816ac3e2c01547f,PennController,28,0,experiment,NULL,Video,progression,buffer,0,1687412922970,5d7f65da7fcc5f00189df913,5d7f65da7fcc5f00189df913,24,match,filler,B,25,match15.jpg,match35.jpg,GoalB,NULL
1687413059,a274f7df95c299983816ac3e2c01547f,PennController,28,0,experiment,NULL,Canvas,canvas6,Print,NA,1687412925213,5d7f65da7fcc5f00189df913,5d7f65da7fcc5f00189df913,24,match,filler,B,25,match15.jpg,match35.jpg,GoalB,NULL
1687413059,a274f7df95c299983816ac3e2c01547f,PennController,28,0,experiment,NULL,Selector,choice,Selection,option1,1687412927077,5d7f65da7fcc5f00189df913,5d7f65da7fcc5f00189df913,24,match,filler,B,25,match15.jpg,match35.jpg,GoalB,option2;option1
1687413059,a274f7df95c299983816ac3e2c01547f,PennController,28,0,experiment,NULL,PennController,26,_Trial_,End,1687412927077,5d7f65da7fcc5f00189df913,5d7f65da7fcc5f00189df913,24,match,filler,B,25,match15.jpg,match35.jpg,GoalB,NULL
1687413059,a274f7df95c299983816ac3e2c01547f,PennController,18,0,experiment,NULL,PennController,16,_Trial_,Start,1687412927078,5d7f65da7fcc5f00189df913,5d7f65da7fcc5f00189df913,14,cover,critical,B,75,cover66.jpg,cover84.jpg,low,NULL
1687413059,a274f7df95c299983816ac3e2c01547f,PennController,18,0,experiment,NULL,PennController,16,_Header_,Start,1687412927078,5d7f65da7fcc5f00189df913,5d7f65da7fcc5f00189df913,14,cover,critical,B,75,cover66.jpg,cover84.jpg,low,NULL
1687413059,a274f7df95c299983816ac3e2c01547f,PennController,18,0,experiment,NULL,PennController,16,_Header_,End,1687412927078,5d7f65da7fcc5f00189df913,5d7f65da7fcc5f00189df913,14,cover,critical,B,75,cover66.jpg,cover84.jpg,low,NULL
1687413059,a274f7df95c299983816ac3e2c01547f,PennController,18,0,experiment,NULL,Video,progression,buffer,0,1687412930633,5d7f65da7fcc5f00189df913,5d7f65da7fcc5f00189df913,14,cover,critical,B,75,cover66.jpg,cover84.jpg,low,NULL
1687413059,a274f7df95c299983816ac3e2c01547f,PennController,18,0,experiment,NULL,Canvas,canvas6,Print,NA,1687412936866,5d7f65da7fcc5f00189df913,5d7f65da7fcc5f00189df913,14,cover,critical,B,75,cover66.jpg,cover84.jpg,low,NULL
1687413059,a274f7df95c299983816ac3e2c01547f,PennController,18,0,experiment,NULL,Selector,choice,Selection,option2,1687412939981,5d7f65da7fcc5f00189df913,5d7f65da7fcc5f00189df913,14,cover,critical,B,75,cover66.jpg,cover84.jpg,low,option2;option1
1687413059,a274f7df95c299983816ac3e2c01547f,PennController,18,0,experiment,NULL,PennController,16,_Trial_,End,1687412939982,5d7f65da7fcc5f00189df913,5d7f65da7fcc5f00189df913,14,cover,critical,B,75,cover66.jpg,cover84.jpg,low,NULL
1687413059,a274f7df95c299983816ac3e2c01547f,PennController,8,0,experiment,NULL,PennController,6,_Trial_,Start,1687412939983,5d7f65da7fcc5f00189df913,5d7f65da7fcc5f00189df913,4,candy,critical,B,50,candy40.jpg,candy60.jpg,low,NULL
1687413059,a274f7df95c299983816ac3e2c01547f,PennController,8,0,experiment,NULL,PennController,6,_Header_,Start,1687412939983,5d7f65da7fcc5f00189df913,5d7f65da7fcc5f00189df913,4,candy,critical,B,50,candy40.jpg,candy60.jpg,low,NULL
1687413059,a274f7df95c299983816ac3e2c01547f,PennController,8,0,experiment,NULL,PennController,6,_Header_,End,1687412939983,5d7f65da7fcc5f00189df913,5d7f65da7fcc5f00189df913,4,candy,critical,B,50,candy40.jpg,candy60.jpg,low,NULL
1687413059,a274f7df95c299983816ac3e2c01547f,PennController,8,0,experiment,NULL,Video,progression,buffer,0,1687412943517,5d7f65da7fcc5f00189df913,5d7f65da7fcc5f00189df913,4,candy,critical,B,50,candy40.jpg,candy60.jpg,low,NULL
1687413059,a274f7df95c299983816ac3e2c01547f,PennController,8,0,experiment,NULL,Canvas,canvas6,Print,NA,1687412946761,5d7f65da7fcc5f00189df913,5d7f65da7fcc5f00189df913,4,candy,critical,B,50,candy40.jpg,candy60.jpg,low,NULL
1687413059,a274f7df95c299983816ac3e2c01547f,PennController,8,0,experiment,NULL,Selector,choice,Selection,option2,1687412948252,5d7f65da7fcc5f00189df913,5d7f65da7fcc5f00189df913,4,candy,critical,B,50,candy40.jpg,candy60.jpg,low,option1;option2
1687413059,a274f7df95c299983816ac3e2c01547f,PennController,8,0,experiment,NULL,PennController,6,_Trial_,End,1687412948253,5d7f65da7fcc5f00189df913,5d7f65da7fcc5f00189df913,4,candy,critical,B,50,candy40.jpg,candy60.jpg,low,NULL
1687413059,a274f7df95c299983816ac3e2c01547f,PennController,32,0,experiment,NULL,PennController,30,_Trial_,Start,1687412948256,5d7f65da7fcc5f00189df913,5d7f65da7fcc5f00189df913,28,sort,filler,B,50,sort40.jpg,sort60.jpg,GoalB,NULL
1687413059,a274f7df95c299983816ac3e2c01547f,PennController,32,0,experiment,NULL,PennController,30,_Header_,Start,1687412948256,5d7f65da7fcc5f00189df913,5d7f65da7fcc5f00189df913,28,sort,filler,B,50,sort40.jpg,sort60.jpg,GoalB,NULL
1687413059,a274f7df95c299983816ac3e2c01547f,PennController,32,0,experiment,NULL,PennController,30,_Header_,End,1687412948256,5d7f65da7fcc5f00189df913,5d7f65da7fcc5f00189df913,28,sort,filler,B,50,sort40.jpg,sort60.jpg,GoalB,NULL
1687413059,a274f7df95c299983816ac3e2c01547f,PennController,32,0,experiment,NULL,Video,progression,buffer,0,1687412951799,5d7f65da7fcc5f00189df913,5d7f65da7fcc5f00189df913,28,sort,filler,B,50,sort40.jpg,sort60.jpg,GoalB,NULL
1687413059,a274f7df95c299983816ac3e2c01547f,PennController,32,0,experiment,NULL,Canvas,canvas6,Print,NA,1687412955038,5d7f65da7fcc5f00189df913,5d7f65da7fcc5f00189df913,28,sort,filler,B,50,sort40.jpg,sort60.jpg,GoalB,NULL
1687413059,a274f7df95c299983816ac3e2c01547f,PennController,32,0,experiment,NULL,Selector,choice,Selection,option2,1687412956380,5d7f65da7fcc5f00189df913,5d7f65da7fcc5f00189df913,28,sort,filler,B,50,sort40.jpg,sort60.jpg,GoalB,option2;option1
1687413059,a274f7df95c299983816ac3e2c01547f,PennController,32,0,experiment,NULL,PennController,30,_Trial_,End,1687412956381,5d7f65da7fcc5f00189df913,5d7f65da7fcc5f00189df913,28,sort,filler,B,50,sort40.jpg,sort60.jpg,GoalB,NULL
1687413059,a274f7df95c299983816ac3e2c01547f,PennController,27,0,experiment,NULL,PennController,25,_Trial_,Start,1687412956382,5d7f65da7fcc5f00189df913,5d7f65da7fcc5f00189df913,23,color,filler,B,75,color65.jpg,color85.jpg,GoalA,NULL
1687413059,a274f7df95c299983816ac3e2c01547f,PennController,27,0,experiment,NULL,PennController,25,_Header_,Start,1687412956382,5d7f65da7fcc5f00189df913,5d7f65da7fcc5f00189df913,23,color,filler,B,75,color65.jpg,color85.jpg,GoalA,NULL
1687413059,a274f7df95c299983816ac3e2c01547f,PennController,27,0,experiment,NULL,PennController,25,_Header_,End,1687412956382,5d7f65da7fcc5f00189df913,5d7f65da7fcc5f00189df913,23,color,filler,B,75,color65.jpg,color85.jpg,GoalA,NULL
1687413059,a274f7df95c299983816ac3e2c01547f,PennController,27,0,experiment,NULL,Video,progression,buffer,0,1687412959916,5d7f65da7fcc5f00189df913,5d7f65da7fcc5f00189df913,23,color,filler,B,75,color65.jpg,color85.jpg,GoalA,NULL
1687413059,a274f7df95c299983816ac3e2c01547f,PennController,27,0,experiment,NULL,Canvas,canvas6,Print,NA,1687412964154,5d7f65da7fcc5f00189df913,5d7f65da7fcc5f00189df913,23,color,filler,B,75,color65.jpg,color85.jpg,GoalA,NULL
1687413059,a274f7df95c299983816ac3e2c01547f,PennController,27,0,experiment,NULL,Selector,choice,Selection,option1,1687412969500,5d7f65da7fcc5f00189df913,5d7f65da7fcc5f00189df913,23,color,filler,B,75,color65.jpg,color85.jpg,GoalA,option1;option2
1687413059,a274f7df95c299983816ac3e2c01547f,PennController,27,0,experiment,NULL,PennController,25,_Trial_,End,1687412969501,5d7f65da7fcc5f00189df913,5d7f65da7fcc5f00189df913,23,color,filler,B,75,color65.jpg,color85.jpg,GoalA,NULL
1687413059,a274f7df95c299983816ac3e2c01547f,PennController,23,0,experiment,NULL,PennController,21,_Trial_,Start,1687412969502,5d7f65da7fcc5f00189df913,5d7f65da7fcc5f00189df913,19,cup,filler,B,50,cup40.jpg,cup60.jpg,GoalA,NULL
1687413059,a274f7df95c299983816ac3e2c01547f,PennController,23,0,experiment,NULL,PennController,21,_Header_,Start,1687412969502,5d7f65da7fcc5f00189df913,5d7f65da7fcc5f00189df913,19,cup,filler,B,50,cup40.jpg,cup60.jpg,GoalA,NULL
1687413059,a274f7df95c299983816ac3e2c01547f,PennController,23,0,experiment,NULL,PennController,21,_Header_,End,1687412969503,5d7f65da7fcc5f00189df913,5d7f65da7fcc5f00189df913,19,cup,filler,B,50,cup40.jpg,cup60.jpg,GoalA,NULL
1687413059,a274f7df95c299983816ac3e2c01547f,PennController,23,0,experiment,NULL,Video,progression,buffer,0,1687412973023,5d7f65da7fcc5f00189df913,5d7f65da7fcc5f00189df913,19,cup,filler,B,50,cup40.jpg,cup60.jpg,GoalA,NULL
1687413059,a274f7df95c299983816ac3e2c01547f,PennController,23,0,experiment,NULL,Canvas,canvas6,Print,NA,1687412976263,5d7f65da7fcc5f00189df913,5d7f65da7fcc5f00189df913,19,cup,filler,B,50,cup40.jpg,cup60.jpg,GoalA,NULL
1687413059,a274f7df95c299983816ac3e2c01547f,PennController,23,0,experiment,NULL,Selector,choice,Selection,option2,1687412977628,5d7f65da7fcc5f00189df913,5d7f65da7fcc5f00189df913,19,cup,filler,B,50,cup40.jpg,cup60.jpg,GoalA,option2;option1
1687413059,a274f7df95c299983816ac3e2c01547f,PennController,23,0,experiment,NULL,PennController,21,_Trial_,End,1687412977629,5d7f65da7fcc5f00189df913,5d7f65da7fcc5f00189df913,19,cup,filler,B,50,cup40.jpg,cup60.jpg,GoalA,NULL
1687413059,a274f7df95c299983816ac3e2c01547f,PennController,24,0,experiment,NULL,PennController,22,_Trial_,Start,1687412977630,5d7f65da7fcc5f00189df913,5d7f65da7fcc5f00189df913,20,cat,filler,B,75,cat65.jpg,cat85.jpg,GoalB,NULL
1687413059,a274f7df95c299983816ac3e2c01547f,PennController,24,0,experiment,NULL,PennController,22,_Header_,Start,1687412977630,5d7f65da7fcc5f00189df913,5d7f65da7fcc5f00189df913,20,cat,filler,B,75,cat65.jpg,cat85.jpg,GoalB,NULL
1687413059,a274f7df95c299983816ac3e2c01547f,PennController,24,0,experiment,NULL,PennController,22,_Header_,End,1687412977630,5d7f65da7fcc5f00189df913,5d7f65da7fcc5f00189df913,20,cat,filler,B,75,cat65.jpg,cat85.jpg,GoalB,NULL
1687413059,a274f7df95c299983816ac3e2c01547f,PennController,24,0,experiment,NULL,Video,progression,buffer,0,1687412981145,5d7f65da7fcc5f00189df913,5d7f65da7fcc5f00189df913,20,cat,filler,B,75,cat65.jpg,cat85.jpg,GoalB,NULL
1687413059,a274f7df95c299983816ac3e2c01547f,PennController,24,0,experiment,NULL,Canvas,canvas6,Print,NA,1687412985381,5d7f65da7fcc5f00189df913,5d7f65da7fcc5f00189df913,20,cat,filler,B,75,cat65.jpg,cat85.jpg,GoalB,NULL
1687413059,a274f7df95c299983816ac3e2c01547f,PennController,24,0,experiment,NULL,Selector,choice,Selection,option2,1687412986771,5d7f65da7fcc5f00189df913,5d7f65da7fcc5f00189df913,20,cat,filler,B,75,cat65.jpg,cat85.jpg,GoalB,option2;option1
1687413059,a274f7df95c299983816ac3e2c01547f,PennController,24,0,experiment,NULL,PennController,22,_Trial_,End,1687412986773,5d7f65da7fcc5f00189df913,5d7f65da7fcc5f00189df913,20,cat,filler,B,75,cat65.jpg,cat85.jpg,GoalB,NULL
1687413059,a274f7df95c299983816ac3e2c01547f,PennController,11,0,experiment,NULL,PennController,9,_Trial_,Start,1687412986773,5d7f65da7fcc5f00189df913,5d7f65da7fcc5f00189df913,7,stack,critical,B,50,stack40.jpg,stack60.jpg,low,NULL
1687413059,a274f7df95c299983816ac3e2c01547f,PennController,11,0,experiment,NULL,PennController,9,_Header_,Start,1687412986773,5d7f65da7fcc5f00189df913,5d7f65da7fcc5f00189df913,7,stack,critical,B,50,stack40.jpg,stack60.jpg,low,NULL
1687413059,a274f7df95c299983816ac3e2c01547f,PennController,11,0,experiment,NULL,PennController,9,_Header_,End,1687412986773,5d7f65da7fcc5f00189df913,5d7f65da7fcc5f00189df913,7,stack,critical,B,50,stack40.jpg,stack60.jpg,low,NULL
1687413059,a274f7df95c299983816ac3e2c01547f,PennController,11,0,experiment,NULL,Video,progression,buffer,0,1687412990316,5d7f65da7fcc5f00189df913,5d7f65da7fcc5f00189df913,7,stack,critical,B,50,stack40.jpg,stack60.jpg,low,NULL
1687413059,a274f7df95c299983816ac3e2c01547f,PennController,11,0,experiment,NULL,Canvas,canvas6,Print,NA,1687412993542,5d7f65da7fcc5f00189df913,5d7f65da7fcc5f00189df913,7,stack,critical,B,50,stack40.jpg,stack60.jpg,low,NULL
1687413059,a274f7df95c299983816ac3e2c01547f,PennController,11,0,experiment,NULL,Selector,choice,Selection,option1,1687412994635,5d7f65da7fcc5f00189df913,5d7f65da7fcc5f00189df913,7,stack,critical,B,50,stack40.jpg,stack60.jpg,low,option1;option2
1687413059,a274f7df95c299983816ac3e2c01547f,PennController,11,0,experiment,NULL,PennController,9,_Trial_,End,1687412994637,5d7f65da7fcc5f00189df913,5d7f65da7fcc5f00189df913,7,stack,critical,B,50,stack40.jpg,stack60.jpg,low,NULL
1687413059,a274f7df95c299983816ac3e2c01547f,PennController,12,0,experiment,NULL,PennController,10,_Trial_,Start,1687412994638,5d7f65da7fcc5f00189df913,5d7f65da7fcc5f00189df913,8,cucumber,critical,B,75,cucumber66.jpg,cucumber84.jpg,low,NULL
1687413059,a274f7df95c299983816ac3e2c01547f,PennController,12,0,experiment,NULL,PennController,10,_Header_,Start,1687412994638,5d7f65da7fcc5f00189df913,5d7f65da7fcc5f00189df913,8,cucumber,critical,B,75,cucumber66.jpg,cucumber84.jpg,low,NULL
1687413059,a274f7df95c299983816ac3e2c01547f,PennController,12,0,experiment,NULL,PennController,10,_Header_,End,1687412994638,5d7f65da7fcc5f00189df913,5d7f65da7fcc5f00189df913,8,cucumber,critical,B,75,cucumber66.jpg,cucumber84.jpg,low,NULL
1687413059,a274f7df95c299983816ac3e2c01547f,PennController,12,0,experiment,NULL,Video,progression,buffer,0,1687412998168,5d7f65da7fcc5f00189df913,5d7f65da7fcc5f00189df913,8,cucumber,critical,B,75,cucumber66.jpg,cucumber84.jpg,low,NULL
1687413059,a274f7df95c299983816ac3e2c01547f,PennController,12,0,experiment,NULL,Canvas,canvas6,Print,NA,1687413004421,5d7f65da7fcc5f00189df913,5d7f65da7fcc5f00189df913,8,cucumber,critical,B,75,cucumber66.jpg,cucumber84.jpg,low,NULL
1687413059,a274f7df95c299983816ac3e2c01547f,PennController,12,0,experiment,NULL,Selector,choice,Selection,option2,1687413006571,5d7f65da7fcc5f00189df913,5d7f65da7fcc5f00189df913,8,cucumber,critical,B,75,cucumber66.jpg,cucumber84.jpg,low,option2;option1
1687413059,a274f7df95c299983816ac3e2c01547f,PennController,12,0,experiment,NULL,PennController,10,_Trial_,End,1687413006572,5d7f65da7fcc5f00189df913,5d7f65da7fcc5f00189df913,8,cucumber,critical,B,75,cucumber66.jpg,cucumber84.jpg,low,NULL
1687413059,a274f7df95c299983816ac3e2c01547f,PennController,15,0,experiment,NULL,PennController,13,_Trial_,Start,1687413006573,5d7f65da7fcc5f00189df913,5d7f65da7fcc5f00189df913,11,beads,critical,B,75,beads65.jpg,beads85.jpg,low,NULL
1687413059,a274f7df95c299983816ac3e2c01547f,PennController,15,0,experiment,NULL,PennController,13,_Header_,Start,1687413006573,5d7f65da7fcc5f00189df913,5d7f65da7fcc5f00189df913,11,beads,critical,B,75,beads65.jpg,beads85.jpg,low,NULL
1687413059,a274f7df95c299983816ac3e2c01547f,PennController,15,0,experiment,NULL,PennController,13,_Header_,End,1687413006573,5d7f65da7fcc5f00189df913,5d7f65da7fcc5f00189df913,11,beads,critical,B,75,beads65.jpg,beads85.jpg,low,NULL
1687413059,a274f7df95c299983816ac3e2c01547f,PennController,15,0,experiment,NULL,Video,progression,buffer,0,1687413010101,5d7f65da7fcc5f00189df913,5d7f65da7fcc5f00189df913,11,beads,critical,B,75,beads65.jpg,beads85.jpg,low,NULL
1687413059,a274f7df95c299983816ac3e2c01547f,PennController,15,0,experiment,NULL,Canvas,canvas6,Print,NA,1687413014343,5d7f65da7fcc5f00189df913,5d7f65da7fcc5f00189df913,11,beads,critical,B,75,beads65.jpg,beads85.jpg,low,NULL
1687413059,a274f7df95c299983816ac3e2c01547f,PennController,15,0,experiment,NULL,Selector,choice,Selection,option2,1687413016075,5d7f65da7fcc5f00189df913,5d7f65da7fcc5f00189df913,11,beads,critical,B,75,beads65.jpg,beads85.jpg,low,option2;option1
1687413059,a274f7df95c299983816ac3e2c01547f,PennController,15,0,experiment,NULL,PennController,13,_Trial_,End,1687413016076,5d7f65da7fcc5f00189df913,5d7f65da7fcc5f00189df913,11,beads,critical,B,75,beads65.jpg,beads85.jpg,low,NULL
1687413059,a274f7df95c299983816ac3e2c01547f,PennController,20,0,experiment,NULL,PennController,18,_Trial_,Start,1687413016077,5d7f65da7fcc5f00189df913,5d7f65da7fcc5f00189df913,16,blinds,critical,B,50,blinds42.jpg,blinds60.jpg,low,NULL
1687413059,a274f7df95c299983816ac3e2c01547f,PennController,20,0,experiment,NULL,PennController,18,_Header_,Start,1687413016077,5d7f65da7fcc5f00189df913,5d7f65da7fcc5f00189df913,16,blinds,critical,B,50,blinds42.jpg,blinds60.jpg,low,NULL
1687413059,a274f7df95c299983816ac3e2c01547f,PennController,20,0,experiment,NULL,PennController,18,_Header_,End,1687413016077,5d7f65da7fcc5f00189df913,5d7f65da7fcc5f00189df913,16,blinds,critical,B,50,blinds42.jpg,blinds60.jpg,low,NULL
1687413059,a274f7df95c299983816ac3e2c01547f,PennController,20,0,experiment,NULL,Video,progression,buffer,0,1687413019604,5d7f65da7fcc5f00189df913,5d7f65da7fcc5f00189df913,16,blinds,critical,B,50,blinds42.jpg,blinds60.jpg,low,NULL
1687413059,a274f7df95c299983816ac3e2c01547f,PennController,20,0,experiment,NULL,Canvas,canvas6,Print,NA,1687413024238,5d7f65da7fcc5f00189df913,5d7f65da7fcc5f00189df913,16,blinds,critical,B,50,blinds42.jpg,blinds60.jpg,low,NULL
1687413059,a274f7df95c299983816ac3e2c01547f,PennController,20,0,experiment,NULL,Selector,choice,Selection,option2,1687413025579,5d7f65da7fcc5f00189df913,5d7f65da7fcc5f00189df913,16,blinds,critical,B,50,blinds42.jpg,blinds60.jpg,low,option2;option1
1687413059,a274f7df95c299983816ac3e2c01547f,PennController,20,0,experiment,NULL,PennController,18,_Trial_,End,1687413025580,5d7f65da7fcc5f00189df913,5d7f65da7fcc5f00189df913,16,blinds,critical,B,50,blinds42.jpg,blinds60.jpg,low,NULL
1687413059,a274f7df95c299983816ac3e2c01547f,PennController,25,0,experiment,NULL,PennController,23,_Trial_,Start,1687413025581,5d7f65da7fcc5f00189df913,5d7f65da7fcc5f00189df913,21,visit,filler,B,25,visit15.jpg,visit35.jpg,GoalA,NULL
1687413059,a274f7df95c299983816ac3e2c01547f,PennController,25,0,experiment,NULL,PennController,23,_Header_,Start,1687413025581,5d7f65da7fcc5f00189df913,5d7f65da7fcc5f00189df913,21,visit,filler,B,25,visit15.jpg,visit35.jpg,GoalA,NULL
1687413059,a274f7df95c299983816ac3e2c01547f,PennController,25,0,experiment,NULL,PennController,23,_Header_,End,1687413025581,5d7f65da7fcc5f00189df913,5d7f65da7fcc5f00189df913,21,visit,filler,B,25,visit15.jpg,visit35.jpg,GoalA,NULL
1687413059,a274f7df95c299983816ac3e2c01547f,PennController,25,0,experiment,NULL,Video,progression,buffer,0,1687413029123,5d7f65da7fcc5f00189df913,5d7f65da7fcc5f00189df913,21,visit,filler,B,25,visit15.jpg,visit35.jpg,GoalA,NULL
1687413059,a274f7df95c299983816ac3e2c01547f,PennController,25,0,experiment,NULL,Canvas,canvas6,Print,NA,1687413031358,5d7f65da7fcc5f00189df913,5d7f65da7fcc5f00189df913,21,visit,filler,B,25,visit15.jpg,visit35.jpg,GoalA,NULL
1687413059,a274f7df95c299983816ac3e2c01547f,PennController,25,0,experiment,NULL,Selector,choice,Selection,option2,1687413032483,5d7f65da7fcc5f00189df913,5d7f65da7fcc5f00189df913,21,visit,filler,B,25,visit15.jpg,visit35.jpg,GoalA,option2;option1
1687413059,a274f7df95c299983816ac3e2c01547f,PennController,25,0,experiment,NULL,PennController,23,_Trial_,End,1687413032484,5d7f65da7fcc5f00189df913,5d7f65da7fcc5f00189df913,21,visit,filler,B,25,visit15.jpg,visit35.jpg,GoalA,NULL
1687413059,a274f7df95c299983816ac3e2c01547f,PennController,19,0,experiment,NULL,PennController,17,_Trial_,Start,1687413032485,5d7f65da7fcc5f00189df913,5d7f65da7fcc5f00189df913,15,zip,critical,B,25,zip15.jpg,zip35.jpg,low,NULL
1687413059,a274f7df95c299983816ac3e2c01547f,PennController,19,0,experiment,NULL,PennController,17,_Header_,Start,1687413032485,5d7f65da7fcc5f00189df913,5d7f65da7fcc5f00189df913,15,zip,critical,B,25,zip15.jpg,zip35.jpg,low,NULL
1687413059,a274f7df95c299983816ac3e2c01547f,PennController,19,0,experiment,NULL,PennController,17,_Header_,End,1687413032485,5d7f65da7fcc5f00189df913,5d7f65da7fcc5f00189df913,15,zip,critical,B,25,zip15.jpg,zip35.jpg,low,NULL
1687413059,a274f7df95c299983816ac3e2c01547f,PennController,19,0,experiment,NULL,Video,progression,buffer,0,1687413036014,5d7f65da7fcc5f00189df913,5d7f65da7fcc5f00189df913,15,zip,critical,B,25,zip15.jpg,zip35.jpg,low,NULL
1687413059,a274f7df95c299983816ac3e2c01547f,PennController,19,0,experiment,NULL,Canvas,canvas6,Print,NA,1687413038244,5d7f65da7fcc5f00189df913,5d7f65da7fcc5f00189df913,15,zip,critical,B,25,zip15.jpg,zip35.jpg,low,NULL
1687413059,a274f7df95c299983816ac3e2c01547f,PennController,19,0,experiment,NULL,Selector,choice,Selection,option1,1687413039619,5d7f65da7fcc5f00189df913,5d7f65da7fcc5f00189df913,15,zip,critical,B,25,zip15.jpg,zip35.jpg,low,option2;option1
1687413059,a274f7df95c299983816ac3e2c01547f,PennController,19,0,experiment,NULL,PennController,17,_Trial_,End,1687413039620,5d7f65da7fcc5f00189df913,5d7f65da7fcc5f00189df913,15,zip,critical,B,25,zip15.jpg,zip35.jpg,low,NULL
1687413059,a274f7df95c299983816ac3e2c01547f,PennController,29,0,experiment,NULL,PennController,27,_Trial_,Start,1687413039621,5d7f65da7fcc5f00189df913,5d7f65da7fcc5f00189df913,25,house,filler,B,50,house40.jpg,house60.jpg,GoalA,NULL
1687413059,a274f7df95c299983816ac3e2c01547f,PennController,29,0,experiment,NULL,PennController,27,_Header_,Start,1687413039621,5d7f65da7fcc5f00189df913,5d7f65da7fcc5f00189df913,25,house,filler,B,50,house40.jpg,house60.jpg,GoalA,NULL
1687413059,a274f7df95c299983816ac3e2c01547f,PennController,29,0,experiment,NULL,PennController,27,_Header_,End,1687413039621,5d7f65da7fcc5f00189df913,5d7f65da7fcc5f00189df913,25,house,filler,B,50,house40.jpg,house60.jpg,GoalA,NULL
1687413059,a274f7df95c299983816ac3e2c01547f,PennController,29,0,experiment,NULL,Video,progression,buffer,0,1687413043158,5d7f65da7fcc5f00189df913,5d7f65da7fcc5f00189df913,25,house,filler,B,50,house40.jpg,house60.jpg,GoalA,NULL
1687413059,a274f7df95c299983816ac3e2c01547f,PennController,29,0,experiment,NULL,Canvas,canvas6,Print,NA,1687413046400,5d7f65da7fcc5f00189df913,5d7f65da7fcc5f00189df913,25,house,filler,B,50,house40.jpg,house60.jpg,GoalA,NULL
1687413059,a274f7df95c299983816ac3e2c01547f,PennController,29,0,experiment,NULL,Selector,choice,Selection,option2,1687413051060,5d7f65da7fcc5f00189df913,5d7f65da7fcc5f00189df913,25,house,filler,B,50,house40.jpg,house60.jpg,GoalA,option2;option1
1687413059,a274f7df95c299983816ac3e2c01547f,PennController,29,0,experiment,NULL,PennController,27,_Trial_,End,1687413051061,5d7f65da7fcc5f00189df913,5d7f65da7fcc5f00189df913,25,house,filler,B,50,house40.jpg,house60.jpg,GoalA,NULL
1687413059,a274f7df95c299983816ac3e2c01547f,PennController,5,0,experiment,NULL,PennController,3,_Trial_,Start,1687413051061,5d7f65da7fcc5f00189df913,5d7f65da7fcc5f00189df913,1,vase,critical,B,50,vase40.jpg,vase60.jpg,low,NULL
1687413059,a274f7df95c299983816ac3e2c01547f,PennController,5,0,experiment,NULL,PennController,3,_Header_,Start,1687413051061,5d7f65da7fcc5f00189df913,5d7f65da7fcc5f00189df913,1,vase,critical,B,50,vase40.jpg,vase60.jpg,low,NULL
1687413059,a274f7df95c299983816ac3e2c01547f,PennController,5,0,experiment,NULL,PennController,3,_Header_,End,1687413051061,5d7f65da7fcc5f00189df913,5d7f65da7fcc5f00189df913,1,vase,critical,B,50,vase40.jpg,vase60.jpg,low,NULL
1687413059,a274f7df95c299983816ac3e2c01547f,PennController,5,0,experiment,NULL,Video,progression,buffer,0,1687413054582,5d7f65da7fcc5f00189df913,5d7f65da7fcc5f00189df913,1,vase,critical,B,50,vase40.jpg,vase60.jpg,low,NULL
1687413059,a274f7df95c299983816ac3e2c01547f,PennController,5,0,experiment,NULL,Canvas,canvas6,Print,NA,1687413057819,5d7f65da7fcc5f00189df913,5d7f65da7fcc5f00189df913,1,vase,critical,B,50,vase40.jpg,vase60.jpg,low,NULL
1687413059,a274f7df95c299983816ac3e2c01547f,PennController,5,0,experiment,NULL,Selector,choice,Selection,option2,1687413059203,5d7f65da7fcc5f00189df913,5d7f65da7fcc5f00189df913,1,vase,critical,B,50,vase40.jpg,vase60.jpg,low,option1;option2
1687413059,a274f7df95c299983816ac3e2c01547f,PennController,5,0,experiment,NULL,PennController,3,_Trial_,End,1687413059204,5d7f65da7fcc5f00189df913,5d7f65da7fcc5f00189df913,1,vase,critical,B,50,vase40.jpg,vase60.jpg,low,NULL
