#
# Results on Tuesday June 20 2023 18:54:35 UTC
# USER AGENT: Mozilla/5.0 (Windows NT 10.0; Win64; x64; rv:109.0) Gecko/20100101 Firefox/114.0
# Design number was non-random = 3
#
# Columns below this comment are as follows:
# 1. Results reception time.
# 2. MD5 hash of participant's IP address.
# 3. Controller name.
# 4. Order number of item.
# 5. Inner element number.
# 6. Label.
# 7. Latin Square Group.
# 8. PennElementType.
# 9. PennElementName.
# 10. Parameter.
# 11. Value.
# 12. EventTime.
# 13. PROLIFIC_ID.
# 14. Comments.
1687287275,0e4566e19ae13fda75a6741d48742ff6,PennController,2,0,consent,NULL,PennController,0,_Trial_,Start,1687286973072,60b2f2171cddbd5fdace9ce7,NULL
1687287275,0e4566e19ae13fda75a6741d48742ff6,PennController,2,0,consent,NULL,PennController,0,_Header_,Start,1687286973072,60b2f2171cddbd5fdace9ce7,NULL
1687287275,0e4566e19ae13fda75a6741d48742ff6,PennController,2,0,consent,NULL,PennController,0,_Header_,End,1687286973073,60b2f2171cddbd5fdace9ce7,NULL
1687287275,0e4566e19ae13fda75a6741d48742ff6,PennController,2,0,consent,NULL,PennController,0,_Trial_,End,1687286987647,60b2f2171cddbd5fdace9ce7,NULL
# Columns below this comment are as follows:
# 14. ID.
# 15. Comments.
1687287275,0e4566e19ae13fda75a6741d48742ff6,PennController,3,0,intro,NULL,PennController,1,_Trial_,Start,1687286987654,60b2f2171cddbd5fdace9ce7,60b2f2171cddbd5fdace9ce7,NULL
1687287275,0e4566e19ae13fda75a6741d48742ff6,PennController,3,0,intro,NULL,PennController,1,_Header_,Start,1687286987654,60b2f2171cddbd5fdace9ce7,60b2f2171cddbd5fdace9ce7,NULL
1687287275,0e4566e19ae13fda75a6741d48742ff6,PennController,3,0,intro,NULL,PennController,1,_Header_,End,1687286987655,60b2f2171cddbd5fdace9ce7,60b2f2171cddbd5fdace9ce7,NULL
1687287275,0e4566e19ae13fda75a6741d48742ff6,PennController,3,0,intro,NULL,PennController,1,_Trial_,End,1687286998923,60b2f2171cddbd5fdace9ce7,60b2f2171cddbd5fdace9ce7,NULL
# Columns below this comment are as follows:
# 15. item_number.
# 16. item.
# 17. type.
# 18. Group.
# 19. prog.
# 20. prev_image.
# 21. next_image.
# 22. height.
# 23. Comments.
1687287275,0e4566e19ae13fda75a6741d48742ff6,PennController,32,0,experiment,NULL,PennController,31,_Trial_,Start,1687286998929,60b2f2171cddbd5fdace9ce7,60b2f2171cddbd5fdace9ce7,29,frog,filler,D,50,frog40.jpg,frog60.jpg,GoalB,NULL
1687287275,0e4566e19ae13fda75a6741d48742ff6,PennController,32,0,experiment,NULL,PennController,31,_Header_,Start,1687286998929,60b2f2171cddbd5fdace9ce7,60b2f2171cddbd5fdace9ce7,29,frog,filler,D,50,frog40.jpg,frog60.jpg,GoalB,NULL
1687287275,0e4566e19ae13fda75a6741d48742ff6,PennController,32,0,experiment,NULL,PennController,31,_Header_,End,1687286998929,60b2f2171cddbd5fdace9ce7,60b2f2171cddbd5fdace9ce7,29,frog,filler,D,50,frog40.jpg,frog60.jpg,GoalB,NULL
1687287275,0e4566e19ae13fda75a6741d48742ff6,PennController,32,0,experiment,NULL,Video,progression,buffer,0,1687287002513,60b2f2171cddbd5fdace9ce7,60b2f2171cddbd5fdace9ce7,29,frog,filler,D,50,frog40.jpg,frog60.jpg,GoalB,NULL
1687287275,0e4566e19ae13fda75a6741d48742ff6,PennController,32,0,experiment,NULL,Canvas,canvas6,Print,NA,1687287005768,60b2f2171cddbd5fdace9ce7,60b2f2171cddbd5fdace9ce7,29,frog,filler,D,50,frog40.jpg,frog60.jpg,GoalB,NULL
1687287275,0e4566e19ae13fda75a6741d48742ff6,PennController,32,0,experiment,NULL,Selector,choice,Selection,option1,1687287007874,60b2f2171cddbd5fdace9ce7,60b2f2171cddbd5fdace9ce7,29,frog,filler,D,50,frog40.jpg,frog60.jpg,GoalB,option2;option1
1687287275,0e4566e19ae13fda75a6741d48742ff6,PennController,32,0,experiment,NULL,PennController,31,_Trial_,End,1687287007879,60b2f2171cddbd5fdace9ce7,60b2f2171cddbd5fdace9ce7,29,frog,filler,D,50,frog40.jpg,frog60.jpg,GoalB,NULL
1687287275,0e4566e19ae13fda75a6741d48742ff6,PennController,17,0,experiment,NULL,PennController,16,_Trial_,Start,1687287007883,60b2f2171cddbd5fdace9ce7,60b2f2171cddbd5fdace9ce7,14,cover,critical,D,50,cover42.jpg,cover60.jpg,high,NULL
1687287275,0e4566e19ae13fda75a6741d48742ff6,PennController,17,0,experiment,NULL,PennController,16,_Header_,Start,1687287007883,60b2f2171cddbd5fdace9ce7,60b2f2171cddbd5fdace9ce7,14,cover,critical,D,50,cover42.jpg,cover60.jpg,high,NULL
1687287275,0e4566e19ae13fda75a6741d48742ff6,PennController,17,0,experiment,NULL,PennController,16,_Header_,End,1687287007883,60b2f2171cddbd5fdace9ce7,60b2f2171cddbd5fdace9ce7,14,cover,critical,D,50,cover42.jpg,cover60.jpg,high,NULL
1687287275,0e4566e19ae13fda75a6741d48742ff6,PennController,17,0,experiment,NULL,Video,progression,buffer,0,1687287011441,60b2f2171cddbd5fdace9ce7,60b2f2171cddbd5fdace9ce7,14,cover,critical,D,50,cover42.jpg,cover60.jpg,high,NULL
1687287275,0e4566e19ae13fda75a6741d48742ff6,PennController,17,0,experiment,NULL,Canvas,canvas6,Print,NA,1687287016095,60b2f2171cddbd5fdace9ce7,60b2f2171cddbd5fdace9ce7,14,cover,critical,D,50,cover42.jpg,cover60.jpg,high,NULL
1687287275,0e4566e19ae13fda75a6741d48742ff6,PennController,17,0,experiment,NULL,Selector,choice,Selection,option1,1687287017340,60b2f2171cddbd5fdace9ce7,60b2f2171cddbd5fdace9ce7,14,cover,critical,D,50,cover42.jpg,cover60.jpg,high,option2;option1
1687287275,0e4566e19ae13fda75a6741d48742ff6,PennController,17,0,experiment,NULL,PennController,16,_Trial_,End,1687287017343,60b2f2171cddbd5fdace9ce7,60b2f2171cddbd5fdace9ce7,14,cover,critical,D,50,cover42.jpg,cover60.jpg,high,NULL
1687287275,0e4566e19ae13fda75a6741d48742ff6,PennController,10,0,experiment,NULL,PennController,9,_Trial_,Start,1687287017345,60b2f2171cddbd5fdace9ce7,60b2f2171cddbd5fdace9ce7,7,stack,critical,D,25,stack15.jpg,stack35.jpg,high,NULL
1687287275,0e4566e19ae13fda75a6741d48742ff6,PennController,10,0,experiment,NULL,PennController,9,_Header_,Start,1687287017345,60b2f2171cddbd5fdace9ce7,60b2f2171cddbd5fdace9ce7,7,stack,critical,D,25,stack15.jpg,stack35.jpg,high,NULL
1687287275,0e4566e19ae13fda75a6741d48742ff6,PennController,10,0,experiment,NULL,PennController,9,_Header_,End,1687287017345,60b2f2171cddbd5fdace9ce7,60b2f2171cddbd5fdace9ce7,7,stack,critical,D,25,stack15.jpg,stack35.jpg,high,NULL
1687287275,0e4566e19ae13fda75a6741d48742ff6,PennController,10,0,experiment,NULL,Video,progression,buffer,0,1687287020895,60b2f2171cddbd5fdace9ce7,60b2f2171cddbd5fdace9ce7,7,stack,critical,D,25,stack15.jpg,stack35.jpg,high,NULL
1687287275,0e4566e19ae13fda75a6741d48742ff6,PennController,10,0,experiment,NULL,Canvas,canvas6,Print,NA,1687287023161,60b2f2171cddbd5fdace9ce7,60b2f2171cddbd5fdace9ce7,7,stack,critical,D,25,stack15.jpg,stack35.jpg,high,NULL
1687287275,0e4566e19ae13fda75a6741d48742ff6,PennController,10,0,experiment,NULL,Selector,choice,Selection,option1,1687287024786,60b2f2171cddbd5fdace9ce7,60b2f2171cddbd5fdace9ce7,7,stack,critical,D,25,stack15.jpg,stack35.jpg,high,option2;option1
1687287275,0e4566e19ae13fda75a6741d48742ff6,PennController,10,0,experiment,NULL,PennController,9,_Trial_,End,1687287024789,60b2f2171cddbd5fdace9ce7,60b2f2171cddbd5fdace9ce7,7,stack,critical,D,25,stack15.jpg,stack35.jpg,high,NULL
1687287275,0e4566e19ae13fda75a6741d48742ff6,PennController,13,0,experiment,NULL,PennController,12,_Trial_,Start,1687287024791,60b2f2171cddbd5fdace9ce7,60b2f2171cddbd5fdace9ce7,10,train,critical,D,25,train15.jpg,train35.jpg,high,NULL
1687287275,0e4566e19ae13fda75a6741d48742ff6,PennController,13,0,experiment,NULL,PennController,12,_Header_,Start,1687287024791,60b2f2171cddbd5fdace9ce7,60b2f2171cddbd5fdace9ce7,10,train,critical,D,25,train15.jpg,train35.jpg,high,NULL
1687287275,0e4566e19ae13fda75a6741d48742ff6,PennController,13,0,experiment,NULL,PennController,12,_Header_,End,1687287024791,60b2f2171cddbd5fdace9ce7,60b2f2171cddbd5fdace9ce7,10,train,critical,D,25,train15.jpg,train35.jpg,high,NULL
1687287275,0e4566e19ae13fda75a6741d48742ff6,PennController,13,0,experiment,NULL,Video,progression,buffer,0,1687287028345,60b2f2171cddbd5fdace9ce7,60b2f2171cddbd5fdace9ce7,10,train,critical,D,25,train15.jpg,train35.jpg,high,NULL
1687287275,0e4566e19ae13fda75a6741d48742ff6,PennController,13,0,experiment,NULL,Canvas,canvas6,Print,NA,1687287030585,60b2f2171cddbd5fdace9ce7,60b2f2171cddbd5fdace9ce7,10,train,critical,D,25,train15.jpg,train35.jpg,high,NULL
1687287275,0e4566e19ae13fda75a6741d48742ff6,PennController,13,0,experiment,NULL,Selector,choice,Selection,option1,1687287033308,60b2f2171cddbd5fdace9ce7,60b2f2171cddbd5fdace9ce7,10,train,critical,D,25,train15.jpg,train35.jpg,high,option2;option1
1687287275,0e4566e19ae13fda75a6741d48742ff6,PennController,13,0,experiment,NULL,PennController,12,_Trial_,End,1687287033310,60b2f2171cddbd5fdace9ce7,60b2f2171cddbd5fdace9ce7,10,train,critical,D,25,train15.jpg,train35.jpg,high,NULL
1687287275,0e4566e19ae13fda75a6741d48742ff6,PennController,4,0,experiment,NULL,PennController,3,_Trial_,Start,1687287033313,60b2f2171cddbd5fdace9ce7,60b2f2171cddbd5fdace9ce7,1,vase,critical,D,25,vase15.jpg,vase35.jpg,high,NULL
1687287275,0e4566e19ae13fda75a6741d48742ff6,PennController,4,0,experiment,NULL,PennController,3,_Header_,Start,1687287033313,60b2f2171cddbd5fdace9ce7,60b2f2171cddbd5fdace9ce7,1,vase,critical,D,25,vase15.jpg,vase35.jpg,high,NULL
1687287275,0e4566e19ae13fda75a6741d48742ff6,PennController,4,0,experiment,NULL,PennController,3,_Header_,End,1687287033313,60b2f2171cddbd5fdace9ce7,60b2f2171cddbd5fdace9ce7,1,vase,critical,D,25,vase15.jpg,vase35.jpg,high,NULL
1687287275,0e4566e19ae13fda75a6741d48742ff6,PennController,4,0,experiment,NULL,Video,progression,buffer,0,1687287036867,60b2f2171cddbd5fdace9ce7,60b2f2171cddbd5fdace9ce7,1,vase,critical,D,25,vase15.jpg,vase35.jpg,high,NULL
1687287275,0e4566e19ae13fda75a6741d48742ff6,PennController,4,0,experiment,NULL,Canvas,canvas6,Print,NA,1687287039125,60b2f2171cddbd5fdace9ce7,60b2f2171cddbd5fdace9ce7,1,vase,critical,D,25,vase15.jpg,vase35.jpg,high,NULL
1687287275,0e4566e19ae13fda75a6741d48742ff6,PennController,4,0,experiment,NULL,Selector,choice,Selection,option2,1687287041984,60b2f2171cddbd5fdace9ce7,60b2f2171cddbd5fdace9ce7,1,vase,critical,D,25,vase15.jpg,vase35.jpg,high,option2;option1
1687287275,0e4566e19ae13fda75a6741d48742ff6,PennController,4,0,experiment,NULL,PennController,3,_Trial_,End,1687287041988,60b2f2171cddbd5fdace9ce7,60b2f2171cddbd5fdace9ce7,1,vase,critical,D,25,vase15.jpg,vase35.jpg,high,NULL
1687287275,0e4566e19ae13fda75a6741d48742ff6,PennController,9,0,experiment,NULL,PennController,8,_Trial_,Start,1687287041990,60b2f2171cddbd5fdace9ce7,60b2f2171cddbd5fdace9ce7,6,flower,critical,D,75,flower65.jpg,flower85.jpg,high,NULL
1687287275,0e4566e19ae13fda75a6741d48742ff6,PennController,9,0,experiment,NULL,PennController,8,_Header_,Start,1687287041990,60b2f2171cddbd5fdace9ce7,60b2f2171cddbd5fdace9ce7,6,flower,critical,D,75,flower65.jpg,flower85.jpg,high,NULL
1687287275,0e4566e19ae13fda75a6741d48742ff6,PennController,9,0,experiment,NULL,PennController,8,_Header_,End,1687287041990,60b2f2171cddbd5fdace9ce7,60b2f2171cddbd5fdace9ce7,6,flower,critical,D,75,flower65.jpg,flower85.jpg,high,NULL
1687287275,0e4566e19ae13fda75a6741d48742ff6,PennController,9,0,experiment,NULL,Video,progression,buffer,0,1687287045551,60b2f2171cddbd5fdace9ce7,60b2f2171cddbd5fdace9ce7,6,flower,critical,D,75,flower65.jpg,flower85.jpg,high,NULL
1687287275,0e4566e19ae13fda75a6741d48742ff6,PennController,9,0,experiment,NULL,Canvas,canvas6,Print,NA,1687287049809,60b2f2171cddbd5fdace9ce7,60b2f2171cddbd5fdace9ce7,6,flower,critical,D,75,flower65.jpg,flower85.jpg,high,NULL
1687287275,0e4566e19ae13fda75a6741d48742ff6,PennController,9,0,experiment,NULL,Selector,choice,Selection,option1,1687287051712,60b2f2171cddbd5fdace9ce7,60b2f2171cddbd5fdace9ce7,6,flower,critical,D,75,flower65.jpg,flower85.jpg,high,option2;option1
1687287275,0e4566e19ae13fda75a6741d48742ff6,PennController,9,0,experiment,NULL,PennController,8,_Trial_,End,1687287051715,60b2f2171cddbd5fdace9ce7,60b2f2171cddbd5fdace9ce7,6,flower,critical,D,75,flower65.jpg,flower85.jpg,high,NULL
1687287275,0e4566e19ae13fda75a6741d48742ff6,PennController,11,0,experiment,NULL,PennController,10,_Trial_,Start,1687287051720,60b2f2171cddbd5fdace9ce7,60b2f2171cddbd5fdace9ce7,8,cucumber,critical,D,50,cucumber42.jpg,cucumber60.jpg,high,NULL
1687287275,0e4566e19ae13fda75a6741d48742ff6,PennController,11,0,experiment,NULL,PennController,10,_Header_,Start,1687287051720,60b2f2171cddbd5fdace9ce7,60b2f2171cddbd5fdace9ce7,8,cucumber,critical,D,50,cucumber42.jpg,cucumber60.jpg,high,NULL
1687287275,0e4566e19ae13fda75a6741d48742ff6,PennController,11,0,experiment,NULL,PennController,10,_Header_,End,1687287051720,60b2f2171cddbd5fdace9ce7,60b2f2171cddbd5fdace9ce7,8,cucumber,critical,D,50,cucumber42.jpg,cucumber60.jpg,high,NULL
1687287275,0e4566e19ae13fda75a6741d48742ff6,PennController,11,0,experiment,NULL,Video,progression,buffer,0,1687287055280,60b2f2171cddbd5fdace9ce7,60b2f2171cddbd5fdace9ce7,8,cucumber,critical,D,50,cucumber42.jpg,cucumber60.jpg,high,NULL
1687287275,0e4566e19ae13fda75a6741d48742ff6,PennController,11,0,experiment,NULL,Canvas,canvas6,Print,NA,1687287059923,60b2f2171cddbd5fdace9ce7,60b2f2171cddbd5fdace9ce7,8,cucumber,critical,D,50,cucumber42.jpg,cucumber60.jpg,high,NULL
1687287275,0e4566e19ae13fda75a6741d48742ff6,PennController,11,0,experiment,NULL,Selector,choice,Selection,option1,1687287061674,60b2f2171cddbd5fdace9ce7,60b2f2171cddbd5fdace9ce7,8,cucumber,critical,D,50,cucumber42.jpg,cucumber60.jpg,high,option2;option1
1687287275,0e4566e19ae13fda75a6741d48742ff6,PennController,11,0,experiment,NULL,PennController,10,_Trial_,End,1687287061677,60b2f2171cddbd5fdace9ce7,60b2f2171cddbd5fdace9ce7,8,cucumber,critical,D,50,cucumber42.jpg,cucumber60.jpg,high,NULL
1687287275,0e4566e19ae13fda75a6741d48742ff6,PennController,20,0,experiment,NULL,PennController,19,_Trial_,Start,1687287061681,60b2f2171cddbd5fdace9ce7,60b2f2171cddbd5fdace9ce7,17,roll,critical,D,50,roll40.jpg,roll60.jpg,high,NULL
1687287275,0e4566e19ae13fda75a6741d48742ff6,PennController,20,0,experiment,NULL,PennController,19,_Header_,Start,1687287061681,60b2f2171cddbd5fdace9ce7,60b2f2171cddbd5fdace9ce7,17,roll,critical,D,50,roll40.jpg,roll60.jpg,high,NULL
1687287275,0e4566e19ae13fda75a6741d48742ff6,PennController,20,0,experiment,NULL,PennController,19,_Header_,End,1687287061681,60b2f2171cddbd5fdace9ce7,60b2f2171cddbd5fdace9ce7,17,roll,critical,D,50,roll40.jpg,roll60.jpg,high,NULL
1687287275,0e4566e19ae13fda75a6741d48742ff6,PennController,20,0,experiment,NULL,Video,progression,buffer,0,1687287065251,60b2f2171cddbd5fdace9ce7,60b2f2171cddbd5fdace9ce7,17,roll,critical,D,50,roll40.jpg,roll60.jpg,high,NULL
1687287275,0e4566e19ae13fda75a6741d48742ff6,PennController,20,0,experiment,NULL,Canvas,canvas6,Print,NA,1687287068522,60b2f2171cddbd5fdace9ce7,60b2f2171cddbd5fdace9ce7,17,roll,critical,D,50,roll40.jpg,roll60.jpg,high,NULL
1687287275,0e4566e19ae13fda75a6741d48742ff6,PennController,20,0,experiment,NULL,Selector,choice,Selection,option1,1687287070488,60b2f2171cddbd5fdace9ce7,60b2f2171cddbd5fdace9ce7,17,roll,critical,D,50,roll40.jpg,roll60.jpg,high,option2;option1
1687287275,0e4566e19ae13fda75a6741d48742ff6,PennController,20,0,experiment,NULL,PennController,19,_Trial_,End,1687287070491,60b2f2171cddbd5fdace9ce7,60b2f2171cddbd5fdace9ce7,17,roll,critical,D,50,roll40.jpg,roll60.jpg,high,NULL
1687287275,0e4566e19ae13fda75a6741d48742ff6,PennController,31,0,experiment,NULL,PennController,30,_Trial_,Start,1687287070493,60b2f2171cddbd5fdace9ce7,60b2f2171cddbd5fdace9ce7,28,sort,filler,D,25,sort15.jpg,sort35.jpg,GoalA,NULL
1687287275,0e4566e19ae13fda75a6741d48742ff6,PennController,31,0,experiment,NULL,PennController,30,_Header_,Start,1687287070493,60b2f2171cddbd5fdace9ce7,60b2f2171cddbd5fdace9ce7,28,sort,filler,D,25,sort15.jpg,sort35.jpg,GoalA,NULL
1687287275,0e4566e19ae13fda75a6741d48742ff6,PennController,31,0,experiment,NULL,PennController,30,_Header_,End,1687287070493,60b2f2171cddbd5fdace9ce7,60b2f2171cddbd5fdace9ce7,28,sort,filler,D,25,sort15.jpg,sort35.jpg,GoalA,NULL
1687287275,0e4566e19ae13fda75a6741d48742ff6,PennController,31,0,experiment,NULL,Video,progression,buffer,0,1687287074043,60b2f2171cddbd5fdace9ce7,60b2f2171cddbd5fdace9ce7,28,sort,filler,D,25,sort15.jpg,sort35.jpg,GoalA,NULL
1687287275,0e4566e19ae13fda75a6741d48742ff6,PennController,31,0,experiment,NULL,Canvas,canvas6,Print,NA,1687287076298,60b2f2171cddbd5fdace9ce7,60b2f2171cddbd5fdace9ce7,28,sort,filler,D,25,sort15.jpg,sort35.jpg,GoalA,NULL
1687287275,0e4566e19ae13fda75a6741d48742ff6,PennController,31,0,experiment,NULL,Selector,choice,Selection,option1,1687287077919,60b2f2171cddbd5fdace9ce7,60b2f2171cddbd5fdace9ce7,28,sort,filler,D,25,sort15.jpg,sort35.jpg,GoalA,option2;option1
1687287275,0e4566e19ae13fda75a6741d48742ff6,PennController,31,0,experiment,NULL,PennController,30,_Trial_,End,1687287077923,60b2f2171cddbd5fdace9ce7,60b2f2171cddbd5fdace9ce7,28,sort,filler,D,25,sort15.jpg,sort35.jpg,GoalA,NULL
1687287275,0e4566e19ae13fda75a6741d48742ff6,PennController,28,0,experiment,NULL,PennController,27,_Trial_,Start,1687287077926,60b2f2171cddbd5fdace9ce7,60b2f2171cddbd5fdace9ce7,25,house,filler,D,25,house15.jpg,house35.jpg,GoalB,NULL
1687287275,0e4566e19ae13fda75a6741d48742ff6,PennController,28,0,experiment,NULL,PennController,27,_Header_,Start,1687287077926,60b2f2171cddbd5fdace9ce7,60b2f2171cddbd5fdace9ce7,25,house,filler,D,25,house15.jpg,house35.jpg,GoalB,NULL
1687287275,0e4566e19ae13fda75a6741d48742ff6,PennController,28,0,experiment,NULL,PennController,27,_Header_,End,1687287077926,60b2f2171cddbd5fdace9ce7,60b2f2171cddbd5fdace9ce7,25,house,filler,D,25,house15.jpg,house35.jpg,GoalB,NULL
1687287275,0e4566e19ae13fda75a6741d48742ff6,PennController,28,0,experiment,NULL,Video,progression,buffer,0,1687287081476,60b2f2171cddbd5fdace9ce7,60b2f2171cddbd5fdace9ce7,25,house,filler,D,25,house15.jpg,house35.jpg,GoalB,NULL
1687287275,0e4566e19ae13fda75a6741d48742ff6,PennController,28,0,experiment,NULL,Canvas,canvas6,Print,NA,1687287083725,60b2f2171cddbd5fdace9ce7,60b2f2171cddbd5fdace9ce7,25,house,filler,D,25,house15.jpg,house35.jpg,GoalB,NULL
1687287275,0e4566e19ae13fda75a6741d48742ff6,PennController,28,0,experiment,NULL,Selector,choice,Selection,option1,1687287084871,60b2f2171cddbd5fdace9ce7,60b2f2171cddbd5fdace9ce7,25,house,filler,D,25,house15.jpg,house35.jpg,GoalB,option1;option2
1687287275,0e4566e19ae13fda75a6741d48742ff6,PennController,28,0,experiment,NULL,PennController,27,_Trial_,End,1687287084875,60b2f2171cddbd5fdace9ce7,60b2f2171cddbd5fdace9ce7,25,house,filler,D,25,house15.jpg,house35.jpg,GoalB,NULL
1687287275,0e4566e19ae13fda75a6741d48742ff6,PennController,12,0,experiment,NULL,PennController,11,_Trial_,Start,1687287084877,60b2f2171cddbd5fdace9ce7,60b2f2171cddbd5fdace9ce7,9,cake,critical,D,75,cake66.jpg,cake84.jpg,high,NULL
1687287275,0e4566e19ae13fda75a6741d48742ff6,PennController,12,0,experiment,NULL,PennController,11,_Header_,Start,1687287084877,60b2f2171cddbd5fdace9ce7,60b2f2171cddbd5fdace9ce7,9,cake,critical,D,75,cake66.jpg,cake84.jpg,high,NULL
1687287275,0e4566e19ae13fda75a6741d48742ff6,PennController,12,0,experiment,NULL,PennController,11,_Header_,End,1687287084877,60b2f2171cddbd5fdace9ce7,60b2f2171cddbd5fdace9ce7,9,cake,critical,D,75,cake66.jpg,cake84.jpg,high,NULL
1687287275,0e4566e19ae13fda75a6741d48742ff6,PennController,12,0,experiment,NULL,Video,progression,buffer,0,1687287088421,60b2f2171cddbd5fdace9ce7,60b2f2171cddbd5fdace9ce7,9,cake,critical,D,75,cake66.jpg,cake84.jpg,high,NULL
1687287275,0e4566e19ae13fda75a6741d48742ff6,PennController,12,0,experiment,NULL,Canvas,canvas6,Print,NA,1687287094679,60b2f2171cddbd5fdace9ce7,60b2f2171cddbd5fdace9ce7,9,cake,critical,D,75,cake66.jpg,cake84.jpg,high,NULL
1687287275,0e4566e19ae13fda75a6741d48742ff6,PennController,12,0,experiment,NULL,Selector,choice,Selection,option2,1687287098928,60b2f2171cddbd5fdace9ce7,60b2f2171cddbd5fdace9ce7,9,cake,critical,D,75,cake66.jpg,cake84.jpg,high,option1;option2
1687287275,0e4566e19ae13fda75a6741d48742ff6,PennController,12,0,experiment,NULL,PennController,11,_Trial_,End,1687287098931,60b2f2171cddbd5fdace9ce7,60b2f2171cddbd5fdace9ce7,9,cake,critical,D,75,cake66.jpg,cake84.jpg,high,NULL
1687287275,0e4566e19ae13fda75a6741d48742ff6,PennController,16,0,experiment,NULL,PennController,15,_Trial_,Start,1687287098933,60b2f2171cddbd5fdace9ce7,60b2f2171cddbd5fdace9ce7,13,mix,critical,D,25,mix15.jpg,mix35.jpg,high,NULL
1687287275,0e4566e19ae13fda75a6741d48742ff6,PennController,16,0,experiment,NULL,PennController,15,_Header_,Start,1687287098933,60b2f2171cddbd5fdace9ce7,60b2f2171cddbd5fdace9ce7,13,mix,critical,D,25,mix15.jpg,mix35.jpg,high,NULL
1687287275,0e4566e19ae13fda75a6741d48742ff6,PennController,16,0,experiment,NULL,PennController,15,_Header_,End,1687287098933,60b2f2171cddbd5fdace9ce7,60b2f2171cddbd5fdace9ce7,13,mix,critical,D,25,mix15.jpg,mix35.jpg,high,NULL
1687287275,0e4566e19ae13fda75a6741d48742ff6,PennController,16,0,experiment,NULL,Video,progression,buffer,0,1687287102485,60b2f2171cddbd5fdace9ce7,60b2f2171cddbd5fdace9ce7,13,mix,critical,D,25,mix15.jpg,mix35.jpg,high,NULL
1687287275,0e4566e19ae13fda75a6741d48742ff6,PennController,16,0,experiment,NULL,Canvas,canvas6,Print,NA,1687287104741,60b2f2171cddbd5fdace9ce7,60b2f2171cddbd5fdace9ce7,13,mix,critical,D,25,mix15.jpg,mix35.jpg,high,NULL
1687287275,0e4566e19ae13fda75a6741d48742ff6,PennController,16,0,experiment,NULL,Selector,choice,Selection,option1,1687287106407,60b2f2171cddbd5fdace9ce7,60b2f2171cddbd5fdace9ce7,13,mix,critical,D,25,mix15.jpg,mix35.jpg,high,option2;option1
1687287275,0e4566e19ae13fda75a6741d48742ff6,PennController,16,0,experiment,NULL,PennController,15,_Trial_,End,1687287106409,60b2f2171cddbd5fdace9ce7,60b2f2171cddbd5fdace9ce7,13,mix,critical,D,25,mix15.jpg,mix35.jpg,high,NULL
1687287275,0e4566e19ae13fda75a6741d48742ff6,PennController,22,0,experiment,NULL,PennController,21,_Trial_,Start,1687287106411,60b2f2171cddbd5fdace9ce7,60b2f2171cddbd5fdace9ce7,19,cup,filler,D,25,cup15.jpg,cup35.jpg,GoalB,NULL
1687287275,0e4566e19ae13fda75a6741d48742ff6,PennController,22,0,experiment,NULL,PennController,21,_Header_,Start,1687287106411,60b2f2171cddbd5fdace9ce7,60b2f2171cddbd5fdace9ce7,19,cup,filler,D,25,cup15.jpg,cup35.jpg,GoalB,NULL
1687287275,0e4566e19ae13fda75a6741d48742ff6,PennController,22,0,experiment,NULL,PennController,21,_Header_,End,1687287106411,60b2f2171cddbd5fdace9ce7,60b2f2171cddbd5fdace9ce7,19,cup,filler,D,25,cup15.jpg,cup35.jpg,GoalB,NULL
1687287275,0e4566e19ae13fda75a6741d48742ff6,PennController,22,0,experiment,NULL,Video,progression,buffer,0,1687287109969,60b2f2171cddbd5fdace9ce7,60b2f2171cddbd5fdace9ce7,19,cup,filler,D,25,cup15.jpg,cup35.jpg,GoalB,NULL
1687287275,0e4566e19ae13fda75a6741d48742ff6,PennController,22,0,experiment,NULL,Canvas,canvas6,Print,NA,1687287112237,60b2f2171cddbd5fdace9ce7,60b2f2171cddbd5fdace9ce7,19,cup,filler,D,25,cup15.jpg,cup35.jpg,GoalB,NULL
1687287275,0e4566e19ae13fda75a6741d48742ff6,PennController,22,0,experiment,NULL,Selector,choice,Selection,option1,1687287115070,60b2f2171cddbd5fdace9ce7,60b2f2171cddbd5fdace9ce7,19,cup,filler,D,25,cup15.jpg,cup35.jpg,GoalB,option2;option1
1687287275,0e4566e19ae13fda75a6741d48742ff6,PennController,22,0,experiment,NULL,PennController,21,_Trial_,End,1687287115073,60b2f2171cddbd5fdace9ce7,60b2f2171cddbd5fdace9ce7,19,cup,filler,D,25,cup15.jpg,cup35.jpg,GoalB,NULL
1687287275,0e4566e19ae13fda75a6741d48742ff6,PennController,19,0,experiment,NULL,PennController,18,_Trial_,Start,1687287115076,60b2f2171cddbd5fdace9ce7,60b2f2171cddbd5fdace9ce7,16,blinds,critical,D,25,blinds15.jpg,blinds33.jpg,high,NULL
1687287275,0e4566e19ae13fda75a6741d48742ff6,PennController,19,0,experiment,NULL,PennController,18,_Header_,Start,1687287115076,60b2f2171cddbd5fdace9ce7,60b2f2171cddbd5fdace9ce7,16,blinds,critical,D,25,blinds15.jpg,blinds33.jpg,high,NULL
1687287275,0e4566e19ae13fda75a6741d48742ff6,PennController,19,0,experiment,NULL,PennController,18,_Header_,End,1687287115076,60b2f2171cddbd5fdace9ce7,60b2f2171cddbd5fdace9ce7,16,blinds,critical,D,25,blinds15.jpg,blinds33.jpg,high,NULL
1687287275,0e4566e19ae13fda75a6741d48742ff6,PennController,19,0,experiment,NULL,Video,progression,buffer,0,1687287118635,60b2f2171cddbd5fdace9ce7,60b2f2171cddbd5fdace9ce7,16,blinds,critical,D,25,blinds15.jpg,blinds33.jpg,high,NULL
1687287275,0e4566e19ae13fda75a6741d48742ff6,PennController,19,0,experiment,NULL,Canvas,canvas6,Print,NA,1687287121484,60b2f2171cddbd5fdace9ce7,60b2f2171cddbd5fdace9ce7,16,blinds,critical,D,25,blinds15.jpg,blinds33.jpg,high,NULL
1687287275,0e4566e19ae13fda75a6741d48742ff6,PennController,19,0,experiment,NULL,Selector,choice,Selection,option1,1687287123313,60b2f2171cddbd5fdace9ce7,60b2f2171cddbd5fdace9ce7,16,blinds,critical,D,25,blinds15.jpg,blinds33.jpg,high,option1;option2
1687287275,0e4566e19ae13fda75a6741d48742ff6,PennController,19,0,experiment,NULL,PennController,18,_Trial_,End,1687287123316,60b2f2171cddbd5fdace9ce7,60b2f2171cddbd5fdace9ce7,16,blinds,critical,D,25,blinds15.jpg,blinds33.jpg,high,NULL
1687287275,0e4566e19ae13fda75a6741d48742ff6,PennController,29,0,experiment,NULL,PennController,28,_Trial_,Start,1687287123319,60b2f2171cddbd5fdace9ce7,60b2f2171cddbd5fdace9ce7,26,sandwich,filler,D,50,sandwich40.jpg,sandwich60.jpg,GoalA,NULL
1687287275,0e4566e19ae13fda75a6741d48742ff6,PennController,29,0,experiment,NULL,PennController,28,_Header_,Start,1687287123319,60b2f2171cddbd5fdace9ce7,60b2f2171cddbd5fdace9ce7,26,sandwich,filler,D,50,sandwich40.jpg,sandwich60.jpg,GoalA,NULL
1687287275,0e4566e19ae13fda75a6741d48742ff6,PennController,29,0,experiment,NULL,PennController,28,_Header_,End,1687287123320,60b2f2171cddbd5fdace9ce7,60b2f2171cddbd5fdace9ce7,26,sandwich,filler,D,50,sandwich40.jpg,sandwich60.jpg,GoalA,NULL
1687287275,0e4566e19ae13fda75a6741d48742ff6,PennController,29,0,experiment,NULL,Video,progression,buffer,0,1687287126862,60b2f2171cddbd5fdace9ce7,60b2f2171cddbd5fdace9ce7,26,sandwich,filler,D,50,sandwich40.jpg,sandwich60.jpg,GoalA,NULL
1687287275,0e4566e19ae13fda75a6741d48742ff6,PennController,29,0,experiment,NULL,Canvas,canvas6,Print,NA,1687287130114,60b2f2171cddbd5fdace9ce7,60b2f2171cddbd5fdace9ce7,26,sandwich,filler,D,50,sandwich40.jpg,sandwich60.jpg,GoalA,NULL
1687287275,0e4566e19ae13fda75a6741d48742ff6,PennController,29,0,experiment,NULL,Selector,choice,Selection,option1,1687287131428,60b2f2171cddbd5fdace9ce7,60b2f2171cddbd5fdace9ce7,26,sandwich,filler,D,50,sandwich40.jpg,sandwich60.jpg,GoalA,option2;option1
1687287275,0e4566e19ae13fda75a6741d48742ff6,PennController,29,0,experiment,NULL,PennController,28,_Trial_,End,1687287131432,60b2f2171cddbd5fdace9ce7,60b2f2171cddbd5fdace9ce7,26,sandwich,filler,D,50,sandwich40.jpg,sandwich60.jpg,GoalA,NULL
1687287275,0e4566e19ae13fda75a6741d48742ff6,PennController,8,0,experiment,NULL,PennController,7,_Trial_,Start,1687287131436,60b2f2171cddbd5fdace9ce7,60b2f2171cddbd5fdace9ce7,5,book,critical,D,50,book40.jpg,book60.jpg,high,NULL
1687287275,0e4566e19ae13fda75a6741d48742ff6,PennController,8,0,experiment,NULL,PennController,7,_Header_,Start,1687287131436,60b2f2171cddbd5fdace9ce7,60b2f2171cddbd5fdace9ce7,5,book,critical,D,50,book40.jpg,book60.jpg,high,NULL
1687287275,0e4566e19ae13fda75a6741d48742ff6,PennController,8,0,experiment,NULL,PennController,7,_Header_,End,1687287131436,60b2f2171cddbd5fdace9ce7,60b2f2171cddbd5fdace9ce7,5,book,critical,D,50,book40.jpg,book60.jpg,high,NULL
1687287275,0e4566e19ae13fda75a6741d48742ff6,PennController,8,0,experiment,NULL,Video,progression,buffer,0,1687287134979,60b2f2171cddbd5fdace9ce7,60b2f2171cddbd5fdace9ce7,5,book,critical,D,50,book40.jpg,book60.jpg,high,NULL
1687287275,0e4566e19ae13fda75a6741d48742ff6,PennController,8,0,experiment,NULL,Canvas,canvas6,Print,NA,1687287138229,60b2f2171cddbd5fdace9ce7,60b2f2171cddbd5fdace9ce7,5,book,critical,D,50,book40.jpg,book60.jpg,high,NULL
1687287275,0e4566e19ae13fda75a6741d48742ff6,PennController,8,0,experiment,NULL,Selector,choice,Selection,option2,1687287140445,60b2f2171cddbd5fdace9ce7,60b2f2171cddbd5fdace9ce7,5,book,critical,D,50,book40.jpg,book60.jpg,high,option2;option1
1687287275,0e4566e19ae13fda75a6741d48742ff6,PennController,8,0,experiment,NULL,PennController,7,_Trial_,End,1687287140448,60b2f2171cddbd5fdace9ce7,60b2f2171cddbd5fdace9ce7,5,book,critical,D,50,book40.jpg,book60.jpg,high,NULL
1687287275,0e4566e19ae13fda75a6741d48742ff6,PennController,7,0,experiment,NULL,PennController,6,_Trial_,Start,1687287140449,60b2f2171cddbd5fdace9ce7,60b2f2171cddbd5fdace9ce7,4,candy,critical,D,25,candy15.jpg,candy35.jpg,high,NULL
1687287275,0e4566e19ae13fda75a6741d48742ff6,PennController,7,0,experiment,NULL,PennController,6,_Header_,Start,1687287140449,60b2f2171cddbd5fdace9ce7,60b2f2171cddbd5fdace9ce7,4,candy,critical,D,25,candy15.jpg,candy35.jpg,high,NULL
1687287275,0e4566e19ae13fda75a6741d48742ff6,PennController,7,0,experiment,NULL,PennController,6,_Header_,End,1687287140449,60b2f2171cddbd5fdace9ce7,60b2f2171cddbd5fdace9ce7,4,candy,critical,D,25,candy15.jpg,candy35.jpg,high,NULL
1687287275,0e4566e19ae13fda75a6741d48742ff6,PennController,7,0,experiment,NULL,Video,progression,buffer,0,1687287143998,60b2f2171cddbd5fdace9ce7,60b2f2171cddbd5fdace9ce7,4,candy,critical,D,25,candy15.jpg,candy35.jpg,high,NULL
1687287275,0e4566e19ae13fda75a6741d48742ff6,PennController,7,0,experiment,NULL,Canvas,canvas6,Print,NA,1687287146241,60b2f2171cddbd5fdace9ce7,60b2f2171cddbd5fdace9ce7,4,candy,critical,D,25,candy15.jpg,candy35.jpg,high,NULL
1687287275,0e4566e19ae13fda75a6741d48742ff6,PennController,7,0,experiment,NULL,Selector,choice,Selection,option1,1687287151160,60b2f2171cddbd5fdace9ce7,60b2f2171cddbd5fdace9ce7,4,candy,critical,D,25,candy15.jpg,candy35.jpg,high,option2;option1
1687287275,0e4566e19ae13fda75a6741d48742ff6,PennController,7,0,experiment,NULL,PennController,6,_Trial_,End,1687287151161,60b2f2171cddbd5fdace9ce7,60b2f2171cddbd5fdace9ce7,4,candy,critical,D,25,candy15.jpg,candy35.jpg,high,NULL
1687287275,0e4566e19ae13fda75a6741d48742ff6,PennController,5,0,experiment,NULL,PennController,4,_Trial_,Start,1687287151163,60b2f2171cddbd5fdace9ce7,60b2f2171cddbd5fdace9ce7,2,door,critical,D,50,door40.jpg,door60.jpg,high,NULL
1687287275,0e4566e19ae13fda75a6741d48742ff6,PennController,5,0,experiment,NULL,PennController,4,_Header_,Start,1687287151163,60b2f2171cddbd5fdace9ce7,60b2f2171cddbd5fdace9ce7,2,door,critical,D,50,door40.jpg,door60.jpg,high,NULL
1687287275,0e4566e19ae13fda75a6741d48742ff6,PennController,5,0,experiment,NULL,PennController,4,_Header_,End,1687287151163,60b2f2171cddbd5fdace9ce7,60b2f2171cddbd5fdace9ce7,2,door,critical,D,50,door40.jpg,door60.jpg,high,NULL
1687287275,0e4566e19ae13fda75a6741d48742ff6,PennController,5,0,experiment,NULL,Video,progression,buffer,0,1687287154704,60b2f2171cddbd5fdace9ce7,60b2f2171cddbd5fdace9ce7,2,door,critical,D,50,door40.jpg,door60.jpg,high,NULL
1687287275,0e4566e19ae13fda75a6741d48742ff6,PennController,5,0,experiment,NULL,Canvas,canvas6,Print,NA,1687287157966,60b2f2171cddbd5fdace9ce7,60b2f2171cddbd5fdace9ce7,2,door,critical,D,50,door40.jpg,door60.jpg,high,NULL
1687287275,0e4566e19ae13fda75a6741d48742ff6,PennController,5,0,experiment,NULL,Selector,choice,Selection,option1,1687287160176,60b2f2171cddbd5fdace9ce7,60b2f2171cddbd5fdace9ce7,2,door,critical,D,50,door40.jpg,door60.jpg,high,option2;option1
1687287275,0e4566e19ae13fda75a6741d48742ff6,PennController,5,0,experiment,NULL,PennController,4,_Trial_,End,1687287160179,60b2f2171cddbd5fdace9ce7,60b2f2171cddbd5fdace9ce7,2,door,critical,D,50,door40.jpg,door60.jpg,high,NULL
1687287275,0e4566e19ae13fda75a6741d48742ff6,PennController,25,0,experiment,NULL,PennController,24,_Trial_,Start,1687287160183,60b2f2171cddbd5fdace9ce7,60b2f2171cddbd5fdace9ce7,22,wall,filler,D,25,wall15.jpg,wall35.jpg,GoalA,NULL
1687287275,0e4566e19ae13fda75a6741d48742ff6,PennController,25,0,experiment,NULL,PennController,24,_Header_,Start,1687287160183,60b2f2171cddbd5fdace9ce7,60b2f2171cddbd5fdace9ce7,22,wall,filler,D,25,wall15.jpg,wall35.jpg,GoalA,NULL
1687287275,0e4566e19ae13fda75a6741d48742ff6,PennController,25,0,experiment,NULL,PennController,24,_Header_,End,1687287160183,60b2f2171cddbd5fdace9ce7,60b2f2171cddbd5fdace9ce7,22,wall,filler,D,25,wall15.jpg,wall35.jpg,GoalA,NULL
1687287275,0e4566e19ae13fda75a6741d48742ff6,PennController,25,0,experiment,NULL,Video,progression,buffer,0,1687287163742,60b2f2171cddbd5fdace9ce7,60b2f2171cddbd5fdace9ce7,22,wall,filler,D,25,wall15.jpg,wall35.jpg,GoalA,NULL
1687287275,0e4566e19ae13fda75a6741d48742ff6,PennController,25,0,experiment,NULL,Canvas,canvas6,Print,NA,1687287165991,60b2f2171cddbd5fdace9ce7,60b2f2171cddbd5fdace9ce7,22,wall,filler,D,25,wall15.jpg,wall35.jpg,GoalA,NULL
1687287275,0e4566e19ae13fda75a6741d48742ff6,PennController,25,0,experiment,NULL,Selector,choice,Selection,option1,1687287167954,60b2f2171cddbd5fdace9ce7,60b2f2171cddbd5fdace9ce7,22,wall,filler,D,25,wall15.jpg,wall35.jpg,GoalA,option1;option2
1687287275,0e4566e19ae13fda75a6741d48742ff6,PennController,25,0,experiment,NULL,PennController,24,_Trial_,End,1687287167957,60b2f2171cddbd5fdace9ce7,60b2f2171cddbd5fdace9ce7,22,wall,filler,D,25,wall15.jpg,wall35.jpg,GoalA,NULL
1687287275,0e4566e19ae13fda75a6741d48742ff6,PennController,21,0,experiment,NULL,PennController,20,_Trial_,Start,1687287167959,60b2f2171cddbd5fdace9ce7,60b2f2171cddbd5fdace9ce7,18,ball,critical,D,75,ball65.jpg,ball85.jpg,high,NULL
1687287275,0e4566e19ae13fda75a6741d48742ff6,PennController,21,0,experiment,NULL,PennController,20,_Header_,Start,1687287167959,60b2f2171cddbd5fdace9ce7,60b2f2171cddbd5fdace9ce7,18,ball,critical,D,75,ball65.jpg,ball85.jpg,high,NULL
1687287275,0e4566e19ae13fda75a6741d48742ff6,PennController,21,0,experiment,NULL,PennController,20,_Header_,End,1687287167959,60b2f2171cddbd5fdace9ce7,60b2f2171cddbd5fdace9ce7,18,ball,critical,D,75,ball65.jpg,ball85.jpg,high,NULL
1687287275,0e4566e19ae13fda75a6741d48742ff6,PennController,21,0,experiment,NULL,Video,progression,buffer,0,1687287171506,60b2f2171cddbd5fdace9ce7,60b2f2171cddbd5fdace9ce7,18,ball,critical,D,75,ball65.jpg,ball85.jpg,high,NULL
1687287275,0e4566e19ae13fda75a6741d48742ff6,PennController,21,0,experiment,NULL,Canvas,canvas6,Print,NA,1687287175761,60b2f2171cddbd5fdace9ce7,60b2f2171cddbd5fdace9ce7,18,ball,critical,D,75,ball65.jpg,ball85.jpg,high,NULL
1687287275,0e4566e19ae13fda75a6741d48742ff6,PennController,21,0,experiment,NULL,Selector,choice,Selection,option1,1687287177864,60b2f2171cddbd5fdace9ce7,60b2f2171cddbd5fdace9ce7,18,ball,critical,D,75,ball65.jpg,ball85.jpg,high,option2;option1
1687287275,0e4566e19ae13fda75a6741d48742ff6,PennController,21,0,experiment,NULL,PennController,20,_Trial_,End,1687287177866,60b2f2171cddbd5fdace9ce7,60b2f2171cddbd5fdace9ce7,18,ball,critical,D,75,ball65.jpg,ball85.jpg,high,NULL
1687287275,0e4566e19ae13fda75a6741d48742ff6,PennController,14,0,experiment,NULL,PennController,13,_Trial_,Start,1687287177867,60b2f2171cddbd5fdace9ce7,60b2f2171cddbd5fdace9ce7,11,beads,critical,D,50,beads40.jpg,beads60.jpg,high,NULL
1687287275,0e4566e19ae13fda75a6741d48742ff6,PennController,14,0,experiment,NULL,PennController,13,_Header_,Start,1687287177867,60b2f2171cddbd5fdace9ce7,60b2f2171cddbd5fdace9ce7,11,beads,critical,D,50,beads40.jpg,beads60.jpg,high,NULL
1687287275,0e4566e19ae13fda75a6741d48742ff6,PennController,14,0,experiment,NULL,PennController,13,_Header_,End,1687287177867,60b2f2171cddbd5fdace9ce7,60b2f2171cddbd5fdace9ce7,11,beads,critical,D,50,beads40.jpg,beads60.jpg,high,NULL
1687287275,0e4566e19ae13fda75a6741d48742ff6,PennController,14,0,experiment,NULL,Video,progression,buffer,0,1687287181418,60b2f2171cddbd5fdace9ce7,60b2f2171cddbd5fdace9ce7,11,beads,critical,D,50,beads40.jpg,beads60.jpg,high,NULL
1687287275,0e4566e19ae13fda75a6741d48742ff6,PennController,14,0,experiment,NULL,Canvas,canvas6,Print,NA,1687287184670,60b2f2171cddbd5fdace9ce7,60b2f2171cddbd5fdace9ce7,11,beads,critical,D,50,beads40.jpg,beads60.jpg,high,NULL
1687287275,0e4566e19ae13fda75a6741d48742ff6,PennController,14,0,experiment,NULL,Selector,choice,Selection,option2,1687287189754,60b2f2171cddbd5fdace9ce7,60b2f2171cddbd5fdace9ce7,11,beads,critical,D,50,beads40.jpg,beads60.jpg,high,option2;option1
1687287275,0e4566e19ae13fda75a6741d48742ff6,PennController,14,0,experiment,NULL,PennController,13,_Trial_,End,1687287189756,60b2f2171cddbd5fdace9ce7,60b2f2171cddbd5fdace9ce7,11,beads,critical,D,50,beads40.jpg,beads60.jpg,high,NULL
1687287275,0e4566e19ae13fda75a6741d48742ff6,PennController,18,0,experiment,NULL,PennController,17,_Trial_,Start,1687287189758,60b2f2171cddbd5fdace9ce7,60b2f2171cddbd5fdace9ce7,15,zip,critical,D,75,zip65.jpg,zip85.jpg,high,NULL
1687287275,0e4566e19ae13fda75a6741d48742ff6,PennController,18,0,experiment,NULL,PennController,17,_Header_,Start,1687287189758,60b2f2171cddbd5fdace9ce7,60b2f2171cddbd5fdace9ce7,15,zip,critical,D,75,zip65.jpg,zip85.jpg,high,NULL
1687287275,0e4566e19ae13fda75a6741d48742ff6,PennController,18,0,experiment,NULL,PennController,17,_Header_,End,1687287189758,60b2f2171cddbd5fdace9ce7,60b2f2171cddbd5fdace9ce7,15,zip,critical,D,75,zip65.jpg,zip85.jpg,high,NULL
1687287275,0e4566e19ae13fda75a6741d48742ff6,PennController,18,0,experiment,NULL,Video,progression,buffer,0,1687287193312,60b2f2171cddbd5fdace9ce7,60b2f2171cddbd5fdace9ce7,15,zip,critical,D,75,zip65.jpg,zip85.jpg,high,NULL
1687287275,0e4566e19ae13fda75a6741d48742ff6,PennController,18,0,experiment,NULL,Canvas,canvas6,Print,NA,1687287196768,60b2f2171cddbd5fdace9ce7,60b2f2171cddbd5fdace9ce7,15,zip,critical,D,75,zip65.jpg,zip85.jpg,high,NULL
1687287275,0e4566e19ae13fda75a6741d48742ff6,PennController,18,0,experiment,NULL,Selector,choice,Selection,option2,1687287202178,60b2f2171cddbd5fdace9ce7,60b2f2171cddbd5fdace9ce7,15,zip,critical,D,75,zip65.jpg,zip85.jpg,high,option1;option2
1687287275,0e4566e19ae13fda75a6741d48742ff6,PennController,18,0,experiment,NULL,PennController,17,_Trial_,End,1687287202180,60b2f2171cddbd5fdace9ce7,60b2f2171cddbd5fdace9ce7,15,zip,critical,D,75,zip65.jpg,zip85.jpg,high,NULL
1687287275,0e4566e19ae13fda75a6741d48742ff6,PennController,23,0,experiment,NULL,PennController,22,_Trial_,Start,1687287202182,60b2f2171cddbd5fdace9ce7,60b2f2171cddbd5fdace9ce7,20,cat,filler,D,50,cat40.jpg,cat60.jpg,GoalA,NULL
1687287275,0e4566e19ae13fda75a6741d48742ff6,PennController,23,0,experiment,NULL,PennController,22,_Header_,Start,1687287202182,60b2f2171cddbd5fdace9ce7,60b2f2171cddbd5fdace9ce7,20,cat,filler,D,50,cat40.jpg,cat60.jpg,GoalA,NULL
1687287275,0e4566e19ae13fda75a6741d48742ff6,PennController,23,0,experiment,NULL,PennController,22,_Header_,End,1687287202182,60b2f2171cddbd5fdace9ce7,60b2f2171cddbd5fdace9ce7,20,cat,filler,D,50,cat40.jpg,cat60.jpg,GoalA,NULL
1687287275,0e4566e19ae13fda75a6741d48742ff6,PennController,23,0,experiment,NULL,Video,progression,buffer,0,1687287205737,60b2f2171cddbd5fdace9ce7,60b2f2171cddbd5fdace9ce7,20,cat,filler,D,50,cat40.jpg,cat60.jpg,GoalA,NULL
1687287275,0e4566e19ae13fda75a6741d48742ff6,PennController,23,0,experiment,NULL,Canvas,canvas6,Print,NA,1687287208983,60b2f2171cddbd5fdace9ce7,60b2f2171cddbd5fdace9ce7,20,cat,filler,D,50,cat40.jpg,cat60.jpg,GoalA,NULL
1687287275,0e4566e19ae13fda75a6741d48742ff6,PennController,23,0,experiment,NULL,Selector,choice,Selection,option2,1687287210822,60b2f2171cddbd5fdace9ce7,60b2f2171cddbd5fdace9ce7,20,cat,filler,D,50,cat40.jpg,cat60.jpg,GoalA,option2;option1
1687287275,0e4566e19ae13fda75a6741d48742ff6,PennController,23,0,experiment,NULL,PennController,22,_Trial_,End,1687287210826,60b2f2171cddbd5fdace9ce7,60b2f2171cddbd5fdace9ce7,20,cat,filler,D,50,cat40.jpg,cat60.jpg,GoalA,NULL
1687287275,0e4566e19ae13fda75a6741d48742ff6,PennController,26,0,experiment,NULL,PennController,25,_Trial_,Start,1687287210829,60b2f2171cddbd5fdace9ce7,60b2f2171cddbd5fdace9ce7,23,color,filler,D,50,color40.jpg,color60.jpg,GoalB,NULL
1687287275,0e4566e19ae13fda75a6741d48742ff6,PennController,26,0,experiment,NULL,PennController,25,_Header_,Start,1687287210829,60b2f2171cddbd5fdace9ce7,60b2f2171cddbd5fdace9ce7,23,color,filler,D,50,color40.jpg,color60.jpg,GoalB,NULL
1687287275,0e4566e19ae13fda75a6741d48742ff6,PennController,26,0,experiment,NULL,PennController,25,_Header_,End,1687287210829,60b2f2171cddbd5fdace9ce7,60b2f2171cddbd5fdace9ce7,23,color,filler,D,50,color40.jpg,color60.jpg,GoalB,NULL
1687287275,0e4566e19ae13fda75a6741d48742ff6,PennController,26,0,experiment,NULL,Video,progression,buffer,0,1687287214375,60b2f2171cddbd5fdace9ce7,60b2f2171cddbd5fdace9ce7,23,color,filler,D,50,color40.jpg,color60.jpg,GoalB,NULL
1687287275,0e4566e19ae13fda75a6741d48742ff6,PennController,26,0,experiment,NULL,Canvas,canvas6,Print,NA,1687287217627,60b2f2171cddbd5fdace9ce7,60b2f2171cddbd5fdace9ce7,23,color,filler,D,50,color40.jpg,color60.jpg,GoalB,NULL
1687287275,0e4566e19ae13fda75a6741d48742ff6,PennController,26,0,experiment,NULL,Selector,choice,Selection,option2,1687287222512,60b2f2171cddbd5fdace9ce7,60b2f2171cddbd5fdace9ce7,23,color,filler,D,50,color40.jpg,color60.jpg,GoalB,option1;option2
1687287275,0e4566e19ae13fda75a6741d48742ff6,PennController,26,0,experiment,NULL,PennController,25,_Trial_,End,1687287222514,60b2f2171cddbd5fdace9ce7,60b2f2171cddbd5fdace9ce7,23,color,filler,D,50,color40.jpg,color60.jpg,GoalB,NULL
1687287275,0e4566e19ae13fda75a6741d48742ff6,PennController,27,0,experiment,NULL,PennController,26,_Trial_,Start,1687287222516,60b2f2171cddbd5fdace9ce7,60b2f2171cddbd5fdace9ce7,24,match,filler,D,75,match65.jpg,match85.jpg,GoalA,NULL
1687287275,0e4566e19ae13fda75a6741d48742ff6,PennController,27,0,experiment,NULL,PennController,26,_Header_,Start,1687287222516,60b2f2171cddbd5fdace9ce7,60b2f2171cddbd5fdace9ce7,24,match,filler,D,75,match65.jpg,match85.jpg,GoalA,NULL
1687287275,0e4566e19ae13fda75a6741d48742ff6,PennController,27,0,experiment,NULL,PennController,26,_Header_,End,1687287222516,60b2f2171cddbd5fdace9ce7,60b2f2171cddbd5fdace9ce7,24,match,filler,D,75,match65.jpg,match85.jpg,GoalA,NULL
1687287275,0e4566e19ae13fda75a6741d48742ff6,PennController,27,0,experiment,NULL,Video,progression,buffer,0,1687287226061,60b2f2171cddbd5fdace9ce7,60b2f2171cddbd5fdace9ce7,24,match,filler,D,75,match65.jpg,match85.jpg,GoalA,NULL
1687287275,0e4566e19ae13fda75a6741d48742ff6,PennController,27,0,experiment,NULL,Canvas,canvas6,Print,NA,1687287230313,60b2f2171cddbd5fdace9ce7,60b2f2171cddbd5fdace9ce7,24,match,filler,D,75,match65.jpg,match85.jpg,GoalA,NULL
1687287275,0e4566e19ae13fda75a6741d48742ff6,PennController,27,0,experiment,NULL,Selector,choice,Selection,option2,1687287232588,60b2f2171cddbd5fdace9ce7,60b2f2171cddbd5fdace9ce7,24,match,filler,D,75,match65.jpg,match85.jpg,GoalA,option1;option2
1687287275,0e4566e19ae13fda75a6741d48742ff6,PennController,27,0,experiment,NULL,PennController,26,_Trial_,End,1687287232590,60b2f2171cddbd5fdace9ce7,60b2f2171cddbd5fdace9ce7,24,match,filler,D,75,match65.jpg,match85.jpg,GoalA,NULL
1687287275,0e4566e19ae13fda75a6741d48742ff6,PennController,24,0,experiment,NULL,PennController,23,_Trial_,Start,1687287232592,60b2f2171cddbd5fdace9ce7,60b2f2171cddbd5fdace9ce7,21,visit,filler,D,75,visit65.jpg,visit85.jpg,GoalB,NULL
1687287275,0e4566e19ae13fda75a6741d48742ff6,PennController,24,0,experiment,NULL,PennController,23,_Header_,Start,1687287232592,60b2f2171cddbd5fdace9ce7,60b2f2171cddbd5fdace9ce7,21,visit,filler,D,75,visit65.jpg,visit85.jpg,GoalB,NULL
1687287275,0e4566e19ae13fda75a6741d48742ff6,PennController,24,0,experiment,NULL,PennController,23,_Header_,End,1687287232592,60b2f2171cddbd5fdace9ce7,60b2f2171cddbd5fdace9ce7,21,visit,filler,D,75,visit65.jpg,visit85.jpg,GoalB,NULL
1687287275,0e4566e19ae13fda75a6741d48742ff6,PennController,24,0,experiment,NULL,Video,progression,buffer,0,1687287236145,60b2f2171cddbd5fdace9ce7,60b2f2171cddbd5fdace9ce7,21,visit,filler,D,75,visit65.jpg,visit85.jpg,GoalB,NULL
1687287275,0e4566e19ae13fda75a6741d48742ff6,PennController,24,0,experiment,NULL,Canvas,canvas6,Print,NA,1687287240402,60b2f2171cddbd5fdace9ce7,60b2f2171cddbd5fdace9ce7,21,visit,filler,D,75,visit65.jpg,visit85.jpg,GoalB,NULL
1687287275,0e4566e19ae13fda75a6741d48742ff6,PennController,24,0,experiment,NULL,Selector,choice,Selection,option2,1687287242457,60b2f2171cddbd5fdace9ce7,60b2f2171cddbd5fdace9ce7,21,visit,filler,D,75,visit65.jpg,visit85.jpg,GoalB,option2;option1
1687287275,0e4566e19ae13fda75a6741d48742ff6,PennController,24,0,experiment,NULL,PennController,23,_Trial_,End,1687287242459,60b2f2171cddbd5fdace9ce7,60b2f2171cddbd5fdace9ce7,21,visit,filler,D,75,visit65.jpg,visit85.jpg,GoalB,NULL
1687287275,0e4566e19ae13fda75a6741d48742ff6,PennController,15,0,experiment,NULL,PennController,14,_Trial_,Start,1687287242461,60b2f2171cddbd5fdace9ce7,60b2f2171cddbd5fdace9ce7,12,erase,critical,D,75,erase66.jpg,erase84.jpg,high,NULL
1687287275,0e4566e19ae13fda75a6741d48742ff6,PennController,15,0,experiment,NULL,PennController,14,_Header_,Start,1687287242461,60b2f2171cddbd5fdace9ce7,60b2f2171cddbd5fdace9ce7,12,erase,critical,D,75,erase66.jpg,erase84.jpg,high,NULL
1687287275,0e4566e19ae13fda75a6741d48742ff6,PennController,15,0,experiment,NULL,PennController,14,_Header_,End,1687287242461,60b2f2171cddbd5fdace9ce7,60b2f2171cddbd5fdace9ce7,12,erase,critical,D,75,erase66.jpg,erase84.jpg,high,NULL
1687287275,0e4566e19ae13fda75a6741d48742ff6,PennController,15,0,experiment,NULL,Video,progression,buffer,0,1687287246004,60b2f2171cddbd5fdace9ce7,60b2f2171cddbd5fdace9ce7,12,erase,critical,D,75,erase66.jpg,erase84.jpg,high,NULL
1687287275,0e4566e19ae13fda75a6741d48742ff6,PennController,15,0,experiment,NULL,Canvas,canvas6,Print,NA,1687287252250,60b2f2171cddbd5fdace9ce7,60b2f2171cddbd5fdace9ce7,12,erase,critical,D,75,erase66.jpg,erase84.jpg,high,NULL
1687287275,0e4566e19ae13fda75a6741d48742ff6,PennController,15,0,experiment,NULL,Selector,choice,Selection,option2,1687287254388,60b2f2171cddbd5fdace9ce7,60b2f2171cddbd5fdace9ce7,12,erase,critical,D,75,erase66.jpg,erase84.jpg,high,option2;option1
1687287275,0e4566e19ae13fda75a6741d48742ff6,PennController,15,0,experiment,NULL,PennController,14,_Trial_,End,1687287254390,60b2f2171cddbd5fdace9ce7,60b2f2171cddbd5fdace9ce7,12,erase,critical,D,75,erase66.jpg,erase84.jpg,high,NULL
1687287275,0e4566e19ae13fda75a6741d48742ff6,PennController,30,0,experiment,NULL,PennController,29,_Trial_,Start,1687287254391,60b2f2171cddbd5fdace9ce7,60b2f2171cddbd5fdace9ce7,27,square,filler,D,75,square65.jpg,square85.jpg,GoalB,NULL
1687287275,0e4566e19ae13fda75a6741d48742ff6,PennController,30,0,experiment,NULL,PennController,29,_Header_,Start,1687287254391,60b2f2171cddbd5fdace9ce7,60b2f2171cddbd5fdace9ce7,27,square,filler,D,75,square65.jpg,square85.jpg,GoalB,NULL
1687287275,0e4566e19ae13fda75a6741d48742ff6,PennController,30,0,experiment,NULL,PennController,29,_Header_,End,1687287254391,60b2f2171cddbd5fdace9ce7,60b2f2171cddbd5fdace9ce7,27,square,filler,D,75,square65.jpg,square85.jpg,GoalB,NULL
1687287275,0e4566e19ae13fda75a6741d48742ff6,PennController,30,0,experiment,NULL,Video,progression,buffer,0,1687287257934,60b2f2171cddbd5fdace9ce7,60b2f2171cddbd5fdace9ce7,27,square,filler,D,75,square65.jpg,square85.jpg,GoalB,NULL
1687287275,0e4566e19ae13fda75a6741d48742ff6,PennController,30,0,experiment,NULL,Canvas,canvas6,Print,NA,1687287262185,60b2f2171cddbd5fdace9ce7,60b2f2171cddbd5fdace9ce7,27,square,filler,D,75,square65.jpg,square85.jpg,GoalB,NULL
1687287275,0e4566e19ae13fda75a6741d48742ff6,PennController,30,0,experiment,NULL,Selector,choice,Selection,option1,1687287264599,60b2f2171cddbd5fdace9ce7,60b2f2171cddbd5fdace9ce7,27,square,filler,D,75,square65.jpg,square85.jpg,GoalB,option1;option2
1687287275,0e4566e19ae13fda75a6741d48742ff6,PennController,30,0,experiment,NULL,PennController,29,_Trial_,End,1687287264601,60b2f2171cddbd5fdace9ce7,60b2f2171cddbd5fdace9ce7,27,square,filler,D,75,square65.jpg,square85.jpg,GoalB,NULL
1687287275,0e4566e19ae13fda75a6741d48742ff6,PennController,6,0,experiment,NULL,PennController,5,_Trial_,Start,1687287264601,60b2f2171cddbd5fdace9ce7,60b2f2171cddbd5fdace9ce7,3,clean,critical,D,75,clean65.jpg,clean85.jpg,high,NULL
1687287275,0e4566e19ae13fda75a6741d48742ff6,PennController,6,0,experiment,NULL,PennController,5,_Header_,Start,1687287264601,60b2f2171cddbd5fdace9ce7,60b2f2171cddbd5fdace9ce7,3,clean,critical,D,75,clean65.jpg,clean85.jpg,high,NULL
1687287275,0e4566e19ae13fda75a6741d48742ff6,PennController,6,0,experiment,NULL,PennController,5,_Header_,End,1687287264602,60b2f2171cddbd5fdace9ce7,60b2f2171cddbd5fdace9ce7,3,clean,critical,D,75,clean65.jpg,clean85.jpg,high,NULL
1687287275,0e4566e19ae13fda75a6741d48742ff6,PennController,6,0,experiment,NULL,Video,progression,buffer,0,1687287268148,60b2f2171cddbd5fdace9ce7,60b2f2171cddbd5fdace9ce7,3,clean,critical,D,75,clean65.jpg,clean85.jpg,high,NULL
1687287275,0e4566e19ae13fda75a6741d48742ff6,PennController,6,0,experiment,NULL,Canvas,canvas6,Print,NA,1687287272391,60b2f2171cddbd5fdace9ce7,60b2f2171cddbd5fdace9ce7,3,clean,critical,D,75,clean65.jpg,clean85.jpg,high,NULL
1687287275,0e4566e19ae13fda75a6741d48742ff6,PennController,6,0,experiment,NULL,Selector,choice,Selection,option2,1687287274390,60b2f2171cddbd5fdace9ce7,60b2f2171cddbd5fdace9ce7,3,clean,critical,D,75,clean65.jpg,clean85.jpg,high,option1;option2
1687287275,0e4566e19ae13fda75a6741d48742ff6,PennController,6,0,experiment,NULL,PennController,5,_Trial_,End,1687287274393,60b2f2171cddbd5fdace9ce7,60b2f2171cddbd5fdace9ce7,3,clean,critical,D,75,clean65.jpg,clean85.jpg,high,NULL
