#
# Results on Tuesday June 20 2023 18:57:28 UTC
# USER AGENT: Mozilla/5.0 (Windows NT 10.0; Win64; x64) AppleWebKit/537.36 (KHTML, like Gecko) Chrome/109.0.0.0 Safari/537.36
# Design number was non-random = 3
#
# Columns below this comment are as follows:
# 1. Results reception time.
# 2. MD5 hash of participant's IP address.
# 3. Controller name.
# 4. Order number of item.
# 5. Inner element number.
# 6. Label.
# 7. Latin Square Group.
# 8. PennElementType.
# 9. PennElementName.
# 10. Parameter.
# 11. Value.
# 12. EventTime.
# 13. PROLIFIC_ID.
# 14. Comments.
1687287448,423d73030b27d88c00656b81f25a0eaf,PennController,2,0,consent,NULL,PennController,0,_Trial_,Start,1687287059122,5bb20ae1ec73cb00011d60e8,NULL
1687287448,423d73030b27d88c00656b81f25a0eaf,PennController,2,0,consent,NULL,PennController,0,_Header_,Start,1687287059122,5bb20ae1ec73cb00011d60e8,NULL
1687287448,423d73030b27d88c00656b81f25a0eaf,PennController,2,0,consent,NULL,PennController,0,_Header_,End,1687287059122,5bb20ae1ec73cb00011d60e8,NULL
1687287448,423d73030b27d88c00656b81f25a0eaf,PennController,2,0,consent,NULL,PennController,0,_Trial_,End,1687287097984,5bb20ae1ec73cb00011d60e8,NULL
# Columns below this comment are as follows:
# 14. ID.
# 15. Comments.
1687287448,423d73030b27d88c00656b81f25a0eaf,PennController,3,0,intro,NULL,PennController,1,_Trial_,Start,1687287097993,5bb20ae1ec73cb00011d60e8,5bb20ae1ec73cb00011d60e8,NULL
1687287448,423d73030b27d88c00656b81f25a0eaf,PennController,3,0,intro,NULL,PennController,1,_Header_,Start,1687287097993,5bb20ae1ec73cb00011d60e8,5bb20ae1ec73cb00011d60e8,NULL
1687287448,423d73030b27d88c00656b81f25a0eaf,PennController,3,0,intro,NULL,PennController,1,_Header_,End,1687287097993,5bb20ae1ec73cb00011d60e8,5bb20ae1ec73cb00011d60e8,NULL
1687287448,423d73030b27d88c00656b81f25a0eaf,PennController,3,0,intro,NULL,PennController,1,_Trial_,End,1687287125869,5bb20ae1ec73cb00011d60e8,5bb20ae1ec73cb00011d60e8,NULL
# Columns below this comment are as follows:
# 15. item_number.
# 16. item.
# 17. type.
# 18. Group.
# 19. prog.
# 20. prev_image.
# 21. next_image.
# 22. height.
# 23. Comments.
1687287448,423d73030b27d88c00656b81f25a0eaf,PennController,30,0,experiment,NULL,PennController,29,_Trial_,Start,1687287125871,5bb20ae1ec73cb00011d60e8,5bb20ae1ec73cb00011d60e8,27,square,filler,D,75,square65.jpg,square85.jpg,GoalB,NULL
1687287448,423d73030b27d88c00656b81f25a0eaf,PennController,30,0,experiment,NULL,PennController,29,_Header_,Start,1687287125871,5bb20ae1ec73cb00011d60e8,5bb20ae1ec73cb00011d60e8,27,square,filler,D,75,square65.jpg,square85.jpg,GoalB,NULL
1687287448,423d73030b27d88c00656b81f25a0eaf,PennController,30,0,experiment,NULL,PennController,29,_Header_,End,1687287125871,5bb20ae1ec73cb00011d60e8,5bb20ae1ec73cb00011d60e8,27,square,filler,D,75,square65.jpg,square85.jpg,GoalB,NULL
1687287448,423d73030b27d88c00656b81f25a0eaf,PennController,30,0,experiment,NULL,Canvas,canvas6,Print,NA,1687287133618,5bb20ae1ec73cb00011d60e8,5bb20ae1ec73cb00011d60e8,27,square,filler,D,75,square65.jpg,square85.jpg,GoalB,NULL
1687287448,423d73030b27d88c00656b81f25a0eaf,PennController,30,0,experiment,NULL,Video,progression,buffer,0.006724,1687287129442,5bb20ae1ec73cb00011d60e8,5bb20ae1ec73cb00011d60e8,27,square,filler,D,75,square65.jpg,square85.jpg,GoalB,NULL
1687287448,423d73030b27d88c00656b81f25a0eaf,PennController,30,0,experiment,NULL,Selector,choice,Selection,option2,1687287141685,5bb20ae1ec73cb00011d60e8,5bb20ae1ec73cb00011d60e8,27,square,filler,D,75,square65.jpg,square85.jpg,GoalB,option1;option2
1687287448,423d73030b27d88c00656b81f25a0eaf,PennController,30,0,experiment,NULL,PennController,29,_Trial_,End,1687287141691,5bb20ae1ec73cb00011d60e8,5bb20ae1ec73cb00011d60e8,27,square,filler,D,75,square65.jpg,square85.jpg,GoalB,NULL
1687287448,423d73030b27d88c00656b81f25a0eaf,PennController,25,0,experiment,NULL,PennController,24,_Trial_,Start,1687287141696,5bb20ae1ec73cb00011d60e8,5bb20ae1ec73cb00011d60e8,22,wall,filler,D,25,wall15.jpg,wall35.jpg,GoalA,NULL
1687287448,423d73030b27d88c00656b81f25a0eaf,PennController,25,0,experiment,NULL,PennController,24,_Header_,Start,1687287141697,5bb20ae1ec73cb00011d60e8,5bb20ae1ec73cb00011d60e8,22,wall,filler,D,25,wall15.jpg,wall35.jpg,GoalA,NULL
1687287448,423d73030b27d88c00656b81f25a0eaf,PennController,25,0,experiment,NULL,PennController,24,_Header_,End,1687287141697,5bb20ae1ec73cb00011d60e8,5bb20ae1ec73cb00011d60e8,22,wall,filler,D,25,wall15.jpg,wall35.jpg,GoalA,NULL
1687287448,423d73030b27d88c00656b81f25a0eaf,PennController,25,0,experiment,NULL,Canvas,canvas6,Print,NA,1687287147417,5bb20ae1ec73cb00011d60e8,5bb20ae1ec73cb00011d60e8,22,wall,filler,D,25,wall15.jpg,wall35.jpg,GoalA,NULL
1687287448,423d73030b27d88c00656b81f25a0eaf,PennController,25,0,experiment,NULL,Video,progression,buffer,0.009796,1687287145249,5bb20ae1ec73cb00011d60e8,5bb20ae1ec73cb00011d60e8,22,wall,filler,D,25,wall15.jpg,wall35.jpg,GoalA,NULL
1687287448,423d73030b27d88c00656b81f25a0eaf,PennController,25,0,experiment,NULL,Selector,choice,Selection,option2,1687287152682,5bb20ae1ec73cb00011d60e8,5bb20ae1ec73cb00011d60e8,22,wall,filler,D,25,wall15.jpg,wall35.jpg,GoalA,option2;option1
1687287448,423d73030b27d88c00656b81f25a0eaf,PennController,25,0,experiment,NULL,PennController,24,_Trial_,End,1687287152686,5bb20ae1ec73cb00011d60e8,5bb20ae1ec73cb00011d60e8,22,wall,filler,D,25,wall15.jpg,wall35.jpg,GoalA,NULL
1687287448,423d73030b27d88c00656b81f25a0eaf,PennController,24,0,experiment,NULL,PennController,23,_Trial_,Start,1687287152690,5bb20ae1ec73cb00011d60e8,5bb20ae1ec73cb00011d60e8,21,visit,filler,D,75,visit65.jpg,visit85.jpg,GoalB,NULL
1687287448,423d73030b27d88c00656b81f25a0eaf,PennController,24,0,experiment,NULL,PennController,23,_Header_,Start,1687287152690,5bb20ae1ec73cb00011d60e8,5bb20ae1ec73cb00011d60e8,21,visit,filler,D,75,visit65.jpg,visit85.jpg,GoalB,NULL
1687287448,423d73030b27d88c00656b81f25a0eaf,PennController,24,0,experiment,NULL,PennController,23,_Header_,End,1687287152690,5bb20ae1ec73cb00011d60e8,5bb20ae1ec73cb00011d60e8,21,visit,filler,D,75,visit65.jpg,visit85.jpg,GoalB,NULL
1687287448,423d73030b27d88c00656b81f25a0eaf,PennController,24,0,experiment,NULL,Canvas,canvas6,Print,NA,1687287160398,5bb20ae1ec73cb00011d60e8,5bb20ae1ec73cb00011d60e8,21,visit,filler,D,75,visit65.jpg,visit85.jpg,GoalB,NULL
1687287448,423d73030b27d88c00656b81f25a0eaf,PennController,24,0,experiment,NULL,Video,progression,buffer,0.007061,1687287156231,5bb20ae1ec73cb00011d60e8,5bb20ae1ec73cb00011d60e8,21,visit,filler,D,75,visit65.jpg,visit85.jpg,GoalB,NULL
1687287448,423d73030b27d88c00656b81f25a0eaf,PennController,24,0,experiment,NULL,Selector,choice,Selection,option2,1687287164260,5bb20ae1ec73cb00011d60e8,5bb20ae1ec73cb00011d60e8,21,visit,filler,D,75,visit65.jpg,visit85.jpg,GoalB,option1;option2
1687287448,423d73030b27d88c00656b81f25a0eaf,PennController,24,0,experiment,NULL,PennController,23,_Trial_,End,1687287164264,5bb20ae1ec73cb00011d60e8,5bb20ae1ec73cb00011d60e8,21,visit,filler,D,75,visit65.jpg,visit85.jpg,GoalB,NULL
1687287448,423d73030b27d88c00656b81f25a0eaf,PennController,10,0,experiment,NULL,PennController,9,_Trial_,Start,1687287164268,5bb20ae1ec73cb00011d60e8,5bb20ae1ec73cb00011d60e8,7,stack,critical,D,25,stack15.jpg,stack35.jpg,high,NULL
1687287448,423d73030b27d88c00656b81f25a0eaf,PennController,10,0,experiment,NULL,PennController,9,_Header_,Start,1687287164268,5bb20ae1ec73cb00011d60e8,5bb20ae1ec73cb00011d60e8,7,stack,critical,D,25,stack15.jpg,stack35.jpg,high,NULL
1687287448,423d73030b27d88c00656b81f25a0eaf,PennController,10,0,experiment,NULL,PennController,9,_Header_,End,1687287164268,5bb20ae1ec73cb00011d60e8,5bb20ae1ec73cb00011d60e8,7,stack,critical,D,25,stack15.jpg,stack35.jpg,high,NULL
1687287448,423d73030b27d88c00656b81f25a0eaf,PennController,10,0,experiment,NULL,Canvas,canvas6,Print,NA,1687287169995,5bb20ae1ec73cb00011d60e8,5bb20ae1ec73cb00011d60e8,7,stack,critical,D,25,stack15.jpg,stack35.jpg,high,NULL
1687287448,423d73030b27d88c00656b81f25a0eaf,PennController,10,0,experiment,NULL,Video,progression,buffer,0.009406,1687287167819,5bb20ae1ec73cb00011d60e8,5bb20ae1ec73cb00011d60e8,7,stack,critical,D,25,stack15.jpg,stack35.jpg,high,NULL
1687287448,423d73030b27d88c00656b81f25a0eaf,PennController,10,0,experiment,NULL,Selector,choice,Selection,option2,1687287174470,5bb20ae1ec73cb00011d60e8,5bb20ae1ec73cb00011d60e8,7,stack,critical,D,25,stack15.jpg,stack35.jpg,high,option2;option1
1687287448,423d73030b27d88c00656b81f25a0eaf,PennController,10,0,experiment,NULL,PennController,9,_Trial_,End,1687287174473,5bb20ae1ec73cb00011d60e8,5bb20ae1ec73cb00011d60e8,7,stack,critical,D,25,stack15.jpg,stack35.jpg,high,NULL
1687287448,423d73030b27d88c00656b81f25a0eaf,PennController,13,0,experiment,NULL,PennController,12,_Trial_,Start,1687287174490,5bb20ae1ec73cb00011d60e8,5bb20ae1ec73cb00011d60e8,10,train,critical,D,25,train15.jpg,train35.jpg,high,NULL
1687287448,423d73030b27d88c00656b81f25a0eaf,PennController,13,0,experiment,NULL,PennController,12,_Header_,Start,1687287174490,5bb20ae1ec73cb00011d60e8,5bb20ae1ec73cb00011d60e8,10,train,critical,D,25,train15.jpg,train35.jpg,high,NULL
1687287448,423d73030b27d88c00656b81f25a0eaf,PennController,13,0,experiment,NULL,PennController,12,_Header_,End,1687287174490,5bb20ae1ec73cb00011d60e8,5bb20ae1ec73cb00011d60e8,10,train,critical,D,25,train15.jpg,train35.jpg,high,NULL
1687287448,423d73030b27d88c00656b81f25a0eaf,PennController,13,0,experiment,NULL,Canvas,canvas6,Print,NA,1687287180213,5bb20ae1ec73cb00011d60e8,5bb20ae1ec73cb00011d60e8,10,train,critical,D,25,train15.jpg,train35.jpg,high,NULL
1687287448,423d73030b27d88c00656b81f25a0eaf,PennController,13,0,experiment,NULL,Video,progression,buffer,0.007593,1687287178037,5bb20ae1ec73cb00011d60e8,5bb20ae1ec73cb00011d60e8,10,train,critical,D,25,train15.jpg,train35.jpg,high,NULL
1687287448,423d73030b27d88c00656b81f25a0eaf,PennController,13,0,experiment,NULL,Selector,choice,Selection,option1,1687287187083,5bb20ae1ec73cb00011d60e8,5bb20ae1ec73cb00011d60e8,10,train,critical,D,25,train15.jpg,train35.jpg,high,option1;option2
1687287448,423d73030b27d88c00656b81f25a0eaf,PennController,13,0,experiment,NULL,PennController,12,_Trial_,End,1687287187087,5bb20ae1ec73cb00011d60e8,5bb20ae1ec73cb00011d60e8,10,train,critical,D,25,train15.jpg,train35.jpg,high,NULL
1687287448,423d73030b27d88c00656b81f25a0eaf,PennController,8,0,experiment,NULL,PennController,7,_Trial_,Start,1687287187090,5bb20ae1ec73cb00011d60e8,5bb20ae1ec73cb00011d60e8,5,book,critical,D,50,book40.jpg,book60.jpg,high,NULL
1687287448,423d73030b27d88c00656b81f25a0eaf,PennController,8,0,experiment,NULL,PennController,7,_Header_,Start,1687287187090,5bb20ae1ec73cb00011d60e8,5bb20ae1ec73cb00011d60e8,5,book,critical,D,50,book40.jpg,book60.jpg,high,NULL
1687287448,423d73030b27d88c00656b81f25a0eaf,PennController,8,0,experiment,NULL,PennController,7,_Header_,End,1687287187090,5bb20ae1ec73cb00011d60e8,5bb20ae1ec73cb00011d60e8,5,book,critical,D,50,book40.jpg,book60.jpg,high,NULL
1687287448,423d73030b27d88c00656b81f25a0eaf,PennController,8,0,experiment,NULL,Canvas,canvas6,Print,NA,1687287193796,5bb20ae1ec73cb00011d60e8,5bb20ae1ec73cb00011d60e8,5,book,critical,D,50,book40.jpg,book60.jpg,high,NULL
1687287448,423d73030b27d88c00656b81f25a0eaf,PennController,8,0,experiment,NULL,Video,progression,buffer,0.00875,1687287190635,5bb20ae1ec73cb00011d60e8,5bb20ae1ec73cb00011d60e8,5,book,critical,D,50,book40.jpg,book60.jpg,high,NULL
1687287448,423d73030b27d88c00656b81f25a0eaf,PennController,8,0,experiment,NULL,Selector,choice,Selection,option1,1687287198507,5bb20ae1ec73cb00011d60e8,5bb20ae1ec73cb00011d60e8,5,book,critical,D,50,book40.jpg,book60.jpg,high,option2;option1
1687287448,423d73030b27d88c00656b81f25a0eaf,PennController,8,0,experiment,NULL,PennController,7,_Trial_,End,1687287198511,5bb20ae1ec73cb00011d60e8,5bb20ae1ec73cb00011d60e8,5,book,critical,D,50,book40.jpg,book60.jpg,high,NULL
1687287448,423d73030b27d88c00656b81f25a0eaf,PennController,32,0,experiment,NULL,PennController,31,_Trial_,Start,1687287198515,5bb20ae1ec73cb00011d60e8,5bb20ae1ec73cb00011d60e8,29,frog,filler,D,50,frog40.jpg,frog60.jpg,GoalB,NULL
1687287448,423d73030b27d88c00656b81f25a0eaf,PennController,32,0,experiment,NULL,PennController,31,_Header_,Start,1687287198515,5bb20ae1ec73cb00011d60e8,5bb20ae1ec73cb00011d60e8,29,frog,filler,D,50,frog40.jpg,frog60.jpg,GoalB,NULL
1687287448,423d73030b27d88c00656b81f25a0eaf,PennController,32,0,experiment,NULL,PennController,31,_Header_,End,1687287198515,5bb20ae1ec73cb00011d60e8,5bb20ae1ec73cb00011d60e8,29,frog,filler,D,50,frog40.jpg,frog60.jpg,GoalB,NULL
1687287448,423d73030b27d88c00656b81f25a0eaf,PennController,32,0,experiment,NULL,Canvas,canvas6,Print,NA,1687287205228,5bb20ae1ec73cb00011d60e8,5bb20ae1ec73cb00011d60e8,29,frog,filler,D,50,frog40.jpg,frog60.jpg,GoalB,NULL
1687287448,423d73030b27d88c00656b81f25a0eaf,PennController,32,0,experiment,NULL,Video,progression,buffer,0.016959,1687287202068,5bb20ae1ec73cb00011d60e8,5bb20ae1ec73cb00011d60e8,29,frog,filler,D,50,frog40.jpg,frog60.jpg,GoalB,NULL
1687287448,423d73030b27d88c00656b81f25a0eaf,PennController,32,0,experiment,NULL,Selector,choice,Selection,option2,1687287211195,5bb20ae1ec73cb00011d60e8,5bb20ae1ec73cb00011d60e8,29,frog,filler,D,50,frog40.jpg,frog60.jpg,GoalB,option1;option2
1687287448,423d73030b27d88c00656b81f25a0eaf,PennController,32,0,experiment,NULL,PennController,31,_Trial_,End,1687287211198,5bb20ae1ec73cb00011d60e8,5bb20ae1ec73cb00011d60e8,29,frog,filler,D,50,frog40.jpg,frog60.jpg,GoalB,NULL
1687287448,423d73030b27d88c00656b81f25a0eaf,PennController,4,0,experiment,NULL,PennController,3,_Trial_,Start,1687287211202,5bb20ae1ec73cb00011d60e8,5bb20ae1ec73cb00011d60e8,1,vase,critical,D,25,vase15.jpg,vase35.jpg,high,NULL
1687287448,423d73030b27d88c00656b81f25a0eaf,PennController,4,0,experiment,NULL,PennController,3,_Header_,Start,1687287211202,5bb20ae1ec73cb00011d60e8,5bb20ae1ec73cb00011d60e8,1,vase,critical,D,25,vase15.jpg,vase35.jpg,high,NULL
1687287448,423d73030b27d88c00656b81f25a0eaf,PennController,4,0,experiment,NULL,PennController,3,_Header_,End,1687287211202,5bb20ae1ec73cb00011d60e8,5bb20ae1ec73cb00011d60e8,1,vase,critical,D,25,vase15.jpg,vase35.jpg,high,NULL
1687287448,423d73030b27d88c00656b81f25a0eaf,PennController,4,0,experiment,NULL,Canvas,canvas6,Print,NA,1687287216927,5bb20ae1ec73cb00011d60e8,5bb20ae1ec73cb00011d60e8,1,vase,critical,D,25,vase15.jpg,vase35.jpg,high,NULL
1687287448,423d73030b27d88c00656b81f25a0eaf,PennController,4,0,experiment,NULL,Video,progression,buffer,0,1687287214747,5bb20ae1ec73cb00011d60e8,5bb20ae1ec73cb00011d60e8,1,vase,critical,D,25,vase15.jpg,vase35.jpg,high,NULL
1687287448,423d73030b27d88c00656b81f25a0eaf,PennController,4,0,experiment,NULL,Selector,choice,Selection,option1,1687287223941,5bb20ae1ec73cb00011d60e8,5bb20ae1ec73cb00011d60e8,1,vase,critical,D,25,vase15.jpg,vase35.jpg,high,option2;option1
1687287448,423d73030b27d88c00656b81f25a0eaf,PennController,4,0,experiment,NULL,PennController,3,_Trial_,End,1687287223944,5bb20ae1ec73cb00011d60e8,5bb20ae1ec73cb00011d60e8,1,vase,critical,D,25,vase15.jpg,vase35.jpg,high,NULL
1687287448,423d73030b27d88c00656b81f25a0eaf,PennController,29,0,experiment,NULL,PennController,28,_Trial_,Start,1687287223948,5bb20ae1ec73cb00011d60e8,5bb20ae1ec73cb00011d60e8,26,sandwich,filler,D,50,sandwich40.jpg,sandwich60.jpg,GoalA,NULL
1687287448,423d73030b27d88c00656b81f25a0eaf,PennController,29,0,experiment,NULL,PennController,28,_Header_,Start,1687287223948,5bb20ae1ec73cb00011d60e8,5bb20ae1ec73cb00011d60e8,26,sandwich,filler,D,50,sandwich40.jpg,sandwich60.jpg,GoalA,NULL
1687287448,423d73030b27d88c00656b81f25a0eaf,PennController,29,0,experiment,NULL,PennController,28,_Header_,End,1687287223948,5bb20ae1ec73cb00011d60e8,5bb20ae1ec73cb00011d60e8,26,sandwich,filler,D,50,sandwich40.jpg,sandwich60.jpg,GoalA,NULL
1687287448,423d73030b27d88c00656b81f25a0eaf,PennController,29,0,experiment,NULL,Canvas,canvas6,Print,NA,1687287230662,5bb20ae1ec73cb00011d60e8,5bb20ae1ec73cb00011d60e8,26,sandwich,filler,D,50,sandwich40.jpg,sandwich60.jpg,GoalA,NULL
1687287448,423d73030b27d88c00656b81f25a0eaf,PennController,29,0,experiment,NULL,Video,progression,buffer,0.007197,1687287227495,5bb20ae1ec73cb00011d60e8,5bb20ae1ec73cb00011d60e8,26,sandwich,filler,D,50,sandwich40.jpg,sandwich60.jpg,GoalA,NULL
1687287448,423d73030b27d88c00656b81f25a0eaf,PennController,29,0,experiment,NULL,Selector,choice,Selection,option1,1687287236619,5bb20ae1ec73cb00011d60e8,5bb20ae1ec73cb00011d60e8,26,sandwich,filler,D,50,sandwich40.jpg,sandwich60.jpg,GoalA,option1;option2
1687287448,423d73030b27d88c00656b81f25a0eaf,PennController,29,0,experiment,NULL,PennController,28,_Trial_,End,1687287236622,5bb20ae1ec73cb00011d60e8,5bb20ae1ec73cb00011d60e8,26,sandwich,filler,D,50,sandwich40.jpg,sandwich60.jpg,GoalA,NULL
1687287448,423d73030b27d88c00656b81f25a0eaf,PennController,26,0,experiment,NULL,PennController,25,_Trial_,Start,1687287236626,5bb20ae1ec73cb00011d60e8,5bb20ae1ec73cb00011d60e8,23,color,filler,D,50,color40.jpg,color60.jpg,GoalB,NULL
1687287448,423d73030b27d88c00656b81f25a0eaf,PennController,26,0,experiment,NULL,PennController,25,_Header_,Start,1687287236626,5bb20ae1ec73cb00011d60e8,5bb20ae1ec73cb00011d60e8,23,color,filler,D,50,color40.jpg,color60.jpg,GoalB,NULL
1687287448,423d73030b27d88c00656b81f25a0eaf,PennController,26,0,experiment,NULL,PennController,25,_Header_,End,1687287236626,5bb20ae1ec73cb00011d60e8,5bb20ae1ec73cb00011d60e8,23,color,filler,D,50,color40.jpg,color60.jpg,GoalB,NULL
1687287448,423d73030b27d88c00656b81f25a0eaf,PennController,26,0,experiment,NULL,Canvas,canvas6,Print,NA,1687287243347,5bb20ae1ec73cb00011d60e8,5bb20ae1ec73cb00011d60e8,23,color,filler,D,50,color40.jpg,color60.jpg,GoalB,NULL
1687287448,423d73030b27d88c00656b81f25a0eaf,PennController,26,0,experiment,NULL,Video,progression,buffer,0.010786,1687287240177,5bb20ae1ec73cb00011d60e8,5bb20ae1ec73cb00011d60e8,23,color,filler,D,50,color40.jpg,color60.jpg,GoalB,NULL
1687287448,423d73030b27d88c00656b81f25a0eaf,PennController,26,0,experiment,NULL,Selector,choice,Selection,option1,1687287248579,5bb20ae1ec73cb00011d60e8,5bb20ae1ec73cb00011d60e8,23,color,filler,D,50,color40.jpg,color60.jpg,GoalB,option1;option2
1687287448,423d73030b27d88c00656b81f25a0eaf,PennController,26,0,experiment,NULL,PennController,25,_Trial_,End,1687287248582,5bb20ae1ec73cb00011d60e8,5bb20ae1ec73cb00011d60e8,23,color,filler,D,50,color40.jpg,color60.jpg,GoalB,NULL
1687287448,423d73030b27d88c00656b81f25a0eaf,PennController,11,0,experiment,NULL,PennController,10,_Trial_,Start,1687287248586,5bb20ae1ec73cb00011d60e8,5bb20ae1ec73cb00011d60e8,8,cucumber,critical,D,50,cucumber42.jpg,cucumber60.jpg,high,NULL
1687287448,423d73030b27d88c00656b81f25a0eaf,PennController,11,0,experiment,NULL,PennController,10,_Header_,Start,1687287248586,5bb20ae1ec73cb00011d60e8,5bb20ae1ec73cb00011d60e8,8,cucumber,critical,D,50,cucumber42.jpg,cucumber60.jpg,high,NULL
1687287448,423d73030b27d88c00656b81f25a0eaf,PennController,11,0,experiment,NULL,PennController,10,_Header_,End,1687287248586,5bb20ae1ec73cb00011d60e8,5bb20ae1ec73cb00011d60e8,8,cucumber,critical,D,50,cucumber42.jpg,cucumber60.jpg,high,NULL
1687287448,423d73030b27d88c00656b81f25a0eaf,PennController,11,0,experiment,NULL,Canvas,canvas6,Print,NA,1687287256696,5bb20ae1ec73cb00011d60e8,5bb20ae1ec73cb00011d60e8,8,cucumber,critical,D,50,cucumber42.jpg,cucumber60.jpg,high,NULL
1687287448,423d73030b27d88c00656b81f25a0eaf,PennController,11,0,experiment,NULL,Video,progression,buffer,0.007707,1687287252130,5bb20ae1ec73cb00011d60e8,5bb20ae1ec73cb00011d60e8,8,cucumber,critical,D,50,cucumber42.jpg,cucumber60.jpg,high,NULL
1687287448,423d73030b27d88c00656b81f25a0eaf,PennController,11,0,experiment,NULL,Selector,choice,Selection,option1,1687287263255,5bb20ae1ec73cb00011d60e8,5bb20ae1ec73cb00011d60e8,8,cucumber,critical,D,50,cucumber42.jpg,cucumber60.jpg,high,option2;option1
1687287448,423d73030b27d88c00656b81f25a0eaf,PennController,11,0,experiment,NULL,PennController,10,_Trial_,End,1687287263258,5bb20ae1ec73cb00011d60e8,5bb20ae1ec73cb00011d60e8,8,cucumber,critical,D,50,cucumber42.jpg,cucumber60.jpg,high,NULL
1687287448,423d73030b27d88c00656b81f25a0eaf,PennController,20,0,experiment,NULL,PennController,19,_Trial_,Start,1687287263262,5bb20ae1ec73cb00011d60e8,5bb20ae1ec73cb00011d60e8,17,roll,critical,D,50,roll40.jpg,roll60.jpg,high,NULL
1687287448,423d73030b27d88c00656b81f25a0eaf,PennController,20,0,experiment,NULL,PennController,19,_Header_,Start,1687287263262,5bb20ae1ec73cb00011d60e8,5bb20ae1ec73cb00011d60e8,17,roll,critical,D,50,roll40.jpg,roll60.jpg,high,NULL
1687287448,423d73030b27d88c00656b81f25a0eaf,PennController,20,0,experiment,NULL,PennController,19,_Header_,End,1687287263262,5bb20ae1ec73cb00011d60e8,5bb20ae1ec73cb00011d60e8,17,roll,critical,D,50,roll40.jpg,roll60.jpg,high,NULL
1687287448,423d73030b27d88c00656b81f25a0eaf,PennController,20,0,experiment,NULL,Canvas,canvas6,Print,NA,1687287270128,5bb20ae1ec73cb00011d60e8,5bb20ae1ec73cb00011d60e8,17,roll,critical,D,50,roll40.jpg,roll60.jpg,high,NULL
1687287448,423d73030b27d88c00656b81f25a0eaf,PennController,20,0,experiment,NULL,Video,progression,buffer,0,1687287266813,5bb20ae1ec73cb00011d60e8,5bb20ae1ec73cb00011d60e8,17,roll,critical,D,50,roll40.jpg,roll60.jpg,high,NULL
1687287448,423d73030b27d88c00656b81f25a0eaf,PennController,20,0,experiment,NULL,Selector,choice,Selection,option2,1687287277244,5bb20ae1ec73cb00011d60e8,5bb20ae1ec73cb00011d60e8,17,roll,critical,D,50,roll40.jpg,roll60.jpg,high,option1;option2
1687287448,423d73030b27d88c00656b81f25a0eaf,PennController,20,0,experiment,NULL,PennController,19,_Trial_,End,1687287277248,5bb20ae1ec73cb00011d60e8,5bb20ae1ec73cb00011d60e8,17,roll,critical,D,50,roll40.jpg,roll60.jpg,high,NULL
1687287448,423d73030b27d88c00656b81f25a0eaf,PennController,22,0,experiment,NULL,PennController,21,_Trial_,Start,1687287277252,5bb20ae1ec73cb00011d60e8,5bb20ae1ec73cb00011d60e8,19,cup,filler,D,25,cup15.jpg,cup35.jpg,GoalB,NULL
1687287448,423d73030b27d88c00656b81f25a0eaf,PennController,22,0,experiment,NULL,PennController,21,_Header_,Start,1687287277252,5bb20ae1ec73cb00011d60e8,5bb20ae1ec73cb00011d60e8,19,cup,filler,D,25,cup15.jpg,cup35.jpg,GoalB,NULL
1687287448,423d73030b27d88c00656b81f25a0eaf,PennController,22,0,experiment,NULL,PennController,21,_Header_,End,1687287277252,5bb20ae1ec73cb00011d60e8,5bb20ae1ec73cb00011d60e8,19,cup,filler,D,25,cup15.jpg,cup35.jpg,GoalB,NULL
1687287448,423d73030b27d88c00656b81f25a0eaf,PennController,22,0,experiment,NULL,Canvas,canvas6,Print,NA,1687287282960,5bb20ae1ec73cb00011d60e8,5bb20ae1ec73cb00011d60e8,19,cup,filler,D,25,cup15.jpg,cup35.jpg,GoalB,NULL
1687287448,423d73030b27d88c00656b81f25a0eaf,PennController,22,0,experiment,NULL,Video,progression,buffer,0.011418,1687287280797,5bb20ae1ec73cb00011d60e8,5bb20ae1ec73cb00011d60e8,19,cup,filler,D,25,cup15.jpg,cup35.jpg,GoalB,NULL
1687287448,423d73030b27d88c00656b81f25a0eaf,PennController,22,0,experiment,NULL,Selector,choice,Selection,option2,1687287287198,5bb20ae1ec73cb00011d60e8,5bb20ae1ec73cb00011d60e8,19,cup,filler,D,25,cup15.jpg,cup35.jpg,GoalB,option2;option1
1687287448,423d73030b27d88c00656b81f25a0eaf,PennController,22,0,experiment,NULL,PennController,21,_Trial_,End,1687287287201,5bb20ae1ec73cb00011d60e8,5bb20ae1ec73cb00011d60e8,19,cup,filler,D,25,cup15.jpg,cup35.jpg,GoalB,NULL
1687287448,423d73030b27d88c00656b81f25a0eaf,PennController,7,0,experiment,NULL,PennController,6,_Trial_,Start,1687287287205,5bb20ae1ec73cb00011d60e8,5bb20ae1ec73cb00011d60e8,4,candy,critical,D,25,candy15.jpg,candy35.jpg,high,NULL
1687287448,423d73030b27d88c00656b81f25a0eaf,PennController,7,0,experiment,NULL,PennController,6,_Header_,Start,1687287287205,5bb20ae1ec73cb00011d60e8,5bb20ae1ec73cb00011d60e8,4,candy,critical,D,25,candy15.jpg,candy35.jpg,high,NULL
1687287448,423d73030b27d88c00656b81f25a0eaf,PennController,7,0,experiment,NULL,PennController,6,_Header_,End,1687287287205,5bb20ae1ec73cb00011d60e8,5bb20ae1ec73cb00011d60e8,4,candy,critical,D,25,candy15.jpg,candy35.jpg,high,NULL
1687287448,423d73030b27d88c00656b81f25a0eaf,PennController,7,0,experiment,NULL,Canvas,canvas6,Print,NA,1687287292929,5bb20ae1ec73cb00011d60e8,5bb20ae1ec73cb00011d60e8,4,candy,critical,D,25,candy15.jpg,candy35.jpg,high,NULL
1687287448,423d73030b27d88c00656b81f25a0eaf,PennController,7,0,experiment,NULL,Video,progression,buffer,0.004853,1687287290748,5bb20ae1ec73cb00011d60e8,5bb20ae1ec73cb00011d60e8,4,candy,critical,D,25,candy15.jpg,candy35.jpg,high,NULL
1687287448,423d73030b27d88c00656b81f25a0eaf,PennController,7,0,experiment,NULL,Selector,choice,Selection,option1,1687287297232,5bb20ae1ec73cb00011d60e8,5bb20ae1ec73cb00011d60e8,4,candy,critical,D,25,candy15.jpg,candy35.jpg,high,option1;option2
1687287448,423d73030b27d88c00656b81f25a0eaf,PennController,7,0,experiment,NULL,PennController,6,_Trial_,End,1687287297235,5bb20ae1ec73cb00011d60e8,5bb20ae1ec73cb00011d60e8,4,candy,critical,D,25,candy15.jpg,candy35.jpg,high,NULL
1687287448,423d73030b27d88c00656b81f25a0eaf,PennController,5,0,experiment,NULL,PennController,4,_Trial_,Start,1687287297238,5bb20ae1ec73cb00011d60e8,5bb20ae1ec73cb00011d60e8,2,door,critical,D,50,door40.jpg,door60.jpg,high,NULL
1687287448,423d73030b27d88c00656b81f25a0eaf,PennController,5,0,experiment,NULL,PennController,4,_Header_,Start,1687287297238,5bb20ae1ec73cb00011d60e8,5bb20ae1ec73cb00011d60e8,2,door,critical,D,50,door40.jpg,door60.jpg,high,NULL
1687287448,423d73030b27d88c00656b81f25a0eaf,PennController,5,0,experiment,NULL,PennController,4,_Header_,End,1687287297239,5bb20ae1ec73cb00011d60e8,5bb20ae1ec73cb00011d60e8,2,door,critical,D,50,door40.jpg,door60.jpg,high,NULL
1687287448,423d73030b27d88c00656b81f25a0eaf,PennController,5,0,experiment,NULL,Canvas,canvas6,Print,NA,1687287303962,5bb20ae1ec73cb00011d60e8,5bb20ae1ec73cb00011d60e8,2,door,critical,D,50,door40.jpg,door60.jpg,high,NULL
1687287448,423d73030b27d88c00656b81f25a0eaf,PennController,5,0,experiment,NULL,Video,progression,buffer,0.010605,1687287300792,5bb20ae1ec73cb00011d60e8,5bb20ae1ec73cb00011d60e8,2,door,critical,D,50,door40.jpg,door60.jpg,high,NULL
1687287448,423d73030b27d88c00656b81f25a0eaf,PennController,5,0,experiment,NULL,Selector,choice,Selection,option2,1687287307885,5bb20ae1ec73cb00011d60e8,5bb20ae1ec73cb00011d60e8,2,door,critical,D,50,door40.jpg,door60.jpg,high,option2;option1
1687287448,423d73030b27d88c00656b81f25a0eaf,PennController,5,0,experiment,NULL,PennController,4,_Trial_,End,1687287307888,5bb20ae1ec73cb00011d60e8,5bb20ae1ec73cb00011d60e8,2,door,critical,D,50,door40.jpg,door60.jpg,high,NULL
1687287448,423d73030b27d88c00656b81f25a0eaf,PennController,28,0,experiment,NULL,PennController,27,_Trial_,Start,1687287307892,5bb20ae1ec73cb00011d60e8,5bb20ae1ec73cb00011d60e8,25,house,filler,D,25,house15.jpg,house35.jpg,GoalB,NULL
1687287448,423d73030b27d88c00656b81f25a0eaf,PennController,28,0,experiment,NULL,PennController,27,_Header_,Start,1687287307892,5bb20ae1ec73cb00011d60e8,5bb20ae1ec73cb00011d60e8,25,house,filler,D,25,house15.jpg,house35.jpg,GoalB,NULL
1687287448,423d73030b27d88c00656b81f25a0eaf,PennController,28,0,experiment,NULL,PennController,27,_Header_,End,1687287307892,5bb20ae1ec73cb00011d60e8,5bb20ae1ec73cb00011d60e8,25,house,filler,D,25,house15.jpg,house35.jpg,GoalB,NULL
1687287448,423d73030b27d88c00656b81f25a0eaf,PennController,28,0,experiment,NULL,Canvas,canvas6,Print,NA,1687287313609,5bb20ae1ec73cb00011d60e8,5bb20ae1ec73cb00011d60e8,25,house,filler,D,25,house15.jpg,house35.jpg,GoalB,NULL
1687287448,423d73030b27d88c00656b81f25a0eaf,PennController,28,0,experiment,NULL,Video,progression,buffer,0.009852,1687287311442,5bb20ae1ec73cb00011d60e8,5bb20ae1ec73cb00011d60e8,25,house,filler,D,25,house15.jpg,house35.jpg,GoalB,NULL
1687287448,423d73030b27d88c00656b81f25a0eaf,PennController,28,0,experiment,NULL,Selector,choice,Selection,option2,1687287316271,5bb20ae1ec73cb00011d60e8,5bb20ae1ec73cb00011d60e8,25,house,filler,D,25,house15.jpg,house35.jpg,GoalB,option1;option2
1687287448,423d73030b27d88c00656b81f25a0eaf,PennController,28,0,experiment,NULL,PennController,27,_Trial_,End,1687287316274,5bb20ae1ec73cb00011d60e8,5bb20ae1ec73cb00011d60e8,25,house,filler,D,25,house15.jpg,house35.jpg,GoalB,NULL
1687287448,423d73030b27d88c00656b81f25a0eaf,PennController,6,0,experiment,NULL,PennController,5,_Trial_,Start,1687287316277,5bb20ae1ec73cb00011d60e8,5bb20ae1ec73cb00011d60e8,3,clean,critical,D,75,clean65.jpg,clean85.jpg,high,NULL
1687287448,423d73030b27d88c00656b81f25a0eaf,PennController,6,0,experiment,NULL,PennController,5,_Header_,Start,1687287316277,5bb20ae1ec73cb00011d60e8,5bb20ae1ec73cb00011d60e8,3,clean,critical,D,75,clean65.jpg,clean85.jpg,high,NULL
1687287448,423d73030b27d88c00656b81f25a0eaf,PennController,6,0,experiment,NULL,PennController,5,_Header_,End,1687287316277,5bb20ae1ec73cb00011d60e8,5bb20ae1ec73cb00011d60e8,3,clean,critical,D,75,clean65.jpg,clean85.jpg,high,NULL
1687287448,423d73030b27d88c00656b81f25a0eaf,PennController,6,0,experiment,NULL,Canvas,canvas6,Print,NA,1687287323995,5bb20ae1ec73cb00011d60e8,5bb20ae1ec73cb00011d60e8,3,clean,critical,D,75,clean65.jpg,clean85.jpg,high,NULL
1687287448,423d73030b27d88c00656b81f25a0eaf,PennController,6,0,experiment,NULL,Video,progression,buffer,0.00046,1687287319823,5bb20ae1ec73cb00011d60e8,5bb20ae1ec73cb00011d60e8,3,clean,critical,D,75,clean65.jpg,clean85.jpg,high,NULL
1687287448,423d73030b27d88c00656b81f25a0eaf,PennController,6,0,experiment,NULL,Selector,choice,Selection,option1,1687287328026,5bb20ae1ec73cb00011d60e8,5bb20ae1ec73cb00011d60e8,3,clean,critical,D,75,clean65.jpg,clean85.jpg,high,option2;option1
1687287448,423d73030b27d88c00656b81f25a0eaf,PennController,6,0,experiment,NULL,PennController,5,_Trial_,End,1687287328029,5bb20ae1ec73cb00011d60e8,5bb20ae1ec73cb00011d60e8,3,clean,critical,D,75,clean65.jpg,clean85.jpg,high,NULL
1687287448,423d73030b27d88c00656b81f25a0eaf,PennController,14,0,experiment,NULL,PennController,13,_Trial_,Start,1687287328034,5bb20ae1ec73cb00011d60e8,5bb20ae1ec73cb00011d60e8,11,beads,critical,D,50,beads40.jpg,beads60.jpg,high,NULL
1687287448,423d73030b27d88c00656b81f25a0eaf,PennController,14,0,experiment,NULL,PennController,13,_Header_,Start,1687287328034,5bb20ae1ec73cb00011d60e8,5bb20ae1ec73cb00011d60e8,11,beads,critical,D,50,beads40.jpg,beads60.jpg,high,NULL
1687287448,423d73030b27d88c00656b81f25a0eaf,PennController,14,0,experiment,NULL,PennController,13,_Header_,End,1687287328034,5bb20ae1ec73cb00011d60e8,5bb20ae1ec73cb00011d60e8,11,beads,critical,D,50,beads40.jpg,beads60.jpg,high,NULL
1687287448,423d73030b27d88c00656b81f25a0eaf,PennController,14,0,experiment,NULL,Canvas,canvas6,Print,NA,1687287334741,5bb20ae1ec73cb00011d60e8,5bb20ae1ec73cb00011d60e8,11,beads,critical,D,50,beads40.jpg,beads60.jpg,high,NULL
1687287448,423d73030b27d88c00656b81f25a0eaf,PennController,14,0,experiment,NULL,Video,progression,buffer,0.007545,1687287331578,5bb20ae1ec73cb00011d60e8,5bb20ae1ec73cb00011d60e8,11,beads,critical,D,50,beads40.jpg,beads60.jpg,high,NULL
1687287448,423d73030b27d88c00656b81f25a0eaf,PennController,14,0,experiment,NULL,Selector,choice,Selection,option1,1687287339221,5bb20ae1ec73cb00011d60e8,5bb20ae1ec73cb00011d60e8,11,beads,critical,D,50,beads40.jpg,beads60.jpg,high,option1;option2
1687287448,423d73030b27d88c00656b81f25a0eaf,PennController,14,0,experiment,NULL,PennController,13,_Trial_,End,1687287339224,5bb20ae1ec73cb00011d60e8,5bb20ae1ec73cb00011d60e8,11,beads,critical,D,50,beads40.jpg,beads60.jpg,high,NULL
1687287448,423d73030b27d88c00656b81f25a0eaf,PennController,27,0,experiment,NULL,PennController,26,_Trial_,Start,1687287339227,5bb20ae1ec73cb00011d60e8,5bb20ae1ec73cb00011d60e8,24,match,filler,D,75,match65.jpg,match85.jpg,GoalA,NULL
1687287448,423d73030b27d88c00656b81f25a0eaf,PennController,27,0,experiment,NULL,PennController,26,_Header_,Start,1687287339227,5bb20ae1ec73cb00011d60e8,5bb20ae1ec73cb00011d60e8,24,match,filler,D,75,match65.jpg,match85.jpg,GoalA,NULL
1687287448,423d73030b27d88c00656b81f25a0eaf,PennController,27,0,experiment,NULL,PennController,26,_Header_,End,1687287339227,5bb20ae1ec73cb00011d60e8,5bb20ae1ec73cb00011d60e8,24,match,filler,D,75,match65.jpg,match85.jpg,GoalA,NULL
1687287448,423d73030b27d88c00656b81f25a0eaf,PennController,27,0,experiment,NULL,Canvas,canvas6,Print,NA,1687287346945,5bb20ae1ec73cb00011d60e8,5bb20ae1ec73cb00011d60e8,24,match,filler,D,75,match65.jpg,match85.jpg,GoalA,NULL
1687287448,423d73030b27d88c00656b81f25a0eaf,PennController,27,0,experiment,NULL,Video,progression,buffer,0.00041,1687287342774,5bb20ae1ec73cb00011d60e8,5bb20ae1ec73cb00011d60e8,24,match,filler,D,75,match65.jpg,match85.jpg,GoalA,NULL
1687287448,423d73030b27d88c00656b81f25a0eaf,PennController,27,0,experiment,NULL,Selector,choice,Selection,option2,1687287349527,5bb20ae1ec73cb00011d60e8,5bb20ae1ec73cb00011d60e8,24,match,filler,D,75,match65.jpg,match85.jpg,GoalA,option1;option2
1687287448,423d73030b27d88c00656b81f25a0eaf,PennController,27,0,experiment,NULL,PennController,26,_Trial_,End,1687287349529,5bb20ae1ec73cb00011d60e8,5bb20ae1ec73cb00011d60e8,24,match,filler,D,75,match65.jpg,match85.jpg,GoalA,NULL
1687287448,423d73030b27d88c00656b81f25a0eaf,PennController,19,0,experiment,NULL,PennController,18,_Trial_,Start,1687287349533,5bb20ae1ec73cb00011d60e8,5bb20ae1ec73cb00011d60e8,16,blinds,critical,D,25,blinds15.jpg,blinds33.jpg,high,NULL
1687287448,423d73030b27d88c00656b81f25a0eaf,PennController,19,0,experiment,NULL,PennController,18,_Header_,Start,1687287349533,5bb20ae1ec73cb00011d60e8,5bb20ae1ec73cb00011d60e8,16,blinds,critical,D,25,blinds15.jpg,blinds33.jpg,high,NULL
1687287448,423d73030b27d88c00656b81f25a0eaf,PennController,19,0,experiment,NULL,PennController,18,_Header_,End,1687287349533,5bb20ae1ec73cb00011d60e8,5bb20ae1ec73cb00011d60e8,16,blinds,critical,D,25,blinds15.jpg,blinds33.jpg,high,NULL
1687287448,423d73030b27d88c00656b81f25a0eaf,PennController,19,0,experiment,NULL,Canvas,canvas6,Print,NA,1687287355842,5bb20ae1ec73cb00011d60e8,5bb20ae1ec73cb00011d60e8,16,blinds,critical,D,25,blinds15.jpg,blinds33.jpg,high,NULL
1687287448,423d73030b27d88c00656b81f25a0eaf,PennController,19,0,experiment,NULL,Video,progression,buffer,0.007002,1687287353080,5bb20ae1ec73cb00011d60e8,5bb20ae1ec73cb00011d60e8,16,blinds,critical,D,25,blinds15.jpg,blinds33.jpg,high,NULL
1687287448,423d73030b27d88c00656b81f25a0eaf,PennController,19,0,experiment,NULL,Selector,choice,Selection,option2,1687287358077,5bb20ae1ec73cb00011d60e8,5bb20ae1ec73cb00011d60e8,16,blinds,critical,D,25,blinds15.jpg,blinds33.jpg,high,option1;option2
1687287448,423d73030b27d88c00656b81f25a0eaf,PennController,19,0,experiment,NULL,PennController,18,_Trial_,End,1687287358080,5bb20ae1ec73cb00011d60e8,5bb20ae1ec73cb00011d60e8,16,blinds,critical,D,25,blinds15.jpg,blinds33.jpg,high,NULL
1687287448,423d73030b27d88c00656b81f25a0eaf,PennController,17,0,experiment,NULL,PennController,16,_Trial_,Start,1687287358083,5bb20ae1ec73cb00011d60e8,5bb20ae1ec73cb00011d60e8,14,cover,critical,D,50,cover42.jpg,cover60.jpg,high,NULL
1687287448,423d73030b27d88c00656b81f25a0eaf,PennController,17,0,experiment,NULL,PennController,16,_Header_,Start,1687287358083,5bb20ae1ec73cb00011d60e8,5bb20ae1ec73cb00011d60e8,14,cover,critical,D,50,cover42.jpg,cover60.jpg,high,NULL
1687287448,423d73030b27d88c00656b81f25a0eaf,PennController,17,0,experiment,NULL,PennController,16,_Header_,End,1687287358083,5bb20ae1ec73cb00011d60e8,5bb20ae1ec73cb00011d60e8,14,cover,critical,D,50,cover42.jpg,cover60.jpg,high,NULL
1687287448,423d73030b27d88c00656b81f25a0eaf,PennController,17,0,experiment,NULL,Canvas,canvas6,Print,NA,1687287366192,5bb20ae1ec73cb00011d60e8,5bb20ae1ec73cb00011d60e8,14,cover,critical,D,50,cover42.jpg,cover60.jpg,high,NULL
1687287448,423d73030b27d88c00656b81f25a0eaf,PennController,17,0,experiment,NULL,Video,progression,buffer,0.011164,1687287361634,5bb20ae1ec73cb00011d60e8,5bb20ae1ec73cb00011d60e8,14,cover,critical,D,50,cover42.jpg,cover60.jpg,high,NULL
1687287448,423d73030b27d88c00656b81f25a0eaf,PennController,17,0,experiment,NULL,Selector,choice,Selection,option1,1687287371107,5bb20ae1ec73cb00011d60e8,5bb20ae1ec73cb00011d60e8,14,cover,critical,D,50,cover42.jpg,cover60.jpg,high,option1;option2
1687287448,423d73030b27d88c00656b81f25a0eaf,PennController,17,0,experiment,NULL,PennController,16,_Trial_,End,1687287371111,5bb20ae1ec73cb00011d60e8,5bb20ae1ec73cb00011d60e8,14,cover,critical,D,50,cover42.jpg,cover60.jpg,high,NULL
1687287448,423d73030b27d88c00656b81f25a0eaf,PennController,16,0,experiment,NULL,PennController,15,_Trial_,Start,1687287371114,5bb20ae1ec73cb00011d60e8,5bb20ae1ec73cb00011d60e8,13,mix,critical,D,25,mix15.jpg,mix35.jpg,high,NULL
1687287448,423d73030b27d88c00656b81f25a0eaf,PennController,16,0,experiment,NULL,PennController,15,_Header_,Start,1687287371114,5bb20ae1ec73cb00011d60e8,5bb20ae1ec73cb00011d60e8,13,mix,critical,D,25,mix15.jpg,mix35.jpg,high,NULL
1687287448,423d73030b27d88c00656b81f25a0eaf,PennController,16,0,experiment,NULL,PennController,15,_Header_,End,1687287371114,5bb20ae1ec73cb00011d60e8,5bb20ae1ec73cb00011d60e8,13,mix,critical,D,25,mix15.jpg,mix35.jpg,high,NULL
1687287448,423d73030b27d88c00656b81f25a0eaf,PennController,16,0,experiment,NULL,Canvas,canvas6,Print,NA,1687287376826,5bb20ae1ec73cb00011d60e8,5bb20ae1ec73cb00011d60e8,13,mix,critical,D,25,mix15.jpg,mix35.jpg,high,NULL
1687287448,423d73030b27d88c00656b81f25a0eaf,PennController,16,0,experiment,NULL,Video,progression,buffer,0.010405,1687287374662,5bb20ae1ec73cb00011d60e8,5bb20ae1ec73cb00011d60e8,13,mix,critical,D,25,mix15.jpg,mix35.jpg,high,NULL
1687287448,423d73030b27d88c00656b81f25a0eaf,PennController,16,0,experiment,NULL,Selector,choice,Selection,option1,1687287379931,5bb20ae1ec73cb00011d60e8,5bb20ae1ec73cb00011d60e8,13,mix,critical,D,25,mix15.jpg,mix35.jpg,high,option2;option1
1687287448,423d73030b27d88c00656b81f25a0eaf,PennController,16,0,experiment,NULL,PennController,15,_Trial_,End,1687287379934,5bb20ae1ec73cb00011d60e8,5bb20ae1ec73cb00011d60e8,13,mix,critical,D,25,mix15.jpg,mix35.jpg,high,NULL
1687287448,423d73030b27d88c00656b81f25a0eaf,PennController,9,0,experiment,NULL,PennController,8,_Trial_,Start,1687287379937,5bb20ae1ec73cb00011d60e8,5bb20ae1ec73cb00011d60e8,6,flower,critical,D,75,flower65.jpg,flower85.jpg,high,NULL
1687287448,423d73030b27d88c00656b81f25a0eaf,PennController,9,0,experiment,NULL,PennController,8,_Header_,Start,1687287379937,5bb20ae1ec73cb00011d60e8,5bb20ae1ec73cb00011d60e8,6,flower,critical,D,75,flower65.jpg,flower85.jpg,high,NULL
1687287448,423d73030b27d88c00656b81f25a0eaf,PennController,9,0,experiment,NULL,PennController,8,_Header_,End,1687287379937,5bb20ae1ec73cb00011d60e8,5bb20ae1ec73cb00011d60e8,6,flower,critical,D,75,flower65.jpg,flower85.jpg,high,NULL
1687287448,423d73030b27d88c00656b81f25a0eaf,PennController,9,0,experiment,NULL,Canvas,canvas6,Print,NA,1687287387657,5bb20ae1ec73cb00011d60e8,5bb20ae1ec73cb00011d60e8,6,flower,critical,D,75,flower65.jpg,flower85.jpg,high,NULL
1687287448,423d73030b27d88c00656b81f25a0eaf,PennController,9,0,experiment,NULL,Video,progression,buffer,0.009504,1687287383484,5bb20ae1ec73cb00011d60e8,5bb20ae1ec73cb00011d60e8,6,flower,critical,D,75,flower65.jpg,flower85.jpg,high,NULL
1687287448,423d73030b27d88c00656b81f25a0eaf,PennController,9,0,experiment,NULL,Selector,choice,Selection,option2,1687287390327,5bb20ae1ec73cb00011d60e8,5bb20ae1ec73cb00011d60e8,6,flower,critical,D,75,flower65.jpg,flower85.jpg,high,option1;option2
1687287448,423d73030b27d88c00656b81f25a0eaf,PennController,9,0,experiment,NULL,PennController,8,_Trial_,End,1687287390330,5bb20ae1ec73cb00011d60e8,5bb20ae1ec73cb00011d60e8,6,flower,critical,D,75,flower65.jpg,flower85.jpg,high,NULL
1687287448,423d73030b27d88c00656b81f25a0eaf,PennController,12,0,experiment,NULL,PennController,11,_Trial_,Start,1687287390333,5bb20ae1ec73cb00011d60e8,5bb20ae1ec73cb00011d60e8,9,cake,critical,D,75,cake66.jpg,cake84.jpg,high,NULL
1687287448,423d73030b27d88c00656b81f25a0eaf,PennController,12,0,experiment,NULL,PennController,11,_Header_,Start,1687287390333,5bb20ae1ec73cb00011d60e8,5bb20ae1ec73cb00011d60e8,9,cake,critical,D,75,cake66.jpg,cake84.jpg,high,NULL
1687287448,423d73030b27d88c00656b81f25a0eaf,PennController,12,0,experiment,NULL,PennController,11,_Header_,End,1687287390333,5bb20ae1ec73cb00011d60e8,5bb20ae1ec73cb00011d60e8,9,cake,critical,D,75,cake66.jpg,cake84.jpg,high,NULL
1687287448,423d73030b27d88c00656b81f25a0eaf,PennController,12,0,experiment,NULL,Canvas,canvas6,Print,NA,1687287400042,5bb20ae1ec73cb00011d60e8,5bb20ae1ec73cb00011d60e8,9,cake,critical,D,75,cake66.jpg,cake84.jpg,high,NULL
1687287448,423d73030b27d88c00656b81f25a0eaf,PennController,12,0,experiment,NULL,Video,progression,buffer,0.010168,1687287393879,5bb20ae1ec73cb00011d60e8,5bb20ae1ec73cb00011d60e8,9,cake,critical,D,75,cake66.jpg,cake84.jpg,high,NULL
1687287448,423d73030b27d88c00656b81f25a0eaf,PennController,12,0,experiment,NULL,Selector,choice,Selection,option1,1687287403175,5bb20ae1ec73cb00011d60e8,5bb20ae1ec73cb00011d60e8,9,cake,critical,D,75,cake66.jpg,cake84.jpg,high,option2;option1
1687287448,423d73030b27d88c00656b81f25a0eaf,PennController,12,0,experiment,NULL,PennController,11,_Trial_,End,1687287403178,5bb20ae1ec73cb00011d60e8,5bb20ae1ec73cb00011d60e8,9,cake,critical,D,75,cake66.jpg,cake84.jpg,high,NULL
1687287448,423d73030b27d88c00656b81f25a0eaf,PennController,23,0,experiment,NULL,PennController,22,_Trial_,Start,1687287403182,5bb20ae1ec73cb00011d60e8,5bb20ae1ec73cb00011d60e8,20,cat,filler,D,50,cat40.jpg,cat60.jpg,GoalA,NULL
1687287448,423d73030b27d88c00656b81f25a0eaf,PennController,23,0,experiment,NULL,PennController,22,_Header_,Start,1687287403182,5bb20ae1ec73cb00011d60e8,5bb20ae1ec73cb00011d60e8,20,cat,filler,D,50,cat40.jpg,cat60.jpg,GoalA,NULL
1687287448,423d73030b27d88c00656b81f25a0eaf,PennController,23,0,experiment,NULL,PennController,22,_Header_,End,1687287403182,5bb20ae1ec73cb00011d60e8,5bb20ae1ec73cb00011d60e8,20,cat,filler,D,50,cat40.jpg,cat60.jpg,GoalA,NULL
1687287448,423d73030b27d88c00656b81f25a0eaf,PennController,23,0,experiment,NULL,Canvas,canvas6,Print,NA,1687287409908,5bb20ae1ec73cb00011d60e8,5bb20ae1ec73cb00011d60e8,20,cat,filler,D,50,cat40.jpg,cat60.jpg,GoalA,NULL
1687287448,423d73030b27d88c00656b81f25a0eaf,PennController,23,0,experiment,NULL,Video,progression,buffer,0.007213,1687287406731,5bb20ae1ec73cb00011d60e8,5bb20ae1ec73cb00011d60e8,20,cat,filler,D,50,cat40.jpg,cat60.jpg,GoalA,NULL
1687287448,423d73030b27d88c00656b81f25a0eaf,PennController,23,0,experiment,NULL,Selector,choice,Selection,option1,1687287412667,5bb20ae1ec73cb00011d60e8,5bb20ae1ec73cb00011d60e8,20,cat,filler,D,50,cat40.jpg,cat60.jpg,GoalA,option2;option1
1687287448,423d73030b27d88c00656b81f25a0eaf,PennController,23,0,experiment,NULL,PennController,22,_Trial_,End,1687287412669,5bb20ae1ec73cb00011d60e8,5bb20ae1ec73cb00011d60e8,20,cat,filler,D,50,cat40.jpg,cat60.jpg,GoalA,NULL
1687287448,423d73030b27d88c00656b81f25a0eaf,PennController,21,0,experiment,NULL,PennController,20,_Trial_,Start,1687287412673,5bb20ae1ec73cb00011d60e8,5bb20ae1ec73cb00011d60e8,18,ball,critical,D,75,ball65.jpg,ball85.jpg,high,NULL
1687287448,423d73030b27d88c00656b81f25a0eaf,PennController,21,0,experiment,NULL,PennController,20,_Header_,Start,1687287412673,5bb20ae1ec73cb00011d60e8,5bb20ae1ec73cb00011d60e8,18,ball,critical,D,75,ball65.jpg,ball85.jpg,high,NULL
1687287448,423d73030b27d88c00656b81f25a0eaf,PennController,21,0,experiment,NULL,PennController,20,_Header_,End,1687287412673,5bb20ae1ec73cb00011d60e8,5bb20ae1ec73cb00011d60e8,18,ball,critical,D,75,ball65.jpg,ball85.jpg,high,NULL
1687287448,423d73030b27d88c00656b81f25a0eaf,PennController,21,0,experiment,NULL,Canvas,canvas6,Print,NA,1687287420378,5bb20ae1ec73cb00011d60e8,5bb20ae1ec73cb00011d60e8,18,ball,critical,D,75,ball65.jpg,ball85.jpg,high,NULL
1687287448,423d73030b27d88c00656b81f25a0eaf,PennController,21,0,experiment,NULL,Video,progression,buffer,0.010474,1687287416215,5bb20ae1ec73cb00011d60e8,5bb20ae1ec73cb00011d60e8,18,ball,critical,D,75,ball65.jpg,ball85.jpg,high,NULL
1687287448,423d73030b27d88c00656b81f25a0eaf,PennController,21,0,experiment,NULL,Selector,choice,Selection,option1,1687287422501,5bb20ae1ec73cb00011d60e8,5bb20ae1ec73cb00011d60e8,18,ball,critical,D,75,ball65.jpg,ball85.jpg,high,option1;option2
1687287448,423d73030b27d88c00656b81f25a0eaf,PennController,21,0,experiment,NULL,PennController,20,_Trial_,End,1687287422504,5bb20ae1ec73cb00011d60e8,5bb20ae1ec73cb00011d60e8,18,ball,critical,D,75,ball65.jpg,ball85.jpg,high,NULL
1687287448,423d73030b27d88c00656b81f25a0eaf,PennController,18,0,experiment,NULL,PennController,17,_Trial_,Start,1687287422507,5bb20ae1ec73cb00011d60e8,5bb20ae1ec73cb00011d60e8,15,zip,critical,D,75,zip65.jpg,zip85.jpg,high,NULL
1687287448,423d73030b27d88c00656b81f25a0eaf,PennController,18,0,experiment,NULL,PennController,17,_Header_,Start,1687287422507,5bb20ae1ec73cb00011d60e8,5bb20ae1ec73cb00011d60e8,15,zip,critical,D,75,zip65.jpg,zip85.jpg,high,NULL
1687287448,423d73030b27d88c00656b81f25a0eaf,PennController,18,0,experiment,NULL,PennController,17,_Header_,End,1687287422507,5bb20ae1ec73cb00011d60e8,5bb20ae1ec73cb00011d60e8,15,zip,critical,D,75,zip65.jpg,zip85.jpg,high,NULL
1687287448,423d73030b27d88c00656b81f25a0eaf,PennController,18,0,experiment,NULL,Canvas,canvas6,Print,NA,1687287429424,5bb20ae1ec73cb00011d60e8,5bb20ae1ec73cb00011d60e8,15,zip,critical,D,75,zip65.jpg,zip85.jpg,high,NULL
1687287448,423d73030b27d88c00656b81f25a0eaf,PennController,18,0,experiment,NULL,Video,progression,buffer,0.011511,1687287426061,5bb20ae1ec73cb00011d60e8,5bb20ae1ec73cb00011d60e8,15,zip,critical,D,75,zip65.jpg,zip85.jpg,high,NULL
1687287448,423d73030b27d88c00656b81f25a0eaf,PennController,18,0,experiment,NULL,Selector,choice,Selection,option1,1687287430891,5bb20ae1ec73cb00011d60e8,5bb20ae1ec73cb00011d60e8,15,zip,critical,D,75,zip65.jpg,zip85.jpg,high,option2;option1
1687287448,423d73030b27d88c00656b81f25a0eaf,PennController,18,0,experiment,NULL,PennController,17,_Trial_,End,1687287430893,5bb20ae1ec73cb00011d60e8,5bb20ae1ec73cb00011d60e8,15,zip,critical,D,75,zip65.jpg,zip85.jpg,high,NULL
1687287448,423d73030b27d88c00656b81f25a0eaf,PennController,31,0,experiment,NULL,PennController,30,_Trial_,Start,1687287430897,5bb20ae1ec73cb00011d60e8,5bb20ae1ec73cb00011d60e8,28,sort,filler,D,25,sort15.jpg,sort35.jpg,GoalA,NULL
1687287448,423d73030b27d88c00656b81f25a0eaf,PennController,31,0,experiment,NULL,PennController,30,_Header_,Start,1687287430897,5bb20ae1ec73cb00011d60e8,5bb20ae1ec73cb00011d60e8,28,sort,filler,D,25,sort15.jpg,sort35.jpg,GoalA,NULL
1687287448,423d73030b27d88c00656b81f25a0eaf,PennController,31,0,experiment,NULL,PennController,30,_Header_,End,1687287430897,5bb20ae1ec73cb00011d60e8,5bb20ae1ec73cb00011d60e8,28,sort,filler,D,25,sort15.jpg,sort35.jpg,GoalA,NULL
1687287448,423d73030b27d88c00656b81f25a0eaf,PennController,31,0,experiment,NULL,Canvas,canvas6,Print,NA,1687287436607,5bb20ae1ec73cb00011d60e8,5bb20ae1ec73cb00011d60e8,28,sort,filler,D,25,sort15.jpg,sort35.jpg,GoalA,NULL
1687287448,423d73030b27d88c00656b81f25a0eaf,PennController,31,0,experiment,NULL,Video,progression,buffer,0.009441,1687287434444,5bb20ae1ec73cb00011d60e8,5bb20ae1ec73cb00011d60e8,28,sort,filler,D,25,sort15.jpg,sort35.jpg,GoalA,NULL
1687287448,423d73030b27d88c00656b81f25a0eaf,PennController,31,0,experiment,NULL,Selector,choice,Selection,option2,1687287438601,5bb20ae1ec73cb00011d60e8,5bb20ae1ec73cb00011d60e8,28,sort,filler,D,25,sort15.jpg,sort35.jpg,GoalA,option1;option2
1687287448,423d73030b27d88c00656b81f25a0eaf,PennController,31,0,experiment,NULL,PennController,30,_Trial_,End,1687287438604,5bb20ae1ec73cb00011d60e8,5bb20ae1ec73cb00011d60e8,28,sort,filler,D,25,sort15.jpg,sort35.jpg,GoalA,NULL
1687287448,423d73030b27d88c00656b81f25a0eaf,PennController,15,0,experiment,NULL,PennController,14,_Trial_,Start,1687287438607,5bb20ae1ec73cb00011d60e8,5bb20ae1ec73cb00011d60e8,12,erase,critical,D,75,erase66.jpg,erase84.jpg,high,NULL
1687287448,423d73030b27d88c00656b81f25a0eaf,PennController,15,0,experiment,NULL,PennController,14,_Header_,Start,1687287438607,5bb20ae1ec73cb00011d60e8,5bb20ae1ec73cb00011d60e8,12,erase,critical,D,75,erase66.jpg,erase84.jpg,high,NULL
1687287448,423d73030b27d88c00656b81f25a0eaf,PennController,15,0,experiment,NULL,PennController,14,_Header_,End,1687287438607,5bb20ae1ec73cb00011d60e8,5bb20ae1ec73cb00011d60e8,12,erase,critical,D,75,erase66.jpg,erase84.jpg,high,NULL
1687287448,423d73030b27d88c00656b81f25a0eaf,PennController,15,0,experiment,NULL,Canvas,canvas6,Print,NA,1687287448324,5bb20ae1ec73cb00011d60e8,5bb20ae1ec73cb00011d60e8,12,erase,critical,D,75,erase66.jpg,erase84.jpg,high,NULL
1687287448,423d73030b27d88c00656b81f25a0eaf,PennController,15,0,experiment,NULL,Video,progression,buffer,0.010547,1687287442153,5bb20ae1ec73cb00011d60e8,5bb20ae1ec73cb00011d60e8,12,erase,critical,D,75,erase66.jpg,erase84.jpg,high,NULL
1687287448,423d73030b27d88c00656b81f25a0eaf,PennController,15,0,experiment,NULL,Selector,choice,Selection,option2,1687287452090,5bb20ae1ec73cb00011d60e8,5bb20ae1ec73cb00011d60e8,12,erase,critical,D,75,erase66.jpg,erase84.jpg,high,option1;option2
1687287448,423d73030b27d88c00656b81f25a0eaf,PennController,15,0,experiment,NULL,PennController,14,_Trial_,End,1687287452091,5bb20ae1ec73cb00011d60e8,5bb20ae1ec73cb00011d60e8,12,erase,critical,D,75,erase66.jpg,erase84.jpg,high,NULL
