#
# Results on Tuesday June 20 2023 18:58:27 UTC
# USER AGENT: Mozilla/5.0 (Windows NT 10.0; Win64; x64) AppleWebKit/537.36 (KHTML, like Gecko) Chrome/114.0.0.0 Safari/537.36
# Design number was non-random = 6
#
# Columns below this comment are as follows:
# 1. Results reception time.
# 2. MD5 hash of participant's IP address.
# 3. Controller name.
# 4. Order number of item.
# 5. Inner element number.
# 6. Label.
# 7. Latin Square Group.
# 8. PennElementType.
# 9. PennElementName.
# 10. Parameter.
# 11. Value.
# 12. EventTime.
# 13. PROLIFIC_ID.
# 14. Comments.
1687287507,6d96149a3f17c964f926df3641b7b68b,PennController,2,0,consent,NULL,PennController,0,_Trial_,Start,1687287140690,607d871f57ad2e936b22f890,NULL
1687287507,6d96149a3f17c964f926df3641b7b68b,PennController,2,0,consent,NULL,PennController,0,_Header_,Start,1687287140691,607d871f57ad2e936b22f890,NULL
1687287507,6d96149a3f17c964f926df3641b7b68b,PennController,2,0,consent,NULL,PennController,0,_Header_,End,1687287140691,607d871f57ad2e936b22f890,NULL
1687287507,6d96149a3f17c964f926df3641b7b68b,PennController,2,0,consent,NULL,PennController,0,_Trial_,End,1687287175809,607d871f57ad2e936b22f890,NULL
# Columns below this comment are as follows:
# 14. ID.
# 15. Comments.
1687287507,6d96149a3f17c964f926df3641b7b68b,PennController,3,0,intro,NULL,PennController,1,_Trial_,Start,1687287175812,607d871f57ad2e936b22f890,607d871f57ad2e936b22f890,NULL
1687287507,6d96149a3f17c964f926df3641b7b68b,PennController,3,0,intro,NULL,PennController,1,_Header_,Start,1687287175812,607d871f57ad2e936b22f890,607d871f57ad2e936b22f890,NULL
1687287507,6d96149a3f17c964f926df3641b7b68b,PennController,3,0,intro,NULL,PennController,1,_Header_,End,1687287175812,607d871f57ad2e936b22f890,607d871f57ad2e936b22f890,NULL
1687287507,6d96149a3f17c964f926df3641b7b68b,PennController,3,0,intro,NULL,PennController,1,_Trial_,End,1687287198953,607d871f57ad2e936b22f890,607d871f57ad2e936b22f890,NULL
# Columns below this comment are as follows:
# 15. item_number.
# 16. item.
# 17. type.
# 18. Group.
# 19. prog.
# 20. prev_image.
# 21. next_image.
# 22. height.
# 23. Comments.
1687287507,6d96149a3f17c964f926df3641b7b68b,PennController,21,0,experiment,NULL,PennController,20,_Trial_,Start,1687287198956,607d871f57ad2e936b22f890,607d871f57ad2e936b22f890,18,ball,critical,A,75,ball65.jpg,ball85.jpg,low,NULL
1687287507,6d96149a3f17c964f926df3641b7b68b,PennController,21,0,experiment,NULL,PennController,20,_Header_,Start,1687287198957,607d871f57ad2e936b22f890,607d871f57ad2e936b22f890,18,ball,critical,A,75,ball65.jpg,ball85.jpg,low,NULL
1687287507,6d96149a3f17c964f926df3641b7b68b,PennController,21,0,experiment,NULL,PennController,20,_Header_,End,1687287198957,607d871f57ad2e936b22f890,607d871f57ad2e936b22f890,18,ball,critical,A,75,ball65.jpg,ball85.jpg,low,NULL
1687287507,6d96149a3f17c964f926df3641b7b68b,PennController,21,0,experiment,NULL,Canvas,canvas6,Print,NA,1687287206679,607d871f57ad2e936b22f890,607d871f57ad2e936b22f890,18,ball,critical,A,75,ball65.jpg,ball85.jpg,low,NULL
1687287507,6d96149a3f17c964f926df3641b7b68b,PennController,21,0,experiment,NULL,Video,progression,buffer,0.005074,1687287202498,607d871f57ad2e936b22f890,607d871f57ad2e936b22f890,18,ball,critical,A,75,ball65.jpg,ball85.jpg,low,NULL
1687287507,6d96149a3f17c964f926df3641b7b68b,PennController,21,0,experiment,NULL,Selector,choice,Selection,option1,1687287209226,607d871f57ad2e936b22f890,607d871f57ad2e936b22f890,18,ball,critical,A,75,ball65.jpg,ball85.jpg,low,option2;option1
1687287507,6d96149a3f17c964f926df3641b7b68b,PennController,21,0,experiment,NULL,PennController,20,_Trial_,End,1687287209229,607d871f57ad2e936b22f890,607d871f57ad2e936b22f890,18,ball,critical,A,75,ball65.jpg,ball85.jpg,low,NULL
1687287507,6d96149a3f17c964f926df3641b7b68b,PennController,26,0,experiment,NULL,PennController,25,_Trial_,Start,1687287209231,607d871f57ad2e936b22f890,607d871f57ad2e936b22f890,23,color,filler,A,50,color40.jpg,color60.jpg,GoalA,NULL
1687287507,6d96149a3f17c964f926df3641b7b68b,PennController,26,0,experiment,NULL,PennController,25,_Header_,Start,1687287209231,607d871f57ad2e936b22f890,607d871f57ad2e936b22f890,23,color,filler,A,50,color40.jpg,color60.jpg,GoalA,NULL
1687287507,6d96149a3f17c964f926df3641b7b68b,PennController,26,0,experiment,NULL,PennController,25,_Header_,End,1687287209231,607d871f57ad2e936b22f890,607d871f57ad2e936b22f890,23,color,filler,A,50,color40.jpg,color60.jpg,GoalA,NULL
1687287507,6d96149a3f17c964f926df3641b7b68b,PennController,26,0,experiment,NULL,Canvas,canvas6,Print,NA,1687287215931,607d871f57ad2e936b22f890,607d871f57ad2e936b22f890,23,color,filler,A,50,color40.jpg,color60.jpg,GoalA,NULL
1687287507,6d96149a3f17c964f926df3641b7b68b,PennController,26,0,experiment,NULL,Video,progression,buffer,0.002881,1687287212755,607d871f57ad2e936b22f890,607d871f57ad2e936b22f890,23,color,filler,A,50,color40.jpg,color60.jpg,GoalA,NULL
1687287507,6d96149a3f17c964f926df3641b7b68b,PennController,26,0,experiment,NULL,Selector,choice,Selection,option2,1687287222370,607d871f57ad2e936b22f890,607d871f57ad2e936b22f890,23,color,filler,A,50,color40.jpg,color60.jpg,GoalA,option1;option2
1687287507,6d96149a3f17c964f926df3641b7b68b,PennController,26,0,experiment,NULL,PennController,25,_Trial_,End,1687287222372,607d871f57ad2e936b22f890,607d871f57ad2e936b22f890,23,color,filler,A,50,color40.jpg,color60.jpg,GoalA,NULL
1687287507,6d96149a3f17c964f926df3641b7b68b,PennController,12,0,experiment,NULL,PennController,11,_Trial_,Start,1687287222373,607d871f57ad2e936b22f890,607d871f57ad2e936b22f890,9,cake,critical,A,75,cake66.jpg,cake84.jpg,low,NULL
1687287507,6d96149a3f17c964f926df3641b7b68b,PennController,12,0,experiment,NULL,PennController,11,_Header_,Start,1687287222373,607d871f57ad2e936b22f890,607d871f57ad2e936b22f890,9,cake,critical,A,75,cake66.jpg,cake84.jpg,low,NULL
1687287507,6d96149a3f17c964f926df3641b7b68b,PennController,12,0,experiment,NULL,PennController,11,_Header_,End,1687287222374,607d871f57ad2e936b22f890,607d871f57ad2e936b22f890,9,cake,critical,A,75,cake66.jpg,cake84.jpg,low,NULL
1687287507,6d96149a3f17c964f926df3641b7b68b,PennController,12,0,experiment,NULL,Canvas,canvas6,Print,NA,1687287232080,607d871f57ad2e936b22f890,607d871f57ad2e936b22f890,9,cake,critical,A,75,cake66.jpg,cake84.jpg,low,NULL
1687287507,6d96149a3f17c964f926df3641b7b68b,PennController,12,0,experiment,NULL,Video,progression,buffer,0.002669,1687287225897,607d871f57ad2e936b22f890,607d871f57ad2e936b22f890,9,cake,critical,A,75,cake66.jpg,cake84.jpg,low,NULL
1687287507,6d96149a3f17c964f926df3641b7b68b,PennController,12,0,experiment,NULL,Selector,choice,Selection,option1,1687287234434,607d871f57ad2e936b22f890,607d871f57ad2e936b22f890,9,cake,critical,A,75,cake66.jpg,cake84.jpg,low,option1;option2
1687287507,6d96149a3f17c964f926df3641b7b68b,PennController,12,0,experiment,NULL,PennController,11,_Trial_,End,1687287234435,607d871f57ad2e936b22f890,607d871f57ad2e936b22f890,9,cake,critical,A,75,cake66.jpg,cake84.jpg,low,NULL
1687287507,6d96149a3f17c964f926df3641b7b68b,PennController,20,0,experiment,NULL,PennController,19,_Trial_,Start,1687287234437,607d871f57ad2e936b22f890,607d871f57ad2e936b22f890,17,roll,critical,A,50,roll40.jpg,roll60.jpg,low,NULL
1687287507,6d96149a3f17c964f926df3641b7b68b,PennController,20,0,experiment,NULL,PennController,19,_Header_,Start,1687287234437,607d871f57ad2e936b22f890,607d871f57ad2e936b22f890,17,roll,critical,A,50,roll40.jpg,roll60.jpg,low,NULL
1687287507,6d96149a3f17c964f926df3641b7b68b,PennController,20,0,experiment,NULL,PennController,19,_Header_,End,1687287234437,607d871f57ad2e936b22f890,607d871f57ad2e936b22f890,17,roll,critical,A,50,roll40.jpg,roll60.jpg,low,NULL
1687287507,6d96149a3f17c964f926df3641b7b68b,PennController,20,0,experiment,NULL,Canvas,canvas6,Print,NA,1687287241133,607d871f57ad2e936b22f890,607d871f57ad2e936b22f890,17,roll,critical,A,50,roll40.jpg,roll60.jpg,low,NULL
1687287507,6d96149a3f17c964f926df3641b7b68b,PennController,20,0,experiment,NULL,Video,progression,buffer,0.002827,1687287237959,607d871f57ad2e936b22f890,607d871f57ad2e936b22f890,17,roll,critical,A,50,roll40.jpg,roll60.jpg,low,NULL
1687287507,6d96149a3f17c964f926df3641b7b68b,PennController,20,0,experiment,NULL,Selector,choice,Selection,option1,1687287243778,607d871f57ad2e936b22f890,607d871f57ad2e936b22f890,17,roll,critical,A,50,roll40.jpg,roll60.jpg,low,option2;option1
1687287507,6d96149a3f17c964f926df3641b7b68b,PennController,20,0,experiment,NULL,PennController,19,_Trial_,End,1687287243779,607d871f57ad2e936b22f890,607d871f57ad2e936b22f890,17,roll,critical,A,50,roll40.jpg,roll60.jpg,low,NULL
1687287507,6d96149a3f17c964f926df3641b7b68b,PennController,24,0,experiment,NULL,PennController,23,_Trial_,Start,1687287243781,607d871f57ad2e936b22f890,607d871f57ad2e936b22f890,21,visit,filler,A,75,visit65.jpg,visit85.jpg,GoalA,NULL
1687287507,6d96149a3f17c964f926df3641b7b68b,PennController,24,0,experiment,NULL,PennController,23,_Header_,Start,1687287243781,607d871f57ad2e936b22f890,607d871f57ad2e936b22f890,21,visit,filler,A,75,visit65.jpg,visit85.jpg,GoalA,NULL
1687287507,6d96149a3f17c964f926df3641b7b68b,PennController,24,0,experiment,NULL,PennController,23,_Header_,End,1687287243781,607d871f57ad2e936b22f890,607d871f57ad2e936b22f890,21,visit,filler,A,75,visit65.jpg,visit85.jpg,GoalA,NULL
1687287507,6d96149a3f17c964f926df3641b7b68b,PennController,24,0,experiment,NULL,Canvas,canvas6,Print,NA,1687287251492,607d871f57ad2e936b22f890,607d871f57ad2e936b22f890,21,visit,filler,A,75,visit65.jpg,visit85.jpg,GoalA,NULL
1687287507,6d96149a3f17c964f926df3641b7b68b,PennController,24,0,experiment,NULL,Video,progression,buffer,0.002944,1687287247309,607d871f57ad2e936b22f890,607d871f57ad2e936b22f890,21,visit,filler,A,75,visit65.jpg,visit85.jpg,GoalA,NULL
1687287507,6d96149a3f17c964f926df3641b7b68b,PennController,24,0,experiment,NULL,Selector,choice,Selection,option2,1687287254250,607d871f57ad2e936b22f890,607d871f57ad2e936b22f890,21,visit,filler,A,75,visit65.jpg,visit85.jpg,GoalA,option1;option2
1687287507,6d96149a3f17c964f926df3641b7b68b,PennController,24,0,experiment,NULL,PennController,23,_Trial_,End,1687287254251,607d871f57ad2e936b22f890,607d871f57ad2e936b22f890,21,visit,filler,A,75,visit65.jpg,visit85.jpg,GoalA,NULL
1687287507,6d96149a3f17c964f926df3641b7b68b,PennController,28,0,experiment,NULL,PennController,27,_Trial_,Start,1687287254252,607d871f57ad2e936b22f890,607d871f57ad2e936b22f890,25,house,filler,A,25,house15.jpg,house35.jpg,GoalA,NULL
1687287507,6d96149a3f17c964f926df3641b7b68b,PennController,28,0,experiment,NULL,PennController,27,_Header_,Start,1687287254252,607d871f57ad2e936b22f890,607d871f57ad2e936b22f890,25,house,filler,A,25,house15.jpg,house35.jpg,GoalA,NULL
1687287507,6d96149a3f17c964f926df3641b7b68b,PennController,28,0,experiment,NULL,PennController,27,_Header_,End,1687287254252,607d871f57ad2e936b22f890,607d871f57ad2e936b22f890,25,house,filler,A,25,house15.jpg,house35.jpg,GoalA,NULL
1687287507,6d96149a3f17c964f926df3641b7b68b,PennController,28,0,experiment,NULL,Canvas,canvas6,Print,NA,1687287259939,607d871f57ad2e936b22f890,607d871f57ad2e936b22f890,25,house,filler,A,25,house15.jpg,house35.jpg,GoalA,NULL
1687287507,6d96149a3f17c964f926df3641b7b68b,PennController,28,0,experiment,NULL,Video,progression,buffer,0.004077,1687287257771,607d871f57ad2e936b22f890,607d871f57ad2e936b22f890,25,house,filler,A,25,house15.jpg,house35.jpg,GoalA,NULL
1687287507,6d96149a3f17c964f926df3641b7b68b,PennController,28,0,experiment,NULL,Selector,choice,Selection,option2,1687287262249,607d871f57ad2e936b22f890,607d871f57ad2e936b22f890,25,house,filler,A,25,house15.jpg,house35.jpg,GoalA,option1;option2
1687287507,6d96149a3f17c964f926df3641b7b68b,PennController,28,0,experiment,NULL,PennController,27,_Trial_,End,1687287262250,607d871f57ad2e936b22f890,607d871f57ad2e936b22f890,25,house,filler,A,25,house15.jpg,house35.jpg,GoalA,NULL
1687287507,6d96149a3f17c964f926df3641b7b68b,PennController,17,0,experiment,NULL,PennController,16,_Trial_,Start,1687287262252,607d871f57ad2e936b22f890,607d871f57ad2e936b22f890,14,cover,critical,A,50,cover42.jpg,cover60.jpg,low,NULL
1687287507,6d96149a3f17c964f926df3641b7b68b,PennController,17,0,experiment,NULL,PennController,16,_Header_,Start,1687287262252,607d871f57ad2e936b22f890,607d871f57ad2e936b22f890,14,cover,critical,A,50,cover42.jpg,cover60.jpg,low,NULL
1687287507,6d96149a3f17c964f926df3641b7b68b,PennController,17,0,experiment,NULL,PennController,16,_Header_,End,1687287262252,607d871f57ad2e936b22f890,607d871f57ad2e936b22f890,14,cover,critical,A,50,cover42.jpg,cover60.jpg,low,NULL
1687287507,6d96149a3f17c964f926df3641b7b68b,PennController,17,0,experiment,NULL,Canvas,canvas6,Print,NA,1687287270368,607d871f57ad2e936b22f890,607d871f57ad2e936b22f890,14,cover,critical,A,50,cover42.jpg,cover60.jpg,low,NULL
1687287507,6d96149a3f17c964f926df3641b7b68b,PennController,17,0,experiment,NULL,Video,progression,buffer,0.005046,1687287265777,607d871f57ad2e936b22f890,607d871f57ad2e936b22f890,14,cover,critical,A,50,cover42.jpg,cover60.jpg,low,NULL
1687287507,6d96149a3f17c964f926df3641b7b68b,PennController,17,0,experiment,NULL,Selector,choice,Selection,option1,1687287277345,607d871f57ad2e936b22f890,607d871f57ad2e936b22f890,14,cover,critical,A,50,cover42.jpg,cover60.jpg,low,option1;option2
1687287507,6d96149a3f17c964f926df3641b7b68b,PennController,17,0,experiment,NULL,PennController,16,_Trial_,End,1687287277346,607d871f57ad2e936b22f890,607d871f57ad2e936b22f890,14,cover,critical,A,50,cover42.jpg,cover60.jpg,low,NULL
1687287507,6d96149a3f17c964f926df3641b7b68b,PennController,27,0,experiment,NULL,PennController,26,_Trial_,Start,1687287277347,607d871f57ad2e936b22f890,607d871f57ad2e936b22f890,24,match,filler,A,75,match65.jpg,match85.jpg,GoalB,NULL
1687287507,6d96149a3f17c964f926df3641b7b68b,PennController,27,0,experiment,NULL,PennController,26,_Header_,Start,1687287277347,607d871f57ad2e936b22f890,607d871f57ad2e936b22f890,24,match,filler,A,75,match65.jpg,match85.jpg,GoalB,NULL
1687287507,6d96149a3f17c964f926df3641b7b68b,PennController,27,0,experiment,NULL,PennController,26,_Header_,End,1687287277347,607d871f57ad2e936b22f890,607d871f57ad2e936b22f890,24,match,filler,A,75,match65.jpg,match85.jpg,GoalB,NULL
1687287507,6d96149a3f17c964f926df3641b7b68b,PennController,27,0,experiment,NULL,Canvas,canvas6,Print,NA,1687287285040,607d871f57ad2e936b22f890,607d871f57ad2e936b22f890,24,match,filler,A,75,match65.jpg,match85.jpg,GoalB,NULL
1687287507,6d96149a3f17c964f926df3641b7b68b,PennController,27,0,experiment,NULL,Video,progression,buffer,0.003008,1687287280866,607d871f57ad2e936b22f890,607d871f57ad2e936b22f890,24,match,filler,A,75,match65.jpg,match85.jpg,GoalB,NULL
1687287507,6d96149a3f17c964f926df3641b7b68b,PennController,27,0,experiment,NULL,Selector,choice,Selection,option1,1687287292649,607d871f57ad2e936b22f890,607d871f57ad2e936b22f890,24,match,filler,A,75,match65.jpg,match85.jpg,GoalB,option1;option2
1687287507,6d96149a3f17c964f926df3641b7b68b,PennController,27,0,experiment,NULL,PennController,26,_Trial_,End,1687287292650,607d871f57ad2e936b22f890,607d871f57ad2e936b22f890,24,match,filler,A,75,match65.jpg,match85.jpg,GoalB,NULL
1687287507,6d96149a3f17c964f926df3641b7b68b,PennController,18,0,experiment,NULL,PennController,17,_Trial_,Start,1687287292652,607d871f57ad2e936b22f890,607d871f57ad2e936b22f890,15,zip,critical,A,75,zip65.jpg,zip85.jpg,low,NULL
1687287507,6d96149a3f17c964f926df3641b7b68b,PennController,18,0,experiment,NULL,PennController,17,_Header_,Start,1687287292652,607d871f57ad2e936b22f890,607d871f57ad2e936b22f890,15,zip,critical,A,75,zip65.jpg,zip85.jpg,low,NULL
1687287507,6d96149a3f17c964f926df3641b7b68b,PennController,18,0,experiment,NULL,PennController,17,_Header_,End,1687287292652,607d871f57ad2e936b22f890,607d871f57ad2e936b22f890,15,zip,critical,A,75,zip65.jpg,zip85.jpg,low,NULL
1687287507,6d96149a3f17c964f926df3641b7b68b,PennController,18,0,experiment,NULL,Canvas,canvas6,Print,NA,1687287299583,607d871f57ad2e936b22f890,607d871f57ad2e936b22f890,15,zip,critical,A,75,zip65.jpg,zip85.jpg,low,NULL
1687287507,6d96149a3f17c964f926df3641b7b68b,PennController,18,0,experiment,NULL,Video,progression,buffer,0.005621,1687287296199,607d871f57ad2e936b22f890,607d871f57ad2e936b22f890,15,zip,critical,A,75,zip65.jpg,zip85.jpg,low,NULL
1687287507,6d96149a3f17c964f926df3641b7b68b,PennController,18,0,experiment,NULL,Selector,choice,Selection,option1,1687287303656,607d871f57ad2e936b22f890,607d871f57ad2e936b22f890,15,zip,critical,A,75,zip65.jpg,zip85.jpg,low,option2;option1
1687287507,6d96149a3f17c964f926df3641b7b68b,PennController,18,0,experiment,NULL,PennController,17,_Trial_,End,1687287303658,607d871f57ad2e936b22f890,607d871f57ad2e936b22f890,15,zip,critical,A,75,zip65.jpg,zip85.jpg,low,NULL
1687287507,6d96149a3f17c964f926df3641b7b68b,PennController,4,0,experiment,NULL,PennController,3,_Trial_,Start,1687287303660,607d871f57ad2e936b22f890,607d871f57ad2e936b22f890,1,vase,critical,A,25,vase15.jpg,vase35.jpg,low,NULL
1687287507,6d96149a3f17c964f926df3641b7b68b,PennController,4,0,experiment,NULL,PennController,3,_Header_,Start,1687287303660,607d871f57ad2e936b22f890,607d871f57ad2e936b22f890,1,vase,critical,A,25,vase15.jpg,vase35.jpg,low,NULL
1687287507,6d96149a3f17c964f926df3641b7b68b,PennController,4,0,experiment,NULL,PennController,3,_Header_,End,1687287303660,607d871f57ad2e936b22f890,607d871f57ad2e936b22f890,1,vase,critical,A,25,vase15.jpg,vase35.jpg,low,NULL
1687287507,6d96149a3f17c964f926df3641b7b68b,PennController,4,0,experiment,NULL,Canvas,canvas6,Print,NA,1687287309355,607d871f57ad2e936b22f890,607d871f57ad2e936b22f890,1,vase,critical,A,25,vase15.jpg,vase35.jpg,low,NULL
1687287507,6d96149a3f17c964f926df3641b7b68b,PennController,4,0,experiment,NULL,Video,progression,buffer,0.003119,1687287307181,607d871f57ad2e936b22f890,607d871f57ad2e936b22f890,1,vase,critical,A,25,vase15.jpg,vase35.jpg,low,NULL
1687287507,6d96149a3f17c964f926df3641b7b68b,PennController,4,0,experiment,NULL,Selector,choice,Selection,option2,1687287311048,607d871f57ad2e936b22f890,607d871f57ad2e936b22f890,1,vase,critical,A,25,vase15.jpg,vase35.jpg,low,option1;option2
1687287507,6d96149a3f17c964f926df3641b7b68b,PennController,4,0,experiment,NULL,PennController,3,_Trial_,End,1687287311050,607d871f57ad2e936b22f890,607d871f57ad2e936b22f890,1,vase,critical,A,25,vase15.jpg,vase35.jpg,low,NULL
1687287507,6d96149a3f17c964f926df3641b7b68b,PennController,9,0,experiment,NULL,PennController,8,_Trial_,Start,1687287311051,607d871f57ad2e936b22f890,607d871f57ad2e936b22f890,6,flower,critical,A,75,flower65.jpg,flower85.jpg,low,NULL
1687287507,6d96149a3f17c964f926df3641b7b68b,PennController,9,0,experiment,NULL,PennController,8,_Header_,Start,1687287311051,607d871f57ad2e936b22f890,607d871f57ad2e936b22f890,6,flower,critical,A,75,flower65.jpg,flower85.jpg,low,NULL
1687287507,6d96149a3f17c964f926df3641b7b68b,PennController,9,0,experiment,NULL,PennController,8,_Header_,End,1687287311051,607d871f57ad2e936b22f890,607d871f57ad2e936b22f890,6,flower,critical,A,75,flower65.jpg,flower85.jpg,low,NULL
1687287507,6d96149a3f17c964f926df3641b7b68b,PennController,9,0,experiment,NULL,Canvas,canvas6,Print,NA,1687287318758,607d871f57ad2e936b22f890,607d871f57ad2e936b22f890,6,flower,critical,A,75,flower65.jpg,flower85.jpg,low,NULL
1687287507,6d96149a3f17c964f926df3641b7b68b,PennController,9,0,experiment,NULL,Video,progression,buffer,0.003735,1687287314571,607d871f57ad2e936b22f890,607d871f57ad2e936b22f890,6,flower,critical,A,75,flower65.jpg,flower85.jpg,low,NULL
1687287507,6d96149a3f17c964f926df3641b7b68b,PennController,9,0,experiment,NULL,Selector,choice,Selection,option2,1687287325673,607d871f57ad2e936b22f890,607d871f57ad2e936b22f890,6,flower,critical,A,75,flower65.jpg,flower85.jpg,low,option1;option2
1687287507,6d96149a3f17c964f926df3641b7b68b,PennController,9,0,experiment,NULL,PennController,8,_Trial_,End,1687287325674,607d871f57ad2e936b22f890,607d871f57ad2e936b22f890,6,flower,critical,A,75,flower65.jpg,flower85.jpg,low,NULL
1687287507,6d96149a3f17c964f926df3641b7b68b,PennController,15,0,experiment,NULL,PennController,14,_Trial_,Start,1687287325675,607d871f57ad2e936b22f890,607d871f57ad2e936b22f890,12,erase,critical,A,75,erase66.jpg,erase84.jpg,low,NULL
1687287507,6d96149a3f17c964f926df3641b7b68b,PennController,15,0,experiment,NULL,PennController,14,_Header_,Start,1687287325675,607d871f57ad2e936b22f890,607d871f57ad2e936b22f890,12,erase,critical,A,75,erase66.jpg,erase84.jpg,low,NULL
1687287507,6d96149a3f17c964f926df3641b7b68b,PennController,15,0,experiment,NULL,PennController,14,_Header_,End,1687287325675,607d871f57ad2e936b22f890,607d871f57ad2e936b22f890,12,erase,critical,A,75,erase66.jpg,erase84.jpg,low,NULL
1687287507,6d96149a3f17c964f926df3641b7b68b,PennController,15,0,experiment,NULL,Canvas,canvas6,Print,NA,1687287335375,607d871f57ad2e936b22f890,607d871f57ad2e936b22f890,12,erase,critical,A,75,erase66.jpg,erase84.jpg,low,NULL
1687287507,6d96149a3f17c964f926df3641b7b68b,PennController,15,0,experiment,NULL,Video,progression,buffer,0.002384,1687287329190,607d871f57ad2e936b22f890,607d871f57ad2e936b22f890,12,erase,critical,A,75,erase66.jpg,erase84.jpg,low,NULL
1687287507,6d96149a3f17c964f926df3641b7b68b,PennController,15,0,experiment,NULL,Selector,choice,Selection,option1,1687287338616,607d871f57ad2e936b22f890,607d871f57ad2e936b22f890,12,erase,critical,A,75,erase66.jpg,erase84.jpg,low,option2;option1
1687287507,6d96149a3f17c964f926df3641b7b68b,PennController,15,0,experiment,NULL,PennController,14,_Trial_,End,1687287338618,607d871f57ad2e936b22f890,607d871f57ad2e936b22f890,12,erase,critical,A,75,erase66.jpg,erase84.jpg,low,NULL
1687287507,6d96149a3f17c964f926df3641b7b68b,PennController,11,0,experiment,NULL,PennController,10,_Trial_,Start,1687287338620,607d871f57ad2e936b22f890,607d871f57ad2e936b22f890,8,cucumber,critical,A,50,cucumber42.jpg,cucumber60.jpg,low,NULL
1687287507,6d96149a3f17c964f926df3641b7b68b,PennController,11,0,experiment,NULL,PennController,10,_Header_,Start,1687287338620,607d871f57ad2e936b22f890,607d871f57ad2e936b22f890,8,cucumber,critical,A,50,cucumber42.jpg,cucumber60.jpg,low,NULL
1687287507,6d96149a3f17c964f926df3641b7b68b,PennController,11,0,experiment,NULL,PennController,10,_Header_,End,1687287338620,607d871f57ad2e936b22f890,607d871f57ad2e936b22f890,8,cucumber,critical,A,50,cucumber42.jpg,cucumber60.jpg,low,NULL
1687287507,6d96149a3f17c964f926df3641b7b68b,PennController,11,0,experiment,NULL,Canvas,canvas6,Print,NA,1687287346718,607d871f57ad2e936b22f890,607d871f57ad2e936b22f890,8,cucumber,critical,A,50,cucumber42.jpg,cucumber60.jpg,low,NULL
1687287507,6d96149a3f17c964f926df3641b7b68b,PennController,11,0,experiment,NULL,Video,progression,buffer,0.002927,1687287342138,607d871f57ad2e936b22f890,607d871f57ad2e936b22f890,8,cucumber,critical,A,50,cucumber42.jpg,cucumber60.jpg,low,NULL
1687287507,6d96149a3f17c964f926df3641b7b68b,PennController,11,0,experiment,NULL,Selector,choice,Selection,option1,1687287350824,607d871f57ad2e936b22f890,607d871f57ad2e936b22f890,8,cucumber,critical,A,50,cucumber42.jpg,cucumber60.jpg,low,option1;option2
1687287507,6d96149a3f17c964f926df3641b7b68b,PennController,11,0,experiment,NULL,PennController,10,_Trial_,End,1687287350826,607d871f57ad2e936b22f890,607d871f57ad2e936b22f890,8,cucumber,critical,A,50,cucumber42.jpg,cucumber60.jpg,low,NULL
1687287507,6d96149a3f17c964f926df3641b7b68b,PennController,5,0,experiment,NULL,PennController,4,_Trial_,Start,1687287350827,607d871f57ad2e936b22f890,607d871f57ad2e936b22f890,2,door,critical,A,50,door40.jpg,door60.jpg,low,NULL
1687287507,6d96149a3f17c964f926df3641b7b68b,PennController,5,0,experiment,NULL,PennController,4,_Header_,Start,1687287350827,607d871f57ad2e936b22f890,607d871f57ad2e936b22f890,2,door,critical,A,50,door40.jpg,door60.jpg,low,NULL
1687287507,6d96149a3f17c964f926df3641b7b68b,PennController,5,0,experiment,NULL,PennController,4,_Header_,End,1687287350827,607d871f57ad2e936b22f890,607d871f57ad2e936b22f890,2,door,critical,A,50,door40.jpg,door60.jpg,low,NULL
1687287507,6d96149a3f17c964f926df3641b7b68b,PennController,5,0,experiment,NULL,Canvas,canvas6,Print,NA,1687287357527,607d871f57ad2e936b22f890,607d871f57ad2e936b22f890,2,door,critical,A,50,door40.jpg,door60.jpg,low,NULL
1687287507,6d96149a3f17c964f926df3641b7b68b,PennController,5,0,experiment,NULL,Video,progression,buffer,0.002413,1687287354350,607d871f57ad2e936b22f890,607d871f57ad2e936b22f890,2,door,critical,A,50,door40.jpg,door60.jpg,low,NULL
1687287507,6d96149a3f17c964f926df3641b7b68b,PennController,5,0,experiment,NULL,Selector,choice,Selection,option1,1687287360720,607d871f57ad2e936b22f890,607d871f57ad2e936b22f890,2,door,critical,A,50,door40.jpg,door60.jpg,low,option2;option1
1687287507,6d96149a3f17c964f926df3641b7b68b,PennController,5,0,experiment,NULL,PennController,4,_Trial_,End,1687287360722,607d871f57ad2e936b22f890,607d871f57ad2e936b22f890,2,door,critical,A,50,door40.jpg,door60.jpg,low,NULL
1687287507,6d96149a3f17c964f926df3641b7b68b,PennController,25,0,experiment,NULL,PennController,24,_Trial_,Start,1687287360723,607d871f57ad2e936b22f890,607d871f57ad2e936b22f890,22,wall,filler,A,25,wall15.jpg,wall35.jpg,GoalB,NULL
1687287507,6d96149a3f17c964f926df3641b7b68b,PennController,25,0,experiment,NULL,PennController,24,_Header_,Start,1687287360723,607d871f57ad2e936b22f890,607d871f57ad2e936b22f890,22,wall,filler,A,25,wall15.jpg,wall35.jpg,GoalB,NULL
1687287507,6d96149a3f17c964f926df3641b7b68b,PennController,25,0,experiment,NULL,PennController,24,_Header_,End,1687287360723,607d871f57ad2e936b22f890,607d871f57ad2e936b22f890,22,wall,filler,A,25,wall15.jpg,wall35.jpg,GoalB,NULL
1687287507,6d96149a3f17c964f926df3641b7b68b,PennController,25,0,experiment,NULL,Canvas,canvas6,Print,NA,1687287366413,607d871f57ad2e936b22f890,607d871f57ad2e936b22f890,22,wall,filler,A,25,wall15.jpg,wall35.jpg,GoalB,NULL
1687287507,6d96149a3f17c964f926df3641b7b68b,PennController,25,0,experiment,NULL,Video,progression,buffer,0.002617,1687287364244,607d871f57ad2e936b22f890,607d871f57ad2e936b22f890,22,wall,filler,A,25,wall15.jpg,wall35.jpg,GoalB,NULL
1687287507,6d96149a3f17c964f926df3641b7b68b,PennController,25,0,experiment,NULL,Selector,choice,Selection,option1,1687287368528,607d871f57ad2e936b22f890,607d871f57ad2e936b22f890,22,wall,filler,A,25,wall15.jpg,wall35.jpg,GoalB,option1;option2
1687287507,6d96149a3f17c964f926df3641b7b68b,PennController,25,0,experiment,NULL,PennController,24,_Trial_,End,1687287368529,607d871f57ad2e936b22f890,607d871f57ad2e936b22f890,22,wall,filler,A,25,wall15.jpg,wall35.jpg,GoalB,NULL
1687287507,6d96149a3f17c964f926df3641b7b68b,PennController,13,0,experiment,NULL,PennController,12,_Trial_,Start,1687287368530,607d871f57ad2e936b22f890,607d871f57ad2e936b22f890,10,train,critical,A,25,train15.jpg,train35.jpg,low,NULL
1687287507,6d96149a3f17c964f926df3641b7b68b,PennController,13,0,experiment,NULL,PennController,12,_Header_,Start,1687287368530,607d871f57ad2e936b22f890,607d871f57ad2e936b22f890,10,train,critical,A,25,train15.jpg,train35.jpg,low,NULL
1687287507,6d96149a3f17c964f926df3641b7b68b,PennController,13,0,experiment,NULL,PennController,12,_Header_,End,1687287368530,607d871f57ad2e936b22f890,607d871f57ad2e936b22f890,10,train,critical,A,25,train15.jpg,train35.jpg,low,NULL
1687287507,6d96149a3f17c964f926df3641b7b68b,PennController,13,0,experiment,NULL,Canvas,canvas6,Print,NA,1687287374226,607d871f57ad2e936b22f890,607d871f57ad2e936b22f890,10,train,critical,A,25,train15.jpg,train35.jpg,low,NULL
1687287507,6d96149a3f17c964f926df3641b7b68b,PennController,13,0,experiment,NULL,Video,progression,buffer,0.0052,1687287372052,607d871f57ad2e936b22f890,607d871f57ad2e936b22f890,10,train,critical,A,25,train15.jpg,train35.jpg,low,NULL
1687287507,6d96149a3f17c964f926df3641b7b68b,PennController,13,0,experiment,NULL,Selector,choice,Selection,option1,1687287375624,607d871f57ad2e936b22f890,607d871f57ad2e936b22f890,10,train,critical,A,25,train15.jpg,train35.jpg,low,option1;option2
1687287507,6d96149a3f17c964f926df3641b7b68b,PennController,13,0,experiment,NULL,PennController,12,_Trial_,End,1687287375625,607d871f57ad2e936b22f890,607d871f57ad2e936b22f890,10,train,critical,A,25,train15.jpg,train35.jpg,low,NULL
1687287507,6d96149a3f17c964f926df3641b7b68b,PennController,8,0,experiment,NULL,PennController,7,_Trial_,Start,1687287375627,607d871f57ad2e936b22f890,607d871f57ad2e936b22f890,5,book,critical,A,50,book40.jpg,book60.jpg,low,NULL
1687287507,6d96149a3f17c964f926df3641b7b68b,PennController,8,0,experiment,NULL,PennController,7,_Header_,Start,1687287375627,607d871f57ad2e936b22f890,607d871f57ad2e936b22f890,5,book,critical,A,50,book40.jpg,book60.jpg,low,NULL
1687287507,6d96149a3f17c964f926df3641b7b68b,PennController,8,0,experiment,NULL,PennController,7,_Header_,End,1687287375627,607d871f57ad2e936b22f890,607d871f57ad2e936b22f890,5,book,critical,A,50,book40.jpg,book60.jpg,low,NULL
1687287507,6d96149a3f17c964f926df3641b7b68b,PennController,8,0,experiment,NULL,Canvas,canvas6,Print,NA,1687287382325,607d871f57ad2e936b22f890,607d871f57ad2e936b22f890,5,book,critical,A,50,book40.jpg,book60.jpg,low,NULL
1687287507,6d96149a3f17c964f926df3641b7b68b,PennController,8,0,experiment,NULL,Video,progression,buffer,0.003655,1687287379148,607d871f57ad2e936b22f890,607d871f57ad2e936b22f890,5,book,critical,A,50,book40.jpg,book60.jpg,low,NULL
1687287507,6d96149a3f17c964f926df3641b7b68b,PennController,8,0,experiment,NULL,Selector,choice,Selection,option2,1687287385472,607d871f57ad2e936b22f890,607d871f57ad2e936b22f890,5,book,critical,A,50,book40.jpg,book60.jpg,low,option1;option2
1687287507,6d96149a3f17c964f926df3641b7b68b,PennController,8,0,experiment,NULL,PennController,7,_Trial_,End,1687287385473,607d871f57ad2e936b22f890,607d871f57ad2e936b22f890,5,book,critical,A,50,book40.jpg,book60.jpg,low,NULL
1687287507,6d96149a3f17c964f926df3641b7b68b,PennController,29,0,experiment,NULL,PennController,28,_Trial_,Start,1687287385474,607d871f57ad2e936b22f890,607d871f57ad2e936b22f890,26,sandwich,filler,A,50,sandwich40.jpg,sandwich60.jpg,GoalB,NULL
1687287507,6d96149a3f17c964f926df3641b7b68b,PennController,29,0,experiment,NULL,PennController,28,_Header_,Start,1687287385474,607d871f57ad2e936b22f890,607d871f57ad2e936b22f890,26,sandwich,filler,A,50,sandwich40.jpg,sandwich60.jpg,GoalB,NULL
1687287507,6d96149a3f17c964f926df3641b7b68b,PennController,29,0,experiment,NULL,PennController,28,_Header_,End,1687287385474,607d871f57ad2e936b22f890,607d871f57ad2e936b22f890,26,sandwich,filler,A,50,sandwich40.jpg,sandwich60.jpg,GoalB,NULL
1687287507,6d96149a3f17c964f926df3641b7b68b,PennController,29,0,experiment,NULL,Canvas,canvas6,Print,NA,1687287392168,607d871f57ad2e936b22f890,607d871f57ad2e936b22f890,26,sandwich,filler,A,50,sandwich40.jpg,sandwich60.jpg,GoalB,NULL
1687287507,6d96149a3f17c964f926df3641b7b68b,PennController,29,0,experiment,NULL,Video,progression,buffer,0.004503,1687287388997,607d871f57ad2e936b22f890,607d871f57ad2e936b22f890,26,sandwich,filler,A,50,sandwich40.jpg,sandwich60.jpg,GoalB,NULL
1687287507,6d96149a3f17c964f926df3641b7b68b,PennController,29,0,experiment,NULL,Selector,choice,Selection,option2,1687287394264,607d871f57ad2e936b22f890,607d871f57ad2e936b22f890,26,sandwich,filler,A,50,sandwich40.jpg,sandwich60.jpg,GoalB,option1;option2
1687287507,6d96149a3f17c964f926df3641b7b68b,PennController,29,0,experiment,NULL,PennController,28,_Trial_,End,1687287394265,607d871f57ad2e936b22f890,607d871f57ad2e936b22f890,26,sandwich,filler,A,50,sandwich40.jpg,sandwich60.jpg,GoalB,NULL
1687287507,6d96149a3f17c964f926df3641b7b68b,PennController,30,0,experiment,NULL,PennController,29,_Trial_,Start,1687287394267,607d871f57ad2e936b22f890,607d871f57ad2e936b22f890,27,square,filler,A,75,square65.jpg,square85.jpg,GoalA,NULL
1687287507,6d96149a3f17c964f926df3641b7b68b,PennController,30,0,experiment,NULL,PennController,29,_Header_,Start,1687287394267,607d871f57ad2e936b22f890,607d871f57ad2e936b22f890,27,square,filler,A,75,square65.jpg,square85.jpg,GoalA,NULL
1687287507,6d96149a3f17c964f926df3641b7b68b,PennController,30,0,experiment,NULL,PennController,29,_Header_,End,1687287394267,607d871f57ad2e936b22f890,607d871f57ad2e936b22f890,27,square,filler,A,75,square65.jpg,square85.jpg,GoalA,NULL
1687287507,6d96149a3f17c964f926df3641b7b68b,PennController,30,0,experiment,NULL,Canvas,canvas6,Print,NA,1687287401971,607d871f57ad2e936b22f890,607d871f57ad2e936b22f890,27,square,filler,A,75,square65.jpg,square85.jpg,GoalA,NULL
1687287507,6d96149a3f17c964f926df3641b7b68b,PennController,30,0,experiment,NULL,Video,progression,buffer,0.004627,1687287397790,607d871f57ad2e936b22f890,607d871f57ad2e936b22f890,27,square,filler,A,75,square65.jpg,square85.jpg,GoalA,NULL
1687287507,6d96149a3f17c964f926df3641b7b68b,PennController,30,0,experiment,NULL,Selector,choice,Selection,option1,1687287405224,607d871f57ad2e936b22f890,607d871f57ad2e936b22f890,27,square,filler,A,75,square65.jpg,square85.jpg,GoalA,option2;option1
1687287507,6d96149a3f17c964f926df3641b7b68b,PennController,30,0,experiment,NULL,PennController,29,_Trial_,End,1687287405225,607d871f57ad2e936b22f890,607d871f57ad2e936b22f890,27,square,filler,A,75,square65.jpg,square85.jpg,GoalA,NULL
1687287507,6d96149a3f17c964f926df3641b7b68b,PennController,10,0,experiment,NULL,PennController,9,_Trial_,Start,1687287405226,607d871f57ad2e936b22f890,607d871f57ad2e936b22f890,7,stack,critical,A,25,stack15.jpg,stack35.jpg,low,NULL
1687287507,6d96149a3f17c964f926df3641b7b68b,PennController,10,0,experiment,NULL,PennController,9,_Header_,Start,1687287405226,607d871f57ad2e936b22f890,607d871f57ad2e936b22f890,7,stack,critical,A,25,stack15.jpg,stack35.jpg,low,NULL
1687287507,6d96149a3f17c964f926df3641b7b68b,PennController,10,0,experiment,NULL,PennController,9,_Header_,End,1687287405226,607d871f57ad2e936b22f890,607d871f57ad2e936b22f890,7,stack,critical,A,25,stack15.jpg,stack35.jpg,low,NULL
1687287507,6d96149a3f17c964f926df3641b7b68b,PennController,10,0,experiment,NULL,Canvas,canvas6,Print,NA,1687287410923,607d871f57ad2e936b22f890,607d871f57ad2e936b22f890,7,stack,critical,A,25,stack15.jpg,stack35.jpg,low,NULL
1687287507,6d96149a3f17c964f926df3641b7b68b,PennController,10,0,experiment,NULL,Video,progression,buffer,0.002665,1687287408748,607d871f57ad2e936b22f890,607d871f57ad2e936b22f890,7,stack,critical,A,25,stack15.jpg,stack35.jpg,low,NULL
1687287507,6d96149a3f17c964f926df3641b7b68b,PennController,10,0,experiment,NULL,Selector,choice,Selection,option1,1687287414920,607d871f57ad2e936b22f890,607d871f57ad2e936b22f890,7,stack,critical,A,25,stack15.jpg,stack35.jpg,low,option1;option2
1687287507,6d96149a3f17c964f926df3641b7b68b,PennController,10,0,experiment,NULL,PennController,9,_Trial_,End,1687287414921,607d871f57ad2e936b22f890,607d871f57ad2e936b22f890,7,stack,critical,A,25,stack15.jpg,stack35.jpg,low,NULL
1687287507,6d96149a3f17c964f926df3641b7b68b,PennController,19,0,experiment,NULL,PennController,18,_Trial_,Start,1687287414923,607d871f57ad2e936b22f890,607d871f57ad2e936b22f890,16,blinds,critical,A,25,blinds15.jpg,blinds33.jpg,low,NULL
1687287507,6d96149a3f17c964f926df3641b7b68b,PennController,19,0,experiment,NULL,PennController,18,_Header_,Start,1687287414923,607d871f57ad2e936b22f890,607d871f57ad2e936b22f890,16,blinds,critical,A,25,blinds15.jpg,blinds33.jpg,low,NULL
1687287507,6d96149a3f17c964f926df3641b7b68b,PennController,19,0,experiment,NULL,PennController,18,_Header_,End,1687287414923,607d871f57ad2e936b22f890,607d871f57ad2e936b22f890,16,blinds,critical,A,25,blinds15.jpg,blinds33.jpg,low,NULL
1687287507,6d96149a3f17c964f926df3641b7b68b,PennController,19,0,experiment,NULL,Canvas,canvas6,Print,NA,1687287421215,607d871f57ad2e936b22f890,607d871f57ad2e936b22f890,16,blinds,critical,A,25,blinds15.jpg,blinds33.jpg,low,NULL
1687287507,6d96149a3f17c964f926df3641b7b68b,PennController,19,0,experiment,NULL,Video,progression,buffer,0.003924,1687287418444,607d871f57ad2e936b22f890,607d871f57ad2e936b22f890,16,blinds,critical,A,25,blinds15.jpg,blinds33.jpg,low,NULL
1687287507,6d96149a3f17c964f926df3641b7b68b,PennController,19,0,experiment,NULL,Selector,choice,Selection,option2,1687287425615,607d871f57ad2e936b22f890,607d871f57ad2e936b22f890,16,blinds,critical,A,25,blinds15.jpg,blinds33.jpg,low,option2;option1
1687287507,6d96149a3f17c964f926df3641b7b68b,PennController,19,0,experiment,NULL,PennController,18,_Trial_,End,1687287425617,607d871f57ad2e936b22f890,607d871f57ad2e936b22f890,16,blinds,critical,A,25,blinds15.jpg,blinds33.jpg,low,NULL
1687287507,6d96149a3f17c964f926df3641b7b68b,PennController,6,0,experiment,NULL,PennController,5,_Trial_,Start,1687287425618,607d871f57ad2e936b22f890,607d871f57ad2e936b22f890,3,clean,critical,A,75,clean65.jpg,clean85.jpg,low,NULL
1687287507,6d96149a3f17c964f926df3641b7b68b,PennController,6,0,experiment,NULL,PennController,5,_Header_,Start,1687287425618,607d871f57ad2e936b22f890,607d871f57ad2e936b22f890,3,clean,critical,A,75,clean65.jpg,clean85.jpg,low,NULL
1687287507,6d96149a3f17c964f926df3641b7b68b,PennController,6,0,experiment,NULL,PennController,5,_Header_,End,1687287425618,607d871f57ad2e936b22f890,607d871f57ad2e936b22f890,3,clean,critical,A,75,clean65.jpg,clean85.jpg,low,NULL
1687287507,6d96149a3f17c964f926df3641b7b68b,PennController,6,0,experiment,NULL,Canvas,canvas6,Print,NA,1687287433314,607d871f57ad2e936b22f890,607d871f57ad2e936b22f890,3,clean,critical,A,75,clean65.jpg,clean85.jpg,low,NULL
1687287507,6d96149a3f17c964f926df3641b7b68b,PennController,6,0,experiment,NULL,Video,progression,buffer,0.002803,1687287429140,607d871f57ad2e936b22f890,607d871f57ad2e936b22f890,3,clean,critical,A,75,clean65.jpg,clean85.jpg,low,NULL
1687287507,6d96149a3f17c964f926df3641b7b68b,PennController,6,0,experiment,NULL,Selector,choice,Selection,option1,1687287435319,607d871f57ad2e936b22f890,607d871f57ad2e936b22f890,3,clean,critical,A,75,clean65.jpg,clean85.jpg,low,option1;option2
1687287507,6d96149a3f17c964f926df3641b7b68b,PennController,6,0,experiment,NULL,PennController,5,_Trial_,End,1687287435321,607d871f57ad2e936b22f890,607d871f57ad2e936b22f890,3,clean,critical,A,75,clean65.jpg,clean85.jpg,low,NULL
1687287507,6d96149a3f17c964f926df3641b7b68b,PennController,31,0,experiment,NULL,PennController,30,_Trial_,Start,1687287435322,607d871f57ad2e936b22f890,607d871f57ad2e936b22f890,28,sort,filler,A,25,sort15.jpg,sort35.jpg,GoalB,NULL
1687287507,6d96149a3f17c964f926df3641b7b68b,PennController,31,0,experiment,NULL,PennController,30,_Header_,Start,1687287435322,607d871f57ad2e936b22f890,607d871f57ad2e936b22f890,28,sort,filler,A,25,sort15.jpg,sort35.jpg,GoalB,NULL
1687287507,6d96149a3f17c964f926df3641b7b68b,PennController,31,0,experiment,NULL,PennController,30,_Header_,End,1687287435322,607d871f57ad2e936b22f890,607d871f57ad2e936b22f890,28,sort,filler,A,25,sort15.jpg,sort35.jpg,GoalB,NULL
1687287507,6d96149a3f17c964f926df3641b7b68b,PennController,31,0,experiment,NULL,Canvas,canvas6,Print,NA,1687287441027,607d871f57ad2e936b22f890,607d871f57ad2e936b22f890,28,sort,filler,A,25,sort15.jpg,sort35.jpg,GoalB,NULL
1687287507,6d96149a3f17c964f926df3641b7b68b,PennController,31,0,experiment,NULL,Video,progression,buffer,0.003931,1687287438850,607d871f57ad2e936b22f890,607d871f57ad2e936b22f890,28,sort,filler,A,25,sort15.jpg,sort35.jpg,GoalB,NULL
1687287507,6d96149a3f17c964f926df3641b7b68b,PennController,31,0,experiment,NULL,Selector,choice,Selection,option1,1687287447415,607d871f57ad2e936b22f890,607d871f57ad2e936b22f890,28,sort,filler,A,25,sort15.jpg,sort35.jpg,GoalB,option2;option1
1687287507,6d96149a3f17c964f926df3641b7b68b,PennController,31,0,experiment,NULL,PennController,30,_Trial_,End,1687287447417,607d871f57ad2e936b22f890,607d871f57ad2e936b22f890,28,sort,filler,A,25,sort15.jpg,sort35.jpg,GoalB,NULL
1687287507,6d96149a3f17c964f926df3641b7b68b,PennController,16,0,experiment,NULL,PennController,15,_Trial_,Start,1687287447418,607d871f57ad2e936b22f890,607d871f57ad2e936b22f890,13,mix,critical,A,25,mix15.jpg,mix35.jpg,low,NULL
1687287507,6d96149a3f17c964f926df3641b7b68b,PennController,16,0,experiment,NULL,PennController,15,_Header_,Start,1687287447418,607d871f57ad2e936b22f890,607d871f57ad2e936b22f890,13,mix,critical,A,25,mix15.jpg,mix35.jpg,low,NULL
1687287507,6d96149a3f17c964f926df3641b7b68b,PennController,16,0,experiment,NULL,PennController,15,_Header_,End,1687287447418,607d871f57ad2e936b22f890,607d871f57ad2e936b22f890,13,mix,critical,A,25,mix15.jpg,mix35.jpg,low,NULL
1687287507,6d96149a3f17c964f926df3641b7b68b,PennController,16,0,experiment,NULL,Canvas,canvas6,Print,NA,1687287453112,607d871f57ad2e936b22f890,607d871f57ad2e936b22f890,13,mix,critical,A,25,mix15.jpg,mix35.jpg,low,NULL
1687287507,6d96149a3f17c964f926df3641b7b68b,PennController,16,0,experiment,NULL,Video,progression,buffer,0.002459,1687287450940,607d871f57ad2e936b22f890,607d871f57ad2e936b22f890,13,mix,critical,A,25,mix15.jpg,mix35.jpg,low,NULL
1687287507,6d96149a3f17c964f926df3641b7b68b,PennController,16,0,experiment,NULL,Selector,choice,Selection,option1,1687287455463,607d871f57ad2e936b22f890,607d871f57ad2e936b22f890,13,mix,critical,A,25,mix15.jpg,mix35.jpg,low,option1;option2
1687287507,6d96149a3f17c964f926df3641b7b68b,PennController,16,0,experiment,NULL,PennController,15,_Trial_,End,1687287455465,607d871f57ad2e936b22f890,607d871f57ad2e936b22f890,13,mix,critical,A,25,mix15.jpg,mix35.jpg,low,NULL
1687287507,6d96149a3f17c964f926df3641b7b68b,PennController,14,0,experiment,NULL,PennController,13,_Trial_,Start,1687287455466,607d871f57ad2e936b22f890,607d871f57ad2e936b22f890,11,beads,critical,A,50,beads40.jpg,beads60.jpg,low,NULL
1687287507,6d96149a3f17c964f926df3641b7b68b,PennController,14,0,experiment,NULL,PennController,13,_Header_,Start,1687287455466,607d871f57ad2e936b22f890,607d871f57ad2e936b22f890,11,beads,critical,A,50,beads40.jpg,beads60.jpg,low,NULL
1687287507,6d96149a3f17c964f926df3641b7b68b,PennController,14,0,experiment,NULL,PennController,13,_Header_,End,1687287455466,607d871f57ad2e936b22f890,607d871f57ad2e936b22f890,11,beads,critical,A,50,beads40.jpg,beads60.jpg,low,NULL
1687287507,6d96149a3f17c964f926df3641b7b68b,PennController,14,0,experiment,NULL,Canvas,canvas6,Print,NA,1687287462162,607d871f57ad2e936b22f890,607d871f57ad2e936b22f890,11,beads,critical,A,50,beads40.jpg,beads60.jpg,low,NULL
1687287507,6d96149a3f17c964f926df3641b7b68b,PennController,14,0,experiment,NULL,Video,progression,buffer,0.003271,1687287458987,607d871f57ad2e936b22f890,607d871f57ad2e936b22f890,11,beads,critical,A,50,beads40.jpg,beads60.jpg,low,NULL
1687287507,6d96149a3f17c964f926df3641b7b68b,PennController,14,0,experiment,NULL,Selector,choice,Selection,option1,1687287464503,607d871f57ad2e936b22f890,607d871f57ad2e936b22f890,11,beads,critical,A,50,beads40.jpg,beads60.jpg,low,option1;option2
1687287507,6d96149a3f17c964f926df3641b7b68b,PennController,14,0,experiment,NULL,PennController,13,_Trial_,End,1687287464505,607d871f57ad2e936b22f890,607d871f57ad2e936b22f890,11,beads,critical,A,50,beads40.jpg,beads60.jpg,low,NULL
1687287507,6d96149a3f17c964f926df3641b7b68b,PennController,7,0,experiment,NULL,PennController,6,_Trial_,Start,1687287464506,607d871f57ad2e936b22f890,607d871f57ad2e936b22f890,4,candy,critical,A,25,candy15.jpg,candy35.jpg,low,NULL
1687287507,6d96149a3f17c964f926df3641b7b68b,PennController,7,0,experiment,NULL,PennController,6,_Header_,Start,1687287464506,607d871f57ad2e936b22f890,607d871f57ad2e936b22f890,4,candy,critical,A,25,candy15.jpg,candy35.jpg,low,NULL
1687287507,6d96149a3f17c964f926df3641b7b68b,PennController,7,0,experiment,NULL,PennController,6,_Header_,End,1687287464506,607d871f57ad2e936b22f890,607d871f57ad2e936b22f890,4,candy,critical,A,25,candy15.jpg,candy35.jpg,low,NULL
1687287507,6d96149a3f17c964f926df3641b7b68b,PennController,7,0,experiment,NULL,Canvas,canvas6,Print,NA,1687287470196,607d871f57ad2e936b22f890,607d871f57ad2e936b22f890,4,candy,critical,A,25,candy15.jpg,candy35.jpg,low,NULL
1687287507,6d96149a3f17c964f926df3641b7b68b,PennController,7,0,experiment,NULL,Video,progression,buffer,0.003817,1687287468025,607d871f57ad2e936b22f890,607d871f57ad2e936b22f890,4,candy,critical,A,25,candy15.jpg,candy35.jpg,low,NULL
1687287507,6d96149a3f17c964f926df3641b7b68b,PennController,7,0,experiment,NULL,Selector,choice,Selection,option1,1687287475103,607d871f57ad2e936b22f890,607d871f57ad2e936b22f890,4,candy,critical,A,25,candy15.jpg,candy35.jpg,low,option1;option2
1687287507,6d96149a3f17c964f926df3641b7b68b,PennController,7,0,experiment,NULL,PennController,6,_Trial_,End,1687287475104,607d871f57ad2e936b22f890,607d871f57ad2e936b22f890,4,candy,critical,A,25,candy15.jpg,candy35.jpg,low,NULL
1687287507,6d96149a3f17c964f926df3641b7b68b,PennController,32,0,experiment,NULL,PennController,31,_Trial_,Start,1687287475105,607d871f57ad2e936b22f890,607d871f57ad2e936b22f890,29,frog,filler,A,50,frog40.jpg,frog60.jpg,GoalA,NULL
1687287507,6d96149a3f17c964f926df3641b7b68b,PennController,32,0,experiment,NULL,PennController,31,_Header_,Start,1687287475105,607d871f57ad2e936b22f890,607d871f57ad2e936b22f890,29,frog,filler,A,50,frog40.jpg,frog60.jpg,GoalA,NULL
1687287507,6d96149a3f17c964f926df3641b7b68b,PennController,32,0,experiment,NULL,PennController,31,_Header_,End,1687287475105,607d871f57ad2e936b22f890,607d871f57ad2e936b22f890,29,frog,filler,A,50,frog40.jpg,frog60.jpg,GoalA,NULL
1687287507,6d96149a3f17c964f926df3641b7b68b,PennController,32,0,experiment,NULL,Canvas,canvas6,Print,NA,1687287481809,607d871f57ad2e936b22f890,607d871f57ad2e936b22f890,29,frog,filler,A,50,frog40.jpg,frog60.jpg,GoalA,NULL
1687287507,6d96149a3f17c964f926df3641b7b68b,PennController,32,0,experiment,NULL,Video,progression,buffer,0.008496,1687287478630,607d871f57ad2e936b22f890,607d871f57ad2e936b22f890,29,frog,filler,A,50,frog40.jpg,frog60.jpg,GoalA,NULL
1687287507,6d96149a3f17c964f926df3641b7b68b,PennController,32,0,experiment,NULL,Selector,choice,Selection,option2,1687287487191,607d871f57ad2e936b22f890,607d871f57ad2e936b22f890,29,frog,filler,A,50,frog40.jpg,frog60.jpg,GoalA,option2;option1
1687287507,6d96149a3f17c964f926df3641b7b68b,PennController,32,0,experiment,NULL,PennController,31,_Trial_,End,1687287487192,607d871f57ad2e936b22f890,607d871f57ad2e936b22f890,29,frog,filler,A,50,frog40.jpg,frog60.jpg,GoalA,NULL
1687287507,6d96149a3f17c964f926df3641b7b68b,PennController,23,0,experiment,NULL,PennController,22,_Trial_,Start,1687287487193,607d871f57ad2e936b22f890,607d871f57ad2e936b22f890,20,cat,filler,A,50,cat40.jpg,cat60.jpg,GoalB,NULL
1687287507,6d96149a3f17c964f926df3641b7b68b,PennController,23,0,experiment,NULL,PennController,22,_Header_,Start,1687287487193,607d871f57ad2e936b22f890,607d871f57ad2e936b22f890,20,cat,filler,A,50,cat40.jpg,cat60.jpg,GoalB,NULL
1687287507,6d96149a3f17c964f926df3641b7b68b,PennController,23,0,experiment,NULL,PennController,22,_Header_,End,1687287487193,607d871f57ad2e936b22f890,607d871f57ad2e936b22f890,20,cat,filler,A,50,cat40.jpg,cat60.jpg,GoalB,NULL
1687287507,6d96149a3f17c964f926df3641b7b68b,PennController,23,0,experiment,NULL,Canvas,canvas6,Print,NA,1687287493886,607d871f57ad2e936b22f890,607d871f57ad2e936b22f890,20,cat,filler,A,50,cat40.jpg,cat60.jpg,GoalB,NULL
1687287507,6d96149a3f17c964f926df3641b7b68b,PennController,23,0,experiment,NULL,Video,progression,buffer,0.00303,1687287490719,607d871f57ad2e936b22f890,607d871f57ad2e936b22f890,20,cat,filler,A,50,cat40.jpg,cat60.jpg,GoalB,NULL
1687287507,6d96149a3f17c964f926df3641b7b68b,PennController,23,0,experiment,NULL,Selector,choice,Selection,option1,1687287498534,607d871f57ad2e936b22f890,607d871f57ad2e936b22f890,20,cat,filler,A,50,cat40.jpg,cat60.jpg,GoalB,option2;option1
1687287507,6d96149a3f17c964f926df3641b7b68b,PennController,23,0,experiment,NULL,PennController,22,_Trial_,End,1687287498536,607d871f57ad2e936b22f890,607d871f57ad2e936b22f890,20,cat,filler,A,50,cat40.jpg,cat60.jpg,GoalB,NULL
1687287507,6d96149a3f17c964f926df3641b7b68b,PennController,22,0,experiment,NULL,PennController,21,_Trial_,Start,1687287498537,607d871f57ad2e936b22f890,607d871f57ad2e936b22f890,19,cup,filler,A,25,cup15.jpg,cup35.jpg,GoalA,NULL
1687287507,6d96149a3f17c964f926df3641b7b68b,PennController,22,0,experiment,NULL,PennController,21,_Header_,Start,1687287498537,607d871f57ad2e936b22f890,607d871f57ad2e936b22f890,19,cup,filler,A,25,cup15.jpg,cup35.jpg,GoalA,NULL
1687287507,6d96149a3f17c964f926df3641b7b68b,PennController,22,0,experiment,NULL,PennController,21,_Header_,End,1687287498537,607d871f57ad2e936b22f890,607d871f57ad2e936b22f890,19,cup,filler,A,25,cup15.jpg,cup35.jpg,GoalA,NULL
1687287507,6d96149a3f17c964f926df3641b7b68b,PennController,22,0,experiment,NULL,Canvas,canvas6,Print,NA,1687287504229,607d871f57ad2e936b22f890,607d871f57ad2e936b22f890,19,cup,filler,A,25,cup15.jpg,cup35.jpg,GoalA,NULL
1687287507,6d96149a3f17c964f926df3641b7b68b,PennController,22,0,experiment,NULL,Video,progression,buffer,0.002409,1687287502058,607d871f57ad2e936b22f890,607d871f57ad2e936b22f890,19,cup,filler,A,25,cup15.jpg,cup35.jpg,GoalA,NULL
1687287507,6d96149a3f17c964f926df3641b7b68b,PennController,22,0,experiment,NULL,Selector,choice,Selection,option2,1687287505670,607d871f57ad2e936b22f890,607d871f57ad2e936b22f890,19,cup,filler,A,25,cup15.jpg,cup35.jpg,GoalA,option1;option2
1687287507,6d96149a3f17c964f926df3641b7b68b,PennController,22,0,experiment,NULL,PennController,21,_Trial_,End,1687287505672,607d871f57ad2e936b22f890,607d871f57ad2e936b22f890,19,cup,filler,A,25,cup15.jpg,cup35.jpg,GoalA,NULL
