#
# Results on Tuesday June 20 2023 18:57:26 UTC
# USER AGENT: Mozilla/5.0 (Windows NT 10.0; Win64; x64) AppleWebKit/537.36 (KHTML, like Gecko) Chrome/114.0.0.0 Safari/537.36
# Design number was non-random = 6
#
# Columns below this comment are as follows:
# 1. Results reception time.
# 2. MD5 hash of participant's IP address.
# 3. Controller name.
# 4. Order number of item.
# 5. Inner element number.
# 6. Label.
# 7. Latin Square Group.
# 8. PennElementType.
# 9. PennElementName.
# 10. Parameter.
# 11. Value.
# 12. EventTime.
# 13. PROLIFIC_ID.
# 14. Comments.
1687287446,3752960097d9a97c628c535bf374e478,PennController,2,0,consent,NULL,PennController,0,_Trial_,Start,1687287157726,5c5b1174265d6b000105a286,NULL
1687287446,3752960097d9a97c628c535bf374e478,PennController,2,0,consent,NULL,PennController,0,_Header_,Start,1687287157726,5c5b1174265d6b000105a286,NULL
1687287446,3752960097d9a97c628c535bf374e478,PennController,2,0,consent,NULL,PennController,0,_Header_,End,1687287157727,5c5b1174265d6b000105a286,NULL
1687287446,3752960097d9a97c628c535bf374e478,PennController,2,0,consent,NULL,PennController,0,_Trial_,End,1687287161902,5c5b1174265d6b000105a286,NULL
# Columns below this comment are as follows:
# 14. ID.
# 15. Comments.
1687287446,3752960097d9a97c628c535bf374e478,PennController,3,0,intro,NULL,PennController,1,_Trial_,Start,1687287161924,5c5b1174265d6b000105a286,5c5b1174265d6b000105a286,NULL
1687287446,3752960097d9a97c628c535bf374e478,PennController,3,0,intro,NULL,PennController,1,_Header_,Start,1687287161924,5c5b1174265d6b000105a286,5c5b1174265d6b000105a286,NULL
1687287446,3752960097d9a97c628c535bf374e478,PennController,3,0,intro,NULL,PennController,1,_Header_,End,1687287161924,5c5b1174265d6b000105a286,5c5b1174265d6b000105a286,NULL
1687287446,3752960097d9a97c628c535bf374e478,PennController,3,0,intro,NULL,PennController,1,_Trial_,End,1687287183232,5c5b1174265d6b000105a286,5c5b1174265d6b000105a286,NULL
# Columns below this comment are as follows:
# 15. item_number.
# 16. item.
# 17. type.
# 18. Group.
# 19. prog.
# 20. prev_image.
# 21. next_image.
# 22. height.
# 23. Comments.
1687287446,3752960097d9a97c628c535bf374e478,PennController,5,0,experiment,NULL,PennController,4,_Trial_,Start,1687287183256,5c5b1174265d6b000105a286,5c5b1174265d6b000105a286,2,door,critical,A,50,door40.jpg,door60.jpg,low,NULL
1687287446,3752960097d9a97c628c535bf374e478,PennController,5,0,experiment,NULL,PennController,4,_Header_,Start,1687287183256,5c5b1174265d6b000105a286,5c5b1174265d6b000105a286,2,door,critical,A,50,door40.jpg,door60.jpg,low,NULL
1687287446,3752960097d9a97c628c535bf374e478,PennController,5,0,experiment,NULL,PennController,4,_Header_,End,1687287183257,5c5b1174265d6b000105a286,5c5b1174265d6b000105a286,2,door,critical,A,50,door40.jpg,door60.jpg,low,NULL
1687287446,3752960097d9a97c628c535bf374e478,PennController,5,0,experiment,NULL,Canvas,canvas6,Print,NA,1687287190184,5c5b1174265d6b000105a286,5c5b1174265d6b000105a286,2,door,critical,A,50,door40.jpg,door60.jpg,low,NULL
1687287446,3752960097d9a97c628c535bf374e478,PennController,5,0,experiment,NULL,Video,progression,buffer,0.026187,1687287186965,5c5b1174265d6b000105a286,5c5b1174265d6b000105a286,2,door,critical,A,50,door40.jpg,door60.jpg,low,NULL
1687287446,3752960097d9a97c628c535bf374e478,PennController,5,0,experiment,NULL,Selector,choice,Selection,option2,1687287193334,5c5b1174265d6b000105a286,5c5b1174265d6b000105a286,2,door,critical,A,50,door40.jpg,door60.jpg,low,option2;option1
1687287446,3752960097d9a97c628c535bf374e478,PennController,5,0,experiment,NULL,PennController,4,_Trial_,End,1687287193344,5c5b1174265d6b000105a286,5c5b1174265d6b000105a286,2,door,critical,A,50,door40.jpg,door60.jpg,low,NULL
1687287446,3752960097d9a97c628c535bf374e478,PennController,21,0,experiment,NULL,PennController,20,_Trial_,Start,1687287193355,5c5b1174265d6b000105a286,5c5b1174265d6b000105a286,18,ball,critical,A,75,ball65.jpg,ball85.jpg,low,NULL
1687287446,3752960097d9a97c628c535bf374e478,PennController,21,0,experiment,NULL,PennController,20,_Header_,Start,1687287193355,5c5b1174265d6b000105a286,5c5b1174265d6b000105a286,18,ball,critical,A,75,ball65.jpg,ball85.jpg,low,NULL
1687287446,3752960097d9a97c628c535bf374e478,PennController,21,0,experiment,NULL,PennController,20,_Header_,End,1687287193355,5c5b1174265d6b000105a286,5c5b1174265d6b000105a286,18,ball,critical,A,75,ball65.jpg,ball85.jpg,low,NULL
1687287446,3752960097d9a97c628c535bf374e478,PennController,21,0,experiment,NULL,Canvas,canvas6,Print,NA,1687287201133,5c5b1174265d6b000105a286,5c5b1174265d6b000105a286,18,ball,critical,A,75,ball65.jpg,ball85.jpg,low,NULL
1687287446,3752960097d9a97c628c535bf374e478,PennController,21,0,experiment,NULL,Video,progression,buffer,0.020812,1687287196957,5c5b1174265d6b000105a286,5c5b1174265d6b000105a286,18,ball,critical,A,75,ball65.jpg,ball85.jpg,low,NULL
1687287446,3752960097d9a97c628c535bf374e478,PennController,21,0,experiment,NULL,Selector,choice,Selection,option2,1687287204461,5c5b1174265d6b000105a286,5c5b1174265d6b000105a286,18,ball,critical,A,75,ball65.jpg,ball85.jpg,low,option2;option1
1687287446,3752960097d9a97c628c535bf374e478,PennController,21,0,experiment,NULL,PennController,20,_Trial_,End,1687287204469,5c5b1174265d6b000105a286,5c5b1174265d6b000105a286,18,ball,critical,A,75,ball65.jpg,ball85.jpg,low,NULL
1687287446,3752960097d9a97c628c535bf374e478,PennController,12,0,experiment,NULL,PennController,11,_Trial_,Start,1687287204480,5c5b1174265d6b000105a286,5c5b1174265d6b000105a286,9,cake,critical,A,75,cake66.jpg,cake84.jpg,low,NULL
1687287446,3752960097d9a97c628c535bf374e478,PennController,12,0,experiment,NULL,PennController,11,_Header_,Start,1687287204480,5c5b1174265d6b000105a286,5c5b1174265d6b000105a286,9,cake,critical,A,75,cake66.jpg,cake84.jpg,low,NULL
1687287446,3752960097d9a97c628c535bf374e478,PennController,12,0,experiment,NULL,PennController,11,_Header_,End,1687287204480,5c5b1174265d6b000105a286,5c5b1174265d6b000105a286,9,cake,critical,A,75,cake66.jpg,cake84.jpg,low,NULL
1687287446,3752960097d9a97c628c535bf374e478,PennController,12,0,experiment,NULL,Canvas,canvas6,Print,NA,1687287214250,5c5b1174265d6b000105a286,5c5b1174265d6b000105a286,9,cake,critical,A,75,cake66.jpg,cake84.jpg,low,NULL
1687287446,3752960097d9a97c628c535bf374e478,PennController,12,0,experiment,NULL,Video,progression,buffer,0.024326,1687287208081,5c5b1174265d6b000105a286,5c5b1174265d6b000105a286,9,cake,critical,A,75,cake66.jpg,cake84.jpg,low,NULL
1687287446,3752960097d9a97c628c535bf374e478,PennController,12,0,experiment,NULL,Selector,choice,Selection,option2,1687287215533,5c5b1174265d6b000105a286,5c5b1174265d6b000105a286,9,cake,critical,A,75,cake66.jpg,cake84.jpg,low,option2;option1
1687287446,3752960097d9a97c628c535bf374e478,PennController,12,0,experiment,NULL,PennController,11,_Trial_,End,1687287215541,5c5b1174265d6b000105a286,5c5b1174265d6b000105a286,9,cake,critical,A,75,cake66.jpg,cake84.jpg,low,NULL
1687287446,3752960097d9a97c628c535bf374e478,PennController,8,0,experiment,NULL,PennController,7,_Trial_,Start,1687287215553,5c5b1174265d6b000105a286,5c5b1174265d6b000105a286,5,book,critical,A,50,book40.jpg,book60.jpg,low,NULL
1687287446,3752960097d9a97c628c535bf374e478,PennController,8,0,experiment,NULL,PennController,7,_Header_,Start,1687287215553,5c5b1174265d6b000105a286,5c5b1174265d6b000105a286,5,book,critical,A,50,book40.jpg,book60.jpg,low,NULL
1687287446,3752960097d9a97c628c535bf374e478,PennController,8,0,experiment,NULL,PennController,7,_Header_,End,1687287215553,5c5b1174265d6b000105a286,5c5b1174265d6b000105a286,5,book,critical,A,50,book40.jpg,book60.jpg,low,NULL
1687287446,3752960097d9a97c628c535bf374e478,PennController,8,0,experiment,NULL,Canvas,canvas6,Print,NA,1687287222326,5c5b1174265d6b000105a286,5c5b1174265d6b000105a286,5,book,critical,A,50,book40.jpg,book60.jpg,low,NULL
1687287446,3752960097d9a97c628c535bf374e478,PennController,8,0,experiment,NULL,Video,progression,buffer,0.019249,1687287219141,5c5b1174265d6b000105a286,5c5b1174265d6b000105a286,5,book,critical,A,50,book40.jpg,book60.jpg,low,NULL
1687287446,3752960097d9a97c628c535bf374e478,PennController,8,0,experiment,NULL,Selector,choice,Selection,option2,1687287224541,5c5b1174265d6b000105a286,5c5b1174265d6b000105a286,5,book,critical,A,50,book40.jpg,book60.jpg,low,option1;option2
1687287446,3752960097d9a97c628c535bf374e478,PennController,8,0,experiment,NULL,PennController,7,_Trial_,End,1687287224547,5c5b1174265d6b000105a286,5c5b1174265d6b000105a286,5,book,critical,A,50,book40.jpg,book60.jpg,low,NULL
1687287446,3752960097d9a97c628c535bf374e478,PennController,17,0,experiment,NULL,PennController,16,_Trial_,Start,1687287224554,5c5b1174265d6b000105a286,5c5b1174265d6b000105a286,14,cover,critical,A,50,cover42.jpg,cover60.jpg,low,NULL
1687287446,3752960097d9a97c628c535bf374e478,PennController,17,0,experiment,NULL,PennController,16,_Header_,Start,1687287224555,5c5b1174265d6b000105a286,5c5b1174265d6b000105a286,14,cover,critical,A,50,cover42.jpg,cover60.jpg,low,NULL
1687287446,3752960097d9a97c628c535bf374e478,PennController,17,0,experiment,NULL,PennController,16,_Header_,End,1687287224555,5c5b1174265d6b000105a286,5c5b1174265d6b000105a286,14,cover,critical,A,50,cover42.jpg,cover60.jpg,low,NULL
1687287446,3752960097d9a97c628c535bf374e478,PennController,17,0,experiment,NULL,Canvas,canvas6,Print,NA,1687287232725,5c5b1174265d6b000105a286,5c5b1174265d6b000105a286,14,cover,critical,A,50,cover42.jpg,cover60.jpg,low,NULL
1687287446,3752960097d9a97c628c535bf374e478,PennController,17,0,experiment,NULL,Video,progression,buffer,0.021878,1687287228156,5c5b1174265d6b000105a286,5c5b1174265d6b000105a286,14,cover,critical,A,50,cover42.jpg,cover60.jpg,low,NULL
1687287446,3752960097d9a97c628c535bf374e478,PennController,17,0,experiment,NULL,Selector,choice,Selection,option2,1687287234422,5c5b1174265d6b000105a286,5c5b1174265d6b000105a286,14,cover,critical,A,50,cover42.jpg,cover60.jpg,low,option2;option1
1687287446,3752960097d9a97c628c535bf374e478,PennController,17,0,experiment,NULL,PennController,16,_Trial_,End,1687287234428,5c5b1174265d6b000105a286,5c5b1174265d6b000105a286,14,cover,critical,A,50,cover42.jpg,cover60.jpg,low,NULL
1687287446,3752960097d9a97c628c535bf374e478,PennController,15,0,experiment,NULL,PennController,14,_Trial_,Start,1687287234436,5c5b1174265d6b000105a286,5c5b1174265d6b000105a286,12,erase,critical,A,75,erase66.jpg,erase84.jpg,low,NULL
1687287446,3752960097d9a97c628c535bf374e478,PennController,15,0,experiment,NULL,PennController,14,_Header_,Start,1687287234436,5c5b1174265d6b000105a286,5c5b1174265d6b000105a286,12,erase,critical,A,75,erase66.jpg,erase84.jpg,low,NULL
1687287446,3752960097d9a97c628c535bf374e478,PennController,15,0,experiment,NULL,PennController,14,_Header_,End,1687287234436,5c5b1174265d6b000105a286,5c5b1174265d6b000105a286,12,erase,critical,A,75,erase66.jpg,erase84.jpg,low,NULL
1687287446,3752960097d9a97c628c535bf374e478,PennController,15,0,experiment,NULL,Canvas,canvas6,Print,NA,1687287244205,5c5b1174265d6b000105a286,5c5b1174265d6b000105a286,12,erase,critical,A,75,erase66.jpg,erase84.jpg,low,NULL
1687287446,3752960097d9a97c628c535bf374e478,PennController,15,0,experiment,NULL,Video,progression,buffer,0.019016,1687287238029,5c5b1174265d6b000105a286,5c5b1174265d6b000105a286,12,erase,critical,A,75,erase66.jpg,erase84.jpg,low,NULL
1687287446,3752960097d9a97c628c535bf374e478,PennController,15,0,experiment,NULL,Selector,choice,Selection,option2,1687287246003,5c5b1174265d6b000105a286,5c5b1174265d6b000105a286,12,erase,critical,A,75,erase66.jpg,erase84.jpg,low,option1;option2
1687287446,3752960097d9a97c628c535bf374e478,PennController,15,0,experiment,NULL,PennController,14,_Trial_,End,1687287246010,5c5b1174265d6b000105a286,5c5b1174265d6b000105a286,12,erase,critical,A,75,erase66.jpg,erase84.jpg,low,NULL
1687287446,3752960097d9a97c628c535bf374e478,PennController,30,0,experiment,NULL,PennController,29,_Trial_,Start,1687287246017,5c5b1174265d6b000105a286,5c5b1174265d6b000105a286,27,square,filler,A,75,square65.jpg,square85.jpg,GoalA,NULL
1687287446,3752960097d9a97c628c535bf374e478,PennController,30,0,experiment,NULL,PennController,29,_Header_,Start,1687287246017,5c5b1174265d6b000105a286,5c5b1174265d6b000105a286,27,square,filler,A,75,square65.jpg,square85.jpg,GoalA,NULL
1687287446,3752960097d9a97c628c535bf374e478,PennController,30,0,experiment,NULL,PennController,29,_Header_,End,1687287246017,5c5b1174265d6b000105a286,5c5b1174265d6b000105a286,27,square,filler,A,75,square65.jpg,square85.jpg,GoalA,NULL
1687287446,3752960097d9a97c628c535bf374e478,PennController,30,0,experiment,NULL,Canvas,canvas6,Print,NA,1687287253792,5c5b1174265d6b000105a286,5c5b1174265d6b000105a286,27,square,filler,A,75,square65.jpg,square85.jpg,GoalA,NULL
1687287446,3752960097d9a97c628c535bf374e478,PennController,30,0,experiment,NULL,Video,progression,buffer,0.019796,1687287249606,5c5b1174265d6b000105a286,5c5b1174265d6b000105a286,27,square,filler,A,75,square65.jpg,square85.jpg,GoalA,NULL
1687287446,3752960097d9a97c628c535bf374e478,PennController,30,0,experiment,NULL,Selector,choice,Selection,option2,1687287255443,5c5b1174265d6b000105a286,5c5b1174265d6b000105a286,27,square,filler,A,75,square65.jpg,square85.jpg,GoalA,option1;option2
1687287446,3752960097d9a97c628c535bf374e478,PennController,30,0,experiment,NULL,PennController,29,_Trial_,End,1687287255450,5c5b1174265d6b000105a286,5c5b1174265d6b000105a286,27,square,filler,A,75,square65.jpg,square85.jpg,GoalA,NULL
1687287446,3752960097d9a97c628c535bf374e478,PennController,19,0,experiment,NULL,PennController,18,_Trial_,Start,1687287255458,5c5b1174265d6b000105a286,5c5b1174265d6b000105a286,16,blinds,critical,A,25,blinds15.jpg,blinds33.jpg,low,NULL
1687287446,3752960097d9a97c628c535bf374e478,PennController,19,0,experiment,NULL,PennController,18,_Header_,Start,1687287255458,5c5b1174265d6b000105a286,5c5b1174265d6b000105a286,16,blinds,critical,A,25,blinds15.jpg,blinds33.jpg,low,NULL
1687287446,3752960097d9a97c628c535bf374e478,PennController,19,0,experiment,NULL,PennController,18,_Header_,End,1687287255458,5c5b1174265d6b000105a286,5c5b1174265d6b000105a286,16,blinds,critical,A,25,blinds15.jpg,blinds33.jpg,low,NULL
1687287446,3752960097d9a97c628c535bf374e478,PennController,19,0,experiment,NULL,Canvas,canvas6,Print,NA,1687287261813,5c5b1174265d6b000105a286,5c5b1174265d6b000105a286,16,blinds,critical,A,25,blinds15.jpg,blinds33.jpg,low,NULL
1687287446,3752960097d9a97c628c535bf374e478,PennController,19,0,experiment,NULL,Video,progression,buffer,0.019076,1687287259042,5c5b1174265d6b000105a286,5c5b1174265d6b000105a286,16,blinds,critical,A,25,blinds15.jpg,blinds33.jpg,low,NULL
1687287446,3752960097d9a97c628c535bf374e478,PennController,19,0,experiment,NULL,Selector,choice,Selection,option1,1687287262724,5c5b1174265d6b000105a286,5c5b1174265d6b000105a286,16,blinds,critical,A,25,blinds15.jpg,blinds33.jpg,low,option1;option2
1687287446,3752960097d9a97c628c535bf374e478,PennController,19,0,experiment,NULL,PennController,18,_Trial_,End,1687287262730,5c5b1174265d6b000105a286,5c5b1174265d6b000105a286,16,blinds,critical,A,25,blinds15.jpg,blinds33.jpg,low,NULL
1687287446,3752960097d9a97c628c535bf374e478,PennController,10,0,experiment,NULL,PennController,9,_Trial_,Start,1687287262736,5c5b1174265d6b000105a286,5c5b1174265d6b000105a286,7,stack,critical,A,25,stack15.jpg,stack35.jpg,low,NULL
1687287446,3752960097d9a97c628c535bf374e478,PennController,10,0,experiment,NULL,PennController,9,_Header_,Start,1687287262736,5c5b1174265d6b000105a286,5c5b1174265d6b000105a286,7,stack,critical,A,25,stack15.jpg,stack35.jpg,low,NULL
1687287446,3752960097d9a97c628c535bf374e478,PennController,10,0,experiment,NULL,PennController,9,_Header_,End,1687287262736,5c5b1174265d6b000105a286,5c5b1174265d6b000105a286,7,stack,critical,A,25,stack15.jpg,stack35.jpg,low,NULL
1687287446,3752960097d9a97c628c535bf374e478,PennController,10,0,experiment,NULL,Canvas,canvas6,Print,NA,1687287268495,5c5b1174265d6b000105a286,5c5b1174265d6b000105a286,7,stack,critical,A,25,stack15.jpg,stack35.jpg,low,NULL
1687287446,3752960097d9a97c628c535bf374e478,PennController,10,0,experiment,NULL,Video,progression,buffer,0.019958,1687287266327,5c5b1174265d6b000105a286,5c5b1174265d6b000105a286,7,stack,critical,A,25,stack15.jpg,stack35.jpg,low,NULL
1687287446,3752960097d9a97c628c535bf374e478,PennController,10,0,experiment,NULL,Selector,choice,Selection,option1,1687287270492,5c5b1174265d6b000105a286,5c5b1174265d6b000105a286,7,stack,critical,A,25,stack15.jpg,stack35.jpg,low,option2;option1
1687287446,3752960097d9a97c628c535bf374e478,PennController,10,0,experiment,NULL,PennController,9,_Trial_,End,1687287270498,5c5b1174265d6b000105a286,5c5b1174265d6b000105a286,7,stack,critical,A,25,stack15.jpg,stack35.jpg,low,NULL
1687287446,3752960097d9a97c628c535bf374e478,PennController,13,0,experiment,NULL,PennController,12,_Trial_,Start,1687287270504,5c5b1174265d6b000105a286,5c5b1174265d6b000105a286,10,train,critical,A,25,train15.jpg,train35.jpg,low,NULL
1687287446,3752960097d9a97c628c535bf374e478,PennController,13,0,experiment,NULL,PennController,12,_Header_,Start,1687287270504,5c5b1174265d6b000105a286,5c5b1174265d6b000105a286,10,train,critical,A,25,train15.jpg,train35.jpg,low,NULL
1687287446,3752960097d9a97c628c535bf374e478,PennController,13,0,experiment,NULL,PennController,12,_Header_,End,1687287270504,5c5b1174265d6b000105a286,5c5b1174265d6b000105a286,10,train,critical,A,25,train15.jpg,train35.jpg,low,NULL
1687287446,3752960097d9a97c628c535bf374e478,PennController,13,0,experiment,NULL,Canvas,canvas6,Print,NA,1687287276278,5c5b1174265d6b000105a286,5c5b1174265d6b000105a286,10,train,critical,A,25,train15.jpg,train35.jpg,low,NULL
1687287446,3752960097d9a97c628c535bf374e478,PennController,13,0,experiment,NULL,Video,progression,buffer,0.020078,1687287274099,5c5b1174265d6b000105a286,5c5b1174265d6b000105a286,10,train,critical,A,25,train15.jpg,train35.jpg,low,NULL
1687287446,3752960097d9a97c628c535bf374e478,PennController,13,0,experiment,NULL,Selector,choice,Selection,option1,1687287278695,5c5b1174265d6b000105a286,5c5b1174265d6b000105a286,10,train,critical,A,25,train15.jpg,train35.jpg,low,option2;option1
1687287446,3752960097d9a97c628c535bf374e478,PennController,13,0,experiment,NULL,PennController,12,_Trial_,End,1687287278702,5c5b1174265d6b000105a286,5c5b1174265d6b000105a286,10,train,critical,A,25,train15.jpg,train35.jpg,low,NULL
1687287446,3752960097d9a97c628c535bf374e478,PennController,11,0,experiment,NULL,PennController,10,_Trial_,Start,1687287278711,5c5b1174265d6b000105a286,5c5b1174265d6b000105a286,8,cucumber,critical,A,50,cucumber42.jpg,cucumber60.jpg,low,NULL
1687287446,3752960097d9a97c628c535bf374e478,PennController,11,0,experiment,NULL,PennController,10,_Header_,Start,1687287278711,5c5b1174265d6b000105a286,5c5b1174265d6b000105a286,8,cucumber,critical,A,50,cucumber42.jpg,cucumber60.jpg,low,NULL
1687287446,3752960097d9a97c628c535bf374e478,PennController,11,0,experiment,NULL,PennController,10,_Header_,End,1687287278711,5c5b1174265d6b000105a286,5c5b1174265d6b000105a286,8,cucumber,critical,A,50,cucumber42.jpg,cucumber60.jpg,low,NULL
1687287446,3752960097d9a97c628c535bf374e478,PennController,11,0,experiment,NULL,Canvas,canvas6,Print,NA,1687287286878,5c5b1174265d6b000105a286,5c5b1174265d6b000105a286,8,cucumber,critical,A,50,cucumber42.jpg,cucumber60.jpg,low,NULL
1687287446,3752960097d9a97c628c535bf374e478,PennController,11,0,experiment,NULL,Video,progression,buffer,0.019189,1687287282302,5c5b1174265d6b000105a286,5c5b1174265d6b000105a286,8,cucumber,critical,A,50,cucumber42.jpg,cucumber60.jpg,low,NULL
1687287446,3752960097d9a97c628c535bf374e478,PennController,11,0,experiment,NULL,Selector,choice,Selection,option2,1687287288126,5c5b1174265d6b000105a286,5c5b1174265d6b000105a286,8,cucumber,critical,A,50,cucumber42.jpg,cucumber60.jpg,low,option1;option2
1687287446,3752960097d9a97c628c535bf374e478,PennController,11,0,experiment,NULL,PennController,10,_Trial_,End,1687287288132,5c5b1174265d6b000105a286,5c5b1174265d6b000105a286,8,cucumber,critical,A,50,cucumber42.jpg,cucumber60.jpg,low,NULL
1687287446,3752960097d9a97c628c535bf374e478,PennController,9,0,experiment,NULL,PennController,8,_Trial_,Start,1687287288138,5c5b1174265d6b000105a286,5c5b1174265d6b000105a286,6,flower,critical,A,75,flower65.jpg,flower85.jpg,low,NULL
1687287446,3752960097d9a97c628c535bf374e478,PennController,9,0,experiment,NULL,PennController,8,_Header_,Start,1687287288138,5c5b1174265d6b000105a286,5c5b1174265d6b000105a286,6,flower,critical,A,75,flower65.jpg,flower85.jpg,low,NULL
1687287446,3752960097d9a97c628c535bf374e478,PennController,9,0,experiment,NULL,PennController,8,_Header_,End,1687287288138,5c5b1174265d6b000105a286,5c5b1174265d6b000105a286,6,flower,critical,A,75,flower65.jpg,flower85.jpg,low,NULL
1687287446,3752960097d9a97c628c535bf374e478,PennController,9,0,experiment,NULL,Canvas,canvas6,Print,NA,1687287295916,5c5b1174265d6b000105a286,5c5b1174265d6b000105a286,6,flower,critical,A,75,flower65.jpg,flower85.jpg,low,NULL
1687287446,3752960097d9a97c628c535bf374e478,PennController,9,0,experiment,NULL,Video,progression,buffer,0.026276,1687287291733,5c5b1174265d6b000105a286,5c5b1174265d6b000105a286,6,flower,critical,A,75,flower65.jpg,flower85.jpg,low,NULL
1687287446,3752960097d9a97c628c535bf374e478,PennController,9,0,experiment,NULL,Selector,choice,Selection,option2,1687287297488,5c5b1174265d6b000105a286,5c5b1174265d6b000105a286,6,flower,critical,A,75,flower65.jpg,flower85.jpg,low,option2;option1
1687287446,3752960097d9a97c628c535bf374e478,PennController,9,0,experiment,NULL,PennController,8,_Trial_,End,1687287297495,5c5b1174265d6b000105a286,5c5b1174265d6b000105a286,6,flower,critical,A,75,flower65.jpg,flower85.jpg,low,NULL
1687287446,3752960097d9a97c628c535bf374e478,PennController,7,0,experiment,NULL,PennController,6,_Trial_,Start,1687287297504,5c5b1174265d6b000105a286,5c5b1174265d6b000105a286,4,candy,critical,A,25,candy15.jpg,candy35.jpg,low,NULL
1687287446,3752960097d9a97c628c535bf374e478,PennController,7,0,experiment,NULL,PennController,6,_Header_,Start,1687287297504,5c5b1174265d6b000105a286,5c5b1174265d6b000105a286,4,candy,critical,A,25,candy15.jpg,candy35.jpg,low,NULL
1687287446,3752960097d9a97c628c535bf374e478,PennController,7,0,experiment,NULL,PennController,6,_Header_,End,1687287297504,5c5b1174265d6b000105a286,5c5b1174265d6b000105a286,4,candy,critical,A,25,candy15.jpg,candy35.jpg,low,NULL
1687287446,3752960097d9a97c628c535bf374e478,PennController,7,0,experiment,NULL,Canvas,canvas6,Print,NA,1687287303277,5c5b1174265d6b000105a286,5c5b1174265d6b000105a286,4,candy,critical,A,25,candy15.jpg,candy35.jpg,low,NULL
1687287446,3752960097d9a97c628c535bf374e478,PennController,7,0,experiment,NULL,Video,progression,buffer,0.018741,1687287301092,5c5b1174265d6b000105a286,5c5b1174265d6b000105a286,4,candy,critical,A,25,candy15.jpg,candy35.jpg,low,NULL
1687287446,3752960097d9a97c628c535bf374e478,PennController,7,0,experiment,NULL,Selector,choice,Selection,option2,1687287305438,5c5b1174265d6b000105a286,5c5b1174265d6b000105a286,4,candy,critical,A,25,candy15.jpg,candy35.jpg,low,option2;option1
1687287446,3752960097d9a97c628c535bf374e478,PennController,7,0,experiment,NULL,PennController,6,_Trial_,End,1687287305444,5c5b1174265d6b000105a286,5c5b1174265d6b000105a286,4,candy,critical,A,25,candy15.jpg,candy35.jpg,low,NULL
1687287446,3752960097d9a97c628c535bf374e478,PennController,23,0,experiment,NULL,PennController,22,_Trial_,Start,1687287305450,5c5b1174265d6b000105a286,5c5b1174265d6b000105a286,20,cat,filler,A,50,cat40.jpg,cat60.jpg,GoalB,NULL
1687287446,3752960097d9a97c628c535bf374e478,PennController,23,0,experiment,NULL,PennController,22,_Header_,Start,1687287305450,5c5b1174265d6b000105a286,5c5b1174265d6b000105a286,20,cat,filler,A,50,cat40.jpg,cat60.jpg,GoalB,NULL
1687287446,3752960097d9a97c628c535bf374e478,PennController,23,0,experiment,NULL,PennController,22,_Header_,End,1687287305450,5c5b1174265d6b000105a286,5c5b1174265d6b000105a286,20,cat,filler,A,50,cat40.jpg,cat60.jpg,GoalB,NULL
1687287446,3752960097d9a97c628c535bf374e478,PennController,23,0,experiment,NULL,Canvas,canvas6,Print,NA,1687287312218,5c5b1174265d6b000105a286,5c5b1174265d6b000105a286,20,cat,filler,A,50,cat40.jpg,cat60.jpg,GoalB,NULL
1687287446,3752960097d9a97c628c535bf374e478,PennController,23,0,experiment,NULL,Video,progression,buffer,0.021384,1687287309045,5c5b1174265d6b000105a286,5c5b1174265d6b000105a286,20,cat,filler,A,50,cat40.jpg,cat60.jpg,GoalB,NULL
1687287446,3752960097d9a97c628c535bf374e478,PennController,23,0,experiment,NULL,Selector,choice,Selection,option2,1687287313907,5c5b1174265d6b000105a286,5c5b1174265d6b000105a286,20,cat,filler,A,50,cat40.jpg,cat60.jpg,GoalB,option1;option2
1687287446,3752960097d9a97c628c535bf374e478,PennController,23,0,experiment,NULL,PennController,22,_Trial_,End,1687287313913,5c5b1174265d6b000105a286,5c5b1174265d6b000105a286,20,cat,filler,A,50,cat40.jpg,cat60.jpg,GoalB,NULL
1687287446,3752960097d9a97c628c535bf374e478,PennController,18,0,experiment,NULL,PennController,17,_Trial_,Start,1687287313919,5c5b1174265d6b000105a286,5c5b1174265d6b000105a286,15,zip,critical,A,75,zip65.jpg,zip85.jpg,low,NULL
1687287446,3752960097d9a97c628c535bf374e478,PennController,18,0,experiment,NULL,PennController,17,_Header_,Start,1687287313919,5c5b1174265d6b000105a286,5c5b1174265d6b000105a286,15,zip,critical,A,75,zip65.jpg,zip85.jpg,low,NULL
1687287446,3752960097d9a97c628c535bf374e478,PennController,18,0,experiment,NULL,PennController,17,_Header_,End,1687287313919,5c5b1174265d6b000105a286,5c5b1174265d6b000105a286,15,zip,critical,A,75,zip65.jpg,zip85.jpg,low,NULL
1687287446,3752960097d9a97c628c535bf374e478,PennController,18,0,experiment,NULL,Canvas,canvas6,Print,NA,1687287320890,5c5b1174265d6b000105a286,5c5b1174265d6b000105a286,15,zip,critical,A,75,zip65.jpg,zip85.jpg,low,NULL
1687287446,3752960097d9a97c628c535bf374e478,PennController,18,0,experiment,NULL,Video,progression,buffer,0.018949,1687287317510,5c5b1174265d6b000105a286,5c5b1174265d6b000105a286,15,zip,critical,A,75,zip65.jpg,zip85.jpg,low,NULL
1687287446,3752960097d9a97c628c535bf374e478,PennController,18,0,experiment,NULL,Selector,choice,Selection,option2,1687287322111,5c5b1174265d6b000105a286,5c5b1174265d6b000105a286,15,zip,critical,A,75,zip65.jpg,zip85.jpg,low,option1;option2
1687287446,3752960097d9a97c628c535bf374e478,PennController,18,0,experiment,NULL,PennController,17,_Trial_,End,1687287322117,5c5b1174265d6b000105a286,5c5b1174265d6b000105a286,15,zip,critical,A,75,zip65.jpg,zip85.jpg,low,NULL
1687287446,3752960097d9a97c628c535bf374e478,PennController,16,0,experiment,NULL,PennController,15,_Trial_,Start,1687287322124,5c5b1174265d6b000105a286,5c5b1174265d6b000105a286,13,mix,critical,A,25,mix15.jpg,mix35.jpg,low,NULL
1687287446,3752960097d9a97c628c535bf374e478,PennController,16,0,experiment,NULL,PennController,15,_Header_,Start,1687287322124,5c5b1174265d6b000105a286,5c5b1174265d6b000105a286,13,mix,critical,A,25,mix15.jpg,mix35.jpg,low,NULL
1687287446,3752960097d9a97c628c535bf374e478,PennController,16,0,experiment,NULL,PennController,15,_Header_,End,1687287322124,5c5b1174265d6b000105a286,5c5b1174265d6b000105a286,13,mix,critical,A,25,mix15.jpg,mix35.jpg,low,NULL
1687287446,3752960097d9a97c628c535bf374e478,PennController,16,0,experiment,NULL,Canvas,canvas6,Print,NA,1687287327899,5c5b1174265d6b000105a286,5c5b1174265d6b000105a286,13,mix,critical,A,25,mix15.jpg,mix35.jpg,low,NULL
1687287446,3752960097d9a97c628c535bf374e478,PennController,16,0,experiment,NULL,Video,progression,buffer,0.018472,1687287325726,5c5b1174265d6b000105a286,5c5b1174265d6b000105a286,13,mix,critical,A,25,mix15.jpg,mix35.jpg,low,NULL
1687287446,3752960097d9a97c628c535bf374e478,PennController,16,0,experiment,NULL,Selector,choice,Selection,option1,1687287329464,5c5b1174265d6b000105a286,5c5b1174265d6b000105a286,13,mix,critical,A,25,mix15.jpg,mix35.jpg,low,option2;option1
1687287446,3752960097d9a97c628c535bf374e478,PennController,16,0,experiment,NULL,PennController,15,_Trial_,End,1687287329469,5c5b1174265d6b000105a286,5c5b1174265d6b000105a286,13,mix,critical,A,25,mix15.jpg,mix35.jpg,low,NULL
1687287446,3752960097d9a97c628c535bf374e478,PennController,31,0,experiment,NULL,PennController,30,_Trial_,Start,1687287329474,5c5b1174265d6b000105a286,5c5b1174265d6b000105a286,28,sort,filler,A,25,sort15.jpg,sort35.jpg,GoalB,NULL
1687287446,3752960097d9a97c628c535bf374e478,PennController,31,0,experiment,NULL,PennController,30,_Header_,Start,1687287329474,5c5b1174265d6b000105a286,5c5b1174265d6b000105a286,28,sort,filler,A,25,sort15.jpg,sort35.jpg,GoalB,NULL
1687287446,3752960097d9a97c628c535bf374e478,PennController,31,0,experiment,NULL,PennController,30,_Header_,End,1687287329474,5c5b1174265d6b000105a286,5c5b1174265d6b000105a286,28,sort,filler,A,25,sort15.jpg,sort35.jpg,GoalB,NULL
1687287446,3752960097d9a97c628c535bf374e478,PennController,31,0,experiment,NULL,Canvas,canvas6,Print,NA,1687287335229,5c5b1174265d6b000105a286,5c5b1174265d6b000105a286,28,sort,filler,A,25,sort15.jpg,sort35.jpg,GoalB,NULL
1687287446,3752960097d9a97c628c535bf374e478,PennController,31,0,experiment,NULL,Video,progression,buffer,0.018527,1687287333057,5c5b1174265d6b000105a286,5c5b1174265d6b000105a286,28,sort,filler,A,25,sort15.jpg,sort35.jpg,GoalB,NULL
1687287446,3752960097d9a97c628c535bf374e478,PennController,31,0,experiment,NULL,Selector,choice,Selection,option1,1687287336967,5c5b1174265d6b000105a286,5c5b1174265d6b000105a286,28,sort,filler,A,25,sort15.jpg,sort35.jpg,GoalB,option2;option1
1687287446,3752960097d9a97c628c535bf374e478,PennController,31,0,experiment,NULL,PennController,30,_Trial_,End,1687287336972,5c5b1174265d6b000105a286,5c5b1174265d6b000105a286,28,sort,filler,A,25,sort15.jpg,sort35.jpg,GoalB,NULL
1687287446,3752960097d9a97c628c535bf374e478,PennController,6,0,experiment,NULL,PennController,5,_Trial_,Start,1687287336979,5c5b1174265d6b000105a286,5c5b1174265d6b000105a286,3,clean,critical,A,75,clean65.jpg,clean85.jpg,low,NULL
1687287446,3752960097d9a97c628c535bf374e478,PennController,6,0,experiment,NULL,PennController,5,_Header_,Start,1687287336979,5c5b1174265d6b000105a286,5c5b1174265d6b000105a286,3,clean,critical,A,75,clean65.jpg,clean85.jpg,low,NULL
1687287446,3752960097d9a97c628c535bf374e478,PennController,6,0,experiment,NULL,PennController,5,_Header_,End,1687287336979,5c5b1174265d6b000105a286,5c5b1174265d6b000105a286,3,clean,critical,A,75,clean65.jpg,clean85.jpg,low,NULL
1687287446,3752960097d9a97c628c535bf374e478,PennController,6,0,experiment,NULL,Canvas,canvas6,Print,NA,1687287344744,5c5b1174265d6b000105a286,5c5b1174265d6b000105a286,3,clean,critical,A,75,clean65.jpg,clean85.jpg,low,NULL
1687287446,3752960097d9a97c628c535bf374e478,PennController,6,0,experiment,NULL,Video,progression,buffer,0.018707,1687287340566,5c5b1174265d6b000105a286,5c5b1174265d6b000105a286,3,clean,critical,A,75,clean65.jpg,clean85.jpg,low,NULL
1687287446,3752960097d9a97c628c535bf374e478,PennController,6,0,experiment,NULL,Selector,choice,Selection,option1,1687287348226,5c5b1174265d6b000105a286,5c5b1174265d6b000105a286,3,clean,critical,A,75,clean65.jpg,clean85.jpg,low,option2;option1
1687287446,3752960097d9a97c628c535bf374e478,PennController,6,0,experiment,NULL,PennController,5,_Trial_,End,1687287348232,5c5b1174265d6b000105a286,5c5b1174265d6b000105a286,3,clean,critical,A,75,clean65.jpg,clean85.jpg,low,NULL
1687287446,3752960097d9a97c628c535bf374e478,PennController,14,0,experiment,NULL,PennController,13,_Trial_,Start,1687287348239,5c5b1174265d6b000105a286,5c5b1174265d6b000105a286,11,beads,critical,A,50,beads40.jpg,beads60.jpg,low,NULL
1687287446,3752960097d9a97c628c535bf374e478,PennController,14,0,experiment,NULL,PennController,13,_Header_,Start,1687287348239,5c5b1174265d6b000105a286,5c5b1174265d6b000105a286,11,beads,critical,A,50,beads40.jpg,beads60.jpg,low,NULL
1687287446,3752960097d9a97c628c535bf374e478,PennController,14,0,experiment,NULL,PennController,13,_Header_,End,1687287348239,5c5b1174265d6b000105a286,5c5b1174265d6b000105a286,11,beads,critical,A,50,beads40.jpg,beads60.jpg,low,NULL
1687287446,3752960097d9a97c628c535bf374e478,PennController,14,0,experiment,NULL,Canvas,canvas6,Print,NA,1687287355004,5c5b1174265d6b000105a286,5c5b1174265d6b000105a286,11,beads,critical,A,50,beads40.jpg,beads60.jpg,low,NULL
1687287446,3752960097d9a97c628c535bf374e478,PennController,14,0,experiment,NULL,Video,progression,buffer,0.021054,1687287351839,5c5b1174265d6b000105a286,5c5b1174265d6b000105a286,11,beads,critical,A,50,beads40.jpg,beads60.jpg,low,NULL
1687287446,3752960097d9a97c628c535bf374e478,PennController,14,0,experiment,NULL,Selector,choice,Selection,option2,1687287355925,5c5b1174265d6b000105a286,5c5b1174265d6b000105a286,11,beads,critical,A,50,beads40.jpg,beads60.jpg,low,option1;option2
1687287446,3752960097d9a97c628c535bf374e478,PennController,14,0,experiment,NULL,PennController,13,_Trial_,End,1687287355931,5c5b1174265d6b000105a286,5c5b1174265d6b000105a286,11,beads,critical,A,50,beads40.jpg,beads60.jpg,low,NULL
1687287446,3752960097d9a97c628c535bf374e478,PennController,22,0,experiment,NULL,PennController,21,_Trial_,Start,1687287355937,5c5b1174265d6b000105a286,5c5b1174265d6b000105a286,19,cup,filler,A,25,cup15.jpg,cup35.jpg,GoalA,NULL
1687287446,3752960097d9a97c628c535bf374e478,PennController,22,0,experiment,NULL,PennController,21,_Header_,Start,1687287355937,5c5b1174265d6b000105a286,5c5b1174265d6b000105a286,19,cup,filler,A,25,cup15.jpg,cup35.jpg,GoalA,NULL
1687287446,3752960097d9a97c628c535bf374e478,PennController,22,0,experiment,NULL,PennController,21,_Header_,End,1687287355937,5c5b1174265d6b000105a286,5c5b1174265d6b000105a286,19,cup,filler,A,25,cup15.jpg,cup35.jpg,GoalA,NULL
1687287446,3752960097d9a97c628c535bf374e478,PennController,22,0,experiment,NULL,Canvas,canvas6,Print,NA,1687287361705,5c5b1174265d6b000105a286,5c5b1174265d6b000105a286,19,cup,filler,A,25,cup15.jpg,cup35.jpg,GoalA,NULL
1687287446,3752960097d9a97c628c535bf374e478,PennController,22,0,experiment,NULL,Video,progression,buffer,0.025303,1687287359527,5c5b1174265d6b000105a286,5c5b1174265d6b000105a286,19,cup,filler,A,25,cup15.jpg,cup35.jpg,GoalA,NULL
1687287446,3752960097d9a97c628c535bf374e478,PennController,22,0,experiment,NULL,Selector,choice,Selection,option2,1687287362941,5c5b1174265d6b000105a286,5c5b1174265d6b000105a286,19,cup,filler,A,25,cup15.jpg,cup35.jpg,GoalA,option2;option1
1687287446,3752960097d9a97c628c535bf374e478,PennController,22,0,experiment,NULL,PennController,21,_Trial_,End,1687287362947,5c5b1174265d6b000105a286,5c5b1174265d6b000105a286,19,cup,filler,A,25,cup15.jpg,cup35.jpg,GoalA,NULL
1687287446,3752960097d9a97c628c535bf374e478,PennController,29,0,experiment,NULL,PennController,28,_Trial_,Start,1687287362953,5c5b1174265d6b000105a286,5c5b1174265d6b000105a286,26,sandwich,filler,A,50,sandwich40.jpg,sandwich60.jpg,GoalB,NULL
1687287446,3752960097d9a97c628c535bf374e478,PennController,29,0,experiment,NULL,PennController,28,_Header_,Start,1687287362953,5c5b1174265d6b000105a286,5c5b1174265d6b000105a286,26,sandwich,filler,A,50,sandwich40.jpg,sandwich60.jpg,GoalB,NULL
1687287446,3752960097d9a97c628c535bf374e478,PennController,29,0,experiment,NULL,PennController,28,_Header_,End,1687287362954,5c5b1174265d6b000105a286,5c5b1174265d6b000105a286,26,sandwich,filler,A,50,sandwich40.jpg,sandwich60.jpg,GoalB,NULL
1687287446,3752960097d9a97c628c535bf374e478,PennController,29,0,experiment,NULL,Canvas,canvas6,Print,NA,1687287369721,5c5b1174265d6b000105a286,5c5b1174265d6b000105a286,26,sandwich,filler,A,50,sandwich40.jpg,sandwich60.jpg,GoalB,NULL
1687287446,3752960097d9a97c628c535bf374e478,PennController,29,0,experiment,NULL,Video,progression,buffer,0.024666,1687287366546,5c5b1174265d6b000105a286,5c5b1174265d6b000105a286,26,sandwich,filler,A,50,sandwich40.jpg,sandwich60.jpg,GoalB,NULL
1687287446,3752960097d9a97c628c535bf374e478,PennController,29,0,experiment,NULL,Selector,choice,Selection,option1,1687287370989,5c5b1174265d6b000105a286,5c5b1174265d6b000105a286,26,sandwich,filler,A,50,sandwich40.jpg,sandwich60.jpg,GoalB,option2;option1
1687287446,3752960097d9a97c628c535bf374e478,PennController,29,0,experiment,NULL,PennController,28,_Trial_,End,1687287370995,5c5b1174265d6b000105a286,5c5b1174265d6b000105a286,26,sandwich,filler,A,50,sandwich40.jpg,sandwich60.jpg,GoalB,NULL
1687287446,3752960097d9a97c628c535bf374e478,PennController,24,0,experiment,NULL,PennController,23,_Trial_,Start,1687287371005,5c5b1174265d6b000105a286,5c5b1174265d6b000105a286,21,visit,filler,A,75,visit65.jpg,visit85.jpg,GoalA,NULL
1687287446,3752960097d9a97c628c535bf374e478,PennController,24,0,experiment,NULL,PennController,23,_Header_,Start,1687287371005,5c5b1174265d6b000105a286,5c5b1174265d6b000105a286,21,visit,filler,A,75,visit65.jpg,visit85.jpg,GoalA,NULL
1687287446,3752960097d9a97c628c535bf374e478,PennController,24,0,experiment,NULL,PennController,23,_Header_,End,1687287371005,5c5b1174265d6b000105a286,5c5b1174265d6b000105a286,21,visit,filler,A,75,visit65.jpg,visit85.jpg,GoalA,NULL
1687287446,3752960097d9a97c628c535bf374e478,PennController,24,0,experiment,NULL,Canvas,canvas6,Print,NA,1687287378767,5c5b1174265d6b000105a286,5c5b1174265d6b000105a286,21,visit,filler,A,75,visit65.jpg,visit85.jpg,GoalA,NULL
1687287446,3752960097d9a97c628c535bf374e478,PennController,24,0,experiment,NULL,Video,progression,buffer,0.018457,1687287374591,5c5b1174265d6b000105a286,5c5b1174265d6b000105a286,21,visit,filler,A,75,visit65.jpg,visit85.jpg,GoalA,NULL
1687287446,3752960097d9a97c628c535bf374e478,PennController,24,0,experiment,NULL,Selector,choice,Selection,option2,1687287379778,5c5b1174265d6b000105a286,5c5b1174265d6b000105a286,21,visit,filler,A,75,visit65.jpg,visit85.jpg,GoalA,option2;option1
1687287446,3752960097d9a97c628c535bf374e478,PennController,24,0,experiment,NULL,PennController,23,_Trial_,End,1687287379784,5c5b1174265d6b000105a286,5c5b1174265d6b000105a286,21,visit,filler,A,75,visit65.jpg,visit85.jpg,GoalA,NULL
1687287446,3752960097d9a97c628c535bf374e478,PennController,26,0,experiment,NULL,PennController,25,_Trial_,Start,1687287379790,5c5b1174265d6b000105a286,5c5b1174265d6b000105a286,23,color,filler,A,50,color40.jpg,color60.jpg,GoalA,NULL
1687287446,3752960097d9a97c628c535bf374e478,PennController,26,0,experiment,NULL,PennController,25,_Header_,Start,1687287379790,5c5b1174265d6b000105a286,5c5b1174265d6b000105a286,23,color,filler,A,50,color40.jpg,color60.jpg,GoalA,NULL
1687287446,3752960097d9a97c628c535bf374e478,PennController,26,0,experiment,NULL,PennController,25,_Header_,End,1687287379790,5c5b1174265d6b000105a286,5c5b1174265d6b000105a286,23,color,filler,A,50,color40.jpg,color60.jpg,GoalA,NULL
1687287446,3752960097d9a97c628c535bf374e478,PennController,26,0,experiment,NULL,Canvas,canvas6,Print,NA,1687287386547,5c5b1174265d6b000105a286,5c5b1174265d6b000105a286,23,color,filler,A,50,color40.jpg,color60.jpg,GoalA,NULL
1687287446,3752960097d9a97c628c535bf374e478,PennController,26,0,experiment,NULL,Video,progression,buffer,0.019128,1687287383370,5c5b1174265d6b000105a286,5c5b1174265d6b000105a286,23,color,filler,A,50,color40.jpg,color60.jpg,GoalA,NULL
1687287446,3752960097d9a97c628c535bf374e478,PennController,26,0,experiment,NULL,Selector,choice,Selection,option2,1687287388141,5c5b1174265d6b000105a286,5c5b1174265d6b000105a286,23,color,filler,A,50,color40.jpg,color60.jpg,GoalA,option2;option1
1687287446,3752960097d9a97c628c535bf374e478,PennController,26,0,experiment,NULL,PennController,25,_Trial_,End,1687287388147,5c5b1174265d6b000105a286,5c5b1174265d6b000105a286,23,color,filler,A,50,color40.jpg,color60.jpg,GoalA,NULL
1687287446,3752960097d9a97c628c535bf374e478,PennController,25,0,experiment,NULL,PennController,24,_Trial_,Start,1687287388154,5c5b1174265d6b000105a286,5c5b1174265d6b000105a286,22,wall,filler,A,25,wall15.jpg,wall35.jpg,GoalB,NULL
1687287446,3752960097d9a97c628c535bf374e478,PennController,25,0,experiment,NULL,PennController,24,_Header_,Start,1687287388154,5c5b1174265d6b000105a286,5c5b1174265d6b000105a286,22,wall,filler,A,25,wall15.jpg,wall35.jpg,GoalB,NULL
1687287446,3752960097d9a97c628c535bf374e478,PennController,25,0,experiment,NULL,PennController,24,_Header_,End,1687287388154,5c5b1174265d6b000105a286,5c5b1174265d6b000105a286,22,wall,filler,A,25,wall15.jpg,wall35.jpg,GoalB,NULL
1687287446,3752960097d9a97c628c535bf374e478,PennController,25,0,experiment,NULL,Canvas,canvas6,Print,NA,1687287393921,5c5b1174265d6b000105a286,5c5b1174265d6b000105a286,22,wall,filler,A,25,wall15.jpg,wall35.jpg,GoalB,NULL
1687287446,3752960097d9a97c628c535bf374e478,PennController,25,0,experiment,NULL,Video,progression,buffer,0.018479,1687287391740,5c5b1174265d6b000105a286,5c5b1174265d6b000105a286,22,wall,filler,A,25,wall15.jpg,wall35.jpg,GoalB,NULL
1687287446,3752960097d9a97c628c535bf374e478,PennController,25,0,experiment,NULL,Selector,choice,Selection,option2,1687287396518,5c5b1174265d6b000105a286,5c5b1174265d6b000105a286,22,wall,filler,A,25,wall15.jpg,wall35.jpg,GoalB,option1;option2
1687287446,3752960097d9a97c628c535bf374e478,PennController,25,0,experiment,NULL,PennController,24,_Trial_,End,1687287396523,5c5b1174265d6b000105a286,5c5b1174265d6b000105a286,22,wall,filler,A,25,wall15.jpg,wall35.jpg,GoalB,NULL
1687287446,3752960097d9a97c628c535bf374e478,PennController,32,0,experiment,NULL,PennController,31,_Trial_,Start,1687287396528,5c5b1174265d6b000105a286,5c5b1174265d6b000105a286,29,frog,filler,A,50,frog40.jpg,frog60.jpg,GoalA,NULL
1687287446,3752960097d9a97c628c535bf374e478,PennController,32,0,experiment,NULL,PennController,31,_Header_,Start,1687287396528,5c5b1174265d6b000105a286,5c5b1174265d6b000105a286,29,frog,filler,A,50,frog40.jpg,frog60.jpg,GoalA,NULL
1687287446,3752960097d9a97c628c535bf374e478,PennController,32,0,experiment,NULL,PennController,31,_Header_,End,1687287396528,5c5b1174265d6b000105a286,5c5b1174265d6b000105a286,29,frog,filler,A,50,frog40.jpg,frog60.jpg,GoalA,NULL
1687287446,3752960097d9a97c628c535bf374e478,PennController,32,0,experiment,NULL,Canvas,canvas6,Print,NA,1687287403292,5c5b1174265d6b000105a286,5c5b1174265d6b000105a286,29,frog,filler,A,50,frog40.jpg,frog60.jpg,GoalA,NULL
1687287446,3752960097d9a97c628c535bf374e478,PennController,32,0,experiment,NULL,Video,progression,buffer,0.019781,1687287400111,5c5b1174265d6b000105a286,5c5b1174265d6b000105a286,29,frog,filler,A,50,frog40.jpg,frog60.jpg,GoalA,NULL
1687287446,3752960097d9a97c628c535bf374e478,PennController,32,0,experiment,NULL,Selector,choice,Selection,option2,1687287404386,5c5b1174265d6b000105a286,5c5b1174265d6b000105a286,29,frog,filler,A,50,frog40.jpg,frog60.jpg,GoalA,option2;option1
1687287446,3752960097d9a97c628c535bf374e478,PennController,32,0,experiment,NULL,PennController,31,_Trial_,End,1687287404392,5c5b1174265d6b000105a286,5c5b1174265d6b000105a286,29,frog,filler,A,50,frog40.jpg,frog60.jpg,GoalA,NULL
1687287446,3752960097d9a97c628c535bf374e478,PennController,27,0,experiment,NULL,PennController,26,_Trial_,Start,1687287404397,5c5b1174265d6b000105a286,5c5b1174265d6b000105a286,24,match,filler,A,75,match65.jpg,match85.jpg,GoalB,NULL
1687287446,3752960097d9a97c628c535bf374e478,PennController,27,0,experiment,NULL,PennController,26,_Header_,Start,1687287404397,5c5b1174265d6b000105a286,5c5b1174265d6b000105a286,24,match,filler,A,75,match65.jpg,match85.jpg,GoalB,NULL
1687287446,3752960097d9a97c628c535bf374e478,PennController,27,0,experiment,NULL,PennController,26,_Header_,End,1687287404397,5c5b1174265d6b000105a286,5c5b1174265d6b000105a286,24,match,filler,A,75,match65.jpg,match85.jpg,GoalB,NULL
1687287446,3752960097d9a97c628c535bf374e478,PennController,27,0,experiment,NULL,Canvas,canvas6,Print,NA,1687287412160,5c5b1174265d6b000105a286,5c5b1174265d6b000105a286,24,match,filler,A,75,match65.jpg,match85.jpg,GoalB,NULL
1687287446,3752960097d9a97c628c535bf374e478,PennController,27,0,experiment,NULL,Video,progression,buffer,0.018691,1687287407983,5c5b1174265d6b000105a286,5c5b1174265d6b000105a286,24,match,filler,A,75,match65.jpg,match85.jpg,GoalB,NULL
1687287446,3752960097d9a97c628c535bf374e478,PennController,27,0,experiment,NULL,Selector,choice,Selection,option2,1687287414334,5c5b1174265d6b000105a286,5c5b1174265d6b000105a286,24,match,filler,A,75,match65.jpg,match85.jpg,GoalB,option1;option2
1687287446,3752960097d9a97c628c535bf374e478,PennController,27,0,experiment,NULL,PennController,26,_Trial_,End,1687287414340,5c5b1174265d6b000105a286,5c5b1174265d6b000105a286,24,match,filler,A,75,match65.jpg,match85.jpg,GoalB,NULL
1687287446,3752960097d9a97c628c535bf374e478,PennController,28,0,experiment,NULL,PennController,27,_Trial_,Start,1687287414348,5c5b1174265d6b000105a286,5c5b1174265d6b000105a286,25,house,filler,A,25,house15.jpg,house35.jpg,GoalA,NULL
1687287446,3752960097d9a97c628c535bf374e478,PennController,28,0,experiment,NULL,PennController,27,_Header_,Start,1687287414348,5c5b1174265d6b000105a286,5c5b1174265d6b000105a286,25,house,filler,A,25,house15.jpg,house35.jpg,GoalA,NULL
1687287446,3752960097d9a97c628c535bf374e478,PennController,28,0,experiment,NULL,PennController,27,_Header_,End,1687287414348,5c5b1174265d6b000105a286,5c5b1174265d6b000105a286,25,house,filler,A,25,house15.jpg,house35.jpg,GoalA,NULL
1687287446,3752960097d9a97c628c535bf374e478,PennController,28,0,experiment,NULL,Canvas,canvas6,Print,NA,1687287420103,5c5b1174265d6b000105a286,5c5b1174265d6b000105a286,25,house,filler,A,25,house15.jpg,house35.jpg,GoalA,NULL
1687287446,3752960097d9a97c628c535bf374e478,PennController,28,0,experiment,NULL,Video,progression,buffer,0.020298,1687287417937,5c5b1174265d6b000105a286,5c5b1174265d6b000105a286,25,house,filler,A,25,house15.jpg,house35.jpg,GoalA,NULL
1687287446,3752960097d9a97c628c535bf374e478,PennController,28,0,experiment,NULL,Selector,choice,Selection,option2,1687287424289,5c5b1174265d6b000105a286,5c5b1174265d6b000105a286,25,house,filler,A,25,house15.jpg,house35.jpg,GoalA,option1;option2
1687287446,3752960097d9a97c628c535bf374e478,PennController,28,0,experiment,NULL,PennController,27,_Trial_,End,1687287424294,5c5b1174265d6b000105a286,5c5b1174265d6b000105a286,25,house,filler,A,25,house15.jpg,house35.jpg,GoalA,NULL
1687287446,3752960097d9a97c628c535bf374e478,PennController,20,0,experiment,NULL,PennController,19,_Trial_,Start,1687287424299,5c5b1174265d6b000105a286,5c5b1174265d6b000105a286,17,roll,critical,A,50,roll40.jpg,roll60.jpg,low,NULL
1687287446,3752960097d9a97c628c535bf374e478,PennController,20,0,experiment,NULL,PennController,19,_Header_,Start,1687287424299,5c5b1174265d6b000105a286,5c5b1174265d6b000105a286,17,roll,critical,A,50,roll40.jpg,roll60.jpg,low,NULL
1687287446,3752960097d9a97c628c535bf374e478,PennController,20,0,experiment,NULL,PennController,19,_Header_,End,1687287424299,5c5b1174265d6b000105a286,5c5b1174265d6b000105a286,17,roll,critical,A,50,roll40.jpg,roll60.jpg,low,NULL
1687287446,3752960097d9a97c628c535bf374e478,PennController,20,0,experiment,NULL,Canvas,canvas6,Print,NA,1687287431237,5c5b1174265d6b000105a286,5c5b1174265d6b000105a286,17,roll,critical,A,50,roll40.jpg,roll60.jpg,low,NULL
1687287446,3752960097d9a97c628c535bf374e478,PennController,20,0,experiment,NULL,Video,progression,buffer,0,1687287427885,5c5b1174265d6b000105a286,5c5b1174265d6b000105a286,17,roll,critical,A,50,roll40.jpg,roll60.jpg,low,NULL
1687287446,3752960097d9a97c628c535bf374e478,PennController,20,0,experiment,NULL,Selector,choice,Selection,option2,1687287432486,5c5b1174265d6b000105a286,5c5b1174265d6b000105a286,17,roll,critical,A,50,roll40.jpg,roll60.jpg,low,option2;option1
1687287446,3752960097d9a97c628c535bf374e478,PennController,20,0,experiment,NULL,PennController,19,_Trial_,End,1687287432492,5c5b1174265d6b000105a286,5c5b1174265d6b000105a286,17,roll,critical,A,50,roll40.jpg,roll60.jpg,low,NULL
1687287446,3752960097d9a97c628c535bf374e478,PennController,4,0,experiment,NULL,PennController,3,_Trial_,Start,1687287432498,5c5b1174265d6b000105a286,5c5b1174265d6b000105a286,1,vase,critical,A,25,vase15.jpg,vase35.jpg,low,NULL
1687287446,3752960097d9a97c628c535bf374e478,PennController,4,0,experiment,NULL,PennController,3,_Header_,Start,1687287432499,5c5b1174265d6b000105a286,5c5b1174265d6b000105a286,1,vase,critical,A,25,vase15.jpg,vase35.jpg,low,NULL
1687287446,3752960097d9a97c628c535bf374e478,PennController,4,0,experiment,NULL,PennController,3,_Header_,End,1687287432499,5c5b1174265d6b000105a286,5c5b1174265d6b000105a286,1,vase,critical,A,25,vase15.jpg,vase35.jpg,low,NULL
1687287446,3752960097d9a97c628c535bf374e478,PennController,4,0,experiment,NULL,Canvas,canvas6,Print,NA,1687287438251,5c5b1174265d6b000105a286,5c5b1174265d6b000105a286,1,vase,critical,A,25,vase15.jpg,vase35.jpg,low,NULL
1687287446,3752960097d9a97c628c535bf374e478,PennController,4,0,experiment,NULL,Video,progression,buffer,0.018255,1687287436077,5c5b1174265d6b000105a286,5c5b1174265d6b000105a286,1,vase,critical,A,25,vase15.jpg,vase35.jpg,low,NULL
1687287446,3752960097d9a97c628c535bf374e478,PennController,4,0,experiment,NULL,Selector,choice,Selection,option1,1687287443990,5c5b1174265d6b000105a286,5c5b1174265d6b000105a286,1,vase,critical,A,25,vase15.jpg,vase35.jpg,low,option1;option2
1687287446,3752960097d9a97c628c535bf374e478,PennController,4,0,experiment,NULL,PennController,3,_Trial_,End,1687287443995,5c5b1174265d6b000105a286,5c5b1174265d6b000105a286,1,vase,critical,A,25,vase15.jpg,vase35.jpg,low,NULL
