#
# Results on Wednesday June 21 2023 19:56:38 UTC
# USER AGENT: Mozilla/5.0 (Windows NT 10.0; Win64; x64) AppleWebKit/537.36 (KHTML, like Gecko) Chrome/114.0.0.0 Safari/537.36
# Design number was non-random = 67
#
# Columns below this comment are as follows:
# 1. Results reception time.
# 2. MD5 hash of participant's IP address.
# 3. Controller name.
# 4. Order number of item.
# 5. Inner element number.
# 6. Label.
# 7. Latin Square Group.
# 8. PennElementType.
# 9. PennElementName.
# 10. Parameter.
# 11. Value.
# 12. EventTime.
# 13. PROLIFIC_ID.
# 14. Comments.
1687377398,328004502be31985b9da3de36b4a31d1,PennController,3,0,consent,NULL,PennController,0,_Trial_,Start,1687377126442,604408285ea7974512737e72,NULL
1687377398,328004502be31985b9da3de36b4a31d1,PennController,3,0,consent,NULL,PennController,0,_Header_,Start,1687377126442,604408285ea7974512737e72,NULL
1687377398,328004502be31985b9da3de36b4a31d1,PennController,3,0,consent,NULL,PennController,0,_Header_,End,1687377126443,604408285ea7974512737e72,NULL
1687377398,328004502be31985b9da3de36b4a31d1,PennController,3,0,consent,NULL,PennController,0,_Trial_,End,1687377131254,604408285ea7974512737e72,NULL
# Columns below this comment are as follows:
# 14. ID.
# 15. Comments.
1687377398,328004502be31985b9da3de36b4a31d1,PennController,4,0,intro,NULL,PennController,1,_Trial_,Start,1687377131256,604408285ea7974512737e72,604408285ea7974512737e72,NULL
1687377398,328004502be31985b9da3de36b4a31d1,PennController,4,0,intro,NULL,PennController,1,_Header_,Start,1687377131256,604408285ea7974512737e72,604408285ea7974512737e72,NULL
1687377398,328004502be31985b9da3de36b4a31d1,PennController,4,0,intro,NULL,PennController,1,_Header_,End,1687377131256,604408285ea7974512737e72,604408285ea7974512737e72,NULL
1687377398,328004502be31985b9da3de36b4a31d1,PennController,4,0,intro,NULL,PennController,1,_Trial_,End,1687377134436,604408285ea7974512737e72,604408285ea7974512737e72,NULL
# Columns below this comment are as follows:
# 15. item_number.
# 16. item.
# 17. type.
# 18. Group.
# 19. prog.
# 20. prev_image.
# 21. next_image.
# 22. height.
# 23. Comments.
1687377398,328004502be31985b9da3de36b4a31d1,PennController,24,0,experiment,NULL,PennController,22,_Trial_,Start,1687377134437,604408285ea7974512737e72,604408285ea7974512737e72,20,cat,filler,F,25,cat15.jpg,cat35.jpg,GoalA,NULL
1687377398,328004502be31985b9da3de36b4a31d1,PennController,24,0,experiment,NULL,PennController,22,_Header_,Start,1687377134437,604408285ea7974512737e72,604408285ea7974512737e72,20,cat,filler,F,25,cat15.jpg,cat35.jpg,GoalA,NULL
1687377398,328004502be31985b9da3de36b4a31d1,PennController,24,0,experiment,NULL,PennController,22,_Header_,End,1687377134437,604408285ea7974512737e72,604408285ea7974512737e72,20,cat,filler,F,25,cat15.jpg,cat35.jpg,GoalA,NULL
1687377398,328004502be31985b9da3de36b4a31d1,PennController,24,0,experiment,NULL,Canvas,canvas6,Print,NA,1687377140163,604408285ea7974512737e72,604408285ea7974512737e72,20,cat,filler,F,25,cat15.jpg,cat35.jpg,GoalA,NULL
1687377398,328004502be31985b9da3de36b4a31d1,PennController,24,0,experiment,NULL,Video,progression,buffer,0.004115,1687377137968,604408285ea7974512737e72,604408285ea7974512737e72,20,cat,filler,F,25,cat15.jpg,cat35.jpg,GoalA,NULL
1687377398,328004502be31985b9da3de36b4a31d1,PennController,24,0,experiment,NULL,Selector,choice,Selection,option2,1687377141897,604408285ea7974512737e72,604408285ea7974512737e72,20,cat,filler,F,25,cat15.jpg,cat35.jpg,GoalA,option2;option1
1687377398,328004502be31985b9da3de36b4a31d1,PennController,24,0,experiment,NULL,PennController,22,_Trial_,End,1687377141899,604408285ea7974512737e72,604408285ea7974512737e72,20,cat,filler,F,25,cat15.jpg,cat35.jpg,GoalA,NULL
1687377398,328004502be31985b9da3de36b4a31d1,PennController,7,0,experiment,NULL,PennController,5,_Trial_,Start,1687377141900,604408285ea7974512737e72,604408285ea7974512737e72,3,clean,critical,F,50,clean40.jpg,clean60.jpg,high,NULL
1687377398,328004502be31985b9da3de36b4a31d1,PennController,7,0,experiment,NULL,PennController,5,_Header_,Start,1687377141900,604408285ea7974512737e72,604408285ea7974512737e72,3,clean,critical,F,50,clean40.jpg,clean60.jpg,high,NULL
1687377398,328004502be31985b9da3de36b4a31d1,PennController,7,0,experiment,NULL,PennController,5,_Header_,End,1687377141901,604408285ea7974512737e72,604408285ea7974512737e72,3,clean,critical,F,50,clean40.jpg,clean60.jpg,high,NULL
1687377398,328004502be31985b9da3de36b4a31d1,PennController,7,0,experiment,NULL,Canvas,canvas6,Print,NA,1687377148615,604408285ea7974512737e72,604408285ea7974512737e72,3,clean,critical,F,50,clean40.jpg,clean60.jpg,high,NULL
1687377398,328004502be31985b9da3de36b4a31d1,PennController,7,0,experiment,NULL,Video,progression,buffer,0.002504,1687377145417,604408285ea7974512737e72,604408285ea7974512737e72,3,clean,critical,F,50,clean40.jpg,clean60.jpg,high,NULL
1687377398,328004502be31985b9da3de36b4a31d1,PennController,7,0,experiment,NULL,Selector,choice,Selection,option2,1687377149955,604408285ea7974512737e72,604408285ea7974512737e72,3,clean,critical,F,50,clean40.jpg,clean60.jpg,high,option1;option2
1687377398,328004502be31985b9da3de36b4a31d1,PennController,7,0,experiment,NULL,PennController,5,_Trial_,End,1687377149956,604408285ea7974512737e72,604408285ea7974512737e72,3,clean,critical,F,50,clean40.jpg,clean60.jpg,high,NULL
1687377398,328004502be31985b9da3de36b4a31d1,PennController,31,0,experiment,NULL,PennController,29,_Trial_,Start,1687377149957,604408285ea7974512737e72,604408285ea7974512737e72,27,square,filler,F,50,square40.jpg,square60.jpg,GoalB,NULL
1687377398,328004502be31985b9da3de36b4a31d1,PennController,31,0,experiment,NULL,PennController,29,_Header_,Start,1687377149957,604408285ea7974512737e72,604408285ea7974512737e72,27,square,filler,F,50,square40.jpg,square60.jpg,GoalB,NULL
1687377398,328004502be31985b9da3de36b4a31d1,PennController,31,0,experiment,NULL,PennController,29,_Header_,End,1687377149957,604408285ea7974512737e72,604408285ea7974512737e72,27,square,filler,F,50,square40.jpg,square60.jpg,GoalB,NULL
1687377398,328004502be31985b9da3de36b4a31d1,PennController,31,0,experiment,NULL,Canvas,canvas6,Print,NA,1687377156671,604408285ea7974512737e72,604408285ea7974512737e72,27,square,filler,F,50,square40.jpg,square60.jpg,GoalB,NULL
1687377398,328004502be31985b9da3de36b4a31d1,PennController,31,0,experiment,NULL,Video,progression,buffer,0.002096,1687377153471,604408285ea7974512737e72,604408285ea7974512737e72,27,square,filler,F,50,square40.jpg,square60.jpg,GoalB,NULL
1687377398,328004502be31985b9da3de36b4a31d1,PennController,31,0,experiment,NULL,Selector,choice,Selection,option2,1687377158050,604408285ea7974512737e72,604408285ea7974512737e72,27,square,filler,F,50,square40.jpg,square60.jpg,GoalB,option1;option2
1687377398,328004502be31985b9da3de36b4a31d1,PennController,31,0,experiment,NULL,PennController,29,_Trial_,End,1687377158052,604408285ea7974512737e72,604408285ea7974512737e72,27,square,filler,F,50,square40.jpg,square60.jpg,GoalB,NULL
1687377398,328004502be31985b9da3de36b4a31d1,PennController,29,0,experiment,NULL,PennController,27,_Trial_,Start,1687377158053,604408285ea7974512737e72,604408285ea7974512737e72,25,house,filler,F,75,house65.jpg,house85.jpg,GoalB,NULL
1687377398,328004502be31985b9da3de36b4a31d1,PennController,29,0,experiment,NULL,PennController,27,_Header_,Start,1687377158053,604408285ea7974512737e72,604408285ea7974512737e72,25,house,filler,F,75,house65.jpg,house85.jpg,GoalB,NULL
1687377398,328004502be31985b9da3de36b4a31d1,PennController,29,0,experiment,NULL,PennController,27,_Header_,End,1687377158053,604408285ea7974512737e72,604408285ea7974512737e72,25,house,filler,F,75,house65.jpg,house85.jpg,GoalB,NULL
1687377398,328004502be31985b9da3de36b4a31d1,PennController,29,0,experiment,NULL,Canvas,canvas6,Print,NA,1687377165769,604408285ea7974512737e72,604408285ea7974512737e72,25,house,filler,F,75,house65.jpg,house85.jpg,GoalB,NULL
1687377398,328004502be31985b9da3de36b4a31d1,PennController,29,0,experiment,NULL,Video,progression,buffer,0.002731,1687377161572,604408285ea7974512737e72,604408285ea7974512737e72,25,house,filler,F,75,house65.jpg,house85.jpg,GoalB,NULL
1687377398,328004502be31985b9da3de36b4a31d1,PennController,29,0,experiment,NULL,Selector,choice,Selection,option2,1687377168170,604408285ea7974512737e72,604408285ea7974512737e72,25,house,filler,F,75,house65.jpg,house85.jpg,GoalB,option2;option1
1687377398,328004502be31985b9da3de36b4a31d1,PennController,29,0,experiment,NULL,PennController,27,_Trial_,End,1687377168172,604408285ea7974512737e72,604408285ea7974512737e72,25,house,filler,F,75,house65.jpg,house85.jpg,GoalB,NULL
1687377398,328004502be31985b9da3de36b4a31d1,PennController,27,0,experiment,NULL,PennController,25,_Trial_,Start,1687377168173,604408285ea7974512737e72,604408285ea7974512737e72,23,color,filler,F,25,color15.jpg,color35.jpg,GoalB,NULL
1687377398,328004502be31985b9da3de36b4a31d1,PennController,27,0,experiment,NULL,PennController,25,_Header_,Start,1687377168173,604408285ea7974512737e72,604408285ea7974512737e72,23,color,filler,F,25,color15.jpg,color35.jpg,GoalB,NULL
1687377398,328004502be31985b9da3de36b4a31d1,PennController,27,0,experiment,NULL,PennController,25,_Header_,End,1687377168173,604408285ea7974512737e72,604408285ea7974512737e72,23,color,filler,F,25,color15.jpg,color35.jpg,GoalB,NULL
1687377398,328004502be31985b9da3de36b4a31d1,PennController,27,0,experiment,NULL,Canvas,canvas6,Print,NA,1687377173893,604408285ea7974512737e72,604408285ea7974512737e72,23,color,filler,F,25,color15.jpg,color35.jpg,GoalB,NULL
1687377398,328004502be31985b9da3de36b4a31d1,PennController,27,0,experiment,NULL,Video,progression,buffer,0.00205,1687377171690,604408285ea7974512737e72,604408285ea7974512737e72,23,color,filler,F,25,color15.jpg,color35.jpg,GoalB,NULL
1687377398,328004502be31985b9da3de36b4a31d1,PennController,27,0,experiment,NULL,Selector,choice,Selection,option1,1687377176047,604408285ea7974512737e72,604408285ea7974512737e72,23,color,filler,F,25,color15.jpg,color35.jpg,GoalB,option1;option2
1687377398,328004502be31985b9da3de36b4a31d1,PennController,27,0,experiment,NULL,PennController,25,_Trial_,End,1687377176049,604408285ea7974512737e72,604408285ea7974512737e72,23,color,filler,F,25,color15.jpg,color35.jpg,GoalB,NULL
1687377398,328004502be31985b9da3de36b4a31d1,PennController,9,0,experiment,NULL,PennController,7,_Trial_,Start,1687377176050,604408285ea7974512737e72,604408285ea7974512737e72,5,book,critical,F,25,book15.jpg,book35.jpg,high,NULL
1687377398,328004502be31985b9da3de36b4a31d1,PennController,9,0,experiment,NULL,PennController,7,_Header_,Start,1687377176050,604408285ea7974512737e72,604408285ea7974512737e72,5,book,critical,F,25,book15.jpg,book35.jpg,high,NULL
1687377398,328004502be31985b9da3de36b4a31d1,PennController,9,0,experiment,NULL,PennController,7,_Header_,End,1687377176050,604408285ea7974512737e72,604408285ea7974512737e72,5,book,critical,F,25,book15.jpg,book35.jpg,high,NULL
1687377398,328004502be31985b9da3de36b4a31d1,PennController,9,0,experiment,NULL,Canvas,canvas6,Print,NA,1687377181768,604408285ea7974512737e72,604408285ea7974512737e72,5,book,critical,F,25,book15.jpg,book35.jpg,high,NULL
1687377398,328004502be31985b9da3de36b4a31d1,PennController,9,0,experiment,NULL,Video,progression,buffer,0.002244,1687377179570,604408285ea7974512737e72,604408285ea7974512737e72,5,book,critical,F,25,book15.jpg,book35.jpg,high,NULL
1687377398,328004502be31985b9da3de36b4a31d1,PennController,9,0,experiment,NULL,Selector,choice,Selection,option1,1687377185188,604408285ea7974512737e72,604408285ea7974512737e72,5,book,critical,F,25,book15.jpg,book35.jpg,high,option1;option2
1687377398,328004502be31985b9da3de36b4a31d1,PennController,9,0,experiment,NULL,PennController,7,_Trial_,End,1687377185189,604408285ea7974512737e72,604408285ea7974512737e72,5,book,critical,F,25,book15.jpg,book35.jpg,high,NULL
1687377398,328004502be31985b9da3de36b4a31d1,PennController,26,0,experiment,NULL,PennController,24,_Trial_,Start,1687377185190,604408285ea7974512737e72,604408285ea7974512737e72,22,wall,filler,F,75,wall65.jpg,wall85.jpg,GoalA,NULL
1687377398,328004502be31985b9da3de36b4a31d1,PennController,26,0,experiment,NULL,PennController,24,_Header_,Start,1687377185190,604408285ea7974512737e72,604408285ea7974512737e72,22,wall,filler,F,75,wall65.jpg,wall85.jpg,GoalA,NULL
1687377398,328004502be31985b9da3de36b4a31d1,PennController,26,0,experiment,NULL,PennController,24,_Header_,End,1687377185190,604408285ea7974512737e72,604408285ea7974512737e72,22,wall,filler,F,75,wall65.jpg,wall85.jpg,GoalA,NULL
1687377398,328004502be31985b9da3de36b4a31d1,PennController,26,0,experiment,NULL,Canvas,canvas6,Print,NA,1687377192896,604408285ea7974512737e72,604408285ea7974512737e72,22,wall,filler,F,75,wall65.jpg,wall85.jpg,GoalA,NULL
1687377398,328004502be31985b9da3de36b4a31d1,PennController,26,0,experiment,NULL,Video,progression,buffer,0.003596,1687377188707,604408285ea7974512737e72,604408285ea7974512737e72,22,wall,filler,F,75,wall65.jpg,wall85.jpg,GoalA,NULL
1687377398,328004502be31985b9da3de36b4a31d1,PennController,26,0,experiment,NULL,Selector,choice,Selection,option2,1687377194331,604408285ea7974512737e72,604408285ea7974512737e72,22,wall,filler,F,75,wall65.jpg,wall85.jpg,GoalA,option2;option1
1687377398,328004502be31985b9da3de36b4a31d1,PennController,26,0,experiment,NULL,PennController,24,_Trial_,End,1687377194332,604408285ea7974512737e72,604408285ea7974512737e72,22,wall,filler,F,75,wall65.jpg,wall85.jpg,GoalA,NULL
1687377398,328004502be31985b9da3de36b4a31d1,PennController,25,0,experiment,NULL,PennController,23,_Trial_,Start,1687377194333,604408285ea7974512737e72,604408285ea7974512737e72,21,visit,filler,F,50,visit40.jpg,visit60.jpg,GoalB,NULL
1687377398,328004502be31985b9da3de36b4a31d1,PennController,25,0,experiment,NULL,PennController,23,_Header_,Start,1687377194333,604408285ea7974512737e72,604408285ea7974512737e72,21,visit,filler,F,50,visit40.jpg,visit60.jpg,GoalB,NULL
1687377398,328004502be31985b9da3de36b4a31d1,PennController,25,0,experiment,NULL,PennController,23,_Header_,End,1687377194333,604408285ea7974512737e72,604408285ea7974512737e72,21,visit,filler,F,50,visit40.jpg,visit60.jpg,GoalB,NULL
1687377398,328004502be31985b9da3de36b4a31d1,PennController,25,0,experiment,NULL,Canvas,canvas6,Print,NA,1687377201041,604408285ea7974512737e72,604408285ea7974512737e72,21,visit,filler,F,50,visit40.jpg,visit60.jpg,GoalB,NULL
1687377398,328004502be31985b9da3de36b4a31d1,PennController,25,0,experiment,NULL,Video,progression,buffer,0.002548,1687377197850,604408285ea7974512737e72,604408285ea7974512737e72,21,visit,filler,F,50,visit40.jpg,visit60.jpg,GoalB,NULL
1687377398,328004502be31985b9da3de36b4a31d1,PennController,25,0,experiment,NULL,Selector,choice,Selection,option1,1687377202860,604408285ea7974512737e72,604408285ea7974512737e72,21,visit,filler,F,50,visit40.jpg,visit60.jpg,GoalB,option1;option2
1687377398,328004502be31985b9da3de36b4a31d1,PennController,25,0,experiment,NULL,PennController,23,_Trial_,End,1687377202861,604408285ea7974512737e72,604408285ea7974512737e72,21,visit,filler,F,50,visit40.jpg,visit60.jpg,GoalB,NULL
1687377398,328004502be31985b9da3de36b4a31d1,PennController,15,0,experiment,NULL,PennController,13,_Trial_,Start,1687377202862,604408285ea7974512737e72,604408285ea7974512737e72,11,beads,critical,F,25,beads15.jpg,beads35.jpg,high,NULL
1687377398,328004502be31985b9da3de36b4a31d1,PennController,15,0,experiment,NULL,PennController,13,_Header_,Start,1687377202862,604408285ea7974512737e72,604408285ea7974512737e72,11,beads,critical,F,25,beads15.jpg,beads35.jpg,high,NULL
1687377398,328004502be31985b9da3de36b4a31d1,PennController,15,0,experiment,NULL,PennController,13,_Header_,End,1687377202862,604408285ea7974512737e72,604408285ea7974512737e72,11,beads,critical,F,25,beads15.jpg,beads35.jpg,high,NULL
1687377398,328004502be31985b9da3de36b4a31d1,PennController,15,0,experiment,NULL,Canvas,canvas6,Print,NA,1687377208575,604408285ea7974512737e72,604408285ea7974512737e72,11,beads,critical,F,25,beads15.jpg,beads35.jpg,high,NULL
1687377398,328004502be31985b9da3de36b4a31d1,PennController,15,0,experiment,NULL,Video,progression,buffer,0.00281,1687377206381,604408285ea7974512737e72,604408285ea7974512737e72,11,beads,critical,F,25,beads15.jpg,beads35.jpg,high,NULL
1687377398,328004502be31985b9da3de36b4a31d1,PennController,15,0,experiment,NULL,Selector,choice,Selection,option2,1687377220924,604408285ea7974512737e72,604408285ea7974512737e72,11,beads,critical,F,25,beads15.jpg,beads35.jpg,high,option2;option1
1687377398,328004502be31985b9da3de36b4a31d1,PennController,15,0,experiment,NULL,PennController,13,_Trial_,End,1687377220925,604408285ea7974512737e72,604408285ea7974512737e72,11,beads,critical,F,25,beads15.jpg,beads35.jpg,high,NULL
1687377398,328004502be31985b9da3de36b4a31d1,PennController,10,0,experiment,NULL,PennController,8,_Trial_,Start,1687377220926,604408285ea7974512737e72,604408285ea7974512737e72,6,flower,critical,F,50,flower40.jpg,flower60.jpg,high,NULL
1687377398,328004502be31985b9da3de36b4a31d1,PennController,10,0,experiment,NULL,PennController,8,_Header_,Start,1687377220926,604408285ea7974512737e72,604408285ea7974512737e72,6,flower,critical,F,50,flower40.jpg,flower60.jpg,high,NULL
1687377398,328004502be31985b9da3de36b4a31d1,PennController,10,0,experiment,NULL,PennController,8,_Header_,End,1687377220926,604408285ea7974512737e72,604408285ea7974512737e72,6,flower,critical,F,50,flower40.jpg,flower60.jpg,high,NULL
1687377398,328004502be31985b9da3de36b4a31d1,PennController,10,0,experiment,NULL,Canvas,canvas6,Print,NA,1687377227634,604408285ea7974512737e72,604408285ea7974512737e72,6,flower,critical,F,50,flower40.jpg,flower60.jpg,high,NULL
1687377398,328004502be31985b9da3de36b4a31d1,PennController,10,0,experiment,NULL,Video,progression,buffer,0.002302,1687377224444,604408285ea7974512737e72,604408285ea7974512737e72,6,flower,critical,F,50,flower40.jpg,flower60.jpg,high,NULL
1687377398,328004502be31985b9da3de36b4a31d1,PennController,10,0,experiment,NULL,Selector,choice,Selection,option1,1687377228663,604408285ea7974512737e72,604408285ea7974512737e72,6,flower,critical,F,50,flower40.jpg,flower60.jpg,high,option1;option2
1687377398,328004502be31985b9da3de36b4a31d1,PennController,10,0,experiment,NULL,PennController,8,_Trial_,End,1687377228664,604408285ea7974512737e72,604408285ea7974512737e72,6,flower,critical,F,50,flower40.jpg,flower60.jpg,high,NULL
1687377398,328004502be31985b9da3de36b4a31d1,PennController,14,0,experiment,NULL,PennController,12,_Trial_,Start,1687377228665,604408285ea7974512737e72,604408285ea7974512737e72,10,train,critical,F,75,train65.jpg,train85.jpg,high,NULL
1687377398,328004502be31985b9da3de36b4a31d1,PennController,14,0,experiment,NULL,PennController,12,_Header_,Start,1687377228665,604408285ea7974512737e72,604408285ea7974512737e72,10,train,critical,F,75,train65.jpg,train85.jpg,high,NULL
1687377398,328004502be31985b9da3de36b4a31d1,PennController,14,0,experiment,NULL,PennController,12,_Header_,End,1687377228665,604408285ea7974512737e72,604408285ea7974512737e72,10,train,critical,F,75,train65.jpg,train85.jpg,high,NULL
1687377398,328004502be31985b9da3de36b4a31d1,PennController,14,0,experiment,NULL,Canvas,canvas6,Print,NA,1687377236381,604408285ea7974512737e72,604408285ea7974512737e72,10,train,critical,F,75,train65.jpg,train85.jpg,high,NULL
1687377398,328004502be31985b9da3de36b4a31d1,PennController,14,0,experiment,NULL,Video,progression,buffer,0.00211,1687377232185,604408285ea7974512737e72,604408285ea7974512737e72,10,train,critical,F,75,train65.jpg,train85.jpg,high,NULL
1687377398,328004502be31985b9da3de36b4a31d1,PennController,14,0,experiment,NULL,Selector,choice,Selection,option2,1687377238246,604408285ea7974512737e72,604408285ea7974512737e72,10,train,critical,F,75,train65.jpg,train85.jpg,high,option2;option1
1687377398,328004502be31985b9da3de36b4a31d1,PennController,14,0,experiment,NULL,PennController,12,_Trial_,End,1687377238247,604408285ea7974512737e72,604408285ea7974512737e72,10,train,critical,F,75,train65.jpg,train85.jpg,high,NULL
1687377398,328004502be31985b9da3de36b4a31d1,PennController,17,0,experiment,NULL,PennController,15,_Trial_,Start,1687377238247,604408285ea7974512737e72,604408285ea7974512737e72,13,mix,critical,F,75,mix65.jpg,mix85.jpg,high,NULL
1687377398,328004502be31985b9da3de36b4a31d1,PennController,17,0,experiment,NULL,PennController,15,_Header_,Start,1687377238247,604408285ea7974512737e72,604408285ea7974512737e72,13,mix,critical,F,75,mix65.jpg,mix85.jpg,high,NULL
1687377398,328004502be31985b9da3de36b4a31d1,PennController,17,0,experiment,NULL,PennController,15,_Header_,End,1687377238248,604408285ea7974512737e72,604408285ea7974512737e72,13,mix,critical,F,75,mix65.jpg,mix85.jpg,high,NULL
1687377398,328004502be31985b9da3de36b4a31d1,PennController,17,0,experiment,NULL,Canvas,canvas6,Print,NA,1687377245964,604408285ea7974512737e72,604408285ea7974512737e72,13,mix,critical,F,75,mix65.jpg,mix85.jpg,high,NULL
1687377398,328004502be31985b9da3de36b4a31d1,PennController,17,0,experiment,NULL,Video,progression,buffer,0.003711,1687377241774,604408285ea7974512737e72,604408285ea7974512737e72,13,mix,critical,F,75,mix65.jpg,mix85.jpg,high,NULL
1687377398,328004502be31985b9da3de36b4a31d1,PennController,17,0,experiment,NULL,Selector,choice,Selection,option1,1687377247236,604408285ea7974512737e72,604408285ea7974512737e72,13,mix,critical,F,75,mix65.jpg,mix85.jpg,high,option1;option2
1687377398,328004502be31985b9da3de36b4a31d1,PennController,17,0,experiment,NULL,PennController,15,_Trial_,End,1687377247237,604408285ea7974512737e72,604408285ea7974512737e72,13,mix,critical,F,75,mix65.jpg,mix85.jpg,high,NULL
1687377398,328004502be31985b9da3de36b4a31d1,PennController,32,0,experiment,NULL,PennController,30,_Trial_,Start,1687377247238,604408285ea7974512737e72,604408285ea7974512737e72,28,sort,filler,F,75,sort65.jpg,sort85.jpg,GoalA,NULL
1687377398,328004502be31985b9da3de36b4a31d1,PennController,32,0,experiment,NULL,PennController,30,_Header_,Start,1687377247238,604408285ea7974512737e72,604408285ea7974512737e72,28,sort,filler,F,75,sort65.jpg,sort85.jpg,GoalA,NULL
1687377398,328004502be31985b9da3de36b4a31d1,PennController,32,0,experiment,NULL,PennController,30,_Header_,End,1687377247239,604408285ea7974512737e72,604408285ea7974512737e72,28,sort,filler,F,75,sort65.jpg,sort85.jpg,GoalA,NULL
1687377398,328004502be31985b9da3de36b4a31d1,PennController,32,0,experiment,NULL,Canvas,canvas6,Print,NA,1687377254953,604408285ea7974512737e72,604408285ea7974512737e72,28,sort,filler,F,75,sort65.jpg,sort85.jpg,GoalA,NULL
1687377398,328004502be31985b9da3de36b4a31d1,PennController,32,0,experiment,NULL,Video,progression,buffer,0.003398,1687377250761,604408285ea7974512737e72,604408285ea7974512737e72,28,sort,filler,F,75,sort65.jpg,sort85.jpg,GoalA,NULL
1687377398,328004502be31985b9da3de36b4a31d1,PennController,32,0,experiment,NULL,Selector,choice,Selection,option1,1687377257432,604408285ea7974512737e72,604408285ea7974512737e72,28,sort,filler,F,75,sort65.jpg,sort85.jpg,GoalA,option1;option2
1687377398,328004502be31985b9da3de36b4a31d1,PennController,32,0,experiment,NULL,PennController,30,_Trial_,End,1687377257433,604408285ea7974512737e72,604408285ea7974512737e72,28,sort,filler,F,75,sort65.jpg,sort85.jpg,GoalA,NULL
1687377398,328004502be31985b9da3de36b4a31d1,PennController,8,0,experiment,NULL,PennController,6,_Trial_,Start,1687377257434,604408285ea7974512737e72,604408285ea7974512737e72,4,candy,critical,F,75,candy65.jpg,candy85.jpg,high,NULL
1687377398,328004502be31985b9da3de36b4a31d1,PennController,8,0,experiment,NULL,PennController,6,_Header_,Start,1687377257434,604408285ea7974512737e72,604408285ea7974512737e72,4,candy,critical,F,75,candy65.jpg,candy85.jpg,high,NULL
1687377398,328004502be31985b9da3de36b4a31d1,PennController,8,0,experiment,NULL,PennController,6,_Header_,End,1687377257434,604408285ea7974512737e72,604408285ea7974512737e72,4,candy,critical,F,75,candy65.jpg,candy85.jpg,high,NULL
1687377398,328004502be31985b9da3de36b4a31d1,PennController,8,0,experiment,NULL,Canvas,canvas6,Print,NA,1687377265142,604408285ea7974512737e72,604408285ea7974512737e72,4,candy,critical,F,75,candy65.jpg,candy85.jpg,high,NULL
1687377398,328004502be31985b9da3de36b4a31d1,PennController,8,0,experiment,NULL,Video,progression,buffer,0.004215,1687377260952,604408285ea7974512737e72,604408285ea7974512737e72,4,candy,critical,F,75,candy65.jpg,candy85.jpg,high,NULL
1687377398,328004502be31985b9da3de36b4a31d1,PennController,8,0,experiment,NULL,Selector,choice,Selection,option1,1687377266265,604408285ea7974512737e72,604408285ea7974512737e72,4,candy,critical,F,75,candy65.jpg,candy85.jpg,high,option2;option1
1687377398,328004502be31985b9da3de36b4a31d1,PennController,8,0,experiment,NULL,PennController,6,_Trial_,End,1687377266266,604408285ea7974512737e72,604408285ea7974512737e72,4,candy,critical,F,75,candy65.jpg,candy85.jpg,high,NULL
1687377398,328004502be31985b9da3de36b4a31d1,PennController,5,0,experiment,NULL,PennController,3,_Trial_,Start,1687377266267,604408285ea7974512737e72,604408285ea7974512737e72,1,vase,critical,F,75,vase65.jpg,vase85.jpg,high,NULL
1687377398,328004502be31985b9da3de36b4a31d1,PennController,5,0,experiment,NULL,PennController,3,_Header_,Start,1687377266267,604408285ea7974512737e72,604408285ea7974512737e72,1,vase,critical,F,75,vase65.jpg,vase85.jpg,high,NULL
1687377398,328004502be31985b9da3de36b4a31d1,PennController,5,0,experiment,NULL,PennController,3,_Header_,End,1687377266268,604408285ea7974512737e72,604408285ea7974512737e72,1,vase,critical,F,75,vase65.jpg,vase85.jpg,high,NULL
1687377398,328004502be31985b9da3de36b4a31d1,PennController,5,0,experiment,NULL,Canvas,canvas6,Print,NA,1687377273983,604408285ea7974512737e72,604408285ea7974512737e72,1,vase,critical,F,75,vase65.jpg,vase85.jpg,high,NULL
1687377398,328004502be31985b9da3de36b4a31d1,PennController,5,0,experiment,NULL,Video,progression,buffer,0.004629,1687377269792,604408285ea7974512737e72,604408285ea7974512737e72,1,vase,critical,F,75,vase65.jpg,vase85.jpg,high,NULL
1687377398,328004502be31985b9da3de36b4a31d1,PennController,5,0,experiment,NULL,Selector,choice,Selection,option1,1687377275854,604408285ea7974512737e72,604408285ea7974512737e72,1,vase,critical,F,75,vase65.jpg,vase85.jpg,high,option2;option1
1687377398,328004502be31985b9da3de36b4a31d1,PennController,5,0,experiment,NULL,PennController,3,_Trial_,End,1687377275855,604408285ea7974512737e72,604408285ea7974512737e72,1,vase,critical,F,75,vase65.jpg,vase85.jpg,high,NULL
1687377398,328004502be31985b9da3de36b4a31d1,PennController,23,0,experiment,NULL,PennController,21,_Trial_,Start,1687377275856,604408285ea7974512737e72,604408285ea7974512737e72,19,cup,filler,F,75,cup65.jpg,cup85.jpg,GoalB,NULL
1687377398,328004502be31985b9da3de36b4a31d1,PennController,23,0,experiment,NULL,PennController,21,_Header_,Start,1687377275856,604408285ea7974512737e72,604408285ea7974512737e72,19,cup,filler,F,75,cup65.jpg,cup85.jpg,GoalB,NULL
1687377398,328004502be31985b9da3de36b4a31d1,PennController,23,0,experiment,NULL,PennController,21,_Header_,End,1687377275856,604408285ea7974512737e72,604408285ea7974512737e72,19,cup,filler,F,75,cup65.jpg,cup85.jpg,GoalB,NULL
1687377398,328004502be31985b9da3de36b4a31d1,PennController,23,0,experiment,NULL,Canvas,canvas6,Print,NA,1687377283575,604408285ea7974512737e72,604408285ea7974512737e72,19,cup,filler,F,75,cup65.jpg,cup85.jpg,GoalB,NULL
1687377398,328004502be31985b9da3de36b4a31d1,PennController,23,0,experiment,NULL,Video,progression,buffer,0.003397,1687377279377,604408285ea7974512737e72,604408285ea7974512737e72,19,cup,filler,F,75,cup65.jpg,cup85.jpg,GoalB,NULL
1687377398,328004502be31985b9da3de36b4a31d1,PennController,23,0,experiment,NULL,Selector,choice,Selection,option2,1687377284995,604408285ea7974512737e72,604408285ea7974512737e72,19,cup,filler,F,75,cup65.jpg,cup85.jpg,GoalB,option1;option2
1687377398,328004502be31985b9da3de36b4a31d1,PennController,23,0,experiment,NULL,PennController,21,_Trial_,End,1687377284996,604408285ea7974512737e72,604408285ea7974512737e72,19,cup,filler,F,75,cup65.jpg,cup85.jpg,GoalB,NULL
1687377398,328004502be31985b9da3de36b4a31d1,PennController,18,0,experiment,NULL,PennController,16,_Trial_,Start,1687377284997,604408285ea7974512737e72,604408285ea7974512737e72,14,cover,critical,F,25,cover15.jpg,cover33.jpg,high,NULL
1687377398,328004502be31985b9da3de36b4a31d1,PennController,18,0,experiment,NULL,PennController,16,_Header_,Start,1687377284997,604408285ea7974512737e72,604408285ea7974512737e72,14,cover,critical,F,25,cover15.jpg,cover33.jpg,high,NULL
1687377398,328004502be31985b9da3de36b4a31d1,PennController,18,0,experiment,NULL,PennController,16,_Header_,End,1687377284997,604408285ea7974512737e72,604408285ea7974512737e72,14,cover,critical,F,25,cover15.jpg,cover33.jpg,high,NULL
1687377398,328004502be31985b9da3de36b4a31d1,PennController,18,0,experiment,NULL,Canvas,canvas6,Print,NA,1687377291303,604408285ea7974512737e72,604408285ea7974512737e72,14,cover,critical,F,25,cover15.jpg,cover33.jpg,high,NULL
1687377398,328004502be31985b9da3de36b4a31d1,PennController,18,0,experiment,NULL,Video,progression,buffer,0.002142,1687377288510,604408285ea7974512737e72,604408285ea7974512737e72,14,cover,critical,F,25,cover15.jpg,cover33.jpg,high,NULL
1687377398,328004502be31985b9da3de36b4a31d1,PennController,18,0,experiment,NULL,Selector,choice,Selection,option1,1687377292279,604408285ea7974512737e72,604408285ea7974512737e72,14,cover,critical,F,25,cover15.jpg,cover33.jpg,high,option2;option1
1687377398,328004502be31985b9da3de36b4a31d1,PennController,18,0,experiment,NULL,PennController,16,_Trial_,End,1687377292280,604408285ea7974512737e72,604408285ea7974512737e72,14,cover,critical,F,25,cover15.jpg,cover33.jpg,high,NULL
1687377398,328004502be31985b9da3de36b4a31d1,PennController,30,0,experiment,NULL,PennController,28,_Trial_,Start,1687377292281,604408285ea7974512737e72,604408285ea7974512737e72,26,sandwich,filler,F,25,sandwich15.jpg,sandwich35.jpg,GoalA,NULL
1687377398,328004502be31985b9da3de36b4a31d1,PennController,30,0,experiment,NULL,PennController,28,_Header_,Start,1687377292281,604408285ea7974512737e72,604408285ea7974512737e72,26,sandwich,filler,F,25,sandwich15.jpg,sandwich35.jpg,GoalA,NULL
1687377398,328004502be31985b9da3de36b4a31d1,PennController,30,0,experiment,NULL,PennController,28,_Header_,End,1687377292281,604408285ea7974512737e72,604408285ea7974512737e72,26,sandwich,filler,F,25,sandwich15.jpg,sandwich35.jpg,GoalA,NULL
1687377398,328004502be31985b9da3de36b4a31d1,PennController,30,0,experiment,NULL,Canvas,canvas6,Print,NA,1687377297987,604408285ea7974512737e72,604408285ea7974512737e72,26,sandwich,filler,F,25,sandwich15.jpg,sandwich35.jpg,GoalA,NULL
1687377398,328004502be31985b9da3de36b4a31d1,PennController,30,0,experiment,NULL,Video,progression,buffer,0.002821,1687377295797,604408285ea7974512737e72,604408285ea7974512737e72,26,sandwich,filler,F,25,sandwich15.jpg,sandwich35.jpg,GoalA,NULL
1687377398,328004502be31985b9da3de36b4a31d1,PennController,30,0,experiment,NULL,Selector,choice,Selection,option1,1687377309968,604408285ea7974512737e72,604408285ea7974512737e72,26,sandwich,filler,F,25,sandwich15.jpg,sandwich35.jpg,GoalA,option1;option2
1687377398,328004502be31985b9da3de36b4a31d1,PennController,30,0,experiment,NULL,PennController,28,_Trial_,End,1687377309969,604408285ea7974512737e72,604408285ea7974512737e72,26,sandwich,filler,F,25,sandwich15.jpg,sandwich35.jpg,GoalA,NULL
1687377398,328004502be31985b9da3de36b4a31d1,PennController,33,0,experiment,NULL,PennController,31,_Trial_,Start,1687377309970,604408285ea7974512737e72,604408285ea7974512737e72,29,frog,filler,F,25,frog15.jpg,frog35.jpg,GoalB,NULL
1687377398,328004502be31985b9da3de36b4a31d1,PennController,33,0,experiment,NULL,PennController,31,_Header_,Start,1687377309970,604408285ea7974512737e72,604408285ea7974512737e72,29,frog,filler,F,25,frog15.jpg,frog35.jpg,GoalB,NULL
1687377398,328004502be31985b9da3de36b4a31d1,PennController,33,0,experiment,NULL,PennController,31,_Header_,End,1687377309970,604408285ea7974512737e72,604408285ea7974512737e72,29,frog,filler,F,25,frog15.jpg,frog35.jpg,GoalB,NULL
1687377398,328004502be31985b9da3de36b4a31d1,PennController,33,0,experiment,NULL,Canvas,canvas6,Print,NA,1687377315673,604408285ea7974512737e72,604408285ea7974512737e72,29,frog,filler,F,25,frog15.jpg,frog35.jpg,GoalB,NULL
1687377398,328004502be31985b9da3de36b4a31d1,PennController,33,0,experiment,NULL,Video,progression,buffer,0.003493,1687377313484,604408285ea7974512737e72,604408285ea7974512737e72,29,frog,filler,F,25,frog15.jpg,frog35.jpg,GoalB,NULL
1687377398,328004502be31985b9da3de36b4a31d1,PennController,33,0,experiment,NULL,Selector,choice,Selection,option1,1687377316655,604408285ea7974512737e72,604408285ea7974512737e72,29,frog,filler,F,25,frog15.jpg,frog35.jpg,GoalB,option2;option1
1687377398,328004502be31985b9da3de36b4a31d1,PennController,33,0,experiment,NULL,PennController,31,_Trial_,End,1687377316656,604408285ea7974512737e72,604408285ea7974512737e72,29,frog,filler,F,25,frog15.jpg,frog35.jpg,GoalB,NULL
1687377398,328004502be31985b9da3de36b4a31d1,PennController,12,0,experiment,NULL,PennController,10,_Trial_,Start,1687377316657,604408285ea7974512737e72,604408285ea7974512737e72,8,cucumber,critical,F,25,cucumber15.jpg,cucumber33.jpg,high,NULL
1687377398,328004502be31985b9da3de36b4a31d1,PennController,12,0,experiment,NULL,PennController,10,_Header_,Start,1687377316657,604408285ea7974512737e72,604408285ea7974512737e72,8,cucumber,critical,F,25,cucumber15.jpg,cucumber33.jpg,high,NULL
1687377398,328004502be31985b9da3de36b4a31d1,PennController,12,0,experiment,NULL,PennController,10,_Header_,End,1687377316657,604408285ea7974512737e72,604408285ea7974512737e72,8,cucumber,critical,F,25,cucumber15.jpg,cucumber33.jpg,high,NULL
1687377398,328004502be31985b9da3de36b4a31d1,PennController,12,0,experiment,NULL,Canvas,canvas6,Print,NA,1687377322980,604408285ea7974512737e72,604408285ea7974512737e72,8,cucumber,critical,F,25,cucumber15.jpg,cucumber33.jpg,high,NULL
1687377398,328004502be31985b9da3de36b4a31d1,PennController,12,0,experiment,NULL,Video,progression,buffer,0.002801,1687377320180,604408285ea7974512737e72,604408285ea7974512737e72,8,cucumber,critical,F,25,cucumber15.jpg,cucumber33.jpg,high,NULL
1687377398,328004502be31985b9da3de36b4a31d1,PennController,12,0,experiment,NULL,Selector,choice,Selection,option1,1687377324311,604408285ea7974512737e72,604408285ea7974512737e72,8,cucumber,critical,F,25,cucumber15.jpg,cucumber33.jpg,high,option1;option2
1687377398,328004502be31985b9da3de36b4a31d1,PennController,12,0,experiment,NULL,PennController,10,_Trial_,End,1687377324312,604408285ea7974512737e72,604408285ea7974512737e72,8,cucumber,critical,F,25,cucumber15.jpg,cucumber33.jpg,high,NULL
1687377398,328004502be31985b9da3de36b4a31d1,PennController,11,0,experiment,NULL,PennController,9,_Trial_,Start,1687377324314,604408285ea7974512737e72,604408285ea7974512737e72,7,stack,critical,F,75,stack65.jpg,stack85.jpg,high,NULL
1687377398,328004502be31985b9da3de36b4a31d1,PennController,11,0,experiment,NULL,PennController,9,_Header_,Start,1687377324314,604408285ea7974512737e72,604408285ea7974512737e72,7,stack,critical,F,75,stack65.jpg,stack85.jpg,high,NULL
1687377398,328004502be31985b9da3de36b4a31d1,PennController,11,0,experiment,NULL,PennController,9,_Header_,End,1687377324314,604408285ea7974512737e72,604408285ea7974512737e72,7,stack,critical,F,75,stack65.jpg,stack85.jpg,high,NULL
1687377398,328004502be31985b9da3de36b4a31d1,PennController,11,0,experiment,NULL,Canvas,canvas6,Print,NA,1687377332030,604408285ea7974512737e72,604408285ea7974512737e72,7,stack,critical,F,75,stack65.jpg,stack85.jpg,high,NULL
1687377398,328004502be31985b9da3de36b4a31d1,PennController,11,0,experiment,NULL,Video,progression,buffer,0.002911,1687377327835,604408285ea7974512737e72,604408285ea7974512737e72,7,stack,critical,F,75,stack65.jpg,stack85.jpg,high,NULL
1687377398,328004502be31985b9da3de36b4a31d1,PennController,11,0,experiment,NULL,Selector,choice,Selection,option1,1687377333472,604408285ea7974512737e72,604408285ea7974512737e72,7,stack,critical,F,75,stack65.jpg,stack85.jpg,high,option1;option2
1687377398,328004502be31985b9da3de36b4a31d1,PennController,11,0,experiment,NULL,PennController,9,_Trial_,End,1687377333473,604408285ea7974512737e72,604408285ea7974512737e72,7,stack,critical,F,75,stack65.jpg,stack85.jpg,high,NULL
1687377398,328004502be31985b9da3de36b4a31d1,PennController,21,0,experiment,NULL,PennController,19,_Trial_,Start,1687377333474,604408285ea7974512737e72,604408285ea7974512737e72,17,roll,critical,F,25,roll15.jpg,roll35.jpg,high,NULL
1687377398,328004502be31985b9da3de36b4a31d1,PennController,21,0,experiment,NULL,PennController,19,_Header_,Start,1687377333474,604408285ea7974512737e72,604408285ea7974512737e72,17,roll,critical,F,25,roll15.jpg,roll35.jpg,high,NULL
1687377398,328004502be31985b9da3de36b4a31d1,PennController,21,0,experiment,NULL,PennController,19,_Header_,End,1687377333474,604408285ea7974512737e72,604408285ea7974512737e72,17,roll,critical,F,25,roll15.jpg,roll35.jpg,high,NULL
1687377398,328004502be31985b9da3de36b4a31d1,PennController,21,0,experiment,NULL,Canvas,canvas6,Print,NA,1687377339187,604408285ea7974512737e72,604408285ea7974512737e72,17,roll,critical,F,25,roll15.jpg,roll35.jpg,high,NULL
1687377398,328004502be31985b9da3de36b4a31d1,PennController,21,0,experiment,NULL,Video,progression,buffer,0.002917,1687377336994,604408285ea7974512737e72,604408285ea7974512737e72,17,roll,critical,F,25,roll15.jpg,roll35.jpg,high,NULL
1687377398,328004502be31985b9da3de36b4a31d1,PennController,21,0,experiment,NULL,Selector,choice,Selection,option1,1687377339994,604408285ea7974512737e72,604408285ea7974512737e72,17,roll,critical,F,25,roll15.jpg,roll35.jpg,high,option2;option1
1687377398,328004502be31985b9da3de36b4a31d1,PennController,21,0,experiment,NULL,PennController,19,_Trial_,End,1687377339995,604408285ea7974512737e72,604408285ea7974512737e72,17,roll,critical,F,25,roll15.jpg,roll35.jpg,high,NULL
1687377398,328004502be31985b9da3de36b4a31d1,PennController,13,0,experiment,NULL,PennController,11,_Trial_,Start,1687377339995,604408285ea7974512737e72,604408285ea7974512737e72,9,cake,critical,F,50,cake42.jpg,cake60.jpg,high,NULL
1687377398,328004502be31985b9da3de36b4a31d1,PennController,13,0,experiment,NULL,PennController,11,_Header_,Start,1687377339995,604408285ea7974512737e72,604408285ea7974512737e72,9,cake,critical,F,50,cake42.jpg,cake60.jpg,high,NULL
1687377398,328004502be31985b9da3de36b4a31d1,PennController,13,0,experiment,NULL,PennController,11,_Header_,End,1687377339996,604408285ea7974512737e72,604408285ea7974512737e72,9,cake,critical,F,50,cake42.jpg,cake60.jpg,high,NULL
1687377398,328004502be31985b9da3de36b4a31d1,PennController,13,0,experiment,NULL,Canvas,canvas6,Print,NA,1687377348116,604408285ea7974512737e72,604408285ea7974512737e72,9,cake,critical,F,50,cake42.jpg,cake60.jpg,high,NULL
1687377398,328004502be31985b9da3de36b4a31d1,PennController,13,0,experiment,NULL,Video,progression,buffer,0.002334,1687377343515,604408285ea7974512737e72,604408285ea7974512737e72,9,cake,critical,F,50,cake42.jpg,cake60.jpg,high,NULL
1687377398,328004502be31985b9da3de36b4a31d1,PennController,13,0,experiment,NULL,Selector,choice,Selection,option1,1687377349685,604408285ea7974512737e72,604408285ea7974512737e72,9,cake,critical,F,50,cake42.jpg,cake60.jpg,high,option1;option2
1687377398,328004502be31985b9da3de36b4a31d1,PennController,13,0,experiment,NULL,PennController,11,_Trial_,End,1687377349686,604408285ea7974512737e72,604408285ea7974512737e72,9,cake,critical,F,50,cake42.jpg,cake60.jpg,high,NULL
1687377398,328004502be31985b9da3de36b4a31d1,PennController,19,0,experiment,NULL,PennController,17,_Trial_,Start,1687377349688,604408285ea7974512737e72,604408285ea7974512737e72,15,zip,critical,F,50,zip40.jpg,zip60.jpg,high,NULL
1687377398,328004502be31985b9da3de36b4a31d1,PennController,19,0,experiment,NULL,PennController,17,_Header_,Start,1687377349688,604408285ea7974512737e72,604408285ea7974512737e72,15,zip,critical,F,50,zip40.jpg,zip60.jpg,high,NULL
1687377398,328004502be31985b9da3de36b4a31d1,PennController,19,0,experiment,NULL,PennController,17,_Header_,End,1687377349688,604408285ea7974512737e72,604408285ea7974512737e72,15,zip,critical,F,50,zip40.jpg,zip60.jpg,high,NULL
1687377398,328004502be31985b9da3de36b4a31d1,PennController,19,0,experiment,NULL,Canvas,canvas6,Print,NA,1687377356412,604408285ea7974512737e72,604408285ea7974512737e72,15,zip,critical,F,50,zip40.jpg,zip60.jpg,high,NULL
1687377398,328004502be31985b9da3de36b4a31d1,PennController,19,0,experiment,NULL,Video,progression,buffer,0.002278,1687377353206,604408285ea7974512737e72,604408285ea7974512737e72,15,zip,critical,F,50,zip40.jpg,zip60.jpg,high,NULL
1687377398,328004502be31985b9da3de36b4a31d1,PennController,19,0,experiment,NULL,Selector,choice,Selection,option1,1687377357935,604408285ea7974512737e72,604408285ea7974512737e72,15,zip,critical,F,50,zip40.jpg,zip60.jpg,high,option2;option1
1687377398,328004502be31985b9da3de36b4a31d1,PennController,19,0,experiment,NULL,PennController,17,_Trial_,End,1687377357936,604408285ea7974512737e72,604408285ea7974512737e72,15,zip,critical,F,50,zip40.jpg,zip60.jpg,high,NULL
1687377398,328004502be31985b9da3de36b4a31d1,PennController,22,0,experiment,NULL,PennController,20,_Trial_,Start,1687377357937,604408285ea7974512737e72,604408285ea7974512737e72,18,ball,critical,F,50,ball40.jpg,ball60.jpg,high,NULL
1687377398,328004502be31985b9da3de36b4a31d1,PennController,22,0,experiment,NULL,PennController,20,_Header_,Start,1687377357937,604408285ea7974512737e72,604408285ea7974512737e72,18,ball,critical,F,50,ball40.jpg,ball60.jpg,high,NULL
1687377398,328004502be31985b9da3de36b4a31d1,PennController,22,0,experiment,NULL,PennController,20,_Header_,End,1687377357937,604408285ea7974512737e72,604408285ea7974512737e72,18,ball,critical,F,50,ball40.jpg,ball60.jpg,high,NULL
1687377398,328004502be31985b9da3de36b4a31d1,PennController,22,0,experiment,NULL,Canvas,canvas6,Print,NA,1687377364655,604408285ea7974512737e72,604408285ea7974512737e72,18,ball,critical,F,50,ball40.jpg,ball60.jpg,high,NULL
1687377398,328004502be31985b9da3de36b4a31d1,PennController,22,0,experiment,NULL,Video,progression,buffer,0.002361,1687377361457,604408285ea7974512737e72,604408285ea7974512737e72,18,ball,critical,F,50,ball40.jpg,ball60.jpg,high,NULL
1687377398,328004502be31985b9da3de36b4a31d1,PennController,22,0,experiment,NULL,Selector,choice,Selection,option1,1687377365882,604408285ea7974512737e72,604408285ea7974512737e72,18,ball,critical,F,50,ball40.jpg,ball60.jpg,high,option2;option1
1687377398,328004502be31985b9da3de36b4a31d1,PennController,22,0,experiment,NULL,PennController,20,_Trial_,End,1687377365883,604408285ea7974512737e72,604408285ea7974512737e72,18,ball,critical,F,50,ball40.jpg,ball60.jpg,high,NULL
1687377398,328004502be31985b9da3de36b4a31d1,PennController,6,0,experiment,NULL,PennController,4,_Trial_,Start,1687377365884,604408285ea7974512737e72,604408285ea7974512737e72,2,door,critical,F,25,door15.jpg,door35.jpg,high,NULL
1687377398,328004502be31985b9da3de36b4a31d1,PennController,6,0,experiment,NULL,PennController,4,_Header_,Start,1687377365884,604408285ea7974512737e72,604408285ea7974512737e72,2,door,critical,F,25,door15.jpg,door35.jpg,high,NULL
1687377398,328004502be31985b9da3de36b4a31d1,PennController,6,0,experiment,NULL,PennController,4,_Header_,End,1687377365884,604408285ea7974512737e72,604408285ea7974512737e72,2,door,critical,F,25,door15.jpg,door35.jpg,high,NULL
1687377398,328004502be31985b9da3de36b4a31d1,PennController,6,0,experiment,NULL,Canvas,canvas6,Print,NA,1687377371598,604408285ea7974512737e72,604408285ea7974512737e72,2,door,critical,F,25,door15.jpg,door35.jpg,high,NULL
1687377398,328004502be31985b9da3de36b4a31d1,PennController,6,0,experiment,NULL,Video,progression,buffer,0.002669,1687377369403,604408285ea7974512737e72,604408285ea7974512737e72,2,door,critical,F,25,door15.jpg,door35.jpg,high,NULL
1687377398,328004502be31985b9da3de36b4a31d1,PennController,6,0,experiment,NULL,Selector,choice,Selection,option1,1687377372878,604408285ea7974512737e72,604408285ea7974512737e72,2,door,critical,F,25,door15.jpg,door35.jpg,high,option1;option2
1687377398,328004502be31985b9da3de36b4a31d1,PennController,6,0,experiment,NULL,PennController,4,_Trial_,End,1687377372879,604408285ea7974512737e72,604408285ea7974512737e72,2,door,critical,F,25,door15.jpg,door35.jpg,high,NULL
1687377398,328004502be31985b9da3de36b4a31d1,PennController,28,0,experiment,NULL,PennController,26,_Trial_,Start,1687377372880,604408285ea7974512737e72,604408285ea7974512737e72,24,match,filler,F,50,match40.jpg,match60.jpg,GoalA,NULL
1687377398,328004502be31985b9da3de36b4a31d1,PennController,28,0,experiment,NULL,PennController,26,_Header_,Start,1687377372880,604408285ea7974512737e72,604408285ea7974512737e72,24,match,filler,F,50,match40.jpg,match60.jpg,GoalA,NULL
1687377398,328004502be31985b9da3de36b4a31d1,PennController,28,0,experiment,NULL,PennController,26,_Header_,End,1687377372880,604408285ea7974512737e72,604408285ea7974512737e72,24,match,filler,F,50,match40.jpg,match60.jpg,GoalA,NULL
1687377398,328004502be31985b9da3de36b4a31d1,PennController,28,0,experiment,NULL,Canvas,canvas6,Print,NA,1687377379592,604408285ea7974512737e72,604408285ea7974512737e72,24,match,filler,F,50,match40.jpg,match60.jpg,GoalA,NULL
1687377398,328004502be31985b9da3de36b4a31d1,PennController,28,0,experiment,NULL,Video,progression,buffer,0.002458,1687377376399,604408285ea7974512737e72,604408285ea7974512737e72,24,match,filler,F,50,match40.jpg,match60.jpg,GoalA,NULL
1687377398,328004502be31985b9da3de36b4a31d1,PennController,28,0,experiment,NULL,Selector,choice,Selection,option1,1687377381411,604408285ea7974512737e72,604408285ea7974512737e72,24,match,filler,F,50,match40.jpg,match60.jpg,GoalA,option1;option2
1687377398,328004502be31985b9da3de36b4a31d1,PennController,28,0,experiment,NULL,PennController,26,_Trial_,End,1687377381412,604408285ea7974512737e72,604408285ea7974512737e72,24,match,filler,F,50,match40.jpg,match60.jpg,GoalA,NULL
1687377398,328004502be31985b9da3de36b4a31d1,PennController,16,0,experiment,NULL,PennController,14,_Trial_,Start,1687377381413,604408285ea7974512737e72,604408285ea7974512737e72,12,erase,critical,F,50,erase42.jpg,erase60.jpg,high,NULL
1687377398,328004502be31985b9da3de36b4a31d1,PennController,16,0,experiment,NULL,PennController,14,_Header_,Start,1687377381413,604408285ea7974512737e72,604408285ea7974512737e72,12,erase,critical,F,50,erase42.jpg,erase60.jpg,high,NULL
1687377398,328004502be31985b9da3de36b4a31d1,PennController,16,0,experiment,NULL,PennController,14,_Header_,End,1687377381413,604408285ea7974512737e72,604408285ea7974512737e72,12,erase,critical,F,50,erase42.jpg,erase60.jpg,high,NULL
1687377398,328004502be31985b9da3de36b4a31d1,PennController,16,0,experiment,NULL,Canvas,canvas6,Print,NA,1687377389537,604408285ea7974512737e72,604408285ea7974512737e72,12,erase,critical,F,50,erase42.jpg,erase60.jpg,high,NULL
1687377398,328004502be31985b9da3de36b4a31d1,PennController,16,0,experiment,NULL,Video,progression,buffer,0.004143,1687377384934,604408285ea7974512737e72,604408285ea7974512737e72,12,erase,critical,F,50,erase42.jpg,erase60.jpg,high,NULL
1687377398,328004502be31985b9da3de36b4a31d1,PennController,16,0,experiment,NULL,Selector,choice,Selection,option1,1687377393953,604408285ea7974512737e72,604408285ea7974512737e72,12,erase,critical,F,50,erase42.jpg,erase60.jpg,high,option1;option2
1687377398,328004502be31985b9da3de36b4a31d1,PennController,16,0,experiment,NULL,PennController,14,_Trial_,End,1687377393954,604408285ea7974512737e72,604408285ea7974512737e72,12,erase,critical,F,50,erase42.jpg,erase60.jpg,high,NULL
1687377398,328004502be31985b9da3de36b4a31d1,PennController,20,0,experiment,NULL,PennController,18,_Trial_,Start,1687377393955,604408285ea7974512737e72,604408285ea7974512737e72,16,blinds,critical,F,75,blinds66.jpg,blinds84.jpg,high,NULL
1687377398,328004502be31985b9da3de36b4a31d1,PennController,20,0,experiment,NULL,PennController,18,_Header_,Start,1687377393955,604408285ea7974512737e72,604408285ea7974512737e72,16,blinds,critical,F,75,blinds66.jpg,blinds84.jpg,high,NULL
1687377398,328004502be31985b9da3de36b4a31d1,PennController,20,0,experiment,NULL,PennController,18,_Header_,End,1687377393955,604408285ea7974512737e72,604408285ea7974512737e72,16,blinds,critical,F,75,blinds66.jpg,blinds84.jpg,high,NULL
1687377398,328004502be31985b9da3de36b4a31d1,PennController,20,0,experiment,NULL,Canvas,canvas6,Print,NA,1687377403673,604408285ea7974512737e72,604408285ea7974512737e72,16,blinds,critical,F,75,blinds66.jpg,blinds84.jpg,high,NULL
1687377398,328004502be31985b9da3de36b4a31d1,PennController,20,0,experiment,NULL,Video,progression,buffer,0.002746,1687377397475,604408285ea7974512737e72,604408285ea7974512737e72,16,blinds,critical,F,75,blinds66.jpg,blinds84.jpg,high,NULL
1687377398,328004502be31985b9da3de36b4a31d1,PennController,20,0,experiment,NULL,Selector,choice,Selection,option1,1687377405464,604408285ea7974512737e72,604408285ea7974512737e72,16,blinds,critical,F,75,blinds66.jpg,blinds84.jpg,high,option2;option1
1687377398,328004502be31985b9da3de36b4a31d1,PennController,20,0,experiment,NULL,PennController,18,_Trial_,End,1687377405465,604408285ea7974512737e72,604408285ea7974512737e72,16,blinds,critical,F,75,blinds66.jpg,blinds84.jpg,high,NULL
