#
# Results on Tuesday June 20 2023 18:57:55 UTC
# USER AGENT: Mozilla/5.0 (Windows NT 10.0; Win64; x64) AppleWebKit/537.36 (KHTML, like Gecko) Chrome/114.0.0.0 Safari/537.36 Edg/114.0.1823.51
# Design number was non-random = 6
#
# Columns below this comment are as follows:
# 1. Results reception time.
# 2. MD5 hash of participant's IP address.
# 3. Controller name.
# 4. Order number of item.
# 5. Inner element number.
# 6. Label.
# 7. Latin Square Group.
# 8. PennElementType.
# 9. PennElementName.
# 10. Parameter.
# 11. Value.
# 12. EventTime.
# 13. PROLIFIC_ID.
# 14. Comments.
1687287475,e5eb024c900d0aebe58d7aae1e830756,PennController,2,0,consent,NULL,PennController,0,_Trial_,Start,1687287163033,6321d720056f6ee4563a7fd9,NULL
1687287475,e5eb024c900d0aebe58d7aae1e830756,PennController,2,0,consent,NULL,PennController,0,_Header_,Start,1687287163034,6321d720056f6ee4563a7fd9,NULL
1687287475,e5eb024c900d0aebe58d7aae1e830756,PennController,2,0,consent,NULL,PennController,0,_Header_,End,1687287163034,6321d720056f6ee4563a7fd9,NULL
1687287475,e5eb024c900d0aebe58d7aae1e830756,PennController,2,0,consent,NULL,PennController,0,_Trial_,End,1687287165312,6321d720056f6ee4563a7fd9,NULL
# Columns below this comment are as follows:
# 14. ID.
# 15. Comments.
1687287475,e5eb024c900d0aebe58d7aae1e830756,PennController,3,0,intro,NULL,PennController,1,_Trial_,Start,1687287165321,6321d720056f6ee4563a7fd9,6321d720056f6ee4563a7fd9,NULL
1687287475,e5eb024c900d0aebe58d7aae1e830756,PennController,3,0,intro,NULL,PennController,1,_Header_,Start,1687287165321,6321d720056f6ee4563a7fd9,6321d720056f6ee4563a7fd9,NULL
1687287475,e5eb024c900d0aebe58d7aae1e830756,PennController,3,0,intro,NULL,PennController,1,_Header_,End,1687287165321,6321d720056f6ee4563a7fd9,6321d720056f6ee4563a7fd9,NULL
1687287475,e5eb024c900d0aebe58d7aae1e830756,PennController,3,0,intro,NULL,PennController,1,_Trial_,End,1687287169826,6321d720056f6ee4563a7fd9,6321d720056f6ee4563a7fd9,NULL
# Columns below this comment are as follows:
# 15. item_number.
# 16. item.
# 17. type.
# 18. Group.
# 19. prog.
# 20. prev_image.
# 21. next_image.
# 22. height.
# 23. Comments.
1687287475,e5eb024c900d0aebe58d7aae1e830756,PennController,14,0,experiment,NULL,PennController,13,_Trial_,Start,1687287169834,6321d720056f6ee4563a7fd9,6321d720056f6ee4563a7fd9,11,beads,critical,A,50,beads40.jpg,beads60.jpg,low,NULL
1687287475,e5eb024c900d0aebe58d7aae1e830756,PennController,14,0,experiment,NULL,PennController,13,_Header_,Start,1687287169834,6321d720056f6ee4563a7fd9,6321d720056f6ee4563a7fd9,11,beads,critical,A,50,beads40.jpg,beads60.jpg,low,NULL
1687287475,e5eb024c900d0aebe58d7aae1e830756,PennController,14,0,experiment,NULL,PennController,13,_Header_,End,1687287169834,6321d720056f6ee4563a7fd9,6321d720056f6ee4563a7fd9,11,beads,critical,A,50,beads40.jpg,beads60.jpg,low,NULL
1687287475,e5eb024c900d0aebe58d7aae1e830756,PennController,14,0,experiment,NULL,Canvas,canvas6,Print,NA,1687287176587,6321d720056f6ee4563a7fd9,6321d720056f6ee4563a7fd9,11,beads,critical,A,50,beads40.jpg,beads60.jpg,low,NULL
1687287475,e5eb024c900d0aebe58d7aae1e830756,PennController,14,0,experiment,NULL,Video,progression,buffer,0.004852,1687287173390,6321d720056f6ee4563a7fd9,6321d720056f6ee4563a7fd9,11,beads,critical,A,50,beads40.jpg,beads60.jpg,low,NULL
1687287475,e5eb024c900d0aebe58d7aae1e830756,PennController,14,0,experiment,NULL,Selector,choice,Selection,option1,1687287180601,6321d720056f6ee4563a7fd9,6321d720056f6ee4563a7fd9,11,beads,critical,A,50,beads40.jpg,beads60.jpg,low,option2;option1
1687287475,e5eb024c900d0aebe58d7aae1e830756,PennController,14,0,experiment,NULL,PennController,13,_Trial_,End,1687287180603,6321d720056f6ee4563a7fd9,6321d720056f6ee4563a7fd9,11,beads,critical,A,50,beads40.jpg,beads60.jpg,low,NULL
1687287475,e5eb024c900d0aebe58d7aae1e830756,PennController,21,0,experiment,NULL,PennController,20,_Trial_,Start,1687287180604,6321d720056f6ee4563a7fd9,6321d720056f6ee4563a7fd9,18,ball,critical,A,75,ball65.jpg,ball85.jpg,low,NULL
1687287475,e5eb024c900d0aebe58d7aae1e830756,PennController,21,0,experiment,NULL,PennController,20,_Header_,Start,1687287180604,6321d720056f6ee4563a7fd9,6321d720056f6ee4563a7fd9,18,ball,critical,A,75,ball65.jpg,ball85.jpg,low,NULL
1687287475,e5eb024c900d0aebe58d7aae1e830756,PennController,21,0,experiment,NULL,PennController,20,_Header_,End,1687287180604,6321d720056f6ee4563a7fd9,6321d720056f6ee4563a7fd9,18,ball,critical,A,75,ball65.jpg,ball85.jpg,low,NULL
1687287475,e5eb024c900d0aebe58d7aae1e830756,PennController,21,0,experiment,NULL,Canvas,canvas6,Print,NA,1687287188318,6321d720056f6ee4563a7fd9,6321d720056f6ee4563a7fd9,18,ball,critical,A,75,ball65.jpg,ball85.jpg,low,NULL
1687287475,e5eb024c900d0aebe58d7aae1e830756,PennController,21,0,experiment,NULL,Video,progression,buffer,0.002903,1687287184141,6321d720056f6ee4563a7fd9,6321d720056f6ee4563a7fd9,18,ball,critical,A,75,ball65.jpg,ball85.jpg,low,NULL
1687287475,e5eb024c900d0aebe58d7aae1e830756,PennController,21,0,experiment,NULL,Selector,choice,Selection,option2,1687287191706,6321d720056f6ee4563a7fd9,6321d720056f6ee4563a7fd9,18,ball,critical,A,75,ball65.jpg,ball85.jpg,low,option1;option2
1687287475,e5eb024c900d0aebe58d7aae1e830756,PennController,21,0,experiment,NULL,PennController,20,_Trial_,End,1687287191708,6321d720056f6ee4563a7fd9,6321d720056f6ee4563a7fd9,18,ball,critical,A,75,ball65.jpg,ball85.jpg,low,NULL
1687287475,e5eb024c900d0aebe58d7aae1e830756,PennController,15,0,experiment,NULL,PennController,14,_Trial_,Start,1687287191711,6321d720056f6ee4563a7fd9,6321d720056f6ee4563a7fd9,12,erase,critical,A,75,erase66.jpg,erase84.jpg,low,NULL
1687287475,e5eb024c900d0aebe58d7aae1e830756,PennController,15,0,experiment,NULL,PennController,14,_Header_,Start,1687287191711,6321d720056f6ee4563a7fd9,6321d720056f6ee4563a7fd9,12,erase,critical,A,75,erase66.jpg,erase84.jpg,low,NULL
1687287475,e5eb024c900d0aebe58d7aae1e830756,PennController,15,0,experiment,NULL,PennController,14,_Header_,End,1687287191711,6321d720056f6ee4563a7fd9,6321d720056f6ee4563a7fd9,12,erase,critical,A,75,erase66.jpg,erase84.jpg,low,NULL
1687287475,e5eb024c900d0aebe58d7aae1e830756,PennController,15,0,experiment,NULL,Canvas,canvas6,Print,NA,1687287201427,6321d720056f6ee4563a7fd9,6321d720056f6ee4563a7fd9,12,erase,critical,A,75,erase66.jpg,erase84.jpg,low,NULL
1687287475,e5eb024c900d0aebe58d7aae1e830756,PennController,15,0,experiment,NULL,Video,progression,buffer,0.003244,1687287195249,6321d720056f6ee4563a7fd9,6321d720056f6ee4563a7fd9,12,erase,critical,A,75,erase66.jpg,erase84.jpg,low,NULL
1687287475,e5eb024c900d0aebe58d7aae1e830756,PennController,15,0,experiment,NULL,Selector,choice,Selection,option2,1687287203622,6321d720056f6ee4563a7fd9,6321d720056f6ee4563a7fd9,12,erase,critical,A,75,erase66.jpg,erase84.jpg,low,option2;option1
1687287475,e5eb024c900d0aebe58d7aae1e830756,PennController,15,0,experiment,NULL,PennController,14,_Trial_,End,1687287203624,6321d720056f6ee4563a7fd9,6321d720056f6ee4563a7fd9,12,erase,critical,A,75,erase66.jpg,erase84.jpg,low,NULL
1687287475,e5eb024c900d0aebe58d7aae1e830756,PennController,18,0,experiment,NULL,PennController,17,_Trial_,Start,1687287203627,6321d720056f6ee4563a7fd9,6321d720056f6ee4563a7fd9,15,zip,critical,A,75,zip65.jpg,zip85.jpg,low,NULL
1687287475,e5eb024c900d0aebe58d7aae1e830756,PennController,18,0,experiment,NULL,PennController,17,_Header_,Start,1687287203627,6321d720056f6ee4563a7fd9,6321d720056f6ee4563a7fd9,15,zip,critical,A,75,zip65.jpg,zip85.jpg,low,NULL
1687287475,e5eb024c900d0aebe58d7aae1e830756,PennController,18,0,experiment,NULL,PennController,17,_Header_,End,1687287203627,6321d720056f6ee4563a7fd9,6321d720056f6ee4563a7fd9,15,zip,critical,A,75,zip65.jpg,zip85.jpg,low,NULL
1687287475,e5eb024c900d0aebe58d7aae1e830756,PennController,18,0,experiment,NULL,Canvas,canvas6,Print,NA,1687287210550,6321d720056f6ee4563a7fd9,6321d720056f6ee4563a7fd9,15,zip,critical,A,75,zip65.jpg,zip85.jpg,low,NULL
1687287475,e5eb024c900d0aebe58d7aae1e830756,PennController,18,0,experiment,NULL,Video,progression,buffer,0.002695,1687287207173,6321d720056f6ee4563a7fd9,6321d720056f6ee4563a7fd9,15,zip,critical,A,75,zip65.jpg,zip85.jpg,low,NULL
1687287475,e5eb024c900d0aebe58d7aae1e830756,PennController,18,0,experiment,NULL,Selector,choice,Selection,option2,1687287213196,6321d720056f6ee4563a7fd9,6321d720056f6ee4563a7fd9,15,zip,critical,A,75,zip65.jpg,zip85.jpg,low,option2;option1
1687287475,e5eb024c900d0aebe58d7aae1e830756,PennController,18,0,experiment,NULL,PennController,17,_Trial_,End,1687287213198,6321d720056f6ee4563a7fd9,6321d720056f6ee4563a7fd9,15,zip,critical,A,75,zip65.jpg,zip85.jpg,low,NULL
1687287475,e5eb024c900d0aebe58d7aae1e830756,PennController,22,0,experiment,NULL,PennController,21,_Trial_,Start,1687287213199,6321d720056f6ee4563a7fd9,6321d720056f6ee4563a7fd9,19,cup,filler,A,25,cup15.jpg,cup35.jpg,GoalA,NULL
1687287475,e5eb024c900d0aebe58d7aae1e830756,PennController,22,0,experiment,NULL,PennController,21,_Header_,Start,1687287213199,6321d720056f6ee4563a7fd9,6321d720056f6ee4563a7fd9,19,cup,filler,A,25,cup15.jpg,cup35.jpg,GoalA,NULL
1687287475,e5eb024c900d0aebe58d7aae1e830756,PennController,22,0,experiment,NULL,PennController,21,_Header_,End,1687287213199,6321d720056f6ee4563a7fd9,6321d720056f6ee4563a7fd9,19,cup,filler,A,25,cup15.jpg,cup35.jpg,GoalA,NULL
1687287475,e5eb024c900d0aebe58d7aae1e830756,PennController,22,0,experiment,NULL,Canvas,canvas6,Print,NA,1687287218918,6321d720056f6ee4563a7fd9,6321d720056f6ee4563a7fd9,19,cup,filler,A,25,cup15.jpg,cup35.jpg,GoalA,NULL
1687287475,e5eb024c900d0aebe58d7aae1e830756,PennController,22,0,experiment,NULL,Video,progression,buffer,0.009868,1687287216747,6321d720056f6ee4563a7fd9,6321d720056f6ee4563a7fd9,19,cup,filler,A,25,cup15.jpg,cup35.jpg,GoalA,NULL
1687287475,e5eb024c900d0aebe58d7aae1e830756,PennController,22,0,experiment,NULL,Selector,choice,Selection,option2,1687287220934,6321d720056f6ee4563a7fd9,6321d720056f6ee4563a7fd9,19,cup,filler,A,25,cup15.jpg,cup35.jpg,GoalA,option2;option1
1687287475,e5eb024c900d0aebe58d7aae1e830756,PennController,22,0,experiment,NULL,PennController,21,_Trial_,End,1687287220936,6321d720056f6ee4563a7fd9,6321d720056f6ee4563a7fd9,19,cup,filler,A,25,cup15.jpg,cup35.jpg,GoalA,NULL
1687287475,e5eb024c900d0aebe58d7aae1e830756,PennController,17,0,experiment,NULL,PennController,16,_Trial_,Start,1687287220937,6321d720056f6ee4563a7fd9,6321d720056f6ee4563a7fd9,14,cover,critical,A,50,cover42.jpg,cover60.jpg,low,NULL
1687287475,e5eb024c900d0aebe58d7aae1e830756,PennController,17,0,experiment,NULL,PennController,16,_Header_,Start,1687287220937,6321d720056f6ee4563a7fd9,6321d720056f6ee4563a7fd9,14,cover,critical,A,50,cover42.jpg,cover60.jpg,low,NULL
1687287475,e5eb024c900d0aebe58d7aae1e830756,PennController,17,0,experiment,NULL,PennController,16,_Header_,End,1687287220937,6321d720056f6ee4563a7fd9,6321d720056f6ee4563a7fd9,14,cover,critical,A,50,cover42.jpg,cover60.jpg,low,NULL
1687287475,e5eb024c900d0aebe58d7aae1e830756,PennController,17,0,experiment,NULL,Canvas,canvas6,Print,NA,1687287229047,6321d720056f6ee4563a7fd9,6321d720056f6ee4563a7fd9,14,cover,critical,A,50,cover42.jpg,cover60.jpg,low,NULL
1687287475,e5eb024c900d0aebe58d7aae1e830756,PennController,17,0,experiment,NULL,Video,progression,buffer,0.003841,1687287224478,6321d720056f6ee4563a7fd9,6321d720056f6ee4563a7fd9,14,cover,critical,A,50,cover42.jpg,cover60.jpg,low,NULL
1687287475,e5eb024c900d0aebe58d7aae1e830756,PennController,17,0,experiment,NULL,Selector,choice,Selection,option1,1687287232194,6321d720056f6ee4563a7fd9,6321d720056f6ee4563a7fd9,14,cover,critical,A,50,cover42.jpg,cover60.jpg,low,option1;option2
1687287475,e5eb024c900d0aebe58d7aae1e830756,PennController,17,0,experiment,NULL,PennController,16,_Trial_,End,1687287232196,6321d720056f6ee4563a7fd9,6321d720056f6ee4563a7fd9,14,cover,critical,A,50,cover42.jpg,cover60.jpg,low,NULL
1687287475,e5eb024c900d0aebe58d7aae1e830756,PennController,32,0,experiment,NULL,PennController,31,_Trial_,Start,1687287232198,6321d720056f6ee4563a7fd9,6321d720056f6ee4563a7fd9,29,frog,filler,A,50,frog40.jpg,frog60.jpg,GoalA,NULL
1687287475,e5eb024c900d0aebe58d7aae1e830756,PennController,32,0,experiment,NULL,PennController,31,_Header_,Start,1687287232198,6321d720056f6ee4563a7fd9,6321d720056f6ee4563a7fd9,29,frog,filler,A,50,frog40.jpg,frog60.jpg,GoalA,NULL
1687287475,e5eb024c900d0aebe58d7aae1e830756,PennController,32,0,experiment,NULL,PennController,31,_Header_,End,1687287232198,6321d720056f6ee4563a7fd9,6321d720056f6ee4563a7fd9,29,frog,filler,A,50,frog40.jpg,frog60.jpg,GoalA,NULL
1687287475,e5eb024c900d0aebe58d7aae1e830756,PennController,32,0,experiment,NULL,Canvas,canvas6,Print,NA,1687287238913,6321d720056f6ee4563a7fd9,6321d720056f6ee4563a7fd9,29,frog,filler,A,50,frog40.jpg,frog60.jpg,GoalA,NULL
1687287475,e5eb024c900d0aebe58d7aae1e830756,PennController,32,0,experiment,NULL,Video,progression,buffer,0.004434,1687287235737,6321d720056f6ee4563a7fd9,6321d720056f6ee4563a7fd9,29,frog,filler,A,50,frog40.jpg,frog60.jpg,GoalA,NULL
1687287475,e5eb024c900d0aebe58d7aae1e830756,PennController,32,0,experiment,NULL,Selector,choice,Selection,option1,1687287242681,6321d720056f6ee4563a7fd9,6321d720056f6ee4563a7fd9,29,frog,filler,A,50,frog40.jpg,frog60.jpg,GoalA,option2;option1
1687287475,e5eb024c900d0aebe58d7aae1e830756,PennController,32,0,experiment,NULL,PennController,31,_Trial_,End,1687287242683,6321d720056f6ee4563a7fd9,6321d720056f6ee4563a7fd9,29,frog,filler,A,50,frog40.jpg,frog60.jpg,GoalA,NULL
1687287475,e5eb024c900d0aebe58d7aae1e830756,PennController,12,0,experiment,NULL,PennController,11,_Trial_,Start,1687287242685,6321d720056f6ee4563a7fd9,6321d720056f6ee4563a7fd9,9,cake,critical,A,75,cake66.jpg,cake84.jpg,low,NULL
1687287475,e5eb024c900d0aebe58d7aae1e830756,PennController,12,0,experiment,NULL,PennController,11,_Header_,Start,1687287242685,6321d720056f6ee4563a7fd9,6321d720056f6ee4563a7fd9,9,cake,critical,A,75,cake66.jpg,cake84.jpg,low,NULL
1687287475,e5eb024c900d0aebe58d7aae1e830756,PennController,12,0,experiment,NULL,PennController,11,_Header_,End,1687287242685,6321d720056f6ee4563a7fd9,6321d720056f6ee4563a7fd9,9,cake,critical,A,75,cake66.jpg,cake84.jpg,low,NULL
1687287475,e5eb024c900d0aebe58d7aae1e830756,PennController,12,0,experiment,NULL,Canvas,canvas6,Print,NA,1687287252413,6321d720056f6ee4563a7fd9,6321d720056f6ee4563a7fd9,9,cake,critical,A,75,cake66.jpg,cake84.jpg,low,NULL
1687287475,e5eb024c900d0aebe58d7aae1e830756,PennController,12,0,experiment,NULL,Video,progression,buffer,0.004845,1687287246226,6321d720056f6ee4563a7fd9,6321d720056f6ee4563a7fd9,9,cake,critical,A,75,cake66.jpg,cake84.jpg,low,NULL
1687287475,e5eb024c900d0aebe58d7aae1e830756,PennController,12,0,experiment,NULL,Selector,choice,Selection,option2,1687287253923,6321d720056f6ee4563a7fd9,6321d720056f6ee4563a7fd9,9,cake,critical,A,75,cake66.jpg,cake84.jpg,low,option2;option1
1687287475,e5eb024c900d0aebe58d7aae1e830756,PennController,12,0,experiment,NULL,PennController,11,_Trial_,End,1687287253925,6321d720056f6ee4563a7fd9,6321d720056f6ee4563a7fd9,9,cake,critical,A,75,cake66.jpg,cake84.jpg,low,NULL
1687287475,e5eb024c900d0aebe58d7aae1e830756,PennController,29,0,experiment,NULL,PennController,28,_Trial_,Start,1687287253927,6321d720056f6ee4563a7fd9,6321d720056f6ee4563a7fd9,26,sandwich,filler,A,50,sandwich40.jpg,sandwich60.jpg,GoalB,NULL
1687287475,e5eb024c900d0aebe58d7aae1e830756,PennController,29,0,experiment,NULL,PennController,28,_Header_,Start,1687287253927,6321d720056f6ee4563a7fd9,6321d720056f6ee4563a7fd9,26,sandwich,filler,A,50,sandwich40.jpg,sandwich60.jpg,GoalB,NULL
1687287475,e5eb024c900d0aebe58d7aae1e830756,PennController,29,0,experiment,NULL,PennController,28,_Header_,End,1687287253927,6321d720056f6ee4563a7fd9,6321d720056f6ee4563a7fd9,26,sandwich,filler,A,50,sandwich40.jpg,sandwich60.jpg,GoalB,NULL
1687287475,e5eb024c900d0aebe58d7aae1e830756,PennController,29,0,experiment,NULL,Canvas,canvas6,Print,NA,1687287260659,6321d720056f6ee4563a7fd9,6321d720056f6ee4563a7fd9,26,sandwich,filler,A,50,sandwich40.jpg,sandwich60.jpg,GoalB,NULL
1687287475,e5eb024c900d0aebe58d7aae1e830756,PennController,29,0,experiment,NULL,Video,progression,buffer,0.009134,1687287257473,6321d720056f6ee4563a7fd9,6321d720056f6ee4563a7fd9,26,sandwich,filler,A,50,sandwich40.jpg,sandwich60.jpg,GoalB,NULL
1687287475,e5eb024c900d0aebe58d7aae1e830756,PennController,29,0,experiment,NULL,Selector,choice,Selection,option2,1687287282468,6321d720056f6ee4563a7fd9,6321d720056f6ee4563a7fd9,26,sandwich,filler,A,50,sandwich40.jpg,sandwich60.jpg,GoalB,option2;option1
1687287475,e5eb024c900d0aebe58d7aae1e830756,PennController,29,0,experiment,NULL,PennController,28,_Trial_,End,1687287282470,6321d720056f6ee4563a7fd9,6321d720056f6ee4563a7fd9,26,sandwich,filler,A,50,sandwich40.jpg,sandwich60.jpg,GoalB,NULL
1687287475,e5eb024c900d0aebe58d7aae1e830756,PennController,7,0,experiment,NULL,PennController,6,_Trial_,Start,1687287282472,6321d720056f6ee4563a7fd9,6321d720056f6ee4563a7fd9,4,candy,critical,A,25,candy15.jpg,candy35.jpg,low,NULL
1687287475,e5eb024c900d0aebe58d7aae1e830756,PennController,7,0,experiment,NULL,PennController,6,_Header_,Start,1687287282472,6321d720056f6ee4563a7fd9,6321d720056f6ee4563a7fd9,4,candy,critical,A,25,candy15.jpg,candy35.jpg,low,NULL
1687287475,e5eb024c900d0aebe58d7aae1e830756,PennController,7,0,experiment,NULL,PennController,6,_Header_,End,1687287282472,6321d720056f6ee4563a7fd9,6321d720056f6ee4563a7fd9,4,candy,critical,A,25,candy15.jpg,candy35.jpg,low,NULL
1687287475,e5eb024c900d0aebe58d7aae1e830756,PennController,7,0,experiment,NULL,Canvas,canvas6,Print,NA,1687287288207,6321d720056f6ee4563a7fd9,6321d720056f6ee4563a7fd9,4,candy,critical,A,25,candy15.jpg,candy35.jpg,low,NULL
1687287475,e5eb024c900d0aebe58d7aae1e830756,PennController,7,0,experiment,NULL,Video,progression,buffer,0.008245,1687287286015,6321d720056f6ee4563a7fd9,6321d720056f6ee4563a7fd9,4,candy,critical,A,25,candy15.jpg,candy35.jpg,low,NULL
1687287475,e5eb024c900d0aebe58d7aae1e830756,PennController,7,0,experiment,NULL,Selector,choice,Selection,option2,1687287290889,6321d720056f6ee4563a7fd9,6321d720056f6ee4563a7fd9,4,candy,critical,A,25,candy15.jpg,candy35.jpg,low,option1;option2
1687287475,e5eb024c900d0aebe58d7aae1e830756,PennController,7,0,experiment,NULL,PennController,6,_Trial_,End,1687287290891,6321d720056f6ee4563a7fd9,6321d720056f6ee4563a7fd9,4,candy,critical,A,25,candy15.jpg,candy35.jpg,low,NULL
1687287475,e5eb024c900d0aebe58d7aae1e830756,PennController,10,0,experiment,NULL,PennController,9,_Trial_,Start,1687287290892,6321d720056f6ee4563a7fd9,6321d720056f6ee4563a7fd9,7,stack,critical,A,25,stack15.jpg,stack35.jpg,low,NULL
1687287475,e5eb024c900d0aebe58d7aae1e830756,PennController,10,0,experiment,NULL,PennController,9,_Header_,Start,1687287290892,6321d720056f6ee4563a7fd9,6321d720056f6ee4563a7fd9,7,stack,critical,A,25,stack15.jpg,stack35.jpg,low,NULL
1687287475,e5eb024c900d0aebe58d7aae1e830756,PennController,10,0,experiment,NULL,PennController,9,_Header_,End,1687287290892,6321d720056f6ee4563a7fd9,6321d720056f6ee4563a7fd9,7,stack,critical,A,25,stack15.jpg,stack35.jpg,low,NULL
1687287475,e5eb024c900d0aebe58d7aae1e830756,PennController,10,0,experiment,NULL,Canvas,canvas6,Print,NA,1687287296624,6321d720056f6ee4563a7fd9,6321d720056f6ee4563a7fd9,7,stack,critical,A,25,stack15.jpg,stack35.jpg,low,NULL
1687287475,e5eb024c900d0aebe58d7aae1e830756,PennController,10,0,experiment,NULL,Video,progression,buffer,0.004619,1687287294442,6321d720056f6ee4563a7fd9,6321d720056f6ee4563a7fd9,7,stack,critical,A,25,stack15.jpg,stack35.jpg,low,NULL
1687287475,e5eb024c900d0aebe58d7aae1e830756,PennController,10,0,experiment,NULL,Selector,choice,Selection,option1,1687287298230,6321d720056f6ee4563a7fd9,6321d720056f6ee4563a7fd9,7,stack,critical,A,25,stack15.jpg,stack35.jpg,low,option2;option1
1687287475,e5eb024c900d0aebe58d7aae1e830756,PennController,10,0,experiment,NULL,PennController,9,_Trial_,End,1687287298231,6321d720056f6ee4563a7fd9,6321d720056f6ee4563a7fd9,7,stack,critical,A,25,stack15.jpg,stack35.jpg,low,NULL
1687287475,e5eb024c900d0aebe58d7aae1e830756,PennController,25,0,experiment,NULL,PennController,24,_Trial_,Start,1687287298232,6321d720056f6ee4563a7fd9,6321d720056f6ee4563a7fd9,22,wall,filler,A,25,wall15.jpg,wall35.jpg,GoalB,NULL
1687287475,e5eb024c900d0aebe58d7aae1e830756,PennController,25,0,experiment,NULL,PennController,24,_Header_,Start,1687287298232,6321d720056f6ee4563a7fd9,6321d720056f6ee4563a7fd9,22,wall,filler,A,25,wall15.jpg,wall35.jpg,GoalB,NULL
1687287475,e5eb024c900d0aebe58d7aae1e830756,PennController,25,0,experiment,NULL,PennController,24,_Header_,End,1687287298232,6321d720056f6ee4563a7fd9,6321d720056f6ee4563a7fd9,22,wall,filler,A,25,wall15.jpg,wall35.jpg,GoalB,NULL
1687287475,e5eb024c900d0aebe58d7aae1e830756,PennController,25,0,experiment,NULL,Canvas,canvas6,Print,NA,1687287303947,6321d720056f6ee4563a7fd9,6321d720056f6ee4563a7fd9,22,wall,filler,A,25,wall15.jpg,wall35.jpg,GoalB,NULL
1687287475,e5eb024c900d0aebe58d7aae1e830756,PennController,25,0,experiment,NULL,Video,progression,buffer,0.002392,1687287301759,6321d720056f6ee4563a7fd9,6321d720056f6ee4563a7fd9,22,wall,filler,A,25,wall15.jpg,wall35.jpg,GoalB,NULL
1687287475,e5eb024c900d0aebe58d7aae1e830756,PennController,25,0,experiment,NULL,Selector,choice,Selection,option2,1687287305097,6321d720056f6ee4563a7fd9,6321d720056f6ee4563a7fd9,22,wall,filler,A,25,wall15.jpg,wall35.jpg,GoalB,option1;option2
1687287475,e5eb024c900d0aebe58d7aae1e830756,PennController,25,0,experiment,NULL,PennController,24,_Trial_,End,1687287305099,6321d720056f6ee4563a7fd9,6321d720056f6ee4563a7fd9,22,wall,filler,A,25,wall15.jpg,wall35.jpg,GoalB,NULL
1687287475,e5eb024c900d0aebe58d7aae1e830756,PennController,4,0,experiment,NULL,PennController,3,_Trial_,Start,1687287305100,6321d720056f6ee4563a7fd9,6321d720056f6ee4563a7fd9,1,vase,critical,A,25,vase15.jpg,vase35.jpg,low,NULL
1687287475,e5eb024c900d0aebe58d7aae1e830756,PennController,4,0,experiment,NULL,PennController,3,_Header_,Start,1687287305100,6321d720056f6ee4563a7fd9,6321d720056f6ee4563a7fd9,1,vase,critical,A,25,vase15.jpg,vase35.jpg,low,NULL
1687287475,e5eb024c900d0aebe58d7aae1e830756,PennController,4,0,experiment,NULL,PennController,3,_Header_,End,1687287305100,6321d720056f6ee4563a7fd9,6321d720056f6ee4563a7fd9,1,vase,critical,A,25,vase15.jpg,vase35.jpg,low,NULL
1687287475,e5eb024c900d0aebe58d7aae1e830756,PennController,4,0,experiment,NULL,Canvas,canvas6,Print,NA,1687287310821,6321d720056f6ee4563a7fd9,6321d720056f6ee4563a7fd9,1,vase,critical,A,25,vase15.jpg,vase35.jpg,low,NULL
1687287475,e5eb024c900d0aebe58d7aae1e830756,PennController,4,0,experiment,NULL,Video,progression,buffer,0.003141,1687287308629,6321d720056f6ee4563a7fd9,6321d720056f6ee4563a7fd9,1,vase,critical,A,25,vase15.jpg,vase35.jpg,low,NULL
1687287475,e5eb024c900d0aebe58d7aae1e830756,PennController,4,0,experiment,NULL,Selector,choice,Selection,option2,1687287312021,6321d720056f6ee4563a7fd9,6321d720056f6ee4563a7fd9,1,vase,critical,A,25,vase15.jpg,vase35.jpg,low,option1;option2
1687287475,e5eb024c900d0aebe58d7aae1e830756,PennController,4,0,experiment,NULL,PennController,3,_Trial_,End,1687287312023,6321d720056f6ee4563a7fd9,6321d720056f6ee4563a7fd9,1,vase,critical,A,25,vase15.jpg,vase35.jpg,low,NULL
1687287475,e5eb024c900d0aebe58d7aae1e830756,PennController,9,0,experiment,NULL,PennController,8,_Trial_,Start,1687287312025,6321d720056f6ee4563a7fd9,6321d720056f6ee4563a7fd9,6,flower,critical,A,75,flower65.jpg,flower85.jpg,low,NULL
1687287475,e5eb024c900d0aebe58d7aae1e830756,PennController,9,0,experiment,NULL,PennController,8,_Header_,Start,1687287312025,6321d720056f6ee4563a7fd9,6321d720056f6ee4563a7fd9,6,flower,critical,A,75,flower65.jpg,flower85.jpg,low,NULL
1687287475,e5eb024c900d0aebe58d7aae1e830756,PennController,9,0,experiment,NULL,PennController,8,_Header_,End,1687287312025,6321d720056f6ee4563a7fd9,6321d720056f6ee4563a7fd9,6,flower,critical,A,75,flower65.jpg,flower85.jpg,low,NULL
1687287475,e5eb024c900d0aebe58d7aae1e830756,PennController,9,0,experiment,NULL,Canvas,canvas6,Print,NA,1687287319757,6321d720056f6ee4563a7fd9,6321d720056f6ee4563a7fd9,6,flower,critical,A,75,flower65.jpg,flower85.jpg,low,NULL
1687287475,e5eb024c900d0aebe58d7aae1e830756,PennController,9,0,experiment,NULL,Video,progression,buffer,0.004253,1687287315563,6321d720056f6ee4563a7fd9,6321d720056f6ee4563a7fd9,6,flower,critical,A,75,flower65.jpg,flower85.jpg,low,NULL
1687287475,e5eb024c900d0aebe58d7aae1e830756,PennController,9,0,experiment,NULL,Selector,choice,Selection,option2,1687287320703,6321d720056f6ee4563a7fd9,6321d720056f6ee4563a7fd9,6,flower,critical,A,75,flower65.jpg,flower85.jpg,low,option1;option2
1687287475,e5eb024c900d0aebe58d7aae1e830756,PennController,9,0,experiment,NULL,PennController,8,_Trial_,End,1687287320705,6321d720056f6ee4563a7fd9,6321d720056f6ee4563a7fd9,6,flower,critical,A,75,flower65.jpg,flower85.jpg,low,NULL
1687287475,e5eb024c900d0aebe58d7aae1e830756,PennController,28,0,experiment,NULL,PennController,27,_Trial_,Start,1687287320706,6321d720056f6ee4563a7fd9,6321d720056f6ee4563a7fd9,25,house,filler,A,25,house15.jpg,house35.jpg,GoalA,NULL
1687287475,e5eb024c900d0aebe58d7aae1e830756,PennController,28,0,experiment,NULL,PennController,27,_Header_,Start,1687287320706,6321d720056f6ee4563a7fd9,6321d720056f6ee4563a7fd9,25,house,filler,A,25,house15.jpg,house35.jpg,GoalA,NULL
1687287475,e5eb024c900d0aebe58d7aae1e830756,PennController,28,0,experiment,NULL,PennController,27,_Header_,End,1687287320706,6321d720056f6ee4563a7fd9,6321d720056f6ee4563a7fd9,25,house,filler,A,25,house15.jpg,house35.jpg,GoalA,NULL
1687287475,e5eb024c900d0aebe58d7aae1e830756,PennController,28,0,experiment,NULL,Canvas,canvas6,Print,NA,1687287326444,6321d720056f6ee4563a7fd9,6321d720056f6ee4563a7fd9,25,house,filler,A,25,house15.jpg,house35.jpg,GoalA,NULL
1687287475,e5eb024c900d0aebe58d7aae1e830756,PennController,28,0,experiment,NULL,Video,progression,buffer,0.003613,1687287324261,6321d720056f6ee4563a7fd9,6321d720056f6ee4563a7fd9,25,house,filler,A,25,house15.jpg,house35.jpg,GoalA,NULL
1687287475,e5eb024c900d0aebe58d7aae1e830756,PennController,28,0,experiment,NULL,Selector,choice,Selection,option2,1687287327712,6321d720056f6ee4563a7fd9,6321d720056f6ee4563a7fd9,25,house,filler,A,25,house15.jpg,house35.jpg,GoalA,option1;option2
1687287475,e5eb024c900d0aebe58d7aae1e830756,PennController,28,0,experiment,NULL,PennController,27,_Trial_,End,1687287327714,6321d720056f6ee4563a7fd9,6321d720056f6ee4563a7fd9,25,house,filler,A,25,house15.jpg,house35.jpg,GoalA,NULL
1687287475,e5eb024c900d0aebe58d7aae1e830756,PennController,19,0,experiment,NULL,PennController,18,_Trial_,Start,1687287327716,6321d720056f6ee4563a7fd9,6321d720056f6ee4563a7fd9,16,blinds,critical,A,25,blinds15.jpg,blinds33.jpg,low,NULL
1687287475,e5eb024c900d0aebe58d7aae1e830756,PennController,19,0,experiment,NULL,PennController,18,_Header_,Start,1687287327716,6321d720056f6ee4563a7fd9,6321d720056f6ee4563a7fd9,16,blinds,critical,A,25,blinds15.jpg,blinds33.jpg,low,NULL
1687287475,e5eb024c900d0aebe58d7aae1e830756,PennController,19,0,experiment,NULL,PennController,18,_Header_,End,1687287327716,6321d720056f6ee4563a7fd9,6321d720056f6ee4563a7fd9,16,blinds,critical,A,25,blinds15.jpg,blinds33.jpg,low,NULL
1687287475,e5eb024c900d0aebe58d7aae1e830756,PennController,19,0,experiment,NULL,Canvas,canvas6,Print,NA,1687287334034,6321d720056f6ee4563a7fd9,6321d720056f6ee4563a7fd9,16,blinds,critical,A,25,blinds15.jpg,blinds33.jpg,low,NULL
1687287475,e5eb024c900d0aebe58d7aae1e830756,PennController,19,0,experiment,NULL,Video,progression,buffer,0.004058,1687287331255,6321d720056f6ee4563a7fd9,6321d720056f6ee4563a7fd9,16,blinds,critical,A,25,blinds15.jpg,blinds33.jpg,low,NULL
1687287475,e5eb024c900d0aebe58d7aae1e830756,PennController,19,0,experiment,NULL,Selector,choice,Selection,option2,1687287339000,6321d720056f6ee4563a7fd9,6321d720056f6ee4563a7fd9,16,blinds,critical,A,25,blinds15.jpg,blinds33.jpg,low,option1;option2
1687287475,e5eb024c900d0aebe58d7aae1e830756,PennController,19,0,experiment,NULL,PennController,18,_Trial_,End,1687287339002,6321d720056f6ee4563a7fd9,6321d720056f6ee4563a7fd9,16,blinds,critical,A,25,blinds15.jpg,blinds33.jpg,low,NULL
1687287475,e5eb024c900d0aebe58d7aae1e830756,PennController,13,0,experiment,NULL,PennController,12,_Trial_,Start,1687287339003,6321d720056f6ee4563a7fd9,6321d720056f6ee4563a7fd9,10,train,critical,A,25,train15.jpg,train35.jpg,low,NULL
1687287475,e5eb024c900d0aebe58d7aae1e830756,PennController,13,0,experiment,NULL,PennController,12,_Header_,Start,1687287339003,6321d720056f6ee4563a7fd9,6321d720056f6ee4563a7fd9,10,train,critical,A,25,train15.jpg,train35.jpg,low,NULL
1687287475,e5eb024c900d0aebe58d7aae1e830756,PennController,13,0,experiment,NULL,PennController,12,_Header_,End,1687287339003,6321d720056f6ee4563a7fd9,6321d720056f6ee4563a7fd9,10,train,critical,A,25,train15.jpg,train35.jpg,low,NULL
1687287475,e5eb024c900d0aebe58d7aae1e830756,PennController,13,0,experiment,NULL,Canvas,canvas6,Print,NA,1687287344726,6321d720056f6ee4563a7fd9,6321d720056f6ee4563a7fd9,10,train,critical,A,25,train15.jpg,train35.jpg,low,NULL
1687287475,e5eb024c900d0aebe58d7aae1e830756,PennController,13,0,experiment,NULL,Video,progression,buffer,0.004775,1687287342542,6321d720056f6ee4563a7fd9,6321d720056f6ee4563a7fd9,10,train,critical,A,25,train15.jpg,train35.jpg,low,NULL
1687287475,e5eb024c900d0aebe58d7aae1e830756,PennController,13,0,experiment,NULL,Selector,choice,Selection,option2,1687287345680,6321d720056f6ee4563a7fd9,6321d720056f6ee4563a7fd9,10,train,critical,A,25,train15.jpg,train35.jpg,low,option1;option2
1687287475,e5eb024c900d0aebe58d7aae1e830756,PennController,13,0,experiment,NULL,PennController,12,_Trial_,End,1687287345682,6321d720056f6ee4563a7fd9,6321d720056f6ee4563a7fd9,10,train,critical,A,25,train15.jpg,train35.jpg,low,NULL
1687287475,e5eb024c900d0aebe58d7aae1e830756,PennController,5,0,experiment,NULL,PennController,4,_Trial_,Start,1687287345685,6321d720056f6ee4563a7fd9,6321d720056f6ee4563a7fd9,2,door,critical,A,50,door40.jpg,door60.jpg,low,NULL
1687287475,e5eb024c900d0aebe58d7aae1e830756,PennController,5,0,experiment,NULL,PennController,4,_Header_,Start,1687287345685,6321d720056f6ee4563a7fd9,6321d720056f6ee4563a7fd9,2,door,critical,A,50,door40.jpg,door60.jpg,low,NULL
1687287475,e5eb024c900d0aebe58d7aae1e830756,PennController,5,0,experiment,NULL,PennController,4,_Header_,End,1687287345685,6321d720056f6ee4563a7fd9,6321d720056f6ee4563a7fd9,2,door,critical,A,50,door40.jpg,door60.jpg,low,NULL
1687287475,e5eb024c900d0aebe58d7aae1e830756,PennController,5,0,experiment,NULL,Canvas,canvas6,Print,NA,1687287352410,6321d720056f6ee4563a7fd9,6321d720056f6ee4563a7fd9,2,door,critical,A,50,door40.jpg,door60.jpg,low,NULL
1687287475,e5eb024c900d0aebe58d7aae1e830756,PennController,5,0,experiment,NULL,Video,progression,buffer,0.005061,1687287349230,6321d720056f6ee4563a7fd9,6321d720056f6ee4563a7fd9,2,door,critical,A,50,door40.jpg,door60.jpg,low,NULL
1687287475,e5eb024c900d0aebe58d7aae1e830756,PennController,5,0,experiment,NULL,Selector,choice,Selection,option2,1687287353698,6321d720056f6ee4563a7fd9,6321d720056f6ee4563a7fd9,2,door,critical,A,50,door40.jpg,door60.jpg,low,option2;option1
1687287475,e5eb024c900d0aebe58d7aae1e830756,PennController,5,0,experiment,NULL,PennController,4,_Trial_,End,1687287353699,6321d720056f6ee4563a7fd9,6321d720056f6ee4563a7fd9,2,door,critical,A,50,door40.jpg,door60.jpg,low,NULL
1687287475,e5eb024c900d0aebe58d7aae1e830756,PennController,24,0,experiment,NULL,PennController,23,_Trial_,Start,1687287353701,6321d720056f6ee4563a7fd9,6321d720056f6ee4563a7fd9,21,visit,filler,A,75,visit65.jpg,visit85.jpg,GoalA,NULL
1687287475,e5eb024c900d0aebe58d7aae1e830756,PennController,24,0,experiment,NULL,PennController,23,_Header_,Start,1687287353701,6321d720056f6ee4563a7fd9,6321d720056f6ee4563a7fd9,21,visit,filler,A,75,visit65.jpg,visit85.jpg,GoalA,NULL
1687287475,e5eb024c900d0aebe58d7aae1e830756,PennController,24,0,experiment,NULL,PennController,23,_Header_,End,1687287353701,6321d720056f6ee4563a7fd9,6321d720056f6ee4563a7fd9,21,visit,filler,A,75,visit65.jpg,visit85.jpg,GoalA,NULL
1687287475,e5eb024c900d0aebe58d7aae1e830756,PennController,24,0,experiment,NULL,Canvas,canvas6,Print,NA,1687287361401,6321d720056f6ee4563a7fd9,6321d720056f6ee4563a7fd9,21,visit,filler,A,75,visit65.jpg,visit85.jpg,GoalA,NULL
1687287475,e5eb024c900d0aebe58d7aae1e830756,PennController,24,0,experiment,NULL,Video,progression,buffer,0.004471,1687287357232,6321d720056f6ee4563a7fd9,6321d720056f6ee4563a7fd9,21,visit,filler,A,75,visit65.jpg,visit85.jpg,GoalA,NULL
1687287475,e5eb024c900d0aebe58d7aae1e830756,PennController,24,0,experiment,NULL,Selector,choice,Selection,option2,1687287363404,6321d720056f6ee4563a7fd9,6321d720056f6ee4563a7fd9,21,visit,filler,A,75,visit65.jpg,visit85.jpg,GoalA,option1;option2
1687287475,e5eb024c900d0aebe58d7aae1e830756,PennController,24,0,experiment,NULL,PennController,23,_Trial_,End,1687287363406,6321d720056f6ee4563a7fd9,6321d720056f6ee4563a7fd9,21,visit,filler,A,75,visit65.jpg,visit85.jpg,GoalA,NULL
1687287475,e5eb024c900d0aebe58d7aae1e830756,PennController,27,0,experiment,NULL,PennController,26,_Trial_,Start,1687287363407,6321d720056f6ee4563a7fd9,6321d720056f6ee4563a7fd9,24,match,filler,A,75,match65.jpg,match85.jpg,GoalB,NULL
1687287475,e5eb024c900d0aebe58d7aae1e830756,PennController,27,0,experiment,NULL,PennController,26,_Header_,Start,1687287363407,6321d720056f6ee4563a7fd9,6321d720056f6ee4563a7fd9,24,match,filler,A,75,match65.jpg,match85.jpg,GoalB,NULL
1687287475,e5eb024c900d0aebe58d7aae1e830756,PennController,27,0,experiment,NULL,PennController,26,_Header_,End,1687287363407,6321d720056f6ee4563a7fd9,6321d720056f6ee4563a7fd9,24,match,filler,A,75,match65.jpg,match85.jpg,GoalB,NULL
1687287475,e5eb024c900d0aebe58d7aae1e830756,PennController,27,0,experiment,NULL,Canvas,canvas6,Print,NA,1687287371120,6321d720056f6ee4563a7fd9,6321d720056f6ee4563a7fd9,24,match,filler,A,75,match65.jpg,match85.jpg,GoalB,NULL
1687287475,e5eb024c900d0aebe58d7aae1e830756,PennController,27,0,experiment,NULL,Video,progression,buffer,0.006371,1687287366951,6321d720056f6ee4563a7fd9,6321d720056f6ee4563a7fd9,24,match,filler,A,75,match65.jpg,match85.jpg,GoalB,NULL
1687287475,e5eb024c900d0aebe58d7aae1e830756,PennController,27,0,experiment,NULL,Selector,choice,Selection,option2,1687287372349,6321d720056f6ee4563a7fd9,6321d720056f6ee4563a7fd9,24,match,filler,A,75,match65.jpg,match85.jpg,GoalB,option1;option2
1687287475,e5eb024c900d0aebe58d7aae1e830756,PennController,27,0,experiment,NULL,PennController,26,_Trial_,End,1687287372350,6321d720056f6ee4563a7fd9,6321d720056f6ee4563a7fd9,24,match,filler,A,75,match65.jpg,match85.jpg,GoalB,NULL
1687287475,e5eb024c900d0aebe58d7aae1e830756,PennController,30,0,experiment,NULL,PennController,29,_Trial_,Start,1687287372352,6321d720056f6ee4563a7fd9,6321d720056f6ee4563a7fd9,27,square,filler,A,75,square65.jpg,square85.jpg,GoalA,NULL
1687287475,e5eb024c900d0aebe58d7aae1e830756,PennController,30,0,experiment,NULL,PennController,29,_Header_,Start,1687287372352,6321d720056f6ee4563a7fd9,6321d720056f6ee4563a7fd9,27,square,filler,A,75,square65.jpg,square85.jpg,GoalA,NULL
1687287475,e5eb024c900d0aebe58d7aae1e830756,PennController,30,0,experiment,NULL,PennController,29,_Header_,End,1687287372352,6321d720056f6ee4563a7fd9,6321d720056f6ee4563a7fd9,27,square,filler,A,75,square65.jpg,square85.jpg,GoalA,NULL
1687287475,e5eb024c900d0aebe58d7aae1e830756,PennController,30,0,experiment,NULL,Canvas,canvas6,Print,NA,1687287380058,6321d720056f6ee4563a7fd9,6321d720056f6ee4563a7fd9,27,square,filler,A,75,square65.jpg,square85.jpg,GoalA,NULL
1687287475,e5eb024c900d0aebe58d7aae1e830756,PennController,30,0,experiment,NULL,Video,progression,buffer,0.004314,1687287375889,6321d720056f6ee4563a7fd9,6321d720056f6ee4563a7fd9,27,square,filler,A,75,square65.jpg,square85.jpg,GoalA,NULL
1687287475,e5eb024c900d0aebe58d7aae1e830756,PennController,30,0,experiment,NULL,Selector,choice,Selection,option1,1687287382006,6321d720056f6ee4563a7fd9,6321d720056f6ee4563a7fd9,27,square,filler,A,75,square65.jpg,square85.jpg,GoalA,option2;option1
1687287475,e5eb024c900d0aebe58d7aae1e830756,PennController,30,0,experiment,NULL,PennController,29,_Trial_,End,1687287382007,6321d720056f6ee4563a7fd9,6321d720056f6ee4563a7fd9,27,square,filler,A,75,square65.jpg,square85.jpg,GoalA,NULL
1687287475,e5eb024c900d0aebe58d7aae1e830756,PennController,26,0,experiment,NULL,PennController,25,_Trial_,Start,1687287382009,6321d720056f6ee4563a7fd9,6321d720056f6ee4563a7fd9,23,color,filler,A,50,color40.jpg,color60.jpg,GoalA,NULL
1687287475,e5eb024c900d0aebe58d7aae1e830756,PennController,26,0,experiment,NULL,PennController,25,_Header_,Start,1687287382009,6321d720056f6ee4563a7fd9,6321d720056f6ee4563a7fd9,23,color,filler,A,50,color40.jpg,color60.jpg,GoalA,NULL
1687287475,e5eb024c900d0aebe58d7aae1e830756,PennController,26,0,experiment,NULL,PennController,25,_Header_,End,1687287382009,6321d720056f6ee4563a7fd9,6321d720056f6ee4563a7fd9,23,color,filler,A,50,color40.jpg,color60.jpg,GoalA,NULL
1687287475,e5eb024c900d0aebe58d7aae1e830756,PennController,26,0,experiment,NULL,Canvas,canvas6,Print,NA,1687287388720,6321d720056f6ee4563a7fd9,6321d720056f6ee4563a7fd9,23,color,filler,A,50,color40.jpg,color60.jpg,GoalA,NULL
1687287475,e5eb024c900d0aebe58d7aae1e830756,PennController,26,0,experiment,NULL,Video,progression,buffer,0.003481,1687287385548,6321d720056f6ee4563a7fd9,6321d720056f6ee4563a7fd9,23,color,filler,A,50,color40.jpg,color60.jpg,GoalA,NULL
1687287475,e5eb024c900d0aebe58d7aae1e830756,PennController,26,0,experiment,NULL,Selector,choice,Selection,option1,1687287389369,6321d720056f6ee4563a7fd9,6321d720056f6ee4563a7fd9,23,color,filler,A,50,color40.jpg,color60.jpg,GoalA,option2;option1
1687287475,e5eb024c900d0aebe58d7aae1e830756,PennController,26,0,experiment,NULL,PennController,25,_Trial_,End,1687287389371,6321d720056f6ee4563a7fd9,6321d720056f6ee4563a7fd9,23,color,filler,A,50,color40.jpg,color60.jpg,GoalA,NULL
1687287475,e5eb024c900d0aebe58d7aae1e830756,PennController,6,0,experiment,NULL,PennController,5,_Trial_,Start,1687287389372,6321d720056f6ee4563a7fd9,6321d720056f6ee4563a7fd9,3,clean,critical,A,75,clean65.jpg,clean85.jpg,low,NULL
1687287475,e5eb024c900d0aebe58d7aae1e830756,PennController,6,0,experiment,NULL,PennController,5,_Header_,Start,1687287389372,6321d720056f6ee4563a7fd9,6321d720056f6ee4563a7fd9,3,clean,critical,A,75,clean65.jpg,clean85.jpg,low,NULL
1687287475,e5eb024c900d0aebe58d7aae1e830756,PennController,6,0,experiment,NULL,PennController,5,_Header_,End,1687287389372,6321d720056f6ee4563a7fd9,6321d720056f6ee4563a7fd9,3,clean,critical,A,75,clean65.jpg,clean85.jpg,low,NULL
1687287475,e5eb024c900d0aebe58d7aae1e830756,PennController,6,0,experiment,NULL,Canvas,canvas6,Print,NA,1687287397107,6321d720056f6ee4563a7fd9,6321d720056f6ee4563a7fd9,3,clean,critical,A,75,clean65.jpg,clean85.jpg,low,NULL
1687287475,e5eb024c900d0aebe58d7aae1e830756,PennController,6,0,experiment,NULL,Video,progression,buffer,0.005851,1687287392911,6321d720056f6ee4563a7fd9,6321d720056f6ee4563a7fd9,3,clean,critical,A,75,clean65.jpg,clean85.jpg,low,NULL
1687287475,e5eb024c900d0aebe58d7aae1e830756,PennController,6,0,experiment,NULL,Selector,choice,Selection,option1,1687287399566,6321d720056f6ee4563a7fd9,6321d720056f6ee4563a7fd9,3,clean,critical,A,75,clean65.jpg,clean85.jpg,low,option1;option2
1687287475,e5eb024c900d0aebe58d7aae1e830756,PennController,6,0,experiment,NULL,PennController,5,_Trial_,End,1687287399567,6321d720056f6ee4563a7fd9,6321d720056f6ee4563a7fd9,3,clean,critical,A,75,clean65.jpg,clean85.jpg,low,NULL
1687287475,e5eb024c900d0aebe58d7aae1e830756,PennController,31,0,experiment,NULL,PennController,30,_Trial_,Start,1687287399569,6321d720056f6ee4563a7fd9,6321d720056f6ee4563a7fd9,28,sort,filler,A,25,sort15.jpg,sort35.jpg,GoalB,NULL
1687287475,e5eb024c900d0aebe58d7aae1e830756,PennController,31,0,experiment,NULL,PennController,30,_Header_,Start,1687287399569,6321d720056f6ee4563a7fd9,6321d720056f6ee4563a7fd9,28,sort,filler,A,25,sort15.jpg,sort35.jpg,GoalB,NULL
1687287475,e5eb024c900d0aebe58d7aae1e830756,PennController,31,0,experiment,NULL,PennController,30,_Header_,End,1687287399569,6321d720056f6ee4563a7fd9,6321d720056f6ee4563a7fd9,28,sort,filler,A,25,sort15.jpg,sort35.jpg,GoalB,NULL
1687287475,e5eb024c900d0aebe58d7aae1e830756,PennController,31,0,experiment,NULL,Canvas,canvas6,Print,NA,1687287405288,6321d720056f6ee4563a7fd9,6321d720056f6ee4563a7fd9,28,sort,filler,A,25,sort15.jpg,sort35.jpg,GoalB,NULL
1687287475,e5eb024c900d0aebe58d7aae1e830756,PennController,31,0,experiment,NULL,Video,progression,buffer,0.002312,1687287403112,6321d720056f6ee4563a7fd9,6321d720056f6ee4563a7fd9,28,sort,filler,A,25,sort15.jpg,sort35.jpg,GoalB,NULL
1687287475,e5eb024c900d0aebe58d7aae1e830756,PennController,31,0,experiment,NULL,Selector,choice,Selection,option1,1687287425114,6321d720056f6ee4563a7fd9,6321d720056f6ee4563a7fd9,28,sort,filler,A,25,sort15.jpg,sort35.jpg,GoalB,option2;option1
1687287475,e5eb024c900d0aebe58d7aae1e830756,PennController,31,0,experiment,NULL,PennController,30,_Trial_,End,1687287425115,6321d720056f6ee4563a7fd9,6321d720056f6ee4563a7fd9,28,sort,filler,A,25,sort15.jpg,sort35.jpg,GoalB,NULL
1687287475,e5eb024c900d0aebe58d7aae1e830756,PennController,11,0,experiment,NULL,PennController,10,_Trial_,Start,1687287425116,6321d720056f6ee4563a7fd9,6321d720056f6ee4563a7fd9,8,cucumber,critical,A,50,cucumber42.jpg,cucumber60.jpg,low,NULL
1687287475,e5eb024c900d0aebe58d7aae1e830756,PennController,11,0,experiment,NULL,PennController,10,_Header_,Start,1687287425116,6321d720056f6ee4563a7fd9,6321d720056f6ee4563a7fd9,8,cucumber,critical,A,50,cucumber42.jpg,cucumber60.jpg,low,NULL
1687287475,e5eb024c900d0aebe58d7aae1e830756,PennController,11,0,experiment,NULL,PennController,10,_Header_,End,1687287425116,6321d720056f6ee4563a7fd9,6321d720056f6ee4563a7fd9,8,cucumber,critical,A,50,cucumber42.jpg,cucumber60.jpg,low,NULL
1687287475,e5eb024c900d0aebe58d7aae1e830756,PennController,11,0,experiment,NULL,Canvas,canvas6,Print,NA,1687287433223,6321d720056f6ee4563a7fd9,6321d720056f6ee4563a7fd9,8,cucumber,critical,A,50,cucumber42.jpg,cucumber60.jpg,low,NULL
1687287475,e5eb024c900d0aebe58d7aae1e830756,PennController,11,0,experiment,NULL,Video,progression,buffer,0.004723,1687287428647,6321d720056f6ee4563a7fd9,6321d720056f6ee4563a7fd9,8,cucumber,critical,A,50,cucumber42.jpg,cucumber60.jpg,low,NULL
1687287475,e5eb024c900d0aebe58d7aae1e830756,PennController,11,0,experiment,NULL,Selector,choice,Selection,option2,1687287435305,6321d720056f6ee4563a7fd9,6321d720056f6ee4563a7fd9,8,cucumber,critical,A,50,cucumber42.jpg,cucumber60.jpg,low,option1;option2
1687287475,e5eb024c900d0aebe58d7aae1e830756,PennController,11,0,experiment,NULL,PennController,10,_Trial_,End,1687287435307,6321d720056f6ee4563a7fd9,6321d720056f6ee4563a7fd9,8,cucumber,critical,A,50,cucumber42.jpg,cucumber60.jpg,low,NULL
1687287475,e5eb024c900d0aebe58d7aae1e830756,PennController,16,0,experiment,NULL,PennController,15,_Trial_,Start,1687287435309,6321d720056f6ee4563a7fd9,6321d720056f6ee4563a7fd9,13,mix,critical,A,25,mix15.jpg,mix35.jpg,low,NULL
1687287475,e5eb024c900d0aebe58d7aae1e830756,PennController,16,0,experiment,NULL,PennController,15,_Header_,Start,1687287435309,6321d720056f6ee4563a7fd9,6321d720056f6ee4563a7fd9,13,mix,critical,A,25,mix15.jpg,mix35.jpg,low,NULL
1687287475,e5eb024c900d0aebe58d7aae1e830756,PennController,16,0,experiment,NULL,PennController,15,_Header_,End,1687287435309,6321d720056f6ee4563a7fd9,6321d720056f6ee4563a7fd9,13,mix,critical,A,25,mix15.jpg,mix35.jpg,low,NULL
1687287475,e5eb024c900d0aebe58d7aae1e830756,PennController,16,0,experiment,NULL,Canvas,canvas6,Print,NA,1687287441022,6321d720056f6ee4563a7fd9,6321d720056f6ee4563a7fd9,13,mix,critical,A,25,mix15.jpg,mix35.jpg,low,NULL
1687287475,e5eb024c900d0aebe58d7aae1e830756,PennController,16,0,experiment,NULL,Video,progression,buffer,0.004106,1687287438845,6321d720056f6ee4563a7fd9,6321d720056f6ee4563a7fd9,13,mix,critical,A,25,mix15.jpg,mix35.jpg,low,NULL
1687287475,e5eb024c900d0aebe58d7aae1e830756,PennController,16,0,experiment,NULL,Selector,choice,Selection,option2,1687287447523,6321d720056f6ee4563a7fd9,6321d720056f6ee4563a7fd9,13,mix,critical,A,25,mix15.jpg,mix35.jpg,low,option1;option2
1687287475,e5eb024c900d0aebe58d7aae1e830756,PennController,16,0,experiment,NULL,PennController,15,_Trial_,End,1687287447524,6321d720056f6ee4563a7fd9,6321d720056f6ee4563a7fd9,13,mix,critical,A,25,mix15.jpg,mix35.jpg,low,NULL
1687287475,e5eb024c900d0aebe58d7aae1e830756,PennController,8,0,experiment,NULL,PennController,7,_Trial_,Start,1687287447526,6321d720056f6ee4563a7fd9,6321d720056f6ee4563a7fd9,5,book,critical,A,50,book40.jpg,book60.jpg,low,NULL
1687287475,e5eb024c900d0aebe58d7aae1e830756,PennController,8,0,experiment,NULL,PennController,7,_Header_,Start,1687287447526,6321d720056f6ee4563a7fd9,6321d720056f6ee4563a7fd9,5,book,critical,A,50,book40.jpg,book60.jpg,low,NULL
1687287475,e5eb024c900d0aebe58d7aae1e830756,PennController,8,0,experiment,NULL,PennController,7,_Header_,End,1687287447526,6321d720056f6ee4563a7fd9,6321d720056f6ee4563a7fd9,5,book,critical,A,50,book40.jpg,book60.jpg,low,NULL
1687287475,e5eb024c900d0aebe58d7aae1e830756,PennController,8,0,experiment,NULL,Canvas,canvas6,Print,NA,1687287454256,6321d720056f6ee4563a7fd9,6321d720056f6ee4563a7fd9,5,book,critical,A,50,book40.jpg,book60.jpg,low,NULL
1687287475,e5eb024c900d0aebe58d7aae1e830756,PennController,8,0,experiment,NULL,Video,progression,buffer,0.005382,1687287451063,6321d720056f6ee4563a7fd9,6321d720056f6ee4563a7fd9,5,book,critical,A,50,book40.jpg,book60.jpg,low,NULL
1687287475,e5eb024c900d0aebe58d7aae1e830756,PennController,8,0,experiment,NULL,Selector,choice,Selection,option2,1687287456528,6321d720056f6ee4563a7fd9,6321d720056f6ee4563a7fd9,5,book,critical,A,50,book40.jpg,book60.jpg,low,option1;option2
1687287475,e5eb024c900d0aebe58d7aae1e830756,PennController,8,0,experiment,NULL,PennController,7,_Trial_,End,1687287456529,6321d720056f6ee4563a7fd9,6321d720056f6ee4563a7fd9,5,book,critical,A,50,book40.jpg,book60.jpg,low,NULL
1687287475,e5eb024c900d0aebe58d7aae1e830756,PennController,23,0,experiment,NULL,PennController,22,_Trial_,Start,1687287456531,6321d720056f6ee4563a7fd9,6321d720056f6ee4563a7fd9,20,cat,filler,A,50,cat40.jpg,cat60.jpg,GoalB,NULL
1687287475,e5eb024c900d0aebe58d7aae1e830756,PennController,23,0,experiment,NULL,PennController,22,_Header_,Start,1687287456531,6321d720056f6ee4563a7fd9,6321d720056f6ee4563a7fd9,20,cat,filler,A,50,cat40.jpg,cat60.jpg,GoalB,NULL
1687287475,e5eb024c900d0aebe58d7aae1e830756,PennController,23,0,experiment,NULL,PennController,22,_Header_,End,1687287456531,6321d720056f6ee4563a7fd9,6321d720056f6ee4563a7fd9,20,cat,filler,A,50,cat40.jpg,cat60.jpg,GoalB,NULL
1687287475,e5eb024c900d0aebe58d7aae1e830756,PennController,23,0,experiment,NULL,Canvas,canvas6,Print,NA,1687287463232,6321d720056f6ee4563a7fd9,6321d720056f6ee4563a7fd9,20,cat,filler,A,50,cat40.jpg,cat60.jpg,GoalB,NULL
1687287475,e5eb024c900d0aebe58d7aae1e830756,PennController,23,0,experiment,NULL,Video,progression,buffer,0.00473,1687287460063,6321d720056f6ee4563a7fd9,6321d720056f6ee4563a7fd9,20,cat,filler,A,50,cat40.jpg,cat60.jpg,GoalB,NULL
1687287475,e5eb024c900d0aebe58d7aae1e830756,PennController,23,0,experiment,NULL,Selector,choice,Selection,option2,1687287464226,6321d720056f6ee4563a7fd9,6321d720056f6ee4563a7fd9,20,cat,filler,A,50,cat40.jpg,cat60.jpg,GoalB,option1;option2
1687287475,e5eb024c900d0aebe58d7aae1e830756,PennController,23,0,experiment,NULL,PennController,22,_Trial_,End,1687287464228,6321d720056f6ee4563a7fd9,6321d720056f6ee4563a7fd9,20,cat,filler,A,50,cat40.jpg,cat60.jpg,GoalB,NULL
1687287475,e5eb024c900d0aebe58d7aae1e830756,PennController,20,0,experiment,NULL,PennController,19,_Trial_,Start,1687287464229,6321d720056f6ee4563a7fd9,6321d720056f6ee4563a7fd9,17,roll,critical,A,50,roll40.jpg,roll60.jpg,low,NULL
1687287475,e5eb024c900d0aebe58d7aae1e830756,PennController,20,0,experiment,NULL,PennController,19,_Header_,Start,1687287464229,6321d720056f6ee4563a7fd9,6321d720056f6ee4563a7fd9,17,roll,critical,A,50,roll40.jpg,roll60.jpg,low,NULL
1687287475,e5eb024c900d0aebe58d7aae1e830756,PennController,20,0,experiment,NULL,PennController,19,_Header_,End,1687287464229,6321d720056f6ee4563a7fd9,6321d720056f6ee4563a7fd9,17,roll,critical,A,50,roll40.jpg,roll60.jpg,low,NULL
1687287475,e5eb024c900d0aebe58d7aae1e830756,PennController,20,0,experiment,NULL,Canvas,canvas6,Print,NA,1687287470950,6321d720056f6ee4563a7fd9,6321d720056f6ee4563a7fd9,17,roll,critical,A,50,roll40.jpg,roll60.jpg,low,NULL
1687287475,e5eb024c900d0aebe58d7aae1e830756,PennController,20,0,experiment,NULL,Video,progression,buffer,0.004725,1687287467763,6321d720056f6ee4563a7fd9,6321d720056f6ee4563a7fd9,17,roll,critical,A,50,roll40.jpg,roll60.jpg,low,NULL
1687287475,e5eb024c900d0aebe58d7aae1e830756,PennController,20,0,experiment,NULL,Selector,choice,Selection,option2,1687287475113,6321d720056f6ee4563a7fd9,6321d720056f6ee4563a7fd9,17,roll,critical,A,50,roll40.jpg,roll60.jpg,low,option2;option1
1687287475,e5eb024c900d0aebe58d7aae1e830756,PennController,20,0,experiment,NULL,PennController,19,_Trial_,End,1687287475115,6321d720056f6ee4563a7fd9,6321d720056f6ee4563a7fd9,17,roll,critical,A,50,roll40.jpg,roll60.jpg,low,NULL
