#
# Results on Tuesday June 20 2023 18:54:34 UTC
# USER AGENT: Mozilla/5.0 (Macintosh; Intel Mac OS X 10_15_7) AppleWebKit/537.36 (KHTML, like Gecko) Chrome/113.0.0.0 Safari/537.36
# Design number was non-random = 3
#
# Columns below this comment are as follows:
# 1. Results reception time.
# 2. MD5 hash of participant's IP address.
# 3. Controller name.
# 4. Order number of item.
# 5. Inner element number.
# 6. Label.
# 7. Latin Square Group.
# 8. PennElementType.
# 9. PennElementName.
# 10. Parameter.
# 11. Value.
# 12. EventTime.
# 13. PROLIFIC_ID.
# 14. Comments.
1687287274,2eed09979955d241f92adaa8f041a9ef,PennController,2,0,consent,NULL,PennController,0,_Trial_,Start,1687286936595,613497e41da0ea91c27950c4,NULL
1687287274,2eed09979955d241f92adaa8f041a9ef,PennController,2,0,consent,NULL,PennController,0,_Header_,Start,1687286936595,613497e41da0ea91c27950c4,NULL
1687287274,2eed09979955d241f92adaa8f041a9ef,PennController,2,0,consent,NULL,PennController,0,_Header_,End,1687286936595,613497e41da0ea91c27950c4,NULL
1687287274,2eed09979955d241f92adaa8f041a9ef,PennController,2,0,consent,NULL,PennController,0,_Trial_,End,1687286945654,613497e41da0ea91c27950c4,NULL
# Columns below this comment are as follows:
# 14. ID.
# 15. Comments.
1687287274,2eed09979955d241f92adaa8f041a9ef,PennController,3,0,intro,NULL,PennController,1,_Trial_,Start,1687286945656,613497e41da0ea91c27950c4,613497e41da0ea91c27950c4,NULL
1687287274,2eed09979955d241f92adaa8f041a9ef,PennController,3,0,intro,NULL,PennController,1,_Header_,Start,1687286945656,613497e41da0ea91c27950c4,613497e41da0ea91c27950c4,NULL
1687287274,2eed09979955d241f92adaa8f041a9ef,PennController,3,0,intro,NULL,PennController,1,_Header_,End,1687286945656,613497e41da0ea91c27950c4,613497e41da0ea91c27950c4,NULL
1687287274,2eed09979955d241f92adaa8f041a9ef,PennController,3,0,intro,NULL,PennController,1,_Trial_,End,1687286960676,613497e41da0ea91c27950c4,613497e41da0ea91c27950c4,NULL
# Columns below this comment are as follows:
# 15. item_number.
# 16. item.
# 17. type.
# 18. Group.
# 19. prog.
# 20. prev_image.
# 21. next_image.
# 22. height.
# 23. Comments.
1687287274,2eed09979955d241f92adaa8f041a9ef,PennController,20,0,experiment,NULL,PennController,19,_Trial_,Start,1687286960683,613497e41da0ea91c27950c4,613497e41da0ea91c27950c4,17,roll,critical,D,50,roll40.jpg,roll60.jpg,high,NULL
1687287274,2eed09979955d241f92adaa8f041a9ef,PennController,20,0,experiment,NULL,PennController,19,_Header_,Start,1687286960683,613497e41da0ea91c27950c4,613497e41da0ea91c27950c4,17,roll,critical,D,50,roll40.jpg,roll60.jpg,high,NULL
1687287274,2eed09979955d241f92adaa8f041a9ef,PennController,20,0,experiment,NULL,PennController,19,_Header_,End,1687286960683,613497e41da0ea91c27950c4,613497e41da0ea91c27950c4,17,roll,critical,D,50,roll40.jpg,roll60.jpg,high,NULL
1687287274,2eed09979955d241f92adaa8f041a9ef,PennController,20,0,experiment,NULL,Canvas,canvas6,Print,NA,1687286967403,613497e41da0ea91c27950c4,613497e41da0ea91c27950c4,17,roll,critical,D,50,roll40.jpg,roll60.jpg,high,NULL
1687287274,2eed09979955d241f92adaa8f041a9ef,PennController,20,0,experiment,NULL,Video,progression,buffer,0.005426,1687286964228,613497e41da0ea91c27950c4,613497e41da0ea91c27950c4,17,roll,critical,D,50,roll40.jpg,roll60.jpg,high,NULL
1687287274,2eed09979955d241f92adaa8f041a9ef,PennController,20,0,experiment,NULL,Selector,choice,Selection,option1,1687286976948,613497e41da0ea91c27950c4,613497e41da0ea91c27950c4,17,roll,critical,D,50,roll40.jpg,roll60.jpg,high,option1;option2
1687287274,2eed09979955d241f92adaa8f041a9ef,PennController,20,0,experiment,NULL,PennController,19,_Trial_,End,1687286976951,613497e41da0ea91c27950c4,613497e41da0ea91c27950c4,17,roll,critical,D,50,roll40.jpg,roll60.jpg,high,NULL
1687287274,2eed09979955d241f92adaa8f041a9ef,PennController,10,0,experiment,NULL,PennController,9,_Trial_,Start,1687286976957,613497e41da0ea91c27950c4,613497e41da0ea91c27950c4,7,stack,critical,D,25,stack15.jpg,stack35.jpg,high,NULL
1687287274,2eed09979955d241f92adaa8f041a9ef,PennController,10,0,experiment,NULL,PennController,9,_Header_,Start,1687286976957,613497e41da0ea91c27950c4,613497e41da0ea91c27950c4,7,stack,critical,D,25,stack15.jpg,stack35.jpg,high,NULL
1687287274,2eed09979955d241f92adaa8f041a9ef,PennController,10,0,experiment,NULL,PennController,9,_Header_,End,1687286976957,613497e41da0ea91c27950c4,613497e41da0ea91c27950c4,7,stack,critical,D,25,stack15.jpg,stack35.jpg,high,NULL
1687287274,2eed09979955d241f92adaa8f041a9ef,PennController,10,0,experiment,NULL,Canvas,canvas6,Print,NA,1687286982668,613497e41da0ea91c27950c4,613497e41da0ea91c27950c4,7,stack,critical,D,25,stack15.jpg,stack35.jpg,high,NULL
1687287274,2eed09979955d241f92adaa8f041a9ef,PennController,10,0,experiment,NULL,Video,progression,buffer,0.00462,1687286980494,613497e41da0ea91c27950c4,613497e41da0ea91c27950c4,7,stack,critical,D,25,stack15.jpg,stack35.jpg,high,NULL
1687287274,2eed09979955d241f92adaa8f041a9ef,PennController,10,0,experiment,NULL,Selector,choice,Selection,option2,1687286987805,613497e41da0ea91c27950c4,613497e41da0ea91c27950c4,7,stack,critical,D,25,stack15.jpg,stack35.jpg,high,option2;option1
1687287274,2eed09979955d241f92adaa8f041a9ef,PennController,10,0,experiment,NULL,PennController,9,_Trial_,End,1687286987808,613497e41da0ea91c27950c4,613497e41da0ea91c27950c4,7,stack,critical,D,25,stack15.jpg,stack35.jpg,high,NULL
1687287274,2eed09979955d241f92adaa8f041a9ef,PennController,5,0,experiment,NULL,PennController,4,_Trial_,Start,1687286987812,613497e41da0ea91c27950c4,613497e41da0ea91c27950c4,2,door,critical,D,50,door40.jpg,door60.jpg,high,NULL
1687287274,2eed09979955d241f92adaa8f041a9ef,PennController,5,0,experiment,NULL,PennController,4,_Header_,Start,1687286987812,613497e41da0ea91c27950c4,613497e41da0ea91c27950c4,2,door,critical,D,50,door40.jpg,door60.jpg,high,NULL
1687287274,2eed09979955d241f92adaa8f041a9ef,PennController,5,0,experiment,NULL,PennController,4,_Header_,End,1687286987812,613497e41da0ea91c27950c4,613497e41da0ea91c27950c4,2,door,critical,D,50,door40.jpg,door60.jpg,high,NULL
1687287274,2eed09979955d241f92adaa8f041a9ef,PennController,5,0,experiment,NULL,Canvas,canvas6,Print,NA,1687286994508,613497e41da0ea91c27950c4,613497e41da0ea91c27950c4,2,door,critical,D,50,door40.jpg,door60.jpg,high,NULL
1687287274,2eed09979955d241f92adaa8f041a9ef,PennController,5,0,experiment,NULL,Video,progression,buffer,0.004443,1687286991339,613497e41da0ea91c27950c4,613497e41da0ea91c27950c4,2,door,critical,D,50,door40.jpg,door60.jpg,high,NULL
1687287274,2eed09979955d241f92adaa8f041a9ef,PennController,5,0,experiment,NULL,Selector,choice,Selection,option1,1687287002153,613497e41da0ea91c27950c4,613497e41da0ea91c27950c4,2,door,critical,D,50,door40.jpg,door60.jpg,high,option1;option2
1687287274,2eed09979955d241f92adaa8f041a9ef,PennController,5,0,experiment,NULL,PennController,4,_Trial_,End,1687287002155,613497e41da0ea91c27950c4,613497e41da0ea91c27950c4,2,door,critical,D,50,door40.jpg,door60.jpg,high,NULL
1687287274,2eed09979955d241f92adaa8f041a9ef,PennController,22,0,experiment,NULL,PennController,21,_Trial_,Start,1687287002158,613497e41da0ea91c27950c4,613497e41da0ea91c27950c4,19,cup,filler,D,25,cup15.jpg,cup35.jpg,GoalB,NULL
1687287274,2eed09979955d241f92adaa8f041a9ef,PennController,22,0,experiment,NULL,PennController,21,_Header_,Start,1687287002158,613497e41da0ea91c27950c4,613497e41da0ea91c27950c4,19,cup,filler,D,25,cup15.jpg,cup35.jpg,GoalB,NULL
1687287274,2eed09979955d241f92adaa8f041a9ef,PennController,22,0,experiment,NULL,PennController,21,_Header_,End,1687287002158,613497e41da0ea91c27950c4,613497e41da0ea91c27950c4,19,cup,filler,D,25,cup15.jpg,cup35.jpg,GoalB,NULL
1687287274,2eed09979955d241f92adaa8f041a9ef,PennController,22,0,experiment,NULL,Canvas,canvas6,Print,NA,1687287007861,613497e41da0ea91c27950c4,613497e41da0ea91c27950c4,19,cup,filler,D,25,cup15.jpg,cup35.jpg,GoalB,NULL
1687287274,2eed09979955d241f92adaa8f041a9ef,PennController,22,0,experiment,NULL,Video,progression,buffer,0.004765,1687287005688,613497e41da0ea91c27950c4,613497e41da0ea91c27950c4,19,cup,filler,D,25,cup15.jpg,cup35.jpg,GoalB,NULL
1687287274,2eed09979955d241f92adaa8f041a9ef,PennController,22,0,experiment,NULL,Selector,choice,Selection,option2,1687287014652,613497e41da0ea91c27950c4,613497e41da0ea91c27950c4,19,cup,filler,D,25,cup15.jpg,cup35.jpg,GoalB,option1;option2
1687287274,2eed09979955d241f92adaa8f041a9ef,PennController,22,0,experiment,NULL,PennController,21,_Trial_,End,1687287014654,613497e41da0ea91c27950c4,613497e41da0ea91c27950c4,19,cup,filler,D,25,cup15.jpg,cup35.jpg,GoalB,NULL
1687287274,2eed09979955d241f92adaa8f041a9ef,PennController,11,0,experiment,NULL,PennController,10,_Trial_,Start,1687287014658,613497e41da0ea91c27950c4,613497e41da0ea91c27950c4,8,cucumber,critical,D,50,cucumber42.jpg,cucumber60.jpg,high,NULL
1687287274,2eed09979955d241f92adaa8f041a9ef,PennController,11,0,experiment,NULL,PennController,10,_Header_,Start,1687287014658,613497e41da0ea91c27950c4,613497e41da0ea91c27950c4,8,cucumber,critical,D,50,cucumber42.jpg,cucumber60.jpg,high,NULL
1687287274,2eed09979955d241f92adaa8f041a9ef,PennController,11,0,experiment,NULL,PennController,10,_Header_,End,1687287014658,613497e41da0ea91c27950c4,613497e41da0ea91c27950c4,8,cucumber,critical,D,50,cucumber42.jpg,cucumber60.jpg,high,NULL
1687287274,2eed09979955d241f92adaa8f041a9ef,PennController,11,0,experiment,NULL,Canvas,canvas6,Print,NA,1687287022763,613497e41da0ea91c27950c4,613497e41da0ea91c27950c4,8,cucumber,critical,D,50,cucumber42.jpg,cucumber60.jpg,high,NULL
1687287274,2eed09979955d241f92adaa8f041a9ef,PennController,11,0,experiment,NULL,Video,progression,buffer,0.005749,1687287018190,613497e41da0ea91c27950c4,613497e41da0ea91c27950c4,8,cucumber,critical,D,50,cucumber42.jpg,cucumber60.jpg,high,NULL
1687287274,2eed09979955d241f92adaa8f041a9ef,PennController,11,0,experiment,NULL,Selector,choice,Selection,option1,1687287029273,613497e41da0ea91c27950c4,613497e41da0ea91c27950c4,8,cucumber,critical,D,50,cucumber42.jpg,cucumber60.jpg,high,option1;option2
1687287274,2eed09979955d241f92adaa8f041a9ef,PennController,11,0,experiment,NULL,PennController,10,_Trial_,End,1687287029276,613497e41da0ea91c27950c4,613497e41da0ea91c27950c4,8,cucumber,critical,D,50,cucumber42.jpg,cucumber60.jpg,high,NULL
1687287274,2eed09979955d241f92adaa8f041a9ef,PennController,8,0,experiment,NULL,PennController,7,_Trial_,Start,1687287029278,613497e41da0ea91c27950c4,613497e41da0ea91c27950c4,5,book,critical,D,50,book40.jpg,book60.jpg,high,NULL
1687287274,2eed09979955d241f92adaa8f041a9ef,PennController,8,0,experiment,NULL,PennController,7,_Header_,Start,1687287029278,613497e41da0ea91c27950c4,613497e41da0ea91c27950c4,5,book,critical,D,50,book40.jpg,book60.jpg,high,NULL
1687287274,2eed09979955d241f92adaa8f041a9ef,PennController,8,0,experiment,NULL,PennController,7,_Header_,End,1687287029278,613497e41da0ea91c27950c4,613497e41da0ea91c27950c4,5,book,critical,D,50,book40.jpg,book60.jpg,high,NULL
1687287274,2eed09979955d241f92adaa8f041a9ef,PennController,8,0,experiment,NULL,Canvas,canvas6,Print,NA,1687287035985,613497e41da0ea91c27950c4,613497e41da0ea91c27950c4,5,book,critical,D,50,book40.jpg,book60.jpg,high,NULL
1687287274,2eed09979955d241f92adaa8f041a9ef,PennController,8,0,experiment,NULL,Video,progression,buffer,0.002793,1687287032807,613497e41da0ea91c27950c4,613497e41da0ea91c27950c4,5,book,critical,D,50,book40.jpg,book60.jpg,high,NULL
1687287274,2eed09979955d241f92adaa8f041a9ef,PennController,8,0,experiment,NULL,Selector,choice,Selection,option2,1687287039416,613497e41da0ea91c27950c4,613497e41da0ea91c27950c4,5,book,critical,D,50,book40.jpg,book60.jpg,high,option2;option1
1687287274,2eed09979955d241f92adaa8f041a9ef,PennController,8,0,experiment,NULL,PennController,7,_Trial_,End,1687287039417,613497e41da0ea91c27950c4,613497e41da0ea91c27950c4,5,book,critical,D,50,book40.jpg,book60.jpg,high,NULL
1687287274,2eed09979955d241f92adaa8f041a9ef,PennController,24,0,experiment,NULL,PennController,23,_Trial_,Start,1687287039419,613497e41da0ea91c27950c4,613497e41da0ea91c27950c4,21,visit,filler,D,75,visit65.jpg,visit85.jpg,GoalB,NULL
1687287274,2eed09979955d241f92adaa8f041a9ef,PennController,24,0,experiment,NULL,PennController,23,_Header_,Start,1687287039419,613497e41da0ea91c27950c4,613497e41da0ea91c27950c4,21,visit,filler,D,75,visit65.jpg,visit85.jpg,GoalB,NULL
1687287274,2eed09979955d241f92adaa8f041a9ef,PennController,24,0,experiment,NULL,PennController,23,_Header_,End,1687287039419,613497e41da0ea91c27950c4,613497e41da0ea91c27950c4,21,visit,filler,D,75,visit65.jpg,visit85.jpg,GoalB,NULL
1687287274,2eed09979955d241f92adaa8f041a9ef,PennController,24,0,experiment,NULL,Canvas,canvas6,Print,NA,1687287047123,613497e41da0ea91c27950c4,613497e41da0ea91c27950c4,21,visit,filler,D,75,visit65.jpg,visit85.jpg,GoalB,NULL
1687287274,2eed09979955d241f92adaa8f041a9ef,PennController,24,0,experiment,NULL,Video,progression,buffer,0.004474,1687287042952,613497e41da0ea91c27950c4,613497e41da0ea91c27950c4,21,visit,filler,D,75,visit65.jpg,visit85.jpg,GoalB,NULL
1687287274,2eed09979955d241f92adaa8f041a9ef,PennController,24,0,experiment,NULL,Selector,choice,Selection,option1,1687287052307,613497e41da0ea91c27950c4,613497e41da0ea91c27950c4,21,visit,filler,D,75,visit65.jpg,visit85.jpg,GoalB,option1;option2
1687287274,2eed09979955d241f92adaa8f041a9ef,PennController,24,0,experiment,NULL,PennController,23,_Trial_,End,1687287052309,613497e41da0ea91c27950c4,613497e41da0ea91c27950c4,21,visit,filler,D,75,visit65.jpg,visit85.jpg,GoalB,NULL
1687287274,2eed09979955d241f92adaa8f041a9ef,PennController,15,0,experiment,NULL,PennController,14,_Trial_,Start,1687287052312,613497e41da0ea91c27950c4,613497e41da0ea91c27950c4,12,erase,critical,D,75,erase66.jpg,erase84.jpg,high,NULL
1687287274,2eed09979955d241f92adaa8f041a9ef,PennController,15,0,experiment,NULL,PennController,14,_Header_,Start,1687287052312,613497e41da0ea91c27950c4,613497e41da0ea91c27950c4,12,erase,critical,D,75,erase66.jpg,erase84.jpg,high,NULL
1687287274,2eed09979955d241f92adaa8f041a9ef,PennController,15,0,experiment,NULL,PennController,14,_Header_,End,1687287052312,613497e41da0ea91c27950c4,613497e41da0ea91c27950c4,12,erase,critical,D,75,erase66.jpg,erase84.jpg,high,NULL
1687287274,2eed09979955d241f92adaa8f041a9ef,PennController,15,0,experiment,NULL,Canvas,canvas6,Print,NA,1687287062007,613497e41da0ea91c27950c4,613497e41da0ea91c27950c4,12,erase,critical,D,75,erase66.jpg,erase84.jpg,high,NULL
1687287274,2eed09979955d241f92adaa8f041a9ef,PennController,15,0,experiment,NULL,Video,progression,buffer,0.004146,1687287055842,613497e41da0ea91c27950c4,613497e41da0ea91c27950c4,12,erase,critical,D,75,erase66.jpg,erase84.jpg,high,NULL
1687287274,2eed09979955d241f92adaa8f041a9ef,PennController,15,0,experiment,NULL,Selector,choice,Selection,option2,1687287064199,613497e41da0ea91c27950c4,613497e41da0ea91c27950c4,12,erase,critical,D,75,erase66.jpg,erase84.jpg,high,option2;option1
1687287274,2eed09979955d241f92adaa8f041a9ef,PennController,15,0,experiment,NULL,PennController,14,_Trial_,End,1687287064201,613497e41da0ea91c27950c4,613497e41da0ea91c27950c4,12,erase,critical,D,75,erase66.jpg,erase84.jpg,high,NULL
1687287274,2eed09979955d241f92adaa8f041a9ef,PennController,13,0,experiment,NULL,PennController,12,_Trial_,Start,1687287064203,613497e41da0ea91c27950c4,613497e41da0ea91c27950c4,10,train,critical,D,25,train15.jpg,train35.jpg,high,NULL
1687287274,2eed09979955d241f92adaa8f041a9ef,PennController,13,0,experiment,NULL,PennController,12,_Header_,Start,1687287064203,613497e41da0ea91c27950c4,613497e41da0ea91c27950c4,10,train,critical,D,25,train15.jpg,train35.jpg,high,NULL
1687287274,2eed09979955d241f92adaa8f041a9ef,PennController,13,0,experiment,NULL,PennController,12,_Header_,End,1687287064203,613497e41da0ea91c27950c4,613497e41da0ea91c27950c4,10,train,critical,D,25,train15.jpg,train35.jpg,high,NULL
1687287274,2eed09979955d241f92adaa8f041a9ef,PennController,13,0,experiment,NULL,Canvas,canvas6,Print,NA,1687287069913,613497e41da0ea91c27950c4,613497e41da0ea91c27950c4,10,train,critical,D,25,train15.jpg,train35.jpg,high,NULL
1687287274,2eed09979955d241f92adaa8f041a9ef,PennController,13,0,experiment,NULL,Video,progression,buffer,0.00377,1687287067736,613497e41da0ea91c27950c4,613497e41da0ea91c27950c4,10,train,critical,D,25,train15.jpg,train35.jpg,high,NULL
1687287274,2eed09979955d241f92adaa8f041a9ef,PennController,13,0,experiment,NULL,Selector,choice,Selection,option1,1687287073777,613497e41da0ea91c27950c4,613497e41da0ea91c27950c4,10,train,critical,D,25,train15.jpg,train35.jpg,high,option2;option1
1687287274,2eed09979955d241f92adaa8f041a9ef,PennController,13,0,experiment,NULL,PennController,12,_Trial_,End,1687287073779,613497e41da0ea91c27950c4,613497e41da0ea91c27950c4,10,train,critical,D,25,train15.jpg,train35.jpg,high,NULL
1687287274,2eed09979955d241f92adaa8f041a9ef,PennController,30,0,experiment,NULL,PennController,29,_Trial_,Start,1687287073782,613497e41da0ea91c27950c4,613497e41da0ea91c27950c4,27,square,filler,D,75,square65.jpg,square85.jpg,GoalB,NULL
1687287274,2eed09979955d241f92adaa8f041a9ef,PennController,30,0,experiment,NULL,PennController,29,_Header_,Start,1687287073782,613497e41da0ea91c27950c4,613497e41da0ea91c27950c4,27,square,filler,D,75,square65.jpg,square85.jpg,GoalB,NULL
1687287274,2eed09979955d241f92adaa8f041a9ef,PennController,30,0,experiment,NULL,PennController,29,_Header_,End,1687287073783,613497e41da0ea91c27950c4,613497e41da0ea91c27950c4,27,square,filler,D,75,square65.jpg,square85.jpg,GoalB,NULL
1687287274,2eed09979955d241f92adaa8f041a9ef,PennController,30,0,experiment,NULL,Canvas,canvas6,Print,NA,1687287081490,613497e41da0ea91c27950c4,613497e41da0ea91c27950c4,27,square,filler,D,75,square65.jpg,square85.jpg,GoalB,NULL
1687287274,2eed09979955d241f92adaa8f041a9ef,PennController,30,0,experiment,NULL,Video,progression,buffer,0.00393,1687287077316,613497e41da0ea91c27950c4,613497e41da0ea91c27950c4,27,square,filler,D,75,square65.jpg,square85.jpg,GoalB,NULL
1687287274,2eed09979955d241f92adaa8f041a9ef,PennController,30,0,experiment,NULL,Selector,choice,Selection,option2,1687287085244,613497e41da0ea91c27950c4,613497e41da0ea91c27950c4,27,square,filler,D,75,square65.jpg,square85.jpg,GoalB,option1;option2
1687287274,2eed09979955d241f92adaa8f041a9ef,PennController,30,0,experiment,NULL,PennController,29,_Trial_,End,1687287085245,613497e41da0ea91c27950c4,613497e41da0ea91c27950c4,27,square,filler,D,75,square65.jpg,square85.jpg,GoalB,NULL
1687287274,2eed09979955d241f92adaa8f041a9ef,PennController,23,0,experiment,NULL,PennController,22,_Trial_,Start,1687287085247,613497e41da0ea91c27950c4,613497e41da0ea91c27950c4,20,cat,filler,D,50,cat40.jpg,cat60.jpg,GoalA,NULL
1687287274,2eed09979955d241f92adaa8f041a9ef,PennController,23,0,experiment,NULL,PennController,22,_Header_,Start,1687287085247,613497e41da0ea91c27950c4,613497e41da0ea91c27950c4,20,cat,filler,D,50,cat40.jpg,cat60.jpg,GoalA,NULL
1687287274,2eed09979955d241f92adaa8f041a9ef,PennController,23,0,experiment,NULL,PennController,22,_Header_,End,1687287085247,613497e41da0ea91c27950c4,613497e41da0ea91c27950c4,20,cat,filler,D,50,cat40.jpg,cat60.jpg,GoalA,NULL
1687287274,2eed09979955d241f92adaa8f041a9ef,PennController,23,0,experiment,NULL,Canvas,canvas6,Print,NA,1687287091948,613497e41da0ea91c27950c4,613497e41da0ea91c27950c4,20,cat,filler,D,50,cat40.jpg,cat60.jpg,GoalA,NULL
1687287274,2eed09979955d241f92adaa8f041a9ef,PennController,23,0,experiment,NULL,Video,progression,buffer,0.003352,1687287088776,613497e41da0ea91c27950c4,613497e41da0ea91c27950c4,20,cat,filler,D,50,cat40.jpg,cat60.jpg,GoalA,NULL
1687287274,2eed09979955d241f92adaa8f041a9ef,PennController,23,0,experiment,NULL,Selector,choice,Selection,option2,1687287096009,613497e41da0ea91c27950c4,613497e41da0ea91c27950c4,20,cat,filler,D,50,cat40.jpg,cat60.jpg,GoalA,option1;option2
1687287274,2eed09979955d241f92adaa8f041a9ef,PennController,23,0,experiment,NULL,PennController,22,_Trial_,End,1687287096014,613497e41da0ea91c27950c4,613497e41da0ea91c27950c4,20,cat,filler,D,50,cat40.jpg,cat60.jpg,GoalA,NULL
1687287274,2eed09979955d241f92adaa8f041a9ef,PennController,14,0,experiment,NULL,PennController,13,_Trial_,Start,1687287096017,613497e41da0ea91c27950c4,613497e41da0ea91c27950c4,11,beads,critical,D,50,beads40.jpg,beads60.jpg,high,NULL
1687287274,2eed09979955d241f92adaa8f041a9ef,PennController,14,0,experiment,NULL,PennController,13,_Header_,Start,1687287096017,613497e41da0ea91c27950c4,613497e41da0ea91c27950c4,11,beads,critical,D,50,beads40.jpg,beads60.jpg,high,NULL
1687287274,2eed09979955d241f92adaa8f041a9ef,PennController,14,0,experiment,NULL,PennController,13,_Header_,End,1687287096017,613497e41da0ea91c27950c4,613497e41da0ea91c27950c4,11,beads,critical,D,50,beads40.jpg,beads60.jpg,high,NULL
1687287274,2eed09979955d241f92adaa8f041a9ef,PennController,14,0,experiment,NULL,Canvas,canvas6,Print,NA,1687287102708,613497e41da0ea91c27950c4,613497e41da0ea91c27950c4,11,beads,critical,D,50,beads40.jpg,beads60.jpg,high,NULL
1687287274,2eed09979955d241f92adaa8f041a9ef,PennController,14,0,experiment,NULL,Video,progression,buffer,0.002679,1687287099539,613497e41da0ea91c27950c4,613497e41da0ea91c27950c4,11,beads,critical,D,50,beads40.jpg,beads60.jpg,high,NULL
1687287274,2eed09979955d241f92adaa8f041a9ef,PennController,14,0,experiment,NULL,Selector,choice,Selection,option2,1687287106618,613497e41da0ea91c27950c4,613497e41da0ea91c27950c4,11,beads,critical,D,50,beads40.jpg,beads60.jpg,high,option1;option2
1687287274,2eed09979955d241f92adaa8f041a9ef,PennController,14,0,experiment,NULL,PennController,13,_Trial_,End,1687287106620,613497e41da0ea91c27950c4,613497e41da0ea91c27950c4,11,beads,critical,D,50,beads40.jpg,beads60.jpg,high,NULL
1687287274,2eed09979955d241f92adaa8f041a9ef,PennController,19,0,experiment,NULL,PennController,18,_Trial_,Start,1687287106622,613497e41da0ea91c27950c4,613497e41da0ea91c27950c4,16,blinds,critical,D,25,blinds15.jpg,blinds33.jpg,high,NULL
1687287274,2eed09979955d241f92adaa8f041a9ef,PennController,19,0,experiment,NULL,PennController,18,_Header_,Start,1687287106622,613497e41da0ea91c27950c4,613497e41da0ea91c27950c4,16,blinds,critical,D,25,blinds15.jpg,blinds33.jpg,high,NULL
1687287274,2eed09979955d241f92adaa8f041a9ef,PennController,19,0,experiment,NULL,PennController,18,_Header_,End,1687287106622,613497e41da0ea91c27950c4,613497e41da0ea91c27950c4,16,blinds,critical,D,25,blinds15.jpg,blinds33.jpg,high,NULL
1687287274,2eed09979955d241f92adaa8f041a9ef,PennController,19,0,experiment,NULL,Canvas,canvas6,Print,NA,1687287112925,613497e41da0ea91c27950c4,613497e41da0ea91c27950c4,16,blinds,critical,D,25,blinds15.jpg,blinds33.jpg,high,NULL
1687287274,2eed09979955d241f92adaa8f041a9ef,PennController,19,0,experiment,NULL,Video,progression,buffer,0.003721,1687287110154,613497e41da0ea91c27950c4,613497e41da0ea91c27950c4,16,blinds,critical,D,25,blinds15.jpg,blinds33.jpg,high,NULL
1687287274,2eed09979955d241f92adaa8f041a9ef,PennController,19,0,experiment,NULL,Selector,choice,Selection,option1,1687287115513,613497e41da0ea91c27950c4,613497e41da0ea91c27950c4,16,blinds,critical,D,25,blinds15.jpg,blinds33.jpg,high,option1;option2
1687287274,2eed09979955d241f92adaa8f041a9ef,PennController,19,0,experiment,NULL,PennController,18,_Trial_,End,1687287115515,613497e41da0ea91c27950c4,613497e41da0ea91c27950c4,16,blinds,critical,D,25,blinds15.jpg,blinds33.jpg,high,NULL
1687287274,2eed09979955d241f92adaa8f041a9ef,PennController,26,0,experiment,NULL,PennController,25,_Trial_,Start,1687287115517,613497e41da0ea91c27950c4,613497e41da0ea91c27950c4,23,color,filler,D,50,color40.jpg,color60.jpg,GoalB,NULL
1687287274,2eed09979955d241f92adaa8f041a9ef,PennController,26,0,experiment,NULL,PennController,25,_Header_,Start,1687287115517,613497e41da0ea91c27950c4,613497e41da0ea91c27950c4,23,color,filler,D,50,color40.jpg,color60.jpg,GoalB,NULL
1687287274,2eed09979955d241f92adaa8f041a9ef,PennController,26,0,experiment,NULL,PennController,25,_Header_,End,1687287115517,613497e41da0ea91c27950c4,613497e41da0ea91c27950c4,23,color,filler,D,50,color40.jpg,color60.jpg,GoalB,NULL
1687287274,2eed09979955d241f92adaa8f041a9ef,PennController,26,0,experiment,NULL,Canvas,canvas6,Print,NA,1687287122213,613497e41da0ea91c27950c4,613497e41da0ea91c27950c4,23,color,filler,D,50,color40.jpg,color60.jpg,GoalB,NULL
1687287274,2eed09979955d241f92adaa8f041a9ef,PennController,26,0,experiment,NULL,Video,progression,buffer,0.006539,1687287119049,613497e41da0ea91c27950c4,613497e41da0ea91c27950c4,23,color,filler,D,50,color40.jpg,color60.jpg,GoalB,NULL
1687287274,2eed09979955d241f92adaa8f041a9ef,PennController,26,0,experiment,NULL,Selector,choice,Selection,option2,1687287128209,613497e41da0ea91c27950c4,613497e41da0ea91c27950c4,23,color,filler,D,50,color40.jpg,color60.jpg,GoalB,option2;option1
1687287274,2eed09979955d241f92adaa8f041a9ef,PennController,26,0,experiment,NULL,PennController,25,_Trial_,End,1687287128211,613497e41da0ea91c27950c4,613497e41da0ea91c27950c4,23,color,filler,D,50,color40.jpg,color60.jpg,GoalB,NULL
1687287274,2eed09979955d241f92adaa8f041a9ef,PennController,28,0,experiment,NULL,PennController,27,_Trial_,Start,1687287128212,613497e41da0ea91c27950c4,613497e41da0ea91c27950c4,25,house,filler,D,25,house15.jpg,house35.jpg,GoalB,NULL
1687287274,2eed09979955d241f92adaa8f041a9ef,PennController,28,0,experiment,NULL,PennController,27,_Header_,Start,1687287128212,613497e41da0ea91c27950c4,613497e41da0ea91c27950c4,25,house,filler,D,25,house15.jpg,house35.jpg,GoalB,NULL
1687287274,2eed09979955d241f92adaa8f041a9ef,PennController,28,0,experiment,NULL,PennController,27,_Header_,End,1687287128212,613497e41da0ea91c27950c4,613497e41da0ea91c27950c4,25,house,filler,D,25,house15.jpg,house35.jpg,GoalB,NULL
1687287274,2eed09979955d241f92adaa8f041a9ef,PennController,28,0,experiment,NULL,Canvas,canvas6,Print,NA,1687287133916,613497e41da0ea91c27950c4,613497e41da0ea91c27950c4,25,house,filler,D,25,house15.jpg,house35.jpg,GoalB,NULL
1687287274,2eed09979955d241f92adaa8f041a9ef,PennController,28,0,experiment,NULL,Video,progression,buffer,0.004292,1687287131743,613497e41da0ea91c27950c4,613497e41da0ea91c27950c4,25,house,filler,D,25,house15.jpg,house35.jpg,GoalB,NULL
1687287274,2eed09979955d241f92adaa8f041a9ef,PennController,28,0,experiment,NULL,Selector,choice,Selection,option2,1687287135787,613497e41da0ea91c27950c4,613497e41da0ea91c27950c4,25,house,filler,D,25,house15.jpg,house35.jpg,GoalB,option1;option2
1687287274,2eed09979955d241f92adaa8f041a9ef,PennController,28,0,experiment,NULL,PennController,27,_Trial_,End,1687287135789,613497e41da0ea91c27950c4,613497e41da0ea91c27950c4,25,house,filler,D,25,house15.jpg,house35.jpg,GoalB,NULL
1687287274,2eed09979955d241f92adaa8f041a9ef,PennController,29,0,experiment,NULL,PennController,28,_Trial_,Start,1687287135792,613497e41da0ea91c27950c4,613497e41da0ea91c27950c4,26,sandwich,filler,D,50,sandwich40.jpg,sandwich60.jpg,GoalA,NULL
1687287274,2eed09979955d241f92adaa8f041a9ef,PennController,29,0,experiment,NULL,PennController,28,_Header_,Start,1687287135792,613497e41da0ea91c27950c4,613497e41da0ea91c27950c4,26,sandwich,filler,D,50,sandwich40.jpg,sandwich60.jpg,GoalA,NULL
1687287274,2eed09979955d241f92adaa8f041a9ef,PennController,29,0,experiment,NULL,PennController,28,_Header_,End,1687287135792,613497e41da0ea91c27950c4,613497e41da0ea91c27950c4,26,sandwich,filler,D,50,sandwich40.jpg,sandwich60.jpg,GoalA,NULL
1687287274,2eed09979955d241f92adaa8f041a9ef,PennController,29,0,experiment,NULL,Canvas,canvas6,Print,NA,1687287142502,613497e41da0ea91c27950c4,613497e41da0ea91c27950c4,26,sandwich,filler,D,50,sandwich40.jpg,sandwich60.jpg,GoalA,NULL
1687287274,2eed09979955d241f92adaa8f041a9ef,PennController,29,0,experiment,NULL,Video,progression,buffer,0.002592,1687287139324,613497e41da0ea91c27950c4,613497e41da0ea91c27950c4,26,sandwich,filler,D,50,sandwich40.jpg,sandwich60.jpg,GoalA,NULL
1687287274,2eed09979955d241f92adaa8f041a9ef,PennController,29,0,experiment,NULL,Selector,choice,Selection,option1,1687287144745,613497e41da0ea91c27950c4,613497e41da0ea91c27950c4,26,sandwich,filler,D,50,sandwich40.jpg,sandwich60.jpg,GoalA,option1;option2
1687287274,2eed09979955d241f92adaa8f041a9ef,PennController,29,0,experiment,NULL,PennController,28,_Trial_,End,1687287144747,613497e41da0ea91c27950c4,613497e41da0ea91c27950c4,26,sandwich,filler,D,50,sandwich40.jpg,sandwich60.jpg,GoalA,NULL
1687287274,2eed09979955d241f92adaa8f041a9ef,PennController,4,0,experiment,NULL,PennController,3,_Trial_,Start,1687287144749,613497e41da0ea91c27950c4,613497e41da0ea91c27950c4,1,vase,critical,D,25,vase15.jpg,vase35.jpg,high,NULL
1687287274,2eed09979955d241f92adaa8f041a9ef,PennController,4,0,experiment,NULL,PennController,3,_Header_,Start,1687287144749,613497e41da0ea91c27950c4,613497e41da0ea91c27950c4,1,vase,critical,D,25,vase15.jpg,vase35.jpg,high,NULL
1687287274,2eed09979955d241f92adaa8f041a9ef,PennController,4,0,experiment,NULL,PennController,3,_Header_,End,1687287144749,613497e41da0ea91c27950c4,613497e41da0ea91c27950c4,1,vase,critical,D,25,vase15.jpg,vase35.jpg,high,NULL
1687287274,2eed09979955d241f92adaa8f041a9ef,PennController,4,0,experiment,NULL,Canvas,canvas6,Print,NA,1687287150443,613497e41da0ea91c27950c4,613497e41da0ea91c27950c4,1,vase,critical,D,25,vase15.jpg,vase35.jpg,high,NULL
1687287274,2eed09979955d241f92adaa8f041a9ef,PennController,4,0,experiment,NULL,Video,progression,buffer,0.006006,1687287148280,613497e41da0ea91c27950c4,613497e41da0ea91c27950c4,1,vase,critical,D,25,vase15.jpg,vase35.jpg,high,NULL
1687287274,2eed09979955d241f92adaa8f041a9ef,PennController,4,0,experiment,NULL,Selector,choice,Selection,option2,1687287152713,613497e41da0ea91c27950c4,613497e41da0ea91c27950c4,1,vase,critical,D,25,vase15.jpg,vase35.jpg,high,option1;option2
1687287274,2eed09979955d241f92adaa8f041a9ef,PennController,4,0,experiment,NULL,PennController,3,_Trial_,End,1687287152714,613497e41da0ea91c27950c4,613497e41da0ea91c27950c4,1,vase,critical,D,25,vase15.jpg,vase35.jpg,high,NULL
1687287274,2eed09979955d241f92adaa8f041a9ef,PennController,7,0,experiment,NULL,PennController,6,_Trial_,Start,1687287152716,613497e41da0ea91c27950c4,613497e41da0ea91c27950c4,4,candy,critical,D,25,candy15.jpg,candy35.jpg,high,NULL
1687287274,2eed09979955d241f92adaa8f041a9ef,PennController,7,0,experiment,NULL,PennController,6,_Header_,Start,1687287152716,613497e41da0ea91c27950c4,613497e41da0ea91c27950c4,4,candy,critical,D,25,candy15.jpg,candy35.jpg,high,NULL
1687287274,2eed09979955d241f92adaa8f041a9ef,PennController,7,0,experiment,NULL,PennController,6,_Header_,End,1687287152716,613497e41da0ea91c27950c4,613497e41da0ea91c27950c4,4,candy,critical,D,25,candy15.jpg,candy35.jpg,high,NULL
1687287274,2eed09979955d241f92adaa8f041a9ef,PennController,7,0,experiment,NULL,Canvas,canvas6,Print,NA,1687287158410,613497e41da0ea91c27950c4,613497e41da0ea91c27950c4,4,candy,critical,D,25,candy15.jpg,candy35.jpg,high,NULL
1687287274,2eed09979955d241f92adaa8f041a9ef,PennController,7,0,experiment,NULL,Video,progression,buffer,0.004725,1687287156242,613497e41da0ea91c27950c4,613497e41da0ea91c27950c4,4,candy,critical,D,25,candy15.jpg,candy35.jpg,high,NULL
1687287274,2eed09979955d241f92adaa8f041a9ef,PennController,7,0,experiment,NULL,Selector,choice,Selection,option2,1687287161708,613497e41da0ea91c27950c4,613497e41da0ea91c27950c4,4,candy,critical,D,25,candy15.jpg,candy35.jpg,high,option2;option1
1687287274,2eed09979955d241f92adaa8f041a9ef,PennController,7,0,experiment,NULL,PennController,6,_Trial_,End,1687287161710,613497e41da0ea91c27950c4,613497e41da0ea91c27950c4,4,candy,critical,D,25,candy15.jpg,candy35.jpg,high,NULL
1687287274,2eed09979955d241f92adaa8f041a9ef,PennController,32,0,experiment,NULL,PennController,31,_Trial_,Start,1687287161712,613497e41da0ea91c27950c4,613497e41da0ea91c27950c4,29,frog,filler,D,50,frog40.jpg,frog60.jpg,GoalB,NULL
1687287274,2eed09979955d241f92adaa8f041a9ef,PennController,32,0,experiment,NULL,PennController,31,_Header_,Start,1687287161712,613497e41da0ea91c27950c4,613497e41da0ea91c27950c4,29,frog,filler,D,50,frog40.jpg,frog60.jpg,GoalB,NULL
1687287274,2eed09979955d241f92adaa8f041a9ef,PennController,32,0,experiment,NULL,PennController,31,_Header_,End,1687287161712,613497e41da0ea91c27950c4,613497e41da0ea91c27950c4,29,frog,filler,D,50,frog40.jpg,frog60.jpg,GoalB,NULL
1687287274,2eed09979955d241f92adaa8f041a9ef,PennController,32,0,experiment,NULL,Canvas,canvas6,Print,NA,1687287168420,613497e41da0ea91c27950c4,613497e41da0ea91c27950c4,29,frog,filler,D,50,frog40.jpg,frog60.jpg,GoalB,NULL
1687287274,2eed09979955d241f92adaa8f041a9ef,PennController,32,0,experiment,NULL,Video,progression,buffer,0.002485,1687287165237,613497e41da0ea91c27950c4,613497e41da0ea91c27950c4,29,frog,filler,D,50,frog40.jpg,frog60.jpg,GoalB,NULL
1687287274,2eed09979955d241f92adaa8f041a9ef,PennController,32,0,experiment,NULL,Selector,choice,Selection,option2,1687287170877,613497e41da0ea91c27950c4,613497e41da0ea91c27950c4,29,frog,filler,D,50,frog40.jpg,frog60.jpg,GoalB,option2;option1
1687287274,2eed09979955d241f92adaa8f041a9ef,PennController,32,0,experiment,NULL,PennController,31,_Trial_,End,1687287170879,613497e41da0ea91c27950c4,613497e41da0ea91c27950c4,29,frog,filler,D,50,frog40.jpg,frog60.jpg,GoalB,NULL
1687287274,2eed09979955d241f92adaa8f041a9ef,PennController,27,0,experiment,NULL,PennController,26,_Trial_,Start,1687287170880,613497e41da0ea91c27950c4,613497e41da0ea91c27950c4,24,match,filler,D,75,match65.jpg,match85.jpg,GoalA,NULL
1687287274,2eed09979955d241f92adaa8f041a9ef,PennController,27,0,experiment,NULL,PennController,26,_Header_,Start,1687287170880,613497e41da0ea91c27950c4,613497e41da0ea91c27950c4,24,match,filler,D,75,match65.jpg,match85.jpg,GoalA,NULL
1687287274,2eed09979955d241f92adaa8f041a9ef,PennController,27,0,experiment,NULL,PennController,26,_Header_,End,1687287170880,613497e41da0ea91c27950c4,613497e41da0ea91c27950c4,24,match,filler,D,75,match65.jpg,match85.jpg,GoalA,NULL
1687287274,2eed09979955d241f92adaa8f041a9ef,PennController,27,0,experiment,NULL,Canvas,canvas6,Print,NA,1687287178588,613497e41da0ea91c27950c4,613497e41da0ea91c27950c4,24,match,filler,D,75,match65.jpg,match85.jpg,GoalA,NULL
1687287274,2eed09979955d241f92adaa8f041a9ef,PennController,27,0,experiment,NULL,Video,progression,buffer,0.003087,1687287174410,613497e41da0ea91c27950c4,613497e41da0ea91c27950c4,24,match,filler,D,75,match65.jpg,match85.jpg,GoalA,NULL
1687287274,2eed09979955d241f92adaa8f041a9ef,PennController,27,0,experiment,NULL,Selector,choice,Selection,option1,1687287182833,613497e41da0ea91c27950c4,613497e41da0ea91c27950c4,24,match,filler,D,75,match65.jpg,match85.jpg,GoalA,option1;option2
1687287274,2eed09979955d241f92adaa8f041a9ef,PennController,27,0,experiment,NULL,PennController,26,_Trial_,End,1687287182835,613497e41da0ea91c27950c4,613497e41da0ea91c27950c4,24,match,filler,D,75,match65.jpg,match85.jpg,GoalA,NULL
1687287274,2eed09979955d241f92adaa8f041a9ef,PennController,9,0,experiment,NULL,PennController,8,_Trial_,Start,1687287182837,613497e41da0ea91c27950c4,613497e41da0ea91c27950c4,6,flower,critical,D,75,flower65.jpg,flower85.jpg,high,NULL
1687287274,2eed09979955d241f92adaa8f041a9ef,PennController,9,0,experiment,NULL,PennController,8,_Header_,Start,1687287182837,613497e41da0ea91c27950c4,613497e41da0ea91c27950c4,6,flower,critical,D,75,flower65.jpg,flower85.jpg,high,NULL
1687287274,2eed09979955d241f92adaa8f041a9ef,PennController,9,0,experiment,NULL,PennController,8,_Header_,End,1687287182837,613497e41da0ea91c27950c4,613497e41da0ea91c27950c4,6,flower,critical,D,75,flower65.jpg,flower85.jpg,high,NULL
1687287274,2eed09979955d241f92adaa8f041a9ef,PennController,9,0,experiment,NULL,Canvas,canvas6,Print,NA,1687287190539,613497e41da0ea91c27950c4,613497e41da0ea91c27950c4,6,flower,critical,D,75,flower65.jpg,flower85.jpg,high,NULL
1687287274,2eed09979955d241f92adaa8f041a9ef,PennController,9,0,experiment,NULL,Video,progression,buffer,0.003991,1687287186366,613497e41da0ea91c27950c4,613497e41da0ea91c27950c4,6,flower,critical,D,75,flower65.jpg,flower85.jpg,high,NULL
1687287274,2eed09979955d241f92adaa8f041a9ef,PennController,9,0,experiment,NULL,Selector,choice,Selection,option1,1687287195296,613497e41da0ea91c27950c4,613497e41da0ea91c27950c4,6,flower,critical,D,75,flower65.jpg,flower85.jpg,high,option2;option1
1687287274,2eed09979955d241f92adaa8f041a9ef,PennController,9,0,experiment,NULL,PennController,8,_Trial_,End,1687287195298,613497e41da0ea91c27950c4,613497e41da0ea91c27950c4,6,flower,critical,D,75,flower65.jpg,flower85.jpg,high,NULL
1687287274,2eed09979955d241f92adaa8f041a9ef,PennController,31,0,experiment,NULL,PennController,30,_Trial_,Start,1687287195300,613497e41da0ea91c27950c4,613497e41da0ea91c27950c4,28,sort,filler,D,25,sort15.jpg,sort35.jpg,GoalA,NULL
1687287274,2eed09979955d241f92adaa8f041a9ef,PennController,31,0,experiment,NULL,PennController,30,_Header_,Start,1687287195300,613497e41da0ea91c27950c4,613497e41da0ea91c27950c4,28,sort,filler,D,25,sort15.jpg,sort35.jpg,GoalA,NULL
1687287274,2eed09979955d241f92adaa8f041a9ef,PennController,31,0,experiment,NULL,PennController,30,_Header_,End,1687287195300,613497e41da0ea91c27950c4,613497e41da0ea91c27950c4,28,sort,filler,D,25,sort15.jpg,sort35.jpg,GoalA,NULL
1687287274,2eed09979955d241f92adaa8f041a9ef,PennController,31,0,experiment,NULL,Canvas,canvas6,Print,NA,1687287200996,613497e41da0ea91c27950c4,613497e41da0ea91c27950c4,28,sort,filler,D,25,sort15.jpg,sort35.jpg,GoalA,NULL
1687287274,2eed09979955d241f92adaa8f041a9ef,PennController,31,0,experiment,NULL,Video,progression,buffer,0.003131,1687287198830,613497e41da0ea91c27950c4,613497e41da0ea91c27950c4,28,sort,filler,D,25,sort15.jpg,sort35.jpg,GoalA,NULL
1687287274,2eed09979955d241f92adaa8f041a9ef,PennController,31,0,experiment,NULL,Selector,choice,Selection,option2,1687287205153,613497e41da0ea91c27950c4,613497e41da0ea91c27950c4,28,sort,filler,D,25,sort15.jpg,sort35.jpg,GoalA,option1;option2
1687287274,2eed09979955d241f92adaa8f041a9ef,PennController,31,0,experiment,NULL,PennController,30,_Trial_,End,1687287205155,613497e41da0ea91c27950c4,613497e41da0ea91c27950c4,28,sort,filler,D,25,sort15.jpg,sort35.jpg,GoalA,NULL
1687287274,2eed09979955d241f92adaa8f041a9ef,PennController,16,0,experiment,NULL,PennController,15,_Trial_,Start,1687287205159,613497e41da0ea91c27950c4,613497e41da0ea91c27950c4,13,mix,critical,D,25,mix15.jpg,mix35.jpg,high,NULL
1687287274,2eed09979955d241f92adaa8f041a9ef,PennController,16,0,experiment,NULL,PennController,15,_Header_,Start,1687287205159,613497e41da0ea91c27950c4,613497e41da0ea91c27950c4,13,mix,critical,D,25,mix15.jpg,mix35.jpg,high,NULL
1687287274,2eed09979955d241f92adaa8f041a9ef,PennController,16,0,experiment,NULL,PennController,15,_Header_,End,1687287205159,613497e41da0ea91c27950c4,613497e41da0ea91c27950c4,13,mix,critical,D,25,mix15.jpg,mix35.jpg,high,NULL
1687287274,2eed09979955d241f92adaa8f041a9ef,PennController,16,0,experiment,NULL,Canvas,canvas6,Print,NA,1687287210856,613497e41da0ea91c27950c4,613497e41da0ea91c27950c4,13,mix,critical,D,25,mix15.jpg,mix35.jpg,high,NULL
1687287274,2eed09979955d241f92adaa8f041a9ef,PennController,16,0,experiment,NULL,Video,progression,buffer,0.004399,1687287208684,613497e41da0ea91c27950c4,613497e41da0ea91c27950c4,13,mix,critical,D,25,mix15.jpg,mix35.jpg,high,NULL
1687287274,2eed09979955d241f92adaa8f041a9ef,PennController,16,0,experiment,NULL,Selector,choice,Selection,option1,1687287212900,613497e41da0ea91c27950c4,613497e41da0ea91c27950c4,13,mix,critical,D,25,mix15.jpg,mix35.jpg,high,option2;option1
1687287274,2eed09979955d241f92adaa8f041a9ef,PennController,16,0,experiment,NULL,PennController,15,_Trial_,End,1687287212902,613497e41da0ea91c27950c4,613497e41da0ea91c27950c4,13,mix,critical,D,25,mix15.jpg,mix35.jpg,high,NULL
1687287274,2eed09979955d241f92adaa8f041a9ef,PennController,25,0,experiment,NULL,PennController,24,_Trial_,Start,1687287212903,613497e41da0ea91c27950c4,613497e41da0ea91c27950c4,22,wall,filler,D,25,wall15.jpg,wall35.jpg,GoalA,NULL
1687287274,2eed09979955d241f92adaa8f041a9ef,PennController,25,0,experiment,NULL,PennController,24,_Header_,Start,1687287212903,613497e41da0ea91c27950c4,613497e41da0ea91c27950c4,22,wall,filler,D,25,wall15.jpg,wall35.jpg,GoalA,NULL
1687287274,2eed09979955d241f92adaa8f041a9ef,PennController,25,0,experiment,NULL,PennController,24,_Header_,End,1687287212903,613497e41da0ea91c27950c4,613497e41da0ea91c27950c4,22,wall,filler,D,25,wall15.jpg,wall35.jpg,GoalA,NULL
1687287274,2eed09979955d241f92adaa8f041a9ef,PennController,25,0,experiment,NULL,Canvas,canvas6,Print,NA,1687287218604,613497e41da0ea91c27950c4,613497e41da0ea91c27950c4,22,wall,filler,D,25,wall15.jpg,wall35.jpg,GoalA,NULL
1687287274,2eed09979955d241f92adaa8f041a9ef,PennController,25,0,experiment,NULL,Video,progression,buffer,0.006142,1687287216436,613497e41da0ea91c27950c4,613497e41da0ea91c27950c4,22,wall,filler,D,25,wall15.jpg,wall35.jpg,GoalA,NULL
1687287274,2eed09979955d241f92adaa8f041a9ef,PennController,25,0,experiment,NULL,Selector,choice,Selection,option1,1687287221108,613497e41da0ea91c27950c4,613497e41da0ea91c27950c4,22,wall,filler,D,25,wall15.jpg,wall35.jpg,GoalA,option1;option2
1687287274,2eed09979955d241f92adaa8f041a9ef,PennController,25,0,experiment,NULL,PennController,24,_Trial_,End,1687287221110,613497e41da0ea91c27950c4,613497e41da0ea91c27950c4,22,wall,filler,D,25,wall15.jpg,wall35.jpg,GoalA,NULL
1687287274,2eed09979955d241f92adaa8f041a9ef,PennController,21,0,experiment,NULL,PennController,20,_Trial_,Start,1687287221112,613497e41da0ea91c27950c4,613497e41da0ea91c27950c4,18,ball,critical,D,75,ball65.jpg,ball85.jpg,high,NULL
1687287274,2eed09979955d241f92adaa8f041a9ef,PennController,21,0,experiment,NULL,PennController,20,_Header_,Start,1687287221112,613497e41da0ea91c27950c4,613497e41da0ea91c27950c4,18,ball,critical,D,75,ball65.jpg,ball85.jpg,high,NULL
1687287274,2eed09979955d241f92adaa8f041a9ef,PennController,21,0,experiment,NULL,PennController,20,_Header_,End,1687287221112,613497e41da0ea91c27950c4,613497e41da0ea91c27950c4,18,ball,critical,D,75,ball65.jpg,ball85.jpg,high,NULL
1687287274,2eed09979955d241f92adaa8f041a9ef,PennController,21,0,experiment,NULL,Canvas,canvas6,Print,NA,1687287228815,613497e41da0ea91c27950c4,613497e41da0ea91c27950c4,18,ball,critical,D,75,ball65.jpg,ball85.jpg,high,NULL
1687287274,2eed09979955d241f92adaa8f041a9ef,PennController,21,0,experiment,NULL,Video,progression,buffer,0.003854,1687287224649,613497e41da0ea91c27950c4,613497e41da0ea91c27950c4,18,ball,critical,D,75,ball65.jpg,ball85.jpg,high,NULL
1687287274,2eed09979955d241f92adaa8f041a9ef,PennController,21,0,experiment,NULL,Selector,choice,Selection,option1,1687287231708,613497e41da0ea91c27950c4,613497e41da0ea91c27950c4,18,ball,critical,D,75,ball65.jpg,ball85.jpg,high,option2;option1
1687287274,2eed09979955d241f92adaa8f041a9ef,PennController,21,0,experiment,NULL,PennController,20,_Trial_,End,1687287231709,613497e41da0ea91c27950c4,613497e41da0ea91c27950c4,18,ball,critical,D,75,ball65.jpg,ball85.jpg,high,NULL
1687287274,2eed09979955d241f92adaa8f041a9ef,PennController,18,0,experiment,NULL,PennController,17,_Trial_,Start,1687287231711,613497e41da0ea91c27950c4,613497e41da0ea91c27950c4,15,zip,critical,D,75,zip65.jpg,zip85.jpg,high,NULL
1687287274,2eed09979955d241f92adaa8f041a9ef,PennController,18,0,experiment,NULL,PennController,17,_Header_,Start,1687287231711,613497e41da0ea91c27950c4,613497e41da0ea91c27950c4,15,zip,critical,D,75,zip65.jpg,zip85.jpg,high,NULL
1687287274,2eed09979955d241f92adaa8f041a9ef,PennController,18,0,experiment,NULL,PennController,17,_Header_,End,1687287231712,613497e41da0ea91c27950c4,613497e41da0ea91c27950c4,15,zip,critical,D,75,zip65.jpg,zip85.jpg,high,NULL
1687287274,2eed09979955d241f92adaa8f041a9ef,PennController,18,0,experiment,NULL,Canvas,canvas6,Print,NA,1687287238606,613497e41da0ea91c27950c4,613497e41da0ea91c27950c4,15,zip,critical,D,75,zip65.jpg,zip85.jpg,high,NULL
1687287274,2eed09979955d241f92adaa8f041a9ef,PennController,18,0,experiment,NULL,Video,progression,buffer,0.004862,1687287235238,613497e41da0ea91c27950c4,613497e41da0ea91c27950c4,15,zip,critical,D,75,zip65.jpg,zip85.jpg,high,NULL
1687287274,2eed09979955d241f92adaa8f041a9ef,PennController,18,0,experiment,NULL,Selector,choice,Selection,option1,1687287242363,613497e41da0ea91c27950c4,613497e41da0ea91c27950c4,15,zip,critical,D,75,zip65.jpg,zip85.jpg,high,option2;option1
1687287274,2eed09979955d241f92adaa8f041a9ef,PennController,18,0,experiment,NULL,PennController,17,_Trial_,End,1687287242365,613497e41da0ea91c27950c4,613497e41da0ea91c27950c4,15,zip,critical,D,75,zip65.jpg,zip85.jpg,high,NULL
1687287274,2eed09979955d241f92adaa8f041a9ef,PennController,12,0,experiment,NULL,PennController,11,_Trial_,Start,1687287242366,613497e41da0ea91c27950c4,613497e41da0ea91c27950c4,9,cake,critical,D,75,cake66.jpg,cake84.jpg,high,NULL
1687287274,2eed09979955d241f92adaa8f041a9ef,PennController,12,0,experiment,NULL,PennController,11,_Header_,Start,1687287242366,613497e41da0ea91c27950c4,613497e41da0ea91c27950c4,9,cake,critical,D,75,cake66.jpg,cake84.jpg,high,NULL
1687287274,2eed09979955d241f92adaa8f041a9ef,PennController,12,0,experiment,NULL,PennController,11,_Header_,End,1687287242366,613497e41da0ea91c27950c4,613497e41da0ea91c27950c4,9,cake,critical,D,75,cake66.jpg,cake84.jpg,high,NULL
1687287274,2eed09979955d241f92adaa8f041a9ef,PennController,12,0,experiment,NULL,Canvas,canvas6,Print,NA,1687287252069,613497e41da0ea91c27950c4,613497e41da0ea91c27950c4,9,cake,critical,D,75,cake66.jpg,cake84.jpg,high,NULL
1687287274,2eed09979955d241f92adaa8f041a9ef,PennController,12,0,experiment,NULL,Video,progression,buffer,0.003633,1687287245897,613497e41da0ea91c27950c4,613497e41da0ea91c27950c4,9,cake,critical,D,75,cake66.jpg,cake84.jpg,high,NULL
1687287274,2eed09979955d241f92adaa8f041a9ef,PennController,12,0,experiment,NULL,Selector,choice,Selection,option2,1687287254098,613497e41da0ea91c27950c4,613497e41da0ea91c27950c4,9,cake,critical,D,75,cake66.jpg,cake84.jpg,high,option2;option1
1687287274,2eed09979955d241f92adaa8f041a9ef,PennController,12,0,experiment,NULL,PennController,11,_Trial_,End,1687287254100,613497e41da0ea91c27950c4,613497e41da0ea91c27950c4,9,cake,critical,D,75,cake66.jpg,cake84.jpg,high,NULL
1687287274,2eed09979955d241f92adaa8f041a9ef,PennController,17,0,experiment,NULL,PennController,16,_Trial_,Start,1687287254102,613497e41da0ea91c27950c4,613497e41da0ea91c27950c4,14,cover,critical,D,50,cover42.jpg,cover60.jpg,high,NULL
1687287274,2eed09979955d241f92adaa8f041a9ef,PennController,17,0,experiment,NULL,PennController,16,_Header_,Start,1687287254102,613497e41da0ea91c27950c4,613497e41da0ea91c27950c4,14,cover,critical,D,50,cover42.jpg,cover60.jpg,high,NULL
1687287274,2eed09979955d241f92adaa8f041a9ef,PennController,17,0,experiment,NULL,PennController,16,_Header_,End,1687287254102,613497e41da0ea91c27950c4,613497e41da0ea91c27950c4,14,cover,critical,D,50,cover42.jpg,cover60.jpg,high,NULL
1687287274,2eed09979955d241f92adaa8f041a9ef,PennController,17,0,experiment,NULL,Canvas,canvas6,Print,NA,1687287262192,613497e41da0ea91c27950c4,613497e41da0ea91c27950c4,14,cover,critical,D,50,cover42.jpg,cover60.jpg,high,NULL
1687287274,2eed09979955d241f92adaa8f041a9ef,PennController,17,0,experiment,NULL,Video,progression,buffer,0.002577,1687287257625,613497e41da0ea91c27950c4,613497e41da0ea91c27950c4,14,cover,critical,D,50,cover42.jpg,cover60.jpg,high,NULL
1687287274,2eed09979955d241f92adaa8f041a9ef,PennController,17,0,experiment,NULL,Selector,choice,Selection,option1,1687287264113,613497e41da0ea91c27950c4,613497e41da0ea91c27950c4,14,cover,critical,D,50,cover42.jpg,cover60.jpg,high,option2;option1
1687287274,2eed09979955d241f92adaa8f041a9ef,PennController,17,0,experiment,NULL,PennController,16,_Trial_,End,1687287264115,613497e41da0ea91c27950c4,613497e41da0ea91c27950c4,14,cover,critical,D,50,cover42.jpg,cover60.jpg,high,NULL
1687287274,2eed09979955d241f92adaa8f041a9ef,PennController,6,0,experiment,NULL,PennController,5,_Trial_,Start,1687287264116,613497e41da0ea91c27950c4,613497e41da0ea91c27950c4,3,clean,critical,D,75,clean65.jpg,clean85.jpg,high,NULL
1687287274,2eed09979955d241f92adaa8f041a9ef,PennController,6,0,experiment,NULL,PennController,5,_Header_,Start,1687287264116,613497e41da0ea91c27950c4,613497e41da0ea91c27950c4,3,clean,critical,D,75,clean65.jpg,clean85.jpg,high,NULL
1687287274,2eed09979955d241f92adaa8f041a9ef,PennController,6,0,experiment,NULL,PennController,5,_Header_,End,1687287264116,613497e41da0ea91c27950c4,613497e41da0ea91c27950c4,3,clean,critical,D,75,clean65.jpg,clean85.jpg,high,NULL
1687287274,2eed09979955d241f92adaa8f041a9ef,PennController,6,0,experiment,NULL,Canvas,canvas6,Print,NA,1687287271816,613497e41da0ea91c27950c4,613497e41da0ea91c27950c4,3,clean,critical,D,75,clean65.jpg,clean85.jpg,high,NULL
1687287274,2eed09979955d241f92adaa8f041a9ef,PennController,6,0,experiment,NULL,Video,progression,buffer,0.004546,1687287267645,613497e41da0ea91c27950c4,613497e41da0ea91c27950c4,3,clean,critical,D,75,clean65.jpg,clean85.jpg,high,NULL
1687287274,2eed09979955d241f92adaa8f041a9ef,PennController,6,0,experiment,NULL,Selector,choice,Selection,option1,1687287273850,613497e41da0ea91c27950c4,613497e41da0ea91c27950c4,3,clean,critical,D,75,clean65.jpg,clean85.jpg,high,option2;option1
1687287274,2eed09979955d241f92adaa8f041a9ef,PennController,6,0,experiment,NULL,PennController,5,_Trial_,End,1687287273852,613497e41da0ea91c27950c4,613497e41da0ea91c27950c4,3,clean,critical,D,75,clean65.jpg,clean85.jpg,high,NULL
