#
# Results on Tuesday June 20 2023 19:00:11 UTC
# USER AGENT: Mozilla/5.0 (Windows NT 10.0; Win64; x64) AppleWebKit/537.36 (KHTML, like Gecko) Chrome/114.0.0.0 Safari/537.36
# Design number was non-random = 10
#
# Columns below this comment are as follows:
# 1. Results reception time.
# 2. MD5 hash of participant's IP address.
# 3. Controller name.
# 4. Order number of item.
# 5. Inner element number.
# 6. Label.
# 7. Latin Square Group.
# 8. PennElementType.
# 9. PennElementName.
# 10. Parameter.
# 11. Value.
# 12. EventTime.
# 13. PROLIFIC_ID.
# 14. Comments.
1687287611,7e1001a534eba3200d016b174fd1c3a5,PennController,2,0,consent,NULL,PennController,0,_Trial_,Start,1687287276599,61503885693f6ebde3f2fcbc,NULL
1687287611,7e1001a534eba3200d016b174fd1c3a5,PennController,2,0,consent,NULL,PennController,0,_Header_,Start,1687287276599,61503885693f6ebde3f2fcbc,NULL
1687287611,7e1001a534eba3200d016b174fd1c3a5,PennController,2,0,consent,NULL,PennController,0,_Header_,End,1687287276600,61503885693f6ebde3f2fcbc,NULL
1687287611,7e1001a534eba3200d016b174fd1c3a5,PennController,2,0,consent,NULL,PennController,0,_Trial_,End,1687287282093,61503885693f6ebde3f2fcbc,NULL
# Columns below this comment are as follows:
# 14. ID.
# 15. Comments.
1687287611,7e1001a534eba3200d016b174fd1c3a5,PennController,3,0,intro,NULL,PennController,1,_Trial_,Start,1687287282112,61503885693f6ebde3f2fcbc,61503885693f6ebde3f2fcbc,NULL
1687287611,7e1001a534eba3200d016b174fd1c3a5,PennController,3,0,intro,NULL,PennController,1,_Header_,Start,1687287282112,61503885693f6ebde3f2fcbc,61503885693f6ebde3f2fcbc,NULL
1687287611,7e1001a534eba3200d016b174fd1c3a5,PennController,3,0,intro,NULL,PennController,1,_Header_,End,1687287282112,61503885693f6ebde3f2fcbc,61503885693f6ebde3f2fcbc,NULL
1687287611,7e1001a534eba3200d016b174fd1c3a5,PennController,3,0,intro,NULL,PennController,1,_Trial_,End,1687287290295,61503885693f6ebde3f2fcbc,61503885693f6ebde3f2fcbc,NULL
# Columns below this comment are as follows:
# 15. item_number.
# 16. item.
# 17. type.
# 18. Group.
# 19. prog.
# 20. prev_image.
# 21. next_image.
# 22. height.
# 23. Comments.
1687287611,7e1001a534eba3200d016b174fd1c3a5,PennController,29,0,experiment,NULL,PennController,28,_Trial_,Start,1687287290336,61503885693f6ebde3f2fcbc,61503885693f6ebde3f2fcbc,26,sandwich,filler,E,75,sandwich65.jpg,sandwich85.jpg,GoalA,NULL
1687287611,7e1001a534eba3200d016b174fd1c3a5,PennController,29,0,experiment,NULL,PennController,28,_Header_,Start,1687287290336,61503885693f6ebde3f2fcbc,61503885693f6ebde3f2fcbc,26,sandwich,filler,E,75,sandwich65.jpg,sandwich85.jpg,GoalA,NULL
1687287611,7e1001a534eba3200d016b174fd1c3a5,PennController,29,0,experiment,NULL,PennController,28,_Header_,End,1687287290337,61503885693f6ebde3f2fcbc,61503885693f6ebde3f2fcbc,26,sandwich,filler,E,75,sandwich65.jpg,sandwich85.jpg,GoalA,NULL
1687287611,7e1001a534eba3200d016b174fd1c3a5,PennController,29,0,experiment,NULL,Canvas,canvas6,Print,NA,1687287298311,61503885693f6ebde3f2fcbc,61503885693f6ebde3f2fcbc,26,sandwich,filler,E,75,sandwich65.jpg,sandwich85.jpg,GoalA,NULL
1687287611,7e1001a534eba3200d016b174fd1c3a5,PennController,29,0,experiment,NULL,Video,progression,buffer,0.014356,1687287294161,61503885693f6ebde3f2fcbc,61503885693f6ebde3f2fcbc,26,sandwich,filler,E,75,sandwich65.jpg,sandwich85.jpg,GoalA,NULL
1687287611,7e1001a534eba3200d016b174fd1c3a5,PennController,29,0,experiment,NULL,Selector,choice,Selection,option2,1687287301690,61503885693f6ebde3f2fcbc,61503885693f6ebde3f2fcbc,26,sandwich,filler,E,75,sandwich65.jpg,sandwich85.jpg,GoalA,option2;option1
1687287611,7e1001a534eba3200d016b174fd1c3a5,PennController,29,0,experiment,NULL,PennController,28,_Trial_,End,1687287301693,61503885693f6ebde3f2fcbc,61503885693f6ebde3f2fcbc,26,sandwich,filler,E,75,sandwich65.jpg,sandwich85.jpg,GoalA,NULL
1687287611,7e1001a534eba3200d016b174fd1c3a5,PennController,6,0,experiment,NULL,PennController,5,_Trial_,Start,1687287301700,61503885693f6ebde3f2fcbc,61503885693f6ebde3f2fcbc,3,clean,critical,E,25,clean15.jpg,clean35.jpg,high,NULL
1687287611,7e1001a534eba3200d016b174fd1c3a5,PennController,6,0,experiment,NULL,PennController,5,_Header_,Start,1687287301700,61503885693f6ebde3f2fcbc,61503885693f6ebde3f2fcbc,3,clean,critical,E,25,clean15.jpg,clean35.jpg,high,NULL
1687287611,7e1001a534eba3200d016b174fd1c3a5,PennController,6,0,experiment,NULL,PennController,5,_Header_,End,1687287301700,61503885693f6ebde3f2fcbc,61503885693f6ebde3f2fcbc,3,clean,critical,E,25,clean15.jpg,clean35.jpg,high,NULL
1687287611,7e1001a534eba3200d016b174fd1c3a5,PennController,6,0,experiment,NULL,Canvas,canvas6,Print,NA,1687287307425,61503885693f6ebde3f2fcbc,61503885693f6ebde3f2fcbc,3,clean,critical,E,25,clean15.jpg,clean35.jpg,high,NULL
1687287611,7e1001a534eba3200d016b174fd1c3a5,PennController,6,0,experiment,NULL,Video,progression,buffer,0,1687287305253,61503885693f6ebde3f2fcbc,61503885693f6ebde3f2fcbc,3,clean,critical,E,25,clean15.jpg,clean35.jpg,high,NULL
1687287611,7e1001a534eba3200d016b174fd1c3a5,PennController,6,0,experiment,NULL,Selector,choice,Selection,option1,1687287309897,61503885693f6ebde3f2fcbc,61503885693f6ebde3f2fcbc,3,clean,critical,E,25,clean15.jpg,clean35.jpg,high,option2;option1
1687287611,7e1001a534eba3200d016b174fd1c3a5,PennController,6,0,experiment,NULL,PennController,5,_Trial_,End,1687287309900,61503885693f6ebde3f2fcbc,61503885693f6ebde3f2fcbc,3,clean,critical,E,25,clean15.jpg,clean35.jpg,high,NULL
1687287611,7e1001a534eba3200d016b174fd1c3a5,PennController,20,0,experiment,NULL,PennController,19,_Trial_,Start,1687287309902,61503885693f6ebde3f2fcbc,61503885693f6ebde3f2fcbc,17,roll,critical,E,75,roll65.jpg,roll85.jpg,high,NULL
1687287611,7e1001a534eba3200d016b174fd1c3a5,PennController,20,0,experiment,NULL,PennController,19,_Header_,Start,1687287309902,61503885693f6ebde3f2fcbc,61503885693f6ebde3f2fcbc,17,roll,critical,E,75,roll65.jpg,roll85.jpg,high,NULL
1687287611,7e1001a534eba3200d016b174fd1c3a5,PennController,20,0,experiment,NULL,PennController,19,_Header_,End,1687287309902,61503885693f6ebde3f2fcbc,61503885693f6ebde3f2fcbc,17,roll,critical,E,75,roll65.jpg,roll85.jpg,high,NULL
1687287611,7e1001a534eba3200d016b174fd1c3a5,PennController,20,0,experiment,NULL,Canvas,canvas6,Print,NA,1687287317673,61503885693f6ebde3f2fcbc,61503885693f6ebde3f2fcbc,17,roll,critical,E,75,roll65.jpg,roll85.jpg,high,NULL
1687287611,7e1001a534eba3200d016b174fd1c3a5,PennController,20,0,experiment,NULL,Video,progression,buffer,0.020831,1687287313490,61503885693f6ebde3f2fcbc,61503885693f6ebde3f2fcbc,17,roll,critical,E,75,roll65.jpg,roll85.jpg,high,NULL
1687287611,7e1001a534eba3200d016b174fd1c3a5,PennController,20,0,experiment,NULL,Selector,choice,Selection,option2,1687287319232,61503885693f6ebde3f2fcbc,61503885693f6ebde3f2fcbc,17,roll,critical,E,75,roll65.jpg,roll85.jpg,high,option1;option2
1687287611,7e1001a534eba3200d016b174fd1c3a5,PennController,20,0,experiment,NULL,PennController,19,_Trial_,End,1687287319237,61503885693f6ebde3f2fcbc,61503885693f6ebde3f2fcbc,17,roll,critical,E,75,roll65.jpg,roll85.jpg,high,NULL
1687287611,7e1001a534eba3200d016b174fd1c3a5,PennController,30,0,experiment,NULL,PennController,29,_Trial_,Start,1687287319290,61503885693f6ebde3f2fcbc,61503885693f6ebde3f2fcbc,27,square,filler,E,25,square15.jpg,square35.jpg,GoalB,NULL
1687287611,7e1001a534eba3200d016b174fd1c3a5,PennController,30,0,experiment,NULL,PennController,29,_Header_,Start,1687287319290,61503885693f6ebde3f2fcbc,61503885693f6ebde3f2fcbc,27,square,filler,E,25,square15.jpg,square35.jpg,GoalB,NULL
1687287611,7e1001a534eba3200d016b174fd1c3a5,PennController,30,0,experiment,NULL,PennController,29,_Header_,End,1687287319290,61503885693f6ebde3f2fcbc,61503885693f6ebde3f2fcbc,27,square,filler,E,25,square15.jpg,square35.jpg,GoalB,NULL
1687287611,7e1001a534eba3200d016b174fd1c3a5,PennController,30,0,experiment,NULL,Canvas,canvas6,Print,NA,1687287325092,61503885693f6ebde3f2fcbc,61503885693f6ebde3f2fcbc,27,square,filler,E,25,square15.jpg,square35.jpg,GoalB,NULL
1687287611,7e1001a534eba3200d016b174fd1c3a5,PennController,30,0,experiment,NULL,Video,progression,buffer,0.269407,1687287323118,61503885693f6ebde3f2fcbc,61503885693f6ebde3f2fcbc,27,square,filler,E,25,square15.jpg,square35.jpg,GoalB,NULL
1687287611,7e1001a534eba3200d016b174fd1c3a5,PennController,30,0,experiment,NULL,Selector,choice,Selection,option2,1687287346929,61503885693f6ebde3f2fcbc,61503885693f6ebde3f2fcbc,27,square,filler,E,25,square15.jpg,square35.jpg,GoalB,option1;option2
1687287611,7e1001a534eba3200d016b174fd1c3a5,PennController,30,0,experiment,NULL,PennController,29,_Trial_,End,1687287346934,61503885693f6ebde3f2fcbc,61503885693f6ebde3f2fcbc,27,square,filler,E,25,square15.jpg,square35.jpg,GoalB,NULL
1687287611,7e1001a534eba3200d016b174fd1c3a5,PennController,13,0,experiment,NULL,PennController,12,_Trial_,Start,1687287346937,61503885693f6ebde3f2fcbc,61503885693f6ebde3f2fcbc,10,train,critical,E,50,train40.jpg,train60.jpg,high,NULL
1687287611,7e1001a534eba3200d016b174fd1c3a5,PennController,13,0,experiment,NULL,PennController,12,_Header_,Start,1687287346937,61503885693f6ebde3f2fcbc,61503885693f6ebde3f2fcbc,10,train,critical,E,50,train40.jpg,train60.jpg,high,NULL
1687287611,7e1001a534eba3200d016b174fd1c3a5,PennController,13,0,experiment,NULL,PennController,12,_Header_,End,1687287346937,61503885693f6ebde3f2fcbc,61503885693f6ebde3f2fcbc,10,train,critical,E,50,train40.jpg,train60.jpg,high,NULL
1687287611,7e1001a534eba3200d016b174fd1c3a5,PennController,13,0,experiment,NULL,Canvas,canvas6,Print,NA,1687287353679,61503885693f6ebde3f2fcbc,61503885693f6ebde3f2fcbc,10,train,critical,E,50,train40.jpg,train60.jpg,high,NULL
1687287611,7e1001a534eba3200d016b174fd1c3a5,PennController,13,0,experiment,NULL,Video,progression,buffer,0.048502,1687287350559,61503885693f6ebde3f2fcbc,61503885693f6ebde3f2fcbc,10,train,critical,E,50,train40.jpg,train60.jpg,high,NULL
1687287611,7e1001a534eba3200d016b174fd1c3a5,PennController,13,0,experiment,NULL,Selector,choice,Selection,option1,1687287358740,61503885693f6ebde3f2fcbc,61503885693f6ebde3f2fcbc,10,train,critical,E,50,train40.jpg,train60.jpg,high,option1;option2
1687287611,7e1001a534eba3200d016b174fd1c3a5,PennController,13,0,experiment,NULL,PennController,12,_Trial_,End,1687287358746,61503885693f6ebde3f2fcbc,61503885693f6ebde3f2fcbc,10,train,critical,E,50,train40.jpg,train60.jpg,high,NULL
1687287611,7e1001a534eba3200d016b174fd1c3a5,PennController,5,0,experiment,NULL,PennController,4,_Trial_,Start,1687287358841,61503885693f6ebde3f2fcbc,61503885693f6ebde3f2fcbc,2,door,critical,E,75,door65.jpg,door85.jpg,high,NULL
1687287611,7e1001a534eba3200d016b174fd1c3a5,PennController,5,0,experiment,NULL,PennController,4,_Header_,Start,1687287358841,61503885693f6ebde3f2fcbc,61503885693f6ebde3f2fcbc,2,door,critical,E,75,door65.jpg,door85.jpg,high,NULL
1687287611,7e1001a534eba3200d016b174fd1c3a5,PennController,5,0,experiment,NULL,PennController,4,_Header_,End,1687287358841,61503885693f6ebde3f2fcbc,61503885693f6ebde3f2fcbc,2,door,critical,E,75,door65.jpg,door85.jpg,high,NULL
1687287611,7e1001a534eba3200d016b174fd1c3a5,PennController,5,0,experiment,NULL,Canvas,canvas6,Print,NA,1687287366560,61503885693f6ebde3f2fcbc,61503885693f6ebde3f2fcbc,2,door,critical,E,75,door65.jpg,door85.jpg,high,NULL
1687287611,7e1001a534eba3200d016b174fd1c3a5,PennController,5,0,experiment,NULL,Video,progression,buffer,0.03418,1687287362425,61503885693f6ebde3f2fcbc,61503885693f6ebde3f2fcbc,2,door,critical,E,75,door65.jpg,door85.jpg,high,NULL
1687287611,7e1001a534eba3200d016b174fd1c3a5,PennController,5,0,experiment,NULL,Selector,choice,Selection,option2,1687287368217,61503885693f6ebde3f2fcbc,61503885693f6ebde3f2fcbc,2,door,critical,E,75,door65.jpg,door85.jpg,high,option2;option1
1687287611,7e1001a534eba3200d016b174fd1c3a5,PennController,5,0,experiment,NULL,PennController,4,_Trial_,End,1687287368221,61503885693f6ebde3f2fcbc,61503885693f6ebde3f2fcbc,2,door,critical,E,75,door65.jpg,door85.jpg,high,NULL
1687287611,7e1001a534eba3200d016b174fd1c3a5,PennController,8,0,experiment,NULL,PennController,7,_Trial_,Start,1687287368224,61503885693f6ebde3f2fcbc,61503885693f6ebde3f2fcbc,5,book,critical,E,75,book65.jpg,book85.jpg,high,NULL
1687287611,7e1001a534eba3200d016b174fd1c3a5,PennController,8,0,experiment,NULL,PennController,7,_Header_,Start,1687287368224,61503885693f6ebde3f2fcbc,61503885693f6ebde3f2fcbc,5,book,critical,E,75,book65.jpg,book85.jpg,high,NULL
1687287611,7e1001a534eba3200d016b174fd1c3a5,PennController,8,0,experiment,NULL,PennController,7,_Header_,End,1687287368224,61503885693f6ebde3f2fcbc,61503885693f6ebde3f2fcbc,5,book,critical,E,75,book65.jpg,book85.jpg,high,NULL
1687287611,7e1001a534eba3200d016b174fd1c3a5,PennController,8,0,experiment,NULL,Canvas,canvas6,Print,NA,1687287375929,61503885693f6ebde3f2fcbc,61503885693f6ebde3f2fcbc,5,book,critical,E,75,book65.jpg,book85.jpg,high,NULL
1687287611,7e1001a534eba3200d016b174fd1c3a5,PennController,8,0,experiment,NULL,Video,progression,buffer,0.030932,1687287371799,61503885693f6ebde3f2fcbc,61503885693f6ebde3f2fcbc,5,book,critical,E,75,book65.jpg,book85.jpg,high,NULL
1687287611,7e1001a534eba3200d016b174fd1c3a5,PennController,8,0,experiment,NULL,Selector,choice,Selection,option1,1687287377940,61503885693f6ebde3f2fcbc,61503885693f6ebde3f2fcbc,5,book,critical,E,75,book65.jpg,book85.jpg,high,option1;option2
1687287611,7e1001a534eba3200d016b174fd1c3a5,PennController,8,0,experiment,NULL,PennController,7,_Trial_,End,1687287377943,61503885693f6ebde3f2fcbc,61503885693f6ebde3f2fcbc,5,book,critical,E,75,book65.jpg,book85.jpg,high,NULL
1687287611,7e1001a534eba3200d016b174fd1c3a5,PennController,21,0,experiment,NULL,PennController,20,_Trial_,Start,1687287377945,61503885693f6ebde3f2fcbc,61503885693f6ebde3f2fcbc,18,ball,critical,E,25,ball15.jpg,ball35.jpg,high,NULL
1687287611,7e1001a534eba3200d016b174fd1c3a5,PennController,21,0,experiment,NULL,PennController,20,_Header_,Start,1687287377945,61503885693f6ebde3f2fcbc,61503885693f6ebde3f2fcbc,18,ball,critical,E,25,ball15.jpg,ball35.jpg,high,NULL
1687287611,7e1001a534eba3200d016b174fd1c3a5,PennController,21,0,experiment,NULL,PennController,20,_Header_,End,1687287377945,61503885693f6ebde3f2fcbc,61503885693f6ebde3f2fcbc,18,ball,critical,E,25,ball15.jpg,ball35.jpg,high,NULL
1687287611,7e1001a534eba3200d016b174fd1c3a5,PennController,21,0,experiment,NULL,Canvas,canvas6,Print,NA,1687287383661,61503885693f6ebde3f2fcbc,61503885693f6ebde3f2fcbc,18,ball,critical,E,25,ball15.jpg,ball35.jpg,high,NULL
1687287611,7e1001a534eba3200d016b174fd1c3a5,PennController,21,0,experiment,NULL,Video,progression,buffer,0.021552,1687287381502,61503885693f6ebde3f2fcbc,61503885693f6ebde3f2fcbc,18,ball,critical,E,25,ball15.jpg,ball35.jpg,high,NULL
1687287611,7e1001a534eba3200d016b174fd1c3a5,PennController,21,0,experiment,NULL,Selector,choice,Selection,option1,1687287385949,61503885693f6ebde3f2fcbc,61503885693f6ebde3f2fcbc,18,ball,critical,E,25,ball15.jpg,ball35.jpg,high,option1;option2
1687287611,7e1001a534eba3200d016b174fd1c3a5,PennController,21,0,experiment,NULL,PennController,20,_Trial_,End,1687287385952,61503885693f6ebde3f2fcbc,61503885693f6ebde3f2fcbc,18,ball,critical,E,25,ball15.jpg,ball35.jpg,high,NULL
1687287611,7e1001a534eba3200d016b174fd1c3a5,PennController,14,0,experiment,NULL,PennController,13,_Trial_,Start,1687287385955,61503885693f6ebde3f2fcbc,61503885693f6ebde3f2fcbc,11,beads,critical,E,75,beads65.jpg,beads85.jpg,high,NULL
1687287611,7e1001a534eba3200d016b174fd1c3a5,PennController,14,0,experiment,NULL,PennController,13,_Header_,Start,1687287385955,61503885693f6ebde3f2fcbc,61503885693f6ebde3f2fcbc,11,beads,critical,E,75,beads65.jpg,beads85.jpg,high,NULL
1687287611,7e1001a534eba3200d016b174fd1c3a5,PennController,14,0,experiment,NULL,PennController,13,_Header_,End,1687287385955,61503885693f6ebde3f2fcbc,61503885693f6ebde3f2fcbc,11,beads,critical,E,75,beads65.jpg,beads85.jpg,high,NULL
1687287611,7e1001a534eba3200d016b174fd1c3a5,PennController,14,0,experiment,NULL,Canvas,canvas6,Print,NA,1687287393809,61503885693f6ebde3f2fcbc,61503885693f6ebde3f2fcbc,11,beads,critical,E,75,beads65.jpg,beads85.jpg,high,NULL
1687287611,7e1001a534eba3200d016b174fd1c3a5,PennController,14,0,experiment,NULL,Video,progression,buffer,0.005306,1687287389497,61503885693f6ebde3f2fcbc,61503885693f6ebde3f2fcbc,11,beads,critical,E,75,beads65.jpg,beads85.jpg,high,NULL
1687287611,7e1001a534eba3200d016b174fd1c3a5,PennController,14,0,experiment,NULL,Selector,choice,Selection,option2,1687287397291,61503885693f6ebde3f2fcbc,61503885693f6ebde3f2fcbc,11,beads,critical,E,75,beads65.jpg,beads85.jpg,high,option1;option2
1687287611,7e1001a534eba3200d016b174fd1c3a5,PennController,14,0,experiment,NULL,PennController,13,_Trial_,End,1687287397293,61503885693f6ebde3f2fcbc,61503885693f6ebde3f2fcbc,11,beads,critical,E,75,beads65.jpg,beads85.jpg,high,NULL
1687287611,7e1001a534eba3200d016b174fd1c3a5,PennController,4,0,experiment,NULL,PennController,3,_Trial_,Start,1687287397297,61503885693f6ebde3f2fcbc,61503885693f6ebde3f2fcbc,1,vase,critical,E,50,vase40.jpg,vase60.jpg,high,NULL
1687287611,7e1001a534eba3200d016b174fd1c3a5,PennController,4,0,experiment,NULL,PennController,3,_Header_,Start,1687287397297,61503885693f6ebde3f2fcbc,61503885693f6ebde3f2fcbc,1,vase,critical,E,50,vase40.jpg,vase60.jpg,high,NULL
1687287611,7e1001a534eba3200d016b174fd1c3a5,PennController,4,0,experiment,NULL,PennController,3,_Header_,End,1687287397297,61503885693f6ebde3f2fcbc,61503885693f6ebde3f2fcbc,1,vase,critical,E,50,vase40.jpg,vase60.jpg,high,NULL
1687287611,7e1001a534eba3200d016b174fd1c3a5,PennController,4,0,experiment,NULL,Canvas,canvas6,Print,NA,1687287404011,61503885693f6ebde3f2fcbc,61503885693f6ebde3f2fcbc,1,vase,critical,E,50,vase40.jpg,vase60.jpg,high,NULL
1687287611,7e1001a534eba3200d016b174fd1c3a5,PennController,4,0,experiment,NULL,Video,progression,buffer,0.022124,1687287400860,61503885693f6ebde3f2fcbc,61503885693f6ebde3f2fcbc,1,vase,critical,E,50,vase40.jpg,vase60.jpg,high,NULL
1687287611,7e1001a534eba3200d016b174fd1c3a5,PennController,4,0,experiment,NULL,Selector,choice,Selection,option1,1687287410267,61503885693f6ebde3f2fcbc,61503885693f6ebde3f2fcbc,1,vase,critical,E,50,vase40.jpg,vase60.jpg,high,option2;option1
1687287611,7e1001a534eba3200d016b174fd1c3a5,PennController,4,0,experiment,NULL,PennController,3,_Trial_,End,1687287410269,61503885693f6ebde3f2fcbc,61503885693f6ebde3f2fcbc,1,vase,critical,E,50,vase40.jpg,vase60.jpg,high,NULL
1687287611,7e1001a534eba3200d016b174fd1c3a5,PennController,23,0,experiment,NULL,PennController,22,_Trial_,Start,1687287410272,61503885693f6ebde3f2fcbc,61503885693f6ebde3f2fcbc,20,cat,filler,E,75,cat65.jpg,cat85.jpg,GoalA,NULL
1687287611,7e1001a534eba3200d016b174fd1c3a5,PennController,23,0,experiment,NULL,PennController,22,_Header_,Start,1687287410272,61503885693f6ebde3f2fcbc,61503885693f6ebde3f2fcbc,20,cat,filler,E,75,cat65.jpg,cat85.jpg,GoalA,NULL
1687287611,7e1001a534eba3200d016b174fd1c3a5,PennController,23,0,experiment,NULL,PennController,22,_Header_,End,1687287410272,61503885693f6ebde3f2fcbc,61503885693f6ebde3f2fcbc,20,cat,filler,E,75,cat65.jpg,cat85.jpg,GoalA,NULL
1687287611,7e1001a534eba3200d016b174fd1c3a5,PennController,23,0,experiment,NULL,Canvas,canvas6,Print,NA,1687287418001,61503885693f6ebde3f2fcbc,61503885693f6ebde3f2fcbc,20,cat,filler,E,75,cat65.jpg,cat85.jpg,GoalA,NULL
1687287611,7e1001a534eba3200d016b174fd1c3a5,PennController,23,0,experiment,NULL,Video,progression,buffer,0.015641,1687287413851,61503885693f6ebde3f2fcbc,61503885693f6ebde3f2fcbc,20,cat,filler,E,75,cat65.jpg,cat85.jpg,GoalA,NULL
1687287611,7e1001a534eba3200d016b174fd1c3a5,PennController,23,0,experiment,NULL,Selector,choice,Selection,option2,1687287423746,61503885693f6ebde3f2fcbc,61503885693f6ebde3f2fcbc,20,cat,filler,E,75,cat65.jpg,cat85.jpg,GoalA,option2;option1
1687287611,7e1001a534eba3200d016b174fd1c3a5,PennController,23,0,experiment,NULL,PennController,22,_Trial_,End,1687287423748,61503885693f6ebde3f2fcbc,61503885693f6ebde3f2fcbc,20,cat,filler,E,75,cat65.jpg,cat85.jpg,GoalA,NULL
1687287611,7e1001a534eba3200d016b174fd1c3a5,PennController,27,0,experiment,NULL,PennController,26,_Trial_,Start,1687287423751,61503885693f6ebde3f2fcbc,61503885693f6ebde3f2fcbc,24,match,filler,E,25,match15.jpg,match35.jpg,GoalA,NULL
1687287611,7e1001a534eba3200d016b174fd1c3a5,PennController,27,0,experiment,NULL,PennController,26,_Header_,Start,1687287423751,61503885693f6ebde3f2fcbc,61503885693f6ebde3f2fcbc,24,match,filler,E,25,match15.jpg,match35.jpg,GoalA,NULL
1687287611,7e1001a534eba3200d016b174fd1c3a5,PennController,27,0,experiment,NULL,PennController,26,_Header_,End,1687287423751,61503885693f6ebde3f2fcbc,61503885693f6ebde3f2fcbc,24,match,filler,E,25,match15.jpg,match35.jpg,GoalA,NULL
1687287611,7e1001a534eba3200d016b174fd1c3a5,PennController,27,0,experiment,NULL,Canvas,canvas6,Print,NA,1687287429451,61503885693f6ebde3f2fcbc,61503885693f6ebde3f2fcbc,24,match,filler,E,25,match15.jpg,match35.jpg,GoalA,NULL
1687287611,7e1001a534eba3200d016b174fd1c3a5,PennController,27,0,experiment,NULL,Video,progression,buffer,0.014197,1687287427295,61503885693f6ebde3f2fcbc,61503885693f6ebde3f2fcbc,24,match,filler,E,25,match15.jpg,match35.jpg,GoalA,NULL
1687287611,7e1001a534eba3200d016b174fd1c3a5,PennController,27,0,experiment,NULL,Selector,choice,Selection,option1,1687287430550,61503885693f6ebde3f2fcbc,61503885693f6ebde3f2fcbc,24,match,filler,E,25,match15.jpg,match35.jpg,GoalA,option1;option2
1687287611,7e1001a534eba3200d016b174fd1c3a5,PennController,27,0,experiment,NULL,PennController,26,_Trial_,End,1687287430552,61503885693f6ebde3f2fcbc,61503885693f6ebde3f2fcbc,24,match,filler,E,25,match15.jpg,match35.jpg,GoalA,NULL
1687287611,7e1001a534eba3200d016b174fd1c3a5,PennController,31,0,experiment,NULL,PennController,30,_Trial_,Start,1687287430554,61503885693f6ebde3f2fcbc,61503885693f6ebde3f2fcbc,28,sort,filler,E,50,sort40.jpg,sort60.jpg,GoalA,NULL
1687287611,7e1001a534eba3200d016b174fd1c3a5,PennController,31,0,experiment,NULL,PennController,30,_Header_,Start,1687287430554,61503885693f6ebde3f2fcbc,61503885693f6ebde3f2fcbc,28,sort,filler,E,50,sort40.jpg,sort60.jpg,GoalA,NULL
1687287611,7e1001a534eba3200d016b174fd1c3a5,PennController,31,0,experiment,NULL,PennController,30,_Header_,End,1687287430554,61503885693f6ebde3f2fcbc,61503885693f6ebde3f2fcbc,28,sort,filler,E,50,sort40.jpg,sort60.jpg,GoalA,NULL
1687287611,7e1001a534eba3200d016b174fd1c3a5,PennController,31,0,experiment,NULL,Canvas,canvas6,Print,NA,1687287437247,61503885693f6ebde3f2fcbc,61503885693f6ebde3f2fcbc,28,sort,filler,E,50,sort40.jpg,sort60.jpg,GoalA,NULL
1687287611,7e1001a534eba3200d016b174fd1c3a5,PennController,31,0,experiment,NULL,Video,progression,buffer,0.007079,1687287434093,61503885693f6ebde3f2fcbc,61503885693f6ebde3f2fcbc,28,sort,filler,E,50,sort40.jpg,sort60.jpg,GoalA,NULL
1687287611,7e1001a534eba3200d016b174fd1c3a5,PennController,31,0,experiment,NULL,Selector,choice,Selection,option1,1687287439502,61503885693f6ebde3f2fcbc,61503885693f6ebde3f2fcbc,28,sort,filler,E,50,sort40.jpg,sort60.jpg,GoalA,option2;option1
1687287611,7e1001a534eba3200d016b174fd1c3a5,PennController,31,0,experiment,NULL,PennController,30,_Trial_,End,1687287439504,61503885693f6ebde3f2fcbc,61503885693f6ebde3f2fcbc,28,sort,filler,E,50,sort40.jpg,sort60.jpg,GoalA,NULL
1687287611,7e1001a534eba3200d016b174fd1c3a5,PennController,7,0,experiment,NULL,PennController,6,_Trial_,Start,1687287439509,61503885693f6ebde3f2fcbc,61503885693f6ebde3f2fcbc,4,candy,critical,E,50,candy40.jpg,candy60.jpg,high,NULL
1687287611,7e1001a534eba3200d016b174fd1c3a5,PennController,7,0,experiment,NULL,PennController,6,_Header_,Start,1687287439509,61503885693f6ebde3f2fcbc,61503885693f6ebde3f2fcbc,4,candy,critical,E,50,candy40.jpg,candy60.jpg,high,NULL
1687287611,7e1001a534eba3200d016b174fd1c3a5,PennController,7,0,experiment,NULL,PennController,6,_Header_,End,1687287439509,61503885693f6ebde3f2fcbc,61503885693f6ebde3f2fcbc,4,candy,critical,E,50,candy40.jpg,candy60.jpg,high,NULL
1687287611,7e1001a534eba3200d016b174fd1c3a5,PennController,7,0,experiment,NULL,Canvas,canvas6,Print,NA,1687287446207,61503885693f6ebde3f2fcbc,61503885693f6ebde3f2fcbc,4,candy,critical,E,50,candy40.jpg,candy60.jpg,high,NULL
1687287611,7e1001a534eba3200d016b174fd1c3a5,PennController,7,0,experiment,NULL,Video,progression,buffer,0.018988,1687287443052,61503885693f6ebde3f2fcbc,61503885693f6ebde3f2fcbc,4,candy,critical,E,50,candy40.jpg,candy60.jpg,high,NULL
1687287611,7e1001a534eba3200d016b174fd1c3a5,PennController,7,0,experiment,NULL,Selector,choice,Selection,option1,1687287450819,61503885693f6ebde3f2fcbc,61503885693f6ebde3f2fcbc,4,candy,critical,E,50,candy40.jpg,candy60.jpg,high,option1;option2
1687287611,7e1001a534eba3200d016b174fd1c3a5,PennController,7,0,experiment,NULL,PennController,6,_Trial_,End,1687287450823,61503885693f6ebde3f2fcbc,61503885693f6ebde3f2fcbc,4,candy,critical,E,50,candy40.jpg,candy60.jpg,high,NULL
1687287611,7e1001a534eba3200d016b174fd1c3a5,PennController,32,0,experiment,NULL,PennController,31,_Trial_,Start,1687287450824,61503885693f6ebde3f2fcbc,61503885693f6ebde3f2fcbc,29,frog,filler,E,75,frog65.jpg,frog85.jpg,GoalB,NULL
1687287611,7e1001a534eba3200d016b174fd1c3a5,PennController,32,0,experiment,NULL,PennController,31,_Header_,Start,1687287450824,61503885693f6ebde3f2fcbc,61503885693f6ebde3f2fcbc,29,frog,filler,E,75,frog65.jpg,frog85.jpg,GoalB,NULL
1687287611,7e1001a534eba3200d016b174fd1c3a5,PennController,32,0,experiment,NULL,PennController,31,_Header_,End,1687287450824,61503885693f6ebde3f2fcbc,61503885693f6ebde3f2fcbc,29,frog,filler,E,75,frog65.jpg,frog85.jpg,GoalB,NULL
1687287611,7e1001a534eba3200d016b174fd1c3a5,PennController,32,0,experiment,NULL,Canvas,canvas6,Print,NA,1687287458544,61503885693f6ebde3f2fcbc,61503885693f6ebde3f2fcbc,29,frog,filler,E,75,frog65.jpg,frog85.jpg,GoalB,NULL
1687287611,7e1001a534eba3200d016b174fd1c3a5,PennController,32,0,experiment,NULL,Video,progression,buffer,0,1687287454365,61503885693f6ebde3f2fcbc,61503885693f6ebde3f2fcbc,29,frog,filler,E,75,frog65.jpg,frog85.jpg,GoalB,NULL
1687287611,7e1001a534eba3200d016b174fd1c3a5,PennController,32,0,experiment,NULL,Selector,choice,Selection,option1,1687287461158,61503885693f6ebde3f2fcbc,61503885693f6ebde3f2fcbc,29,frog,filler,E,75,frog65.jpg,frog85.jpg,GoalB,option2;option1
1687287611,7e1001a534eba3200d016b174fd1c3a5,PennController,32,0,experiment,NULL,PennController,31,_Trial_,End,1687287461160,61503885693f6ebde3f2fcbc,61503885693f6ebde3f2fcbc,29,frog,filler,E,75,frog65.jpg,frog85.jpg,GoalB,NULL
1687287611,7e1001a534eba3200d016b174fd1c3a5,PennController,10,0,experiment,NULL,PennController,9,_Trial_,Start,1687287461169,61503885693f6ebde3f2fcbc,61503885693f6ebde3f2fcbc,7,stack,critical,E,50,stack40.jpg,stack60.jpg,high,NULL
1687287611,7e1001a534eba3200d016b174fd1c3a5,PennController,10,0,experiment,NULL,PennController,9,_Header_,Start,1687287461169,61503885693f6ebde3f2fcbc,61503885693f6ebde3f2fcbc,7,stack,critical,E,50,stack40.jpg,stack60.jpg,high,NULL
1687287611,7e1001a534eba3200d016b174fd1c3a5,PennController,10,0,experiment,NULL,PennController,9,_Header_,End,1687287461170,61503885693f6ebde3f2fcbc,61503885693f6ebde3f2fcbc,7,stack,critical,E,50,stack40.jpg,stack60.jpg,high,NULL
1687287611,7e1001a534eba3200d016b174fd1c3a5,PennController,10,0,experiment,NULL,Canvas,canvas6,Print,NA,1687287467886,61503885693f6ebde3f2fcbc,61503885693f6ebde3f2fcbc,7,stack,critical,E,50,stack40.jpg,stack60.jpg,high,NULL
1687287611,7e1001a534eba3200d016b174fd1c3a5,PennController,10,0,experiment,NULL,Video,progression,buffer,0.005661,1687287464712,61503885693f6ebde3f2fcbc,61503885693f6ebde3f2fcbc,7,stack,critical,E,50,stack40.jpg,stack60.jpg,high,NULL
1687287611,7e1001a534eba3200d016b174fd1c3a5,PennController,10,0,experiment,NULL,Selector,choice,Selection,option1,1687287469972,61503885693f6ebde3f2fcbc,61503885693f6ebde3f2fcbc,7,stack,critical,E,50,stack40.jpg,stack60.jpg,high,option2;option1
1687287611,7e1001a534eba3200d016b174fd1c3a5,PennController,10,0,experiment,NULL,PennController,9,_Trial_,End,1687287469974,61503885693f6ebde3f2fcbc,61503885693f6ebde3f2fcbc,7,stack,critical,E,50,stack40.jpg,stack60.jpg,high,NULL
1687287611,7e1001a534eba3200d016b174fd1c3a5,PennController,26,0,experiment,NULL,PennController,25,_Trial_,Start,1687287469976,61503885693f6ebde3f2fcbc,61503885693f6ebde3f2fcbc,23,color,filler,E,75,color65.jpg,color85.jpg,GoalB,NULL
1687287611,7e1001a534eba3200d016b174fd1c3a5,PennController,26,0,experiment,NULL,PennController,25,_Header_,Start,1687287469976,61503885693f6ebde3f2fcbc,61503885693f6ebde3f2fcbc,23,color,filler,E,75,color65.jpg,color85.jpg,GoalB,NULL
1687287611,7e1001a534eba3200d016b174fd1c3a5,PennController,26,0,experiment,NULL,PennController,25,_Header_,End,1687287469976,61503885693f6ebde3f2fcbc,61503885693f6ebde3f2fcbc,23,color,filler,E,75,color65.jpg,color85.jpg,GoalB,NULL
1687287611,7e1001a534eba3200d016b174fd1c3a5,PennController,26,0,experiment,NULL,Canvas,canvas6,Print,NA,1687287477690,61503885693f6ebde3f2fcbc,61503885693f6ebde3f2fcbc,23,color,filler,E,75,color65.jpg,color85.jpg,GoalB,NULL
1687287611,7e1001a534eba3200d016b174fd1c3a5,PennController,26,0,experiment,NULL,Video,progression,buffer,0.04701,1687287473566,61503885693f6ebde3f2fcbc,61503885693f6ebde3f2fcbc,23,color,filler,E,75,color65.jpg,color85.jpg,GoalB,NULL
1687287611,7e1001a534eba3200d016b174fd1c3a5,PennController,26,0,experiment,NULL,Selector,choice,Selection,option2,1687287482605,61503885693f6ebde3f2fcbc,61503885693f6ebde3f2fcbc,23,color,filler,E,75,color65.jpg,color85.jpg,GoalB,option1;option2
1687287611,7e1001a534eba3200d016b174fd1c3a5,PennController,26,0,experiment,NULL,PennController,25,_Trial_,End,1687287482608,61503885693f6ebde3f2fcbc,61503885693f6ebde3f2fcbc,23,color,filler,E,75,color65.jpg,color85.jpg,GoalB,NULL
1687287611,7e1001a534eba3200d016b174fd1c3a5,PennController,9,0,experiment,NULL,PennController,8,_Trial_,Start,1687287482611,61503885693f6ebde3f2fcbc,61503885693f6ebde3f2fcbc,6,flower,critical,E,25,flower15.jpg,flower35.jpg,high,NULL
1687287611,7e1001a534eba3200d016b174fd1c3a5,PennController,9,0,experiment,NULL,PennController,8,_Header_,Start,1687287482611,61503885693f6ebde3f2fcbc,61503885693f6ebde3f2fcbc,6,flower,critical,E,25,flower15.jpg,flower35.jpg,high,NULL
1687287611,7e1001a534eba3200d016b174fd1c3a5,PennController,9,0,experiment,NULL,PennController,8,_Header_,End,1687287482611,61503885693f6ebde3f2fcbc,61503885693f6ebde3f2fcbc,6,flower,critical,E,25,flower15.jpg,flower35.jpg,high,NULL
1687287611,7e1001a534eba3200d016b174fd1c3a5,PennController,9,0,experiment,NULL,Canvas,canvas6,Print,NA,1687287488322,61503885693f6ebde3f2fcbc,61503885693f6ebde3f2fcbc,6,flower,critical,E,25,flower15.jpg,flower35.jpg,high,NULL
1687287611,7e1001a534eba3200d016b174fd1c3a5,PennController,9,0,experiment,NULL,Video,progression,buffer,0.004881,1687287486159,61503885693f6ebde3f2fcbc,61503885693f6ebde3f2fcbc,6,flower,critical,E,25,flower15.jpg,flower35.jpg,high,NULL
1687287611,7e1001a534eba3200d016b174fd1c3a5,PennController,9,0,experiment,NULL,Selector,choice,Selection,option1,1687287491630,61503885693f6ebde3f2fcbc,61503885693f6ebde3f2fcbc,6,flower,critical,E,25,flower15.jpg,flower35.jpg,high,option1;option2
1687287611,7e1001a534eba3200d016b174fd1c3a5,PennController,9,0,experiment,NULL,PennController,8,_Trial_,End,1687287491632,61503885693f6ebde3f2fcbc,61503885693f6ebde3f2fcbc,6,flower,critical,E,25,flower15.jpg,flower35.jpg,high,NULL
1687287611,7e1001a534eba3200d016b174fd1c3a5,PennController,12,0,experiment,NULL,PennController,11,_Trial_,Start,1687287491634,61503885693f6ebde3f2fcbc,61503885693f6ebde3f2fcbc,9,cake,critical,E,25,cake15.jpg,cake33.jpg,high,NULL
1687287611,7e1001a534eba3200d016b174fd1c3a5,PennController,12,0,experiment,NULL,PennController,11,_Header_,Start,1687287491634,61503885693f6ebde3f2fcbc,61503885693f6ebde3f2fcbc,9,cake,critical,E,25,cake15.jpg,cake33.jpg,high,NULL
1687287611,7e1001a534eba3200d016b174fd1c3a5,PennController,12,0,experiment,NULL,PennController,11,_Header_,End,1687287491634,61503885693f6ebde3f2fcbc,61503885693f6ebde3f2fcbc,9,cake,critical,E,25,cake15.jpg,cake33.jpg,high,NULL
1687287611,7e1001a534eba3200d016b174fd1c3a5,PennController,12,0,experiment,NULL,Canvas,canvas6,Print,NA,1687287497948,61503885693f6ebde3f2fcbc,61503885693f6ebde3f2fcbc,9,cake,critical,E,25,cake15.jpg,cake33.jpg,high,NULL
1687287611,7e1001a534eba3200d016b174fd1c3a5,PennController,12,0,experiment,NULL,Video,progression,buffer,0,1687287495178,61503885693f6ebde3f2fcbc,61503885693f6ebde3f2fcbc,9,cake,critical,E,25,cake15.jpg,cake33.jpg,high,NULL
1687287611,7e1001a534eba3200d016b174fd1c3a5,PennController,12,0,experiment,NULL,Selector,choice,Selection,option1,1687287499695,61503885693f6ebde3f2fcbc,61503885693f6ebde3f2fcbc,9,cake,critical,E,25,cake15.jpg,cake33.jpg,high,option1;option2
1687287611,7e1001a534eba3200d016b174fd1c3a5,PennController,12,0,experiment,NULL,PennController,11,_Trial_,End,1687287499697,61503885693f6ebde3f2fcbc,61503885693f6ebde3f2fcbc,9,cake,critical,E,25,cake15.jpg,cake33.jpg,high,NULL
1687287611,7e1001a534eba3200d016b174fd1c3a5,PennController,15,0,experiment,NULL,PennController,14,_Trial_,Start,1687287499699,61503885693f6ebde3f2fcbc,61503885693f6ebde3f2fcbc,12,erase,critical,E,25,erase15.jpg,erase33.jpg,high,NULL
1687287611,7e1001a534eba3200d016b174fd1c3a5,PennController,15,0,experiment,NULL,PennController,14,_Header_,Start,1687287499699,61503885693f6ebde3f2fcbc,61503885693f6ebde3f2fcbc,12,erase,critical,E,25,erase15.jpg,erase33.jpg,high,NULL
1687287611,7e1001a534eba3200d016b174fd1c3a5,PennController,15,0,experiment,NULL,PennController,14,_Header_,End,1687287499699,61503885693f6ebde3f2fcbc,61503885693f6ebde3f2fcbc,12,erase,critical,E,25,erase15.jpg,erase33.jpg,high,NULL
1687287611,7e1001a534eba3200d016b174fd1c3a5,PennController,15,0,experiment,NULL,Canvas,canvas6,Print,NA,1687287505990,61503885693f6ebde3f2fcbc,61503885693f6ebde3f2fcbc,12,erase,critical,E,25,erase15.jpg,erase33.jpg,high,NULL
1687287611,7e1001a534eba3200d016b174fd1c3a5,PennController,15,0,experiment,NULL,Video,progression,buffer,0.010587,1687287503238,61503885693f6ebde3f2fcbc,61503885693f6ebde3f2fcbc,12,erase,critical,E,25,erase15.jpg,erase33.jpg,high,NULL
1687287611,7e1001a534eba3200d016b174fd1c3a5,PennController,15,0,experiment,NULL,Selector,choice,Selection,option1,1687287508321,61503885693f6ebde3f2fcbc,61503885693f6ebde3f2fcbc,12,erase,critical,E,25,erase15.jpg,erase33.jpg,high,option2;option1
1687287611,7e1001a534eba3200d016b174fd1c3a5,PennController,15,0,experiment,NULL,PennController,14,_Trial_,End,1687287508323,61503885693f6ebde3f2fcbc,61503885693f6ebde3f2fcbc,12,erase,critical,E,25,erase15.jpg,erase33.jpg,high,NULL
1687287611,7e1001a534eba3200d016b174fd1c3a5,PennController,19,0,experiment,NULL,PennController,18,_Trial_,Start,1687287508325,61503885693f6ebde3f2fcbc,61503885693f6ebde3f2fcbc,16,blinds,critical,E,50,blinds42.jpg,blinds60.jpg,high,NULL
1687287611,7e1001a534eba3200d016b174fd1c3a5,PennController,19,0,experiment,NULL,PennController,18,_Header_,Start,1687287508325,61503885693f6ebde3f2fcbc,61503885693f6ebde3f2fcbc,16,blinds,critical,E,50,blinds42.jpg,blinds60.jpg,high,NULL
1687287611,7e1001a534eba3200d016b174fd1c3a5,PennController,19,0,experiment,NULL,PennController,18,_Header_,End,1687287508325,61503885693f6ebde3f2fcbc,61503885693f6ebde3f2fcbc,16,blinds,critical,E,50,blinds42.jpg,blinds60.jpg,high,NULL
1687287611,7e1001a534eba3200d016b174fd1c3a5,PennController,19,0,experiment,NULL,Canvas,canvas6,Print,NA,1687287516448,61503885693f6ebde3f2fcbc,61503885693f6ebde3f2fcbc,16,blinds,critical,E,50,blinds42.jpg,blinds60.jpg,high,NULL
1687287611,7e1001a534eba3200d016b174fd1c3a5,PennController,19,0,experiment,NULL,Video,progression,buffer,0.000967,1687287511869,61503885693f6ebde3f2fcbc,61503885693f6ebde3f2fcbc,16,blinds,critical,E,50,blinds42.jpg,blinds60.jpg,high,NULL
1687287611,7e1001a534eba3200d016b174fd1c3a5,PennController,19,0,experiment,NULL,Selector,choice,Selection,option2,1687287519683,61503885693f6ebde3f2fcbc,61503885693f6ebde3f2fcbc,16,blinds,critical,E,50,blinds42.jpg,blinds60.jpg,high,option1;option2
1687287611,7e1001a534eba3200d016b174fd1c3a5,PennController,19,0,experiment,NULL,PennController,18,_Trial_,End,1687287519685,61503885693f6ebde3f2fcbc,61503885693f6ebde3f2fcbc,16,blinds,critical,E,50,blinds42.jpg,blinds60.jpg,high,NULL
1687287611,7e1001a534eba3200d016b174fd1c3a5,PennController,28,0,experiment,NULL,PennController,27,_Trial_,Start,1687287519686,61503885693f6ebde3f2fcbc,61503885693f6ebde3f2fcbc,25,house,filler,E,50,house40.jpg,house60.jpg,GoalB,NULL
1687287611,7e1001a534eba3200d016b174fd1c3a5,PennController,28,0,experiment,NULL,PennController,27,_Header_,Start,1687287519686,61503885693f6ebde3f2fcbc,61503885693f6ebde3f2fcbc,25,house,filler,E,50,house40.jpg,house60.jpg,GoalB,NULL
1687287611,7e1001a534eba3200d016b174fd1c3a5,PennController,28,0,experiment,NULL,PennController,27,_Header_,End,1687287519686,61503885693f6ebde3f2fcbc,61503885693f6ebde3f2fcbc,25,house,filler,E,50,house40.jpg,house60.jpg,GoalB,NULL
1687287611,7e1001a534eba3200d016b174fd1c3a5,PennController,28,0,experiment,NULL,Canvas,canvas6,Print,NA,1687287526434,61503885693f6ebde3f2fcbc,61503885693f6ebde3f2fcbc,25,house,filler,E,50,house40.jpg,house60.jpg,GoalB,NULL
1687287611,7e1001a534eba3200d016b174fd1c3a5,PennController,28,0,experiment,NULL,Video,progression,buffer,0.014146,1687287523236,61503885693f6ebde3f2fcbc,61503885693f6ebde3f2fcbc,25,house,filler,E,50,house40.jpg,house60.jpg,GoalB,NULL
1687287611,7e1001a534eba3200d016b174fd1c3a5,PennController,28,0,experiment,NULL,Selector,choice,Selection,option1,1687287529037,61503885693f6ebde3f2fcbc,61503885693f6ebde3f2fcbc,25,house,filler,E,50,house40.jpg,house60.jpg,GoalB,option2;option1
1687287611,7e1001a534eba3200d016b174fd1c3a5,PennController,28,0,experiment,NULL,PennController,27,_Trial_,End,1687287529039,61503885693f6ebde3f2fcbc,61503885693f6ebde3f2fcbc,25,house,filler,E,50,house40.jpg,house60.jpg,GoalB,NULL
1687287611,7e1001a534eba3200d016b174fd1c3a5,PennController,11,0,experiment,NULL,PennController,10,_Trial_,Start,1687287529042,61503885693f6ebde3f2fcbc,61503885693f6ebde3f2fcbc,8,cucumber,critical,E,75,cucumber66.jpg,cucumber84.jpg,high,NULL
1687287611,7e1001a534eba3200d016b174fd1c3a5,PennController,11,0,experiment,NULL,PennController,10,_Header_,Start,1687287529042,61503885693f6ebde3f2fcbc,61503885693f6ebde3f2fcbc,8,cucumber,critical,E,75,cucumber66.jpg,cucumber84.jpg,high,NULL
1687287611,7e1001a534eba3200d016b174fd1c3a5,PennController,11,0,experiment,NULL,PennController,10,_Header_,End,1687287529042,61503885693f6ebde3f2fcbc,61503885693f6ebde3f2fcbc,8,cucumber,critical,E,75,cucumber66.jpg,cucumber84.jpg,high,NULL
1687287611,7e1001a534eba3200d016b174fd1c3a5,PennController,11,0,experiment,NULL,Canvas,canvas6,Print,NA,1687287538737,61503885693f6ebde3f2fcbc,61503885693f6ebde3f2fcbc,8,cucumber,critical,E,75,cucumber66.jpg,cucumber84.jpg,high,NULL
1687287611,7e1001a534eba3200d016b174fd1c3a5,PennController,11,0,experiment,NULL,Video,progression,buffer,0.002345,1687287532578,61503885693f6ebde3f2fcbc,61503885693f6ebde3f2fcbc,8,cucumber,critical,E,75,cucumber66.jpg,cucumber84.jpg,high,NULL
1687287611,7e1001a534eba3200d016b174fd1c3a5,PennController,11,0,experiment,NULL,Selector,choice,Selection,option2,1687287542490,61503885693f6ebde3f2fcbc,61503885693f6ebde3f2fcbc,8,cucumber,critical,E,75,cucumber66.jpg,cucumber84.jpg,high,option1;option2
1687287611,7e1001a534eba3200d016b174fd1c3a5,PennController,11,0,experiment,NULL,PennController,10,_Trial_,End,1687287542493,61503885693f6ebde3f2fcbc,61503885693f6ebde3f2fcbc,8,cucumber,critical,E,75,cucumber66.jpg,cucumber84.jpg,high,NULL
1687287611,7e1001a534eba3200d016b174fd1c3a5,PennController,17,0,experiment,NULL,PennController,16,_Trial_,Start,1687287542495,61503885693f6ebde3f2fcbc,61503885693f6ebde3f2fcbc,14,cover,critical,E,75,cover66.jpg,cover84.jpg,high,NULL
1687287611,7e1001a534eba3200d016b174fd1c3a5,PennController,17,0,experiment,NULL,PennController,16,_Header_,Start,1687287542495,61503885693f6ebde3f2fcbc,61503885693f6ebde3f2fcbc,14,cover,critical,E,75,cover66.jpg,cover84.jpg,high,NULL
1687287611,7e1001a534eba3200d016b174fd1c3a5,PennController,17,0,experiment,NULL,PennController,16,_Header_,End,1687287542495,61503885693f6ebde3f2fcbc,61503885693f6ebde3f2fcbc,14,cover,critical,E,75,cover66.jpg,cover84.jpg,high,NULL
1687287611,7e1001a534eba3200d016b174fd1c3a5,PennController,17,0,experiment,NULL,Canvas,canvas6,Print,NA,1687287552187,61503885693f6ebde3f2fcbc,61503885693f6ebde3f2fcbc,14,cover,critical,E,75,cover66.jpg,cover84.jpg,high,NULL
1687287611,7e1001a534eba3200d016b174fd1c3a5,PennController,17,0,experiment,NULL,Video,progression,buffer,0.012293,1687287546042,61503885693f6ebde3f2fcbc,61503885693f6ebde3f2fcbc,14,cover,critical,E,75,cover66.jpg,cover84.jpg,high,NULL
1687287611,7e1001a534eba3200d016b174fd1c3a5,PennController,17,0,experiment,NULL,Selector,choice,Selection,option1,1687287553694,61503885693f6ebde3f2fcbc,61503885693f6ebde3f2fcbc,14,cover,critical,E,75,cover66.jpg,cover84.jpg,high,option2;option1
1687287611,7e1001a534eba3200d016b174fd1c3a5,PennController,17,0,experiment,NULL,PennController,16,_Trial_,End,1687287553698,61503885693f6ebde3f2fcbc,61503885693f6ebde3f2fcbc,14,cover,critical,E,75,cover66.jpg,cover84.jpg,high,NULL
1687287611,7e1001a534eba3200d016b174fd1c3a5,PennController,25,0,experiment,NULL,PennController,24,_Trial_,Start,1687287553700,61503885693f6ebde3f2fcbc,61503885693f6ebde3f2fcbc,22,wall,filler,E,50,wall40.jpg,wall60.jpg,GoalA,NULL
1687287611,7e1001a534eba3200d016b174fd1c3a5,PennController,25,0,experiment,NULL,PennController,24,_Header_,Start,1687287553700,61503885693f6ebde3f2fcbc,61503885693f6ebde3f2fcbc,22,wall,filler,E,50,wall40.jpg,wall60.jpg,GoalA,NULL
1687287611,7e1001a534eba3200d016b174fd1c3a5,PennController,25,0,experiment,NULL,PennController,24,_Header_,End,1687287553700,61503885693f6ebde3f2fcbc,61503885693f6ebde3f2fcbc,22,wall,filler,E,50,wall40.jpg,wall60.jpg,GoalA,NULL
1687287611,7e1001a534eba3200d016b174fd1c3a5,PennController,25,0,experiment,NULL,Canvas,canvas6,Print,NA,1687287560424,61503885693f6ebde3f2fcbc,61503885693f6ebde3f2fcbc,22,wall,filler,E,50,wall40.jpg,wall60.jpg,GoalA,NULL
1687287611,7e1001a534eba3200d016b174fd1c3a5,PennController,25,0,experiment,NULL,Video,progression,buffer,0.036808,1687287557281,61503885693f6ebde3f2fcbc,61503885693f6ebde3f2fcbc,22,wall,filler,E,50,wall40.jpg,wall60.jpg,GoalA,NULL
1687287611,7e1001a534eba3200d016b174fd1c3a5,PennController,25,0,experiment,NULL,Selector,choice,Selection,option2,1687287567303,61503885693f6ebde3f2fcbc,61503885693f6ebde3f2fcbc,22,wall,filler,E,50,wall40.jpg,wall60.jpg,GoalA,option1;option2
1687287611,7e1001a534eba3200d016b174fd1c3a5,PennController,25,0,experiment,NULL,PennController,24,_Trial_,End,1687287567305,61503885693f6ebde3f2fcbc,61503885693f6ebde3f2fcbc,22,wall,filler,E,50,wall40.jpg,wall60.jpg,GoalA,NULL
1687287611,7e1001a534eba3200d016b174fd1c3a5,PennController,16,0,experiment,NULL,PennController,15,_Trial_,Start,1687287567307,61503885693f6ebde3f2fcbc,61503885693f6ebde3f2fcbc,13,mix,critical,E,50,mix40.jpg,mix60.jpg,high,NULL
1687287611,7e1001a534eba3200d016b174fd1c3a5,PennController,16,0,experiment,NULL,PennController,15,_Header_,Start,1687287567307,61503885693f6ebde3f2fcbc,61503885693f6ebde3f2fcbc,13,mix,critical,E,50,mix40.jpg,mix60.jpg,high,NULL
1687287611,7e1001a534eba3200d016b174fd1c3a5,PennController,16,0,experiment,NULL,PennController,15,_Header_,End,1687287567307,61503885693f6ebde3f2fcbc,61503885693f6ebde3f2fcbc,13,mix,critical,E,50,mix40.jpg,mix60.jpg,high,NULL
1687287611,7e1001a534eba3200d016b174fd1c3a5,PennController,16,0,experiment,NULL,Canvas,canvas6,Print,NA,1687287574012,61503885693f6ebde3f2fcbc,61503885693f6ebde3f2fcbc,13,mix,critical,E,50,mix40.jpg,mix60.jpg,high,NULL
1687287611,7e1001a534eba3200d016b174fd1c3a5,PennController,16,0,experiment,NULL,Video,progression,buffer,0.023916,1687287570868,61503885693f6ebde3f2fcbc,61503885693f6ebde3f2fcbc,13,mix,critical,E,50,mix40.jpg,mix60.jpg,high,NULL
1687287611,7e1001a534eba3200d016b174fd1c3a5,PennController,16,0,experiment,NULL,Selector,choice,Selection,option1,1687287575676,61503885693f6ebde3f2fcbc,61503885693f6ebde3f2fcbc,13,mix,critical,E,50,mix40.jpg,mix60.jpg,high,option2;option1
1687287611,7e1001a534eba3200d016b174fd1c3a5,PennController,16,0,experiment,NULL,PennController,15,_Trial_,End,1687287575678,61503885693f6ebde3f2fcbc,61503885693f6ebde3f2fcbc,13,mix,critical,E,50,mix40.jpg,mix60.jpg,high,NULL
1687287611,7e1001a534eba3200d016b174fd1c3a5,PennController,24,0,experiment,NULL,PennController,23,_Trial_,Start,1687287575680,61503885693f6ebde3f2fcbc,61503885693f6ebde3f2fcbc,21,visit,filler,E,25,visit15.jpg,visit35.jpg,GoalB,NULL
1687287611,7e1001a534eba3200d016b174fd1c3a5,PennController,24,0,experiment,NULL,PennController,23,_Header_,Start,1687287575680,61503885693f6ebde3f2fcbc,61503885693f6ebde3f2fcbc,21,visit,filler,E,25,visit15.jpg,visit35.jpg,GoalB,NULL
1687287611,7e1001a534eba3200d016b174fd1c3a5,PennController,24,0,experiment,NULL,PennController,23,_Header_,End,1687287575680,61503885693f6ebde3f2fcbc,61503885693f6ebde3f2fcbc,21,visit,filler,E,25,visit15.jpg,visit35.jpg,GoalB,NULL
1687287611,7e1001a534eba3200d016b174fd1c3a5,PennController,24,0,experiment,NULL,Canvas,canvas6,Print,NA,1687287581387,61503885693f6ebde3f2fcbc,61503885693f6ebde3f2fcbc,21,visit,filler,E,25,visit15.jpg,visit35.jpg,GoalB,NULL
1687287611,7e1001a534eba3200d016b174fd1c3a5,PennController,24,0,experiment,NULL,Video,progression,buffer,0.007789,1687287579221,61503885693f6ebde3f2fcbc,61503885693f6ebde3f2fcbc,21,visit,filler,E,25,visit15.jpg,visit35.jpg,GoalB,NULL
1687287611,7e1001a534eba3200d016b174fd1c3a5,PennController,24,0,experiment,NULL,Selector,choice,Selection,option2,1687287584337,61503885693f6ebde3f2fcbc,61503885693f6ebde3f2fcbc,21,visit,filler,E,25,visit15.jpg,visit35.jpg,GoalB,option2;option1
1687287611,7e1001a534eba3200d016b174fd1c3a5,PennController,24,0,experiment,NULL,PennController,23,_Trial_,End,1687287584339,61503885693f6ebde3f2fcbc,61503885693f6ebde3f2fcbc,21,visit,filler,E,25,visit15.jpg,visit35.jpg,GoalB,NULL
1687287611,7e1001a534eba3200d016b174fd1c3a5,PennController,18,0,experiment,NULL,PennController,17,_Trial_,Start,1687287584342,61503885693f6ebde3f2fcbc,61503885693f6ebde3f2fcbc,15,zip,critical,E,25,zip15.jpg,zip35.jpg,high,NULL
1687287611,7e1001a534eba3200d016b174fd1c3a5,PennController,18,0,experiment,NULL,PennController,17,_Header_,Start,1687287584342,61503885693f6ebde3f2fcbc,61503885693f6ebde3f2fcbc,15,zip,critical,E,25,zip15.jpg,zip35.jpg,high,NULL
1687287611,7e1001a534eba3200d016b174fd1c3a5,PennController,18,0,experiment,NULL,PennController,17,_Header_,End,1687287584342,61503885693f6ebde3f2fcbc,61503885693f6ebde3f2fcbc,15,zip,critical,E,25,zip15.jpg,zip35.jpg,high,NULL
1687287611,7e1001a534eba3200d016b174fd1c3a5,PennController,18,0,experiment,NULL,Canvas,canvas6,Print,NA,1687287590045,61503885693f6ebde3f2fcbc,61503885693f6ebde3f2fcbc,15,zip,critical,E,25,zip15.jpg,zip35.jpg,high,NULL
1687287611,7e1001a534eba3200d016b174fd1c3a5,PennController,18,0,experiment,NULL,Video,progression,buffer,0.007083,1687287587888,61503885693f6ebde3f2fcbc,61503885693f6ebde3f2fcbc,15,zip,critical,E,25,zip15.jpg,zip35.jpg,high,NULL
1687287611,7e1001a534eba3200d016b174fd1c3a5,PennController,18,0,experiment,NULL,Selector,choice,Selection,option2,1687287603198,61503885693f6ebde3f2fcbc,61503885693f6ebde3f2fcbc,15,zip,critical,E,25,zip15.jpg,zip35.jpg,high,option1;option2
1687287611,7e1001a534eba3200d016b174fd1c3a5,PennController,18,0,experiment,NULL,PennController,17,_Trial_,End,1687287603201,61503885693f6ebde3f2fcbc,61503885693f6ebde3f2fcbc,15,zip,critical,E,25,zip15.jpg,zip35.jpg,high,NULL
1687287611,7e1001a534eba3200d016b174fd1c3a5,PennController,22,0,experiment,NULL,PennController,21,_Trial_,Start,1687287603203,61503885693f6ebde3f2fcbc,61503885693f6ebde3f2fcbc,19,cup,filler,E,50,cup40.jpg,cup60.jpg,GoalB,NULL
1687287611,7e1001a534eba3200d016b174fd1c3a5,PennController,22,0,experiment,NULL,PennController,21,_Header_,Start,1687287603203,61503885693f6ebde3f2fcbc,61503885693f6ebde3f2fcbc,19,cup,filler,E,50,cup40.jpg,cup60.jpg,GoalB,NULL
1687287611,7e1001a534eba3200d016b174fd1c3a5,PennController,22,0,experiment,NULL,PennController,21,_Header_,End,1687287603203,61503885693f6ebde3f2fcbc,61503885693f6ebde3f2fcbc,19,cup,filler,E,50,cup40.jpg,cup60.jpg,GoalB,NULL
1687287611,7e1001a534eba3200d016b174fd1c3a5,PennController,22,0,experiment,NULL,Canvas,canvas6,Print,NA,1687287609910,61503885693f6ebde3f2fcbc,61503885693f6ebde3f2fcbc,19,cup,filler,E,50,cup40.jpg,cup60.jpg,GoalB,NULL
1687287611,7e1001a534eba3200d016b174fd1c3a5,PennController,22,0,experiment,NULL,Video,progression,buffer,0.00515,1687287606739,61503885693f6ebde3f2fcbc,61503885693f6ebde3f2fcbc,19,cup,filler,E,50,cup40.jpg,cup60.jpg,GoalB,NULL
1687287611,7e1001a534eba3200d016b174fd1c3a5,PennController,22,0,experiment,NULL,Selector,choice,Selection,option1,1687287610942,61503885693f6ebde3f2fcbc,61503885693f6ebde3f2fcbc,19,cup,filler,E,50,cup40.jpg,cup60.jpg,GoalB,option2;option1
1687287611,7e1001a534eba3200d016b174fd1c3a5,PennController,22,0,experiment,NULL,PennController,21,_Trial_,End,1687287610944,61503885693f6ebde3f2fcbc,61503885693f6ebde3f2fcbc,19,cup,filler,E,50,cup40.jpg,cup60.jpg,GoalB,NULL
