#
# Results on Thursday June 22 2023 05:50:43 UTC
# USER AGENT: Mozilla/5.0 (Macintosh; Intel Mac OS X 10_15_7) AppleWebKit/537.36 (KHTML, like Gecko) Chrome/114.0.0.0 Safari/537.36
# Design number was non-random = 87
#
# Columns below this comment are as follows:
# 1. Results reception time.
# 2. MD5 hash of participant's IP address.
# 3. Controller name.
# 4. Order number of item.
# 5. Inner element number.
# 6. Label.
# 7. Latin Square Group.
# 8. PennElementType.
# 9. PennElementName.
# 10. Parameter.
# 11. Value.
# 12. EventTime.
# 13. PROLIFIC_ID.
# 14. Comments.
1687413043,8fa43b2ba718ef8364d87cd4041a8a17,PennController,3,0,consent,NULL,PennController,0,_Trial_,Start,1687412742835,5c2d3ba4731cd10001b647d7,NULL
1687413043,8fa43b2ba718ef8364d87cd4041a8a17,PennController,3,0,consent,NULL,PennController,0,_Header_,Start,1687412742835,5c2d3ba4731cd10001b647d7,NULL
1687413043,8fa43b2ba718ef8364d87cd4041a8a17,PennController,3,0,consent,NULL,PennController,0,_Header_,End,1687412742835,5c2d3ba4731cd10001b647d7,NULL
1687413043,8fa43b2ba718ef8364d87cd4041a8a17,PennController,3,0,consent,NULL,PennController,0,_Trial_,End,1687412747028,5c2d3ba4731cd10001b647d7,NULL
# Columns below this comment are as follows:
# 14. ID.
# 15. Comments.
1687413043,8fa43b2ba718ef8364d87cd4041a8a17,PennController,4,0,intro,NULL,PennController,1,_Trial_,Start,1687412747029,5c2d3ba4731cd10001b647d7,5c2d3ba4731cd10001b647d7,NULL
1687413043,8fa43b2ba718ef8364d87cd4041a8a17,PennController,4,0,intro,NULL,PennController,1,_Header_,Start,1687412747029,5c2d3ba4731cd10001b647d7,5c2d3ba4731cd10001b647d7,NULL
1687413043,8fa43b2ba718ef8364d87cd4041a8a17,PennController,4,0,intro,NULL,PennController,1,_Header_,End,1687412747029,5c2d3ba4731cd10001b647d7,5c2d3ba4731cd10001b647d7,NULL
1687413043,8fa43b2ba718ef8364d87cd4041a8a17,PennController,4,0,intro,NULL,PennController,1,_Trial_,End,1687412768235,5c2d3ba4731cd10001b647d7,5c2d3ba4731cd10001b647d7,NULL
# Columns below this comment are as follows:
# 15. item_number.
# 16. item.
# 17. type.
# 18. Group.
# 19. prog.
# 20. prev_image.
# 21. next_image.
# 22. height.
# 23. Comments.
1687413043,8fa43b2ba718ef8364d87cd4041a8a17,PennController,18,0,experiment,NULL,PennController,16,_Trial_,Start,1687412768237,5c2d3ba4731cd10001b647d7,5c2d3ba4731cd10001b647d7,14,cover,critical,B,75,cover66.jpg,cover84.jpg,low,NULL
1687413043,8fa43b2ba718ef8364d87cd4041a8a17,PennController,18,0,experiment,NULL,PennController,16,_Header_,Start,1687412768237,5c2d3ba4731cd10001b647d7,5c2d3ba4731cd10001b647d7,14,cover,critical,B,75,cover66.jpg,cover84.jpg,low,NULL
1687413043,8fa43b2ba718ef8364d87cd4041a8a17,PennController,18,0,experiment,NULL,PennController,16,_Header_,End,1687412768237,5c2d3ba4731cd10001b647d7,5c2d3ba4731cd10001b647d7,14,cover,critical,B,75,cover66.jpg,cover84.jpg,low,NULL
1687413043,8fa43b2ba718ef8364d87cd4041a8a17,PennController,18,0,experiment,NULL,Canvas,canvas6,Print,NA,1687412777979,5c2d3ba4731cd10001b647d7,5c2d3ba4731cd10001b647d7,14,cover,critical,B,75,cover66.jpg,cover84.jpg,low,NULL
1687413043,8fa43b2ba718ef8364d87cd4041a8a17,PennController,18,0,experiment,NULL,Video,progression,buffer,0.001166,1687412771760,5c2d3ba4731cd10001b647d7,5c2d3ba4731cd10001b647d7,14,cover,critical,B,75,cover66.jpg,cover84.jpg,low,NULL
1687413043,8fa43b2ba718ef8364d87cd4041a8a17,PennController,18,0,experiment,NULL,Selector,choice,Selection,option1,1687412783375,5c2d3ba4731cd10001b647d7,5c2d3ba4731cd10001b647d7,14,cover,critical,B,75,cover66.jpg,cover84.jpg,low,option1;option2
1687413043,8fa43b2ba718ef8364d87cd4041a8a17,PennController,18,0,experiment,NULL,PennController,16,_Trial_,End,1687412783378,5c2d3ba4731cd10001b647d7,5c2d3ba4731cd10001b647d7,14,cover,critical,B,75,cover66.jpg,cover84.jpg,low,NULL
1687413043,8fa43b2ba718ef8364d87cd4041a8a17,PennController,21,0,experiment,NULL,PennController,19,_Trial_,Start,1687412783381,5c2d3ba4731cd10001b647d7,5c2d3ba4731cd10001b647d7,17,roll,critical,B,75,roll65.jpg,roll85.jpg,low,NULL
1687413043,8fa43b2ba718ef8364d87cd4041a8a17,PennController,21,0,experiment,NULL,PennController,19,_Header_,Start,1687412783381,5c2d3ba4731cd10001b647d7,5c2d3ba4731cd10001b647d7,17,roll,critical,B,75,roll65.jpg,roll85.jpg,low,NULL
1687413043,8fa43b2ba718ef8364d87cd4041a8a17,PennController,21,0,experiment,NULL,PennController,19,_Header_,End,1687412783381,5c2d3ba4731cd10001b647d7,5c2d3ba4731cd10001b647d7,17,roll,critical,B,75,roll65.jpg,roll85.jpg,low,NULL
1687413043,8fa43b2ba718ef8364d87cd4041a8a17,PennController,21,0,experiment,NULL,Canvas,canvas6,Print,NA,1687412791095,5c2d3ba4731cd10001b647d7,5c2d3ba4731cd10001b647d7,17,roll,critical,B,75,roll65.jpg,roll85.jpg,low,NULL
1687413043,8fa43b2ba718ef8364d87cd4041a8a17,PennController,21,0,experiment,NULL,Video,progression,buffer,0.002493,1687412786909,5c2d3ba4731cd10001b647d7,5c2d3ba4731cd10001b647d7,17,roll,critical,B,75,roll65.jpg,roll85.jpg,low,NULL
1687413043,8fa43b2ba718ef8364d87cd4041a8a17,PennController,21,0,experiment,NULL,Selector,choice,Selection,option1,1687412793784,5c2d3ba4731cd10001b647d7,5c2d3ba4731cd10001b647d7,17,roll,critical,B,75,roll65.jpg,roll85.jpg,low,option1;option2
1687413043,8fa43b2ba718ef8364d87cd4041a8a17,PennController,21,0,experiment,NULL,PennController,19,_Trial_,End,1687412793786,5c2d3ba4731cd10001b647d7,5c2d3ba4731cd10001b647d7,17,roll,critical,B,75,roll65.jpg,roll85.jpg,low,NULL
1687413043,8fa43b2ba718ef8364d87cd4041a8a17,PennController,6,0,experiment,NULL,PennController,4,_Trial_,Start,1687412793788,5c2d3ba4731cd10001b647d7,5c2d3ba4731cd10001b647d7,2,door,critical,B,75,door65.jpg,door85.jpg,low,NULL
1687413043,8fa43b2ba718ef8364d87cd4041a8a17,PennController,6,0,experiment,NULL,PennController,4,_Header_,Start,1687412793788,5c2d3ba4731cd10001b647d7,5c2d3ba4731cd10001b647d7,2,door,critical,B,75,door65.jpg,door85.jpg,low,NULL
1687413043,8fa43b2ba718ef8364d87cd4041a8a17,PennController,6,0,experiment,NULL,PennController,4,_Header_,End,1687412793788,5c2d3ba4731cd10001b647d7,5c2d3ba4731cd10001b647d7,2,door,critical,B,75,door65.jpg,door85.jpg,low,NULL
1687413043,8fa43b2ba718ef8364d87cd4041a8a17,PennController,6,0,experiment,NULL,Canvas,canvas6,Print,NA,1687412801498,5c2d3ba4731cd10001b647d7,5c2d3ba4731cd10001b647d7,2,door,critical,B,75,door65.jpg,door85.jpg,low,NULL
1687413043,8fa43b2ba718ef8364d87cd4041a8a17,PennController,6,0,experiment,NULL,Video,progression,buffer,0.002675,1687412797309,5c2d3ba4731cd10001b647d7,5c2d3ba4731cd10001b647d7,2,door,critical,B,75,door65.jpg,door85.jpg,low,NULL
1687413043,8fa43b2ba718ef8364d87cd4041a8a17,PennController,6,0,experiment,NULL,Selector,choice,Selection,option1,1687412805168,5c2d3ba4731cd10001b647d7,5c2d3ba4731cd10001b647d7,2,door,critical,B,75,door65.jpg,door85.jpg,low,option1;option2
1687413043,8fa43b2ba718ef8364d87cd4041a8a17,PennController,6,0,experiment,NULL,PennController,4,_Trial_,End,1687412805170,5c2d3ba4731cd10001b647d7,5c2d3ba4731cd10001b647d7,2,door,critical,B,75,door65.jpg,door85.jpg,low,NULL
1687413043,8fa43b2ba718ef8364d87cd4041a8a17,PennController,30,0,experiment,NULL,PennController,28,_Trial_,Start,1687412805172,5c2d3ba4731cd10001b647d7,5c2d3ba4731cd10001b647d7,26,sandwich,filler,B,75,sandwich65.jpg,sandwich85.jpg,GoalB,NULL
1687413043,8fa43b2ba718ef8364d87cd4041a8a17,PennController,30,0,experiment,NULL,PennController,28,_Header_,Start,1687412805172,5c2d3ba4731cd10001b647d7,5c2d3ba4731cd10001b647d7,26,sandwich,filler,B,75,sandwich65.jpg,sandwich85.jpg,GoalB,NULL
1687413043,8fa43b2ba718ef8364d87cd4041a8a17,PennController,30,0,experiment,NULL,PennController,28,_Header_,End,1687412805172,5c2d3ba4731cd10001b647d7,5c2d3ba4731cd10001b647d7,26,sandwich,filler,B,75,sandwich65.jpg,sandwich85.jpg,GoalB,NULL
1687413043,8fa43b2ba718ef8364d87cd4041a8a17,PennController,30,0,experiment,NULL,Canvas,canvas6,Print,NA,1687412812895,5c2d3ba4731cd10001b647d7,5c2d3ba4731cd10001b647d7,26,sandwich,filler,B,75,sandwich65.jpg,sandwich85.jpg,GoalB,NULL
1687413043,8fa43b2ba718ef8364d87cd4041a8a17,PennController,30,0,experiment,NULL,Video,progression,buffer,0.0068,1687412808707,5c2d3ba4731cd10001b647d7,5c2d3ba4731cd10001b647d7,26,sandwich,filler,B,75,sandwich65.jpg,sandwich85.jpg,GoalB,NULL
1687413043,8fa43b2ba718ef8364d87cd4041a8a17,PennController,30,0,experiment,NULL,Selector,choice,Selection,option1,1687412816283,5c2d3ba4731cd10001b647d7,5c2d3ba4731cd10001b647d7,26,sandwich,filler,B,75,sandwich65.jpg,sandwich85.jpg,GoalB,option2;option1
1687413043,8fa43b2ba718ef8364d87cd4041a8a17,PennController,30,0,experiment,NULL,PennController,28,_Trial_,End,1687412816286,5c2d3ba4731cd10001b647d7,5c2d3ba4731cd10001b647d7,26,sandwich,filler,B,75,sandwich65.jpg,sandwich85.jpg,GoalB,NULL
1687413043,8fa43b2ba718ef8364d87cd4041a8a17,PennController,5,0,experiment,NULL,PennController,3,_Trial_,Start,1687412816288,5c2d3ba4731cd10001b647d7,5c2d3ba4731cd10001b647d7,1,vase,critical,B,50,vase40.jpg,vase60.jpg,low,NULL
1687413043,8fa43b2ba718ef8364d87cd4041a8a17,PennController,5,0,experiment,NULL,PennController,3,_Header_,Start,1687412816288,5c2d3ba4731cd10001b647d7,5c2d3ba4731cd10001b647d7,1,vase,critical,B,50,vase40.jpg,vase60.jpg,low,NULL
1687413043,8fa43b2ba718ef8364d87cd4041a8a17,PennController,5,0,experiment,NULL,PennController,3,_Header_,End,1687412816288,5c2d3ba4731cd10001b647d7,5c2d3ba4731cd10001b647d7,1,vase,critical,B,50,vase40.jpg,vase60.jpg,low,NULL
1687413043,8fa43b2ba718ef8364d87cd4041a8a17,PennController,5,0,experiment,NULL,Canvas,canvas6,Print,NA,1687412823005,5c2d3ba4731cd10001b647d7,5c2d3ba4731cd10001b647d7,1,vase,critical,B,50,vase40.jpg,vase60.jpg,low,NULL
1687413043,8fa43b2ba718ef8364d87cd4041a8a17,PennController,5,0,experiment,NULL,Video,progression,buffer,0.002308,1687412819815,5c2d3ba4731cd10001b647d7,5c2d3ba4731cd10001b647d7,1,vase,critical,B,50,vase40.jpg,vase60.jpg,low,NULL
1687413043,8fa43b2ba718ef8364d87cd4041a8a17,PennController,5,0,experiment,NULL,Selector,choice,Selection,option1,1687412825462,5c2d3ba4731cd10001b647d7,5c2d3ba4731cd10001b647d7,1,vase,critical,B,50,vase40.jpg,vase60.jpg,low,option2;option1
1687413043,8fa43b2ba718ef8364d87cd4041a8a17,PennController,5,0,experiment,NULL,PennController,3,_Trial_,End,1687412825464,5c2d3ba4731cd10001b647d7,5c2d3ba4731cd10001b647d7,1,vase,critical,B,50,vase40.jpg,vase60.jpg,low,NULL
1687413043,8fa43b2ba718ef8364d87cd4041a8a17,PennController,9,0,experiment,NULL,PennController,7,_Trial_,Start,1687412825466,5c2d3ba4731cd10001b647d7,5c2d3ba4731cd10001b647d7,5,book,critical,B,75,book65.jpg,book85.jpg,low,NULL
1687413043,8fa43b2ba718ef8364d87cd4041a8a17,PennController,9,0,experiment,NULL,PennController,7,_Header_,Start,1687412825466,5c2d3ba4731cd10001b647d7,5c2d3ba4731cd10001b647d7,5,book,critical,B,75,book65.jpg,book85.jpg,low,NULL
1687413043,8fa43b2ba718ef8364d87cd4041a8a17,PennController,9,0,experiment,NULL,PennController,7,_Header_,End,1687412825466,5c2d3ba4731cd10001b647d7,5c2d3ba4731cd10001b647d7,5,book,critical,B,75,book65.jpg,book85.jpg,low,NULL
1687413043,8fa43b2ba718ef8364d87cd4041a8a17,PennController,9,0,experiment,NULL,Canvas,canvas6,Print,NA,1687412833194,5c2d3ba4731cd10001b647d7,5c2d3ba4731cd10001b647d7,5,book,critical,B,75,book65.jpg,book85.jpg,low,NULL
1687413043,8fa43b2ba718ef8364d87cd4041a8a17,PennController,9,0,experiment,NULL,Video,progression,buffer,0.002269,1687412828998,5c2d3ba4731cd10001b647d7,5c2d3ba4731cd10001b647d7,5,book,critical,B,75,book65.jpg,book85.jpg,low,NULL
1687413043,8fa43b2ba718ef8364d87cd4041a8a17,PennController,9,0,experiment,NULL,Selector,choice,Selection,option1,1687412839346,5c2d3ba4731cd10001b647d7,5c2d3ba4731cd10001b647d7,5,book,critical,B,75,book65.jpg,book85.jpg,low,option2;option1
1687413043,8fa43b2ba718ef8364d87cd4041a8a17,PennController,9,0,experiment,NULL,PennController,7,_Trial_,End,1687412839349,5c2d3ba4731cd10001b647d7,5c2d3ba4731cd10001b647d7,5,book,critical,B,75,book65.jpg,book85.jpg,low,NULL
1687413043,8fa43b2ba718ef8364d87cd4041a8a17,PennController,15,0,experiment,NULL,PennController,13,_Trial_,Start,1687412839350,5c2d3ba4731cd10001b647d7,5c2d3ba4731cd10001b647d7,11,beads,critical,B,75,beads65.jpg,beads85.jpg,low,NULL
1687413043,8fa43b2ba718ef8364d87cd4041a8a17,PennController,15,0,experiment,NULL,PennController,13,_Header_,Start,1687412839350,5c2d3ba4731cd10001b647d7,5c2d3ba4731cd10001b647d7,11,beads,critical,B,75,beads65.jpg,beads85.jpg,low,NULL
1687413043,8fa43b2ba718ef8364d87cd4041a8a17,PennController,15,0,experiment,NULL,PennController,13,_Header_,End,1687412839351,5c2d3ba4731cd10001b647d7,5c2d3ba4731cd10001b647d7,11,beads,critical,B,75,beads65.jpg,beads85.jpg,low,NULL
1687413043,8fa43b2ba718ef8364d87cd4041a8a17,PennController,15,0,experiment,NULL,Canvas,canvas6,Print,NA,1687412847073,5c2d3ba4731cd10001b647d7,5c2d3ba4731cd10001b647d7,11,beads,critical,B,75,beads65.jpg,beads85.jpg,low,NULL
1687413043,8fa43b2ba718ef8364d87cd4041a8a17,PennController,15,0,experiment,NULL,Video,progression,buffer,0.002144,1687412842875,5c2d3ba4731cd10001b647d7,5c2d3ba4731cd10001b647d7,11,beads,critical,B,75,beads65.jpg,beads85.jpg,low,NULL
1687413043,8fa43b2ba718ef8364d87cd4041a8a17,PennController,15,0,experiment,NULL,Selector,choice,Selection,option2,1687412849289,5c2d3ba4731cd10001b647d7,5c2d3ba4731cd10001b647d7,11,beads,critical,B,75,beads65.jpg,beads85.jpg,low,option2;option1
1687413043,8fa43b2ba718ef8364d87cd4041a8a17,PennController,15,0,experiment,NULL,PennController,13,_Trial_,End,1687412849291,5c2d3ba4731cd10001b647d7,5c2d3ba4731cd10001b647d7,11,beads,critical,B,75,beads65.jpg,beads85.jpg,low,NULL
1687413043,8fa43b2ba718ef8364d87cd4041a8a17,PennController,8,0,experiment,NULL,PennController,6,_Trial_,Start,1687412849293,5c2d3ba4731cd10001b647d7,5c2d3ba4731cd10001b647d7,4,candy,critical,B,50,candy40.jpg,candy60.jpg,low,NULL
1687413043,8fa43b2ba718ef8364d87cd4041a8a17,PennController,8,0,experiment,NULL,PennController,6,_Header_,Start,1687412849293,5c2d3ba4731cd10001b647d7,5c2d3ba4731cd10001b647d7,4,candy,critical,B,50,candy40.jpg,candy60.jpg,low,NULL
1687413043,8fa43b2ba718ef8364d87cd4041a8a17,PennController,8,0,experiment,NULL,PennController,6,_Header_,End,1687412849293,5c2d3ba4731cd10001b647d7,5c2d3ba4731cd10001b647d7,4,candy,critical,B,50,candy40.jpg,candy60.jpg,low,NULL
1687413043,8fa43b2ba718ef8364d87cd4041a8a17,PennController,8,0,experiment,NULL,Canvas,canvas6,Print,NA,1687412856008,5c2d3ba4731cd10001b647d7,5c2d3ba4731cd10001b647d7,4,candy,critical,B,50,candy40.jpg,candy60.jpg,low,NULL
1687413043,8fa43b2ba718ef8364d87cd4041a8a17,PennController,8,0,experiment,NULL,Video,progression,buffer,0.002418,1687412852825,5c2d3ba4731cd10001b647d7,5c2d3ba4731cd10001b647d7,4,candy,critical,B,50,candy40.jpg,candy60.jpg,low,NULL
1687413043,8fa43b2ba718ef8364d87cd4041a8a17,PennController,8,0,experiment,NULL,Selector,choice,Selection,option1,1687412857785,5c2d3ba4731cd10001b647d7,5c2d3ba4731cd10001b647d7,4,candy,critical,B,50,candy40.jpg,candy60.jpg,low,option1;option2
1687413043,8fa43b2ba718ef8364d87cd4041a8a17,PennController,8,0,experiment,NULL,PennController,6,_Trial_,End,1687412857788,5c2d3ba4731cd10001b647d7,5c2d3ba4731cd10001b647d7,4,candy,critical,B,50,candy40.jpg,candy60.jpg,low,NULL
1687413043,8fa43b2ba718ef8364d87cd4041a8a17,PennController,28,0,experiment,NULL,PennController,26,_Trial_,Start,1687412857789,5c2d3ba4731cd10001b647d7,5c2d3ba4731cd10001b647d7,24,match,filler,B,25,match15.jpg,match35.jpg,GoalB,NULL
1687413043,8fa43b2ba718ef8364d87cd4041a8a17,PennController,28,0,experiment,NULL,PennController,26,_Header_,Start,1687412857789,5c2d3ba4731cd10001b647d7,5c2d3ba4731cd10001b647d7,24,match,filler,B,25,match15.jpg,match35.jpg,GoalB,NULL
1687413043,8fa43b2ba718ef8364d87cd4041a8a17,PennController,28,0,experiment,NULL,PennController,26,_Header_,End,1687412857789,5c2d3ba4731cd10001b647d7,5c2d3ba4731cd10001b647d7,24,match,filler,B,25,match15.jpg,match35.jpg,GoalB,NULL
1687413043,8fa43b2ba718ef8364d87cd4041a8a17,PennController,28,0,experiment,NULL,Canvas,canvas6,Print,NA,1687412863498,5c2d3ba4731cd10001b647d7,5c2d3ba4731cd10001b647d7,24,match,filler,B,25,match15.jpg,match35.jpg,GoalB,NULL
1687413043,8fa43b2ba718ef8364d87cd4041a8a17,PennController,28,0,experiment,NULL,Video,progression,buffer,0.002154,1687412861315,5c2d3ba4731cd10001b647d7,5c2d3ba4731cd10001b647d7,24,match,filler,B,25,match15.jpg,match35.jpg,GoalB,NULL
1687413043,8fa43b2ba718ef8364d87cd4041a8a17,PennController,28,0,experiment,NULL,Selector,choice,Selection,option1,1687412866223,5c2d3ba4731cd10001b647d7,5c2d3ba4731cd10001b647d7,24,match,filler,B,25,match15.jpg,match35.jpg,GoalB,option1;option2
1687413043,8fa43b2ba718ef8364d87cd4041a8a17,PennController,28,0,experiment,NULL,PennController,26,_Trial_,End,1687412866225,5c2d3ba4731cd10001b647d7,5c2d3ba4731cd10001b647d7,24,match,filler,B,25,match15.jpg,match35.jpg,GoalB,NULL
1687413043,8fa43b2ba718ef8364d87cd4041a8a17,PennController,10,0,experiment,NULL,PennController,8,_Trial_,Start,1687412866227,5c2d3ba4731cd10001b647d7,5c2d3ba4731cd10001b647d7,6,flower,critical,B,25,flower15.jpg,flower35.jpg,low,NULL
1687413043,8fa43b2ba718ef8364d87cd4041a8a17,PennController,10,0,experiment,NULL,PennController,8,_Header_,Start,1687412866227,5c2d3ba4731cd10001b647d7,5c2d3ba4731cd10001b647d7,6,flower,critical,B,25,flower15.jpg,flower35.jpg,low,NULL
1687413043,8fa43b2ba718ef8364d87cd4041a8a17,PennController,10,0,experiment,NULL,PennController,8,_Header_,End,1687412866227,5c2d3ba4731cd10001b647d7,5c2d3ba4731cd10001b647d7,6,flower,critical,B,25,flower15.jpg,flower35.jpg,low,NULL
1687413043,8fa43b2ba718ef8364d87cd4041a8a17,PennController,10,0,experiment,NULL,Canvas,canvas6,Print,NA,1687412871946,5c2d3ba4731cd10001b647d7,5c2d3ba4731cd10001b647d7,6,flower,critical,B,25,flower15.jpg,flower35.jpg,low,NULL
1687413043,8fa43b2ba718ef8364d87cd4041a8a17,PennController,10,0,experiment,NULL,Video,progression,buffer,0.003349,1687412869756,5c2d3ba4731cd10001b647d7,5c2d3ba4731cd10001b647d7,6,flower,critical,B,25,flower15.jpg,flower35.jpg,low,NULL
1687413043,8fa43b2ba718ef8364d87cd4041a8a17,PennController,10,0,experiment,NULL,Selector,choice,Selection,option1,1687412873432,5c2d3ba4731cd10001b647d7,5c2d3ba4731cd10001b647d7,6,flower,critical,B,25,flower15.jpg,flower35.jpg,low,option1;option2
1687413043,8fa43b2ba718ef8364d87cd4041a8a17,PennController,10,0,experiment,NULL,PennController,8,_Trial_,End,1687412873434,5c2d3ba4731cd10001b647d7,5c2d3ba4731cd10001b647d7,6,flower,critical,B,25,flower15.jpg,flower35.jpg,low,NULL
1687413043,8fa43b2ba718ef8364d87cd4041a8a17,PennController,12,0,experiment,NULL,PennController,10,_Trial_,Start,1687412873436,5c2d3ba4731cd10001b647d7,5c2d3ba4731cd10001b647d7,8,cucumber,critical,B,75,cucumber66.jpg,cucumber84.jpg,low,NULL
1687413043,8fa43b2ba718ef8364d87cd4041a8a17,PennController,12,0,experiment,NULL,PennController,10,_Header_,Start,1687412873436,5c2d3ba4731cd10001b647d7,5c2d3ba4731cd10001b647d7,8,cucumber,critical,B,75,cucumber66.jpg,cucumber84.jpg,low,NULL
1687413043,8fa43b2ba718ef8364d87cd4041a8a17,PennController,12,0,experiment,NULL,PennController,10,_Header_,End,1687412873436,5c2d3ba4731cd10001b647d7,5c2d3ba4731cd10001b647d7,8,cucumber,critical,B,75,cucumber66.jpg,cucumber84.jpg,low,NULL
1687413043,8fa43b2ba718ef8364d87cd4041a8a17,PennController,12,0,experiment,NULL,Canvas,canvas6,Print,NA,1687412883167,5c2d3ba4731cd10001b647d7,5c2d3ba4731cd10001b647d7,8,cucumber,critical,B,75,cucumber66.jpg,cucumber84.jpg,low,NULL
1687413043,8fa43b2ba718ef8364d87cd4041a8a17,PennController,12,0,experiment,NULL,Video,progression,buffer,0.001762,1687412876962,5c2d3ba4731cd10001b647d7,5c2d3ba4731cd10001b647d7,8,cucumber,critical,B,75,cucumber66.jpg,cucumber84.jpg,low,NULL
1687413043,8fa43b2ba718ef8364d87cd4041a8a17,PennController,12,0,experiment,NULL,Selector,choice,Selection,option2,1687412885730,5c2d3ba4731cd10001b647d7,5c2d3ba4731cd10001b647d7,8,cucumber,critical,B,75,cucumber66.jpg,cucumber84.jpg,low,option2;option1
1687413043,8fa43b2ba718ef8364d87cd4041a8a17,PennController,12,0,experiment,NULL,PennController,10,_Trial_,End,1687412885732,5c2d3ba4731cd10001b647d7,5c2d3ba4731cd10001b647d7,8,cucumber,critical,B,75,cucumber66.jpg,cucumber84.jpg,low,NULL
1687413043,8fa43b2ba718ef8364d87cd4041a8a17,PennController,32,0,experiment,NULL,PennController,30,_Trial_,Start,1687412885734,5c2d3ba4731cd10001b647d7,5c2d3ba4731cd10001b647d7,28,sort,filler,B,50,sort40.jpg,sort60.jpg,GoalB,NULL
1687413043,8fa43b2ba718ef8364d87cd4041a8a17,PennController,32,0,experiment,NULL,PennController,30,_Header_,Start,1687412885734,5c2d3ba4731cd10001b647d7,5c2d3ba4731cd10001b647d7,28,sort,filler,B,50,sort40.jpg,sort60.jpg,GoalB,NULL
1687413043,8fa43b2ba718ef8364d87cd4041a8a17,PennController,32,0,experiment,NULL,PennController,30,_Header_,End,1687412885734,5c2d3ba4731cd10001b647d7,5c2d3ba4731cd10001b647d7,28,sort,filler,B,50,sort40.jpg,sort60.jpg,GoalB,NULL
1687413043,8fa43b2ba718ef8364d87cd4041a8a17,PennController,32,0,experiment,NULL,Canvas,canvas6,Print,NA,1687412892448,5c2d3ba4731cd10001b647d7,5c2d3ba4731cd10001b647d7,28,sort,filler,B,50,sort40.jpg,sort60.jpg,GoalB,NULL
1687413043,8fa43b2ba718ef8364d87cd4041a8a17,PennController,32,0,experiment,NULL,Video,progression,buffer,0.004161,1687412889264,5c2d3ba4731cd10001b647d7,5c2d3ba4731cd10001b647d7,28,sort,filler,B,50,sort40.jpg,sort60.jpg,GoalB,NULL
1687413043,8fa43b2ba718ef8364d87cd4041a8a17,PennController,32,0,experiment,NULL,Selector,choice,Selection,option2,1687412894493,5c2d3ba4731cd10001b647d7,5c2d3ba4731cd10001b647d7,28,sort,filler,B,50,sort40.jpg,sort60.jpg,GoalB,option2;option1
1687413043,8fa43b2ba718ef8364d87cd4041a8a17,PennController,32,0,experiment,NULL,PennController,30,_Trial_,End,1687412894495,5c2d3ba4731cd10001b647d7,5c2d3ba4731cd10001b647d7,28,sort,filler,B,50,sort40.jpg,sort60.jpg,GoalB,NULL
1687413043,8fa43b2ba718ef8364d87cd4041a8a17,PennController,16,0,experiment,NULL,PennController,14,_Trial_,Start,1687412894497,5c2d3ba4731cd10001b647d7,5c2d3ba4731cd10001b647d7,12,erase,critical,B,25,erase15.jpg,erase33.jpg,low,NULL
1687413043,8fa43b2ba718ef8364d87cd4041a8a17,PennController,16,0,experiment,NULL,PennController,14,_Header_,Start,1687412894497,5c2d3ba4731cd10001b647d7,5c2d3ba4731cd10001b647d7,12,erase,critical,B,25,erase15.jpg,erase33.jpg,low,NULL
1687413043,8fa43b2ba718ef8364d87cd4041a8a17,PennController,16,0,experiment,NULL,PennController,14,_Header_,End,1687412894497,5c2d3ba4731cd10001b647d7,5c2d3ba4731cd10001b647d7,12,erase,critical,B,25,erase15.jpg,erase33.jpg,low,NULL
1687413043,8fa43b2ba718ef8364d87cd4041a8a17,PennController,16,0,experiment,NULL,Canvas,canvas6,Print,NA,1687412900807,5c2d3ba4731cd10001b647d7,5c2d3ba4731cd10001b647d7,12,erase,critical,B,25,erase15.jpg,erase33.jpg,low,NULL
1687413043,8fa43b2ba718ef8364d87cd4041a8a17,PennController,16,0,experiment,NULL,Video,progression,buffer,0.001495,1687412898022,5c2d3ba4731cd10001b647d7,5c2d3ba4731cd10001b647d7,12,erase,critical,B,25,erase15.jpg,erase33.jpg,low,NULL
1687413043,8fa43b2ba718ef8364d87cd4041a8a17,PennController,16,0,experiment,NULL,Selector,choice,Selection,option2,1687412903065,5c2d3ba4731cd10001b647d7,5c2d3ba4731cd10001b647d7,12,erase,critical,B,25,erase15.jpg,erase33.jpg,low,option1;option2
1687413043,8fa43b2ba718ef8364d87cd4041a8a17,PennController,16,0,experiment,NULL,PennController,14,_Trial_,End,1687412903067,5c2d3ba4731cd10001b647d7,5c2d3ba4731cd10001b647d7,12,erase,critical,B,25,erase15.jpg,erase33.jpg,low,NULL
1687413043,8fa43b2ba718ef8364d87cd4041a8a17,PennController,24,0,experiment,NULL,PennController,22,_Trial_,Start,1687412903069,5c2d3ba4731cd10001b647d7,5c2d3ba4731cd10001b647d7,20,cat,filler,B,75,cat65.jpg,cat85.jpg,GoalB,NULL
1687413043,8fa43b2ba718ef8364d87cd4041a8a17,PennController,24,0,experiment,NULL,PennController,22,_Header_,Start,1687412903069,5c2d3ba4731cd10001b647d7,5c2d3ba4731cd10001b647d7,20,cat,filler,B,75,cat65.jpg,cat85.jpg,GoalB,NULL
1687413043,8fa43b2ba718ef8364d87cd4041a8a17,PennController,24,0,experiment,NULL,PennController,22,_Header_,End,1687412903069,5c2d3ba4731cd10001b647d7,5c2d3ba4731cd10001b647d7,20,cat,filler,B,75,cat65.jpg,cat85.jpg,GoalB,NULL
1687413043,8fa43b2ba718ef8364d87cd4041a8a17,PennController,24,0,experiment,NULL,Canvas,canvas6,Print,NA,1687412910796,5c2d3ba4731cd10001b647d7,5c2d3ba4731cd10001b647d7,20,cat,filler,B,75,cat65.jpg,cat85.jpg,GoalB,NULL
1687413043,8fa43b2ba718ef8364d87cd4041a8a17,PennController,24,0,experiment,NULL,Video,progression,buffer,0.002623,1687412906597,5c2d3ba4731cd10001b647d7,5c2d3ba4731cd10001b647d7,20,cat,filler,B,75,cat65.jpg,cat85.jpg,GoalB,NULL
1687413043,8fa43b2ba718ef8364d87cd4041a8a17,PennController,24,0,experiment,NULL,Selector,choice,Selection,option2,1687412913753,5c2d3ba4731cd10001b647d7,5c2d3ba4731cd10001b647d7,20,cat,filler,B,75,cat65.jpg,cat85.jpg,GoalB,option2;option1
1687413043,8fa43b2ba718ef8364d87cd4041a8a17,PennController,24,0,experiment,NULL,PennController,22,_Trial_,End,1687412913755,5c2d3ba4731cd10001b647d7,5c2d3ba4731cd10001b647d7,20,cat,filler,B,75,cat65.jpg,cat85.jpg,GoalB,NULL
1687413043,8fa43b2ba718ef8364d87cd4041a8a17,PennController,31,0,experiment,NULL,PennController,29,_Trial_,Start,1687412913756,5c2d3ba4731cd10001b647d7,5c2d3ba4731cd10001b647d7,27,square,filler,B,25,square15.jpg,square35.jpg,GoalA,NULL
1687413043,8fa43b2ba718ef8364d87cd4041a8a17,PennController,31,0,experiment,NULL,PennController,29,_Header_,Start,1687412913756,5c2d3ba4731cd10001b647d7,5c2d3ba4731cd10001b647d7,27,square,filler,B,25,square15.jpg,square35.jpg,GoalA,NULL
1687413043,8fa43b2ba718ef8364d87cd4041a8a17,PennController,31,0,experiment,NULL,PennController,29,_Header_,End,1687412913756,5c2d3ba4731cd10001b647d7,5c2d3ba4731cd10001b647d7,27,square,filler,B,25,square15.jpg,square35.jpg,GoalA,NULL
1687413043,8fa43b2ba718ef8364d87cd4041a8a17,PennController,31,0,experiment,NULL,Canvas,canvas6,Print,NA,1687412919472,5c2d3ba4731cd10001b647d7,5c2d3ba4731cd10001b647d7,27,square,filler,B,25,square15.jpg,square35.jpg,GoalA,NULL
1687413043,8fa43b2ba718ef8364d87cd4041a8a17,PennController,31,0,experiment,NULL,Video,progression,buffer,0.002401,1687412917283,5c2d3ba4731cd10001b647d7,5c2d3ba4731cd10001b647d7,27,square,filler,B,25,square15.jpg,square35.jpg,GoalA,NULL
1687413043,8fa43b2ba718ef8364d87cd4041a8a17,PennController,31,0,experiment,NULL,Selector,choice,Selection,option2,1687412920807,5c2d3ba4731cd10001b647d7,5c2d3ba4731cd10001b647d7,27,square,filler,B,25,square15.jpg,square35.jpg,GoalA,option2;option1
1687413043,8fa43b2ba718ef8364d87cd4041a8a17,PennController,31,0,experiment,NULL,PennController,29,_Trial_,End,1687412920808,5c2d3ba4731cd10001b647d7,5c2d3ba4731cd10001b647d7,27,square,filler,B,25,square15.jpg,square35.jpg,GoalA,NULL
1687413043,8fa43b2ba718ef8364d87cd4041a8a17,PennController,7,0,experiment,NULL,PennController,5,_Trial_,Start,1687412920810,5c2d3ba4731cd10001b647d7,5c2d3ba4731cd10001b647d7,3,clean,critical,B,25,clean15.jpg,clean35.jpg,low,NULL
1687413043,8fa43b2ba718ef8364d87cd4041a8a17,PennController,7,0,experiment,NULL,PennController,5,_Header_,Start,1687412920810,5c2d3ba4731cd10001b647d7,5c2d3ba4731cd10001b647d7,3,clean,critical,B,25,clean15.jpg,clean35.jpg,low,NULL
1687413043,8fa43b2ba718ef8364d87cd4041a8a17,PennController,7,0,experiment,NULL,PennController,5,_Header_,End,1687412920810,5c2d3ba4731cd10001b647d7,5c2d3ba4731cd10001b647d7,3,clean,critical,B,25,clean15.jpg,clean35.jpg,low,NULL
1687413043,8fa43b2ba718ef8364d87cd4041a8a17,PennController,7,0,experiment,NULL,Canvas,canvas6,Print,NA,1687412926522,5c2d3ba4731cd10001b647d7,5c2d3ba4731cd10001b647d7,3,clean,critical,B,25,clean15.jpg,clean35.jpg,low,NULL
1687413043,8fa43b2ba718ef8364d87cd4041a8a17,PennController,7,0,experiment,NULL,Video,progression,buffer,0.002822,1687412924335,5c2d3ba4731cd10001b647d7,5c2d3ba4731cd10001b647d7,3,clean,critical,B,25,clean15.jpg,clean35.jpg,low,NULL
1687413043,8fa43b2ba718ef8364d87cd4041a8a17,PennController,7,0,experiment,NULL,Selector,choice,Selection,option2,1687412929143,5c2d3ba4731cd10001b647d7,5c2d3ba4731cd10001b647d7,3,clean,critical,B,25,clean15.jpg,clean35.jpg,low,option1;option2
1687413043,8fa43b2ba718ef8364d87cd4041a8a17,PennController,7,0,experiment,NULL,PennController,5,_Trial_,End,1687412929145,5c2d3ba4731cd10001b647d7,5c2d3ba4731cd10001b647d7,3,clean,critical,B,25,clean15.jpg,clean35.jpg,low,NULL
1687413043,8fa43b2ba718ef8364d87cd4041a8a17,PennController,13,0,experiment,NULL,PennController,11,_Trial_,Start,1687412929147,5c2d3ba4731cd10001b647d7,5c2d3ba4731cd10001b647d7,9,cake,critical,B,25,cake15.jpg,cake33.jpg,low,NULL
1687413043,8fa43b2ba718ef8364d87cd4041a8a17,PennController,13,0,experiment,NULL,PennController,11,_Header_,Start,1687412929147,5c2d3ba4731cd10001b647d7,5c2d3ba4731cd10001b647d7,9,cake,critical,B,25,cake15.jpg,cake33.jpg,low,NULL
1687413043,8fa43b2ba718ef8364d87cd4041a8a17,PennController,13,0,experiment,NULL,PennController,11,_Header_,End,1687412929147,5c2d3ba4731cd10001b647d7,5c2d3ba4731cd10001b647d7,9,cake,critical,B,25,cake15.jpg,cake33.jpg,low,NULL
1687413043,8fa43b2ba718ef8364d87cd4041a8a17,PennController,13,0,experiment,NULL,Canvas,canvas6,Print,NA,1687412935463,5c2d3ba4731cd10001b647d7,5c2d3ba4731cd10001b647d7,9,cake,critical,B,25,cake15.jpg,cake33.jpg,low,NULL
1687413043,8fa43b2ba718ef8364d87cd4041a8a17,PennController,13,0,experiment,NULL,Video,progression,buffer,0.00274,1687412932678,5c2d3ba4731cd10001b647d7,5c2d3ba4731cd10001b647d7,9,cake,critical,B,25,cake15.jpg,cake33.jpg,low,NULL
1687413043,8fa43b2ba718ef8364d87cd4041a8a17,PennController,13,0,experiment,NULL,Selector,choice,Selection,option2,1687412938246,5c2d3ba4731cd10001b647d7,5c2d3ba4731cd10001b647d7,9,cake,critical,B,25,cake15.jpg,cake33.jpg,low,option1;option2
1687413043,8fa43b2ba718ef8364d87cd4041a8a17,PennController,13,0,experiment,NULL,PennController,11,_Trial_,End,1687412938248,5c2d3ba4731cd10001b647d7,5c2d3ba4731cd10001b647d7,9,cake,critical,B,25,cake15.jpg,cake33.jpg,low,NULL
1687413043,8fa43b2ba718ef8364d87cd4041a8a17,PennController,27,0,experiment,NULL,PennController,25,_Trial_,Start,1687412938249,5c2d3ba4731cd10001b647d7,5c2d3ba4731cd10001b647d7,23,color,filler,B,75,color65.jpg,color85.jpg,GoalA,NULL
1687413043,8fa43b2ba718ef8364d87cd4041a8a17,PennController,27,0,experiment,NULL,PennController,25,_Header_,Start,1687412938249,5c2d3ba4731cd10001b647d7,5c2d3ba4731cd10001b647d7,23,color,filler,B,75,color65.jpg,color85.jpg,GoalA,NULL
1687413043,8fa43b2ba718ef8364d87cd4041a8a17,PennController,27,0,experiment,NULL,PennController,25,_Header_,End,1687412938249,5c2d3ba4731cd10001b647d7,5c2d3ba4731cd10001b647d7,23,color,filler,B,75,color65.jpg,color85.jpg,GoalA,NULL
1687413043,8fa43b2ba718ef8364d87cd4041a8a17,PennController,27,0,experiment,NULL,Canvas,canvas6,Print,NA,1687412945964,5c2d3ba4731cd10001b647d7,5c2d3ba4731cd10001b647d7,23,color,filler,B,75,color65.jpg,color85.jpg,GoalA,NULL
1687413043,8fa43b2ba718ef8364d87cd4041a8a17,PennController,27,0,experiment,NULL,Video,progression,buffer,0.003917,1687412941779,5c2d3ba4731cd10001b647d7,5c2d3ba4731cd10001b647d7,23,color,filler,B,75,color65.jpg,color85.jpg,GoalA,NULL
1687413043,8fa43b2ba718ef8364d87cd4041a8a17,PennController,27,0,experiment,NULL,Selector,choice,Selection,option1,1687412949965,5c2d3ba4731cd10001b647d7,5c2d3ba4731cd10001b647d7,23,color,filler,B,75,color65.jpg,color85.jpg,GoalA,option2;option1
1687413043,8fa43b2ba718ef8364d87cd4041a8a17,PennController,27,0,experiment,NULL,PennController,25,_Trial_,End,1687412949967,5c2d3ba4731cd10001b647d7,5c2d3ba4731cd10001b647d7,23,color,filler,B,75,color65.jpg,color85.jpg,GoalA,NULL
1687413043,8fa43b2ba718ef8364d87cd4041a8a17,PennController,26,0,experiment,NULL,PennController,24,_Trial_,Start,1687412949969,5c2d3ba4731cd10001b647d7,5c2d3ba4731cd10001b647d7,22,wall,filler,B,50,wall40.jpg,wall60.jpg,GoalB,NULL
1687413043,8fa43b2ba718ef8364d87cd4041a8a17,PennController,26,0,experiment,NULL,PennController,24,_Header_,Start,1687412949969,5c2d3ba4731cd10001b647d7,5c2d3ba4731cd10001b647d7,22,wall,filler,B,50,wall40.jpg,wall60.jpg,GoalB,NULL
1687413043,8fa43b2ba718ef8364d87cd4041a8a17,PennController,26,0,experiment,NULL,PennController,24,_Header_,End,1687412949969,5c2d3ba4731cd10001b647d7,5c2d3ba4731cd10001b647d7,22,wall,filler,B,50,wall40.jpg,wall60.jpg,GoalB,NULL
1687413043,8fa43b2ba718ef8364d87cd4041a8a17,PennController,26,0,experiment,NULL,Canvas,canvas6,Print,NA,1687412956687,5c2d3ba4731cd10001b647d7,5c2d3ba4731cd10001b647d7,22,wall,filler,B,50,wall40.jpg,wall60.jpg,GoalB,NULL
1687413043,8fa43b2ba718ef8364d87cd4041a8a17,PennController,26,0,experiment,NULL,Video,progression,buffer,0.003178,1687412953497,5c2d3ba4731cd10001b647d7,5c2d3ba4731cd10001b647d7,22,wall,filler,B,50,wall40.jpg,wall60.jpg,GoalB,NULL
1687413043,8fa43b2ba718ef8364d87cd4041a8a17,PennController,26,0,experiment,NULL,Selector,choice,Selection,option2,1687412957818,5c2d3ba4731cd10001b647d7,5c2d3ba4731cd10001b647d7,22,wall,filler,B,50,wall40.jpg,wall60.jpg,GoalB,option1;option2
1687413043,8fa43b2ba718ef8364d87cd4041a8a17,PennController,26,0,experiment,NULL,PennController,24,_Trial_,End,1687412957819,5c2d3ba4731cd10001b647d7,5c2d3ba4731cd10001b647d7,22,wall,filler,B,50,wall40.jpg,wall60.jpg,GoalB,NULL
1687413043,8fa43b2ba718ef8364d87cd4041a8a17,PennController,33,0,experiment,NULL,PennController,31,_Trial_,Start,1687412957820,5c2d3ba4731cd10001b647d7,5c2d3ba4731cd10001b647d7,29,frog,filler,B,75,frog65.jpg,frog85.jpg,GoalA,NULL
1687413043,8fa43b2ba718ef8364d87cd4041a8a17,PennController,33,0,experiment,NULL,PennController,31,_Header_,Start,1687412957820,5c2d3ba4731cd10001b647d7,5c2d3ba4731cd10001b647d7,29,frog,filler,B,75,frog65.jpg,frog85.jpg,GoalA,NULL
1687413043,8fa43b2ba718ef8364d87cd4041a8a17,PennController,33,0,experiment,NULL,PennController,31,_Header_,End,1687412957820,5c2d3ba4731cd10001b647d7,5c2d3ba4731cd10001b647d7,29,frog,filler,B,75,frog65.jpg,frog85.jpg,GoalA,NULL
1687413043,8fa43b2ba718ef8364d87cd4041a8a17,PennController,33,0,experiment,NULL,Canvas,canvas6,Print,NA,1687412965540,5c2d3ba4731cd10001b647d7,5c2d3ba4731cd10001b647d7,29,frog,filler,B,75,frog65.jpg,frog85.jpg,GoalA,NULL
1687413043,8fa43b2ba718ef8364d87cd4041a8a17,PennController,33,0,experiment,NULL,Video,progression,buffer,0.002458,1687412961349,5c2d3ba4731cd10001b647d7,5c2d3ba4731cd10001b647d7,29,frog,filler,B,75,frog65.jpg,frog85.jpg,GoalA,NULL
1687413043,8fa43b2ba718ef8364d87cd4041a8a17,PennController,33,0,experiment,NULL,Selector,choice,Selection,option1,1687412967630,5c2d3ba4731cd10001b647d7,5c2d3ba4731cd10001b647d7,29,frog,filler,B,75,frog65.jpg,frog85.jpg,GoalA,option1;option2
1687413043,8fa43b2ba718ef8364d87cd4041a8a17,PennController,33,0,experiment,NULL,PennController,31,_Trial_,End,1687412967632,5c2d3ba4731cd10001b647d7,5c2d3ba4731cd10001b647d7,29,frog,filler,B,75,frog65.jpg,frog85.jpg,GoalA,NULL
1687413043,8fa43b2ba718ef8364d87cd4041a8a17,PennController,25,0,experiment,NULL,PennController,23,_Trial_,Start,1687412967633,5c2d3ba4731cd10001b647d7,5c2d3ba4731cd10001b647d7,21,visit,filler,B,25,visit15.jpg,visit35.jpg,GoalA,NULL
1687413043,8fa43b2ba718ef8364d87cd4041a8a17,PennController,25,0,experiment,NULL,PennController,23,_Header_,Start,1687412967633,5c2d3ba4731cd10001b647d7,5c2d3ba4731cd10001b647d7,21,visit,filler,B,25,visit15.jpg,visit35.jpg,GoalA,NULL
1687413043,8fa43b2ba718ef8364d87cd4041a8a17,PennController,25,0,experiment,NULL,PennController,23,_Header_,End,1687412967633,5c2d3ba4731cd10001b647d7,5c2d3ba4731cd10001b647d7,21,visit,filler,B,25,visit15.jpg,visit35.jpg,GoalA,NULL
1687413043,8fa43b2ba718ef8364d87cd4041a8a17,PennController,25,0,experiment,NULL,Canvas,canvas6,Print,NA,1687412973351,5c2d3ba4731cd10001b647d7,5c2d3ba4731cd10001b647d7,21,visit,filler,B,25,visit15.jpg,visit35.jpg,GoalA,NULL
1687413043,8fa43b2ba718ef8364d87cd4041a8a17,PennController,25,0,experiment,NULL,Video,progression,buffer,0.00276,1687412971162,5c2d3ba4731cd10001b647d7,5c2d3ba4731cd10001b647d7,21,visit,filler,B,25,visit15.jpg,visit35.jpg,GoalA,NULL
1687413043,8fa43b2ba718ef8364d87cd4041a8a17,PennController,25,0,experiment,NULL,Selector,choice,Selection,option1,1687412975767,5c2d3ba4731cd10001b647d7,5c2d3ba4731cd10001b647d7,21,visit,filler,B,25,visit15.jpg,visit35.jpg,GoalA,option2;option1
1687413043,8fa43b2ba718ef8364d87cd4041a8a17,PennController,25,0,experiment,NULL,PennController,23,_Trial_,End,1687412975768,5c2d3ba4731cd10001b647d7,5c2d3ba4731cd10001b647d7,21,visit,filler,B,25,visit15.jpg,visit35.jpg,GoalA,NULL
1687413043,8fa43b2ba718ef8364d87cd4041a8a17,PennController,19,0,experiment,NULL,PennController,17,_Trial_,Start,1687412975769,5c2d3ba4731cd10001b647d7,5c2d3ba4731cd10001b647d7,15,zip,critical,B,25,zip15.jpg,zip35.jpg,low,NULL
1687413043,8fa43b2ba718ef8364d87cd4041a8a17,PennController,19,0,experiment,NULL,PennController,17,_Header_,Start,1687412975769,5c2d3ba4731cd10001b647d7,5c2d3ba4731cd10001b647d7,15,zip,critical,B,25,zip15.jpg,zip35.jpg,low,NULL
1687413043,8fa43b2ba718ef8364d87cd4041a8a17,PennController,19,0,experiment,NULL,PennController,17,_Header_,End,1687412975769,5c2d3ba4731cd10001b647d7,5c2d3ba4731cd10001b647d7,15,zip,critical,B,25,zip15.jpg,zip35.jpg,low,NULL
1687413043,8fa43b2ba718ef8364d87cd4041a8a17,PennController,19,0,experiment,NULL,Canvas,canvas6,Print,NA,1687412981485,5c2d3ba4731cd10001b647d7,5c2d3ba4731cd10001b647d7,15,zip,critical,B,25,zip15.jpg,zip35.jpg,low,NULL
1687413043,8fa43b2ba718ef8364d87cd4041a8a17,PennController,19,0,experiment,NULL,Video,progression,buffer,0.00288,1687412979291,5c2d3ba4731cd10001b647d7,5c2d3ba4731cd10001b647d7,15,zip,critical,B,25,zip15.jpg,zip35.jpg,low,NULL
1687413043,8fa43b2ba718ef8364d87cd4041a8a17,PennController,19,0,experiment,NULL,Selector,choice,Selection,option1,1687412982915,5c2d3ba4731cd10001b647d7,5c2d3ba4731cd10001b647d7,15,zip,critical,B,25,zip15.jpg,zip35.jpg,low,option2;option1
1687413043,8fa43b2ba718ef8364d87cd4041a8a17,PennController,19,0,experiment,NULL,PennController,17,_Trial_,End,1687412982916,5c2d3ba4731cd10001b647d7,5c2d3ba4731cd10001b647d7,15,zip,critical,B,25,zip15.jpg,zip35.jpg,low,NULL
1687413043,8fa43b2ba718ef8364d87cd4041a8a17,PennController,11,0,experiment,NULL,PennController,9,_Trial_,Start,1687412982917,5c2d3ba4731cd10001b647d7,5c2d3ba4731cd10001b647d7,7,stack,critical,B,50,stack40.jpg,stack60.jpg,low,NULL
1687413043,8fa43b2ba718ef8364d87cd4041a8a17,PennController,11,0,experiment,NULL,PennController,9,_Header_,Start,1687412982917,5c2d3ba4731cd10001b647d7,5c2d3ba4731cd10001b647d7,7,stack,critical,B,50,stack40.jpg,stack60.jpg,low,NULL
1687413043,8fa43b2ba718ef8364d87cd4041a8a17,PennController,11,0,experiment,NULL,PennController,9,_Header_,End,1687412982917,5c2d3ba4731cd10001b647d7,5c2d3ba4731cd10001b647d7,7,stack,critical,B,50,stack40.jpg,stack60.jpg,low,NULL
1687413043,8fa43b2ba718ef8364d87cd4041a8a17,PennController,11,0,experiment,NULL,Canvas,canvas6,Print,NA,1687412989641,5c2d3ba4731cd10001b647d7,5c2d3ba4731cd10001b647d7,7,stack,critical,B,50,stack40.jpg,stack60.jpg,low,NULL
1687413043,8fa43b2ba718ef8364d87cd4041a8a17,PennController,11,0,experiment,NULL,Video,progression,buffer,0.003648,1687412986447,5c2d3ba4731cd10001b647d7,5c2d3ba4731cd10001b647d7,7,stack,critical,B,50,stack40.jpg,stack60.jpg,low,NULL
1687413043,8fa43b2ba718ef8364d87cd4041a8a17,PennController,11,0,experiment,NULL,Selector,choice,Selection,option1,1687412992088,5c2d3ba4731cd10001b647d7,5c2d3ba4731cd10001b647d7,7,stack,critical,B,50,stack40.jpg,stack60.jpg,low,option2;option1
1687413043,8fa43b2ba718ef8364d87cd4041a8a17,PennController,11,0,experiment,NULL,PennController,9,_Trial_,End,1687412992091,5c2d3ba4731cd10001b647d7,5c2d3ba4731cd10001b647d7,7,stack,critical,B,50,stack40.jpg,stack60.jpg,low,NULL
1687413043,8fa43b2ba718ef8364d87cd4041a8a17,PennController,20,0,experiment,NULL,PennController,18,_Trial_,Start,1687412992092,5c2d3ba4731cd10001b647d7,5c2d3ba4731cd10001b647d7,16,blinds,critical,B,50,blinds42.jpg,blinds60.jpg,low,NULL
1687413043,8fa43b2ba718ef8364d87cd4041a8a17,PennController,20,0,experiment,NULL,PennController,18,_Header_,Start,1687412992092,5c2d3ba4731cd10001b647d7,5c2d3ba4731cd10001b647d7,16,blinds,critical,B,50,blinds42.jpg,blinds60.jpg,low,NULL
1687413043,8fa43b2ba718ef8364d87cd4041a8a17,PennController,20,0,experiment,NULL,PennController,18,_Header_,End,1687412992092,5c2d3ba4731cd10001b647d7,5c2d3ba4731cd10001b647d7,16,blinds,critical,B,50,blinds42.jpg,blinds60.jpg,low,NULL
1687413043,8fa43b2ba718ef8364d87cd4041a8a17,PennController,20,0,experiment,NULL,Canvas,canvas6,Print,NA,1687413000203,5c2d3ba4731cd10001b647d7,5c2d3ba4731cd10001b647d7,16,blinds,critical,B,50,blinds42.jpg,blinds60.jpg,low,NULL
1687413043,8fa43b2ba718ef8364d87cd4041a8a17,PennController,20,0,experiment,NULL,Video,progression,buffer,0.004023,1687412995617,5c2d3ba4731cd10001b647d7,5c2d3ba4731cd10001b647d7,16,blinds,critical,B,50,blinds42.jpg,blinds60.jpg,low,NULL
1687413043,8fa43b2ba718ef8364d87cd4041a8a17,PennController,20,0,experiment,NULL,Selector,choice,Selection,option1,1687413001928,5c2d3ba4731cd10001b647d7,5c2d3ba4731cd10001b647d7,16,blinds,critical,B,50,blinds42.jpg,blinds60.jpg,low,option1;option2
1687413043,8fa43b2ba718ef8364d87cd4041a8a17,PennController,20,0,experiment,NULL,PennController,18,_Trial_,End,1687413001929,5c2d3ba4731cd10001b647d7,5c2d3ba4731cd10001b647d7,16,blinds,critical,B,50,blinds42.jpg,blinds60.jpg,low,NULL
1687413043,8fa43b2ba718ef8364d87cd4041a8a17,PennController,22,0,experiment,NULL,PennController,20,_Trial_,Start,1687413001931,5c2d3ba4731cd10001b647d7,5c2d3ba4731cd10001b647d7,18,ball,critical,B,25,ball15.jpg,ball35.jpg,low,NULL
1687413043,8fa43b2ba718ef8364d87cd4041a8a17,PennController,22,0,experiment,NULL,PennController,20,_Header_,Start,1687413001931,5c2d3ba4731cd10001b647d7,5c2d3ba4731cd10001b647d7,18,ball,critical,B,25,ball15.jpg,ball35.jpg,low,NULL
1687413043,8fa43b2ba718ef8364d87cd4041a8a17,PennController,22,0,experiment,NULL,PennController,20,_Header_,End,1687413001931,5c2d3ba4731cd10001b647d7,5c2d3ba4731cd10001b647d7,18,ball,critical,B,25,ball15.jpg,ball35.jpg,low,NULL
1687413043,8fa43b2ba718ef8364d87cd4041a8a17,PennController,22,0,experiment,NULL,Canvas,canvas6,Print,NA,1687413007654,5c2d3ba4731cd10001b647d7,5c2d3ba4731cd10001b647d7,18,ball,critical,B,25,ball15.jpg,ball35.jpg,low,NULL
1687413043,8fa43b2ba718ef8364d87cd4041a8a17,PennController,22,0,experiment,NULL,Video,progression,buffer,0.003077,1687413005461,5c2d3ba4731cd10001b647d7,5c2d3ba4731cd10001b647d7,18,ball,critical,B,25,ball15.jpg,ball35.jpg,low,NULL
1687413043,8fa43b2ba718ef8364d87cd4041a8a17,PennController,22,0,experiment,NULL,Selector,choice,Selection,option1,1687413009108,5c2d3ba4731cd10001b647d7,5c2d3ba4731cd10001b647d7,18,ball,critical,B,25,ball15.jpg,ball35.jpg,low,option2;option1
1687413043,8fa43b2ba718ef8364d87cd4041a8a17,PennController,22,0,experiment,NULL,PennController,20,_Trial_,End,1687413009110,5c2d3ba4731cd10001b647d7,5c2d3ba4731cd10001b647d7,18,ball,critical,B,25,ball15.jpg,ball35.jpg,low,NULL
1687413043,8fa43b2ba718ef8364d87cd4041a8a17,PennController,29,0,experiment,NULL,PennController,27,_Trial_,Start,1687413009111,5c2d3ba4731cd10001b647d7,5c2d3ba4731cd10001b647d7,25,house,filler,B,50,house40.jpg,house60.jpg,GoalA,NULL
1687413043,8fa43b2ba718ef8364d87cd4041a8a17,PennController,29,0,experiment,NULL,PennController,27,_Header_,Start,1687413009111,5c2d3ba4731cd10001b647d7,5c2d3ba4731cd10001b647d7,25,house,filler,B,50,house40.jpg,house60.jpg,GoalA,NULL
1687413043,8fa43b2ba718ef8364d87cd4041a8a17,PennController,29,0,experiment,NULL,PennController,27,_Header_,End,1687413009111,5c2d3ba4731cd10001b647d7,5c2d3ba4731cd10001b647d7,25,house,filler,B,50,house40.jpg,house60.jpg,GoalA,NULL
1687413043,8fa43b2ba718ef8364d87cd4041a8a17,PennController,29,0,experiment,NULL,Canvas,canvas6,Print,NA,1687413015825,5c2d3ba4731cd10001b647d7,5c2d3ba4731cd10001b647d7,25,house,filler,B,50,house40.jpg,house60.jpg,GoalA,NULL
1687413043,8fa43b2ba718ef8364d87cd4041a8a17,PennController,29,0,experiment,NULL,Video,progression,buffer,0.003324,1687413012638,5c2d3ba4731cd10001b647d7,5c2d3ba4731cd10001b647d7,25,house,filler,B,50,house40.jpg,house60.jpg,GoalA,NULL
1687413043,8fa43b2ba718ef8364d87cd4041a8a17,PennController,29,0,experiment,NULL,Selector,choice,Selection,option1,1687413017131,5c2d3ba4731cd10001b647d7,5c2d3ba4731cd10001b647d7,25,house,filler,B,50,house40.jpg,house60.jpg,GoalA,option1;option2
1687413043,8fa43b2ba718ef8364d87cd4041a8a17,PennController,29,0,experiment,NULL,PennController,27,_Trial_,End,1687413017133,5c2d3ba4731cd10001b647d7,5c2d3ba4731cd10001b647d7,25,house,filler,B,50,house40.jpg,house60.jpg,GoalA,NULL
1687413043,8fa43b2ba718ef8364d87cd4041a8a17,PennController,23,0,experiment,NULL,PennController,21,_Trial_,Start,1687413017134,5c2d3ba4731cd10001b647d7,5c2d3ba4731cd10001b647d7,19,cup,filler,B,50,cup40.jpg,cup60.jpg,GoalA,NULL
1687413043,8fa43b2ba718ef8364d87cd4041a8a17,PennController,23,0,experiment,NULL,PennController,21,_Header_,Start,1687413017134,5c2d3ba4731cd10001b647d7,5c2d3ba4731cd10001b647d7,19,cup,filler,B,50,cup40.jpg,cup60.jpg,GoalA,NULL
1687413043,8fa43b2ba718ef8364d87cd4041a8a17,PennController,23,0,experiment,NULL,PennController,21,_Header_,End,1687413017134,5c2d3ba4731cd10001b647d7,5c2d3ba4731cd10001b647d7,19,cup,filler,B,50,cup40.jpg,cup60.jpg,GoalA,NULL
1687413043,8fa43b2ba718ef8364d87cd4041a8a17,PennController,23,0,experiment,NULL,Canvas,canvas6,Print,NA,1687413023847,5c2d3ba4731cd10001b647d7,5c2d3ba4731cd10001b647d7,19,cup,filler,B,50,cup40.jpg,cup60.jpg,GoalA,NULL
1687413043,8fa43b2ba718ef8364d87cd4041a8a17,PennController,23,0,experiment,NULL,Video,progression,buffer,0.003202,1687413020658,5c2d3ba4731cd10001b647d7,5c2d3ba4731cd10001b647d7,19,cup,filler,B,50,cup40.jpg,cup60.jpg,GoalA,NULL
1687413043,8fa43b2ba718ef8364d87cd4041a8a17,PennController,23,0,experiment,NULL,Selector,choice,Selection,option2,1687413025488,5c2d3ba4731cd10001b647d7,5c2d3ba4731cd10001b647d7,19,cup,filler,B,50,cup40.jpg,cup60.jpg,GoalA,option2;option1
1687413043,8fa43b2ba718ef8364d87cd4041a8a17,PennController,23,0,experiment,NULL,PennController,21,_Trial_,End,1687413025489,5c2d3ba4731cd10001b647d7,5c2d3ba4731cd10001b647d7,19,cup,filler,B,50,cup40.jpg,cup60.jpg,GoalA,NULL
1687413043,8fa43b2ba718ef8364d87cd4041a8a17,PennController,14,0,experiment,NULL,PennController,12,_Trial_,Start,1687413025491,5c2d3ba4731cd10001b647d7,5c2d3ba4731cd10001b647d7,10,train,critical,B,50,train40.jpg,train60.jpg,low,NULL
1687413043,8fa43b2ba718ef8364d87cd4041a8a17,PennController,14,0,experiment,NULL,PennController,12,_Header_,Start,1687413025491,5c2d3ba4731cd10001b647d7,5c2d3ba4731cd10001b647d7,10,train,critical,B,50,train40.jpg,train60.jpg,low,NULL
1687413043,8fa43b2ba718ef8364d87cd4041a8a17,PennController,14,0,experiment,NULL,PennController,12,_Header_,End,1687413025491,5c2d3ba4731cd10001b647d7,5c2d3ba4731cd10001b647d7,10,train,critical,B,50,train40.jpg,train60.jpg,low,NULL
1687413043,8fa43b2ba718ef8364d87cd4041a8a17,PennController,14,0,experiment,NULL,Canvas,canvas6,Print,NA,1687413032200,5c2d3ba4731cd10001b647d7,5c2d3ba4731cd10001b647d7,10,train,critical,B,50,train40.jpg,train60.jpg,low,NULL
1687413043,8fa43b2ba718ef8364d87cd4041a8a17,PennController,14,0,experiment,NULL,Video,progression,buffer,0.003785,1687413029023,5c2d3ba4731cd10001b647d7,5c2d3ba4731cd10001b647d7,10,train,critical,B,50,train40.jpg,train60.jpg,low,NULL
1687413043,8fa43b2ba718ef8364d87cd4041a8a17,PennController,14,0,experiment,NULL,Selector,choice,Selection,option1,1687413033589,5c2d3ba4731cd10001b647d7,5c2d3ba4731cd10001b647d7,10,train,critical,B,50,train40.jpg,train60.jpg,low,option1;option2
1687413043,8fa43b2ba718ef8364d87cd4041a8a17,PennController,14,0,experiment,NULL,PennController,12,_Trial_,End,1687413033591,5c2d3ba4731cd10001b647d7,5c2d3ba4731cd10001b647d7,10,train,critical,B,50,train40.jpg,train60.jpg,low,NULL
1687413043,8fa43b2ba718ef8364d87cd4041a8a17,PennController,17,0,experiment,NULL,PennController,15,_Trial_,Start,1687413033592,5c2d3ba4731cd10001b647d7,5c2d3ba4731cd10001b647d7,13,mix,critical,B,50,mix40.jpg,mix60.jpg,low,NULL
1687413043,8fa43b2ba718ef8364d87cd4041a8a17,PennController,17,0,experiment,NULL,PennController,15,_Header_,Start,1687413033592,5c2d3ba4731cd10001b647d7,5c2d3ba4731cd10001b647d7,13,mix,critical,B,50,mix40.jpg,mix60.jpg,low,NULL
1687413043,8fa43b2ba718ef8364d87cd4041a8a17,PennController,17,0,experiment,NULL,PennController,15,_Header_,End,1687413033592,5c2d3ba4731cd10001b647d7,5c2d3ba4731cd10001b647d7,13,mix,critical,B,50,mix40.jpg,mix60.jpg,low,NULL
1687413043,8fa43b2ba718ef8364d87cd4041a8a17,PennController,17,0,experiment,NULL,Canvas,canvas6,Print,NA,1687413040305,5c2d3ba4731cd10001b647d7,5c2d3ba4731cd10001b647d7,13,mix,critical,B,50,mix40.jpg,mix60.jpg,low,NULL
1687413043,8fa43b2ba718ef8364d87cd4041a8a17,PennController,17,0,experiment,NULL,Video,progression,buffer,0.002452,1687413037116,5c2d3ba4731cd10001b647d7,5c2d3ba4731cd10001b647d7,13,mix,critical,B,50,mix40.jpg,mix60.jpg,low,NULL
1687413043,8fa43b2ba718ef8364d87cd4041a8a17,PennController,17,0,experiment,NULL,Selector,choice,Selection,option1,1687413042801,5c2d3ba4731cd10001b647d7,5c2d3ba4731cd10001b647d7,13,mix,critical,B,50,mix40.jpg,mix60.jpg,low,option1;option2
1687413043,8fa43b2ba718ef8364d87cd4041a8a17,PennController,17,0,experiment,NULL,PennController,15,_Trial_,End,1687413042803,5c2d3ba4731cd10001b647d7,5c2d3ba4731cd10001b647d7,13,mix,critical,B,50,mix40.jpg,mix60.jpg,low,NULL
