#
# Results on Wednesday June 21 2023 19:56:52 UTC
# USER AGENT: Mozilla/5.0 (Windows NT 10.0; Win64; x64) AppleWebKit/537.36 (KHTML, like Gecko) Chrome/114.0.0.0 Safari/537.36
# Design number was non-random = 67
#
# Columns below this comment are as follows:
# 1. Results reception time.
# 2. MD5 hash of participant's IP address.
# 3. Controller name.
# 4. Order number of item.
# 5. Inner element number.
# 6. Label.
# 7. Latin Square Group.
# 8. PennElementType.
# 9. PennElementName.
# 10. Parameter.
# 11. Value.
# 12. EventTime.
# 13. PROLIFIC_ID.
# 14. Comments.
1687377412,9934870a864a064666ee6561bbbae029,PennController,3,0,consent,NULL,PennController,0,_Trial_,Start,1687377109943,603e69b6e4010612bf0bc7a3,NULL
1687377412,9934870a864a064666ee6561bbbae029,PennController,3,0,consent,NULL,PennController,0,_Header_,Start,1687377109943,603e69b6e4010612bf0bc7a3,NULL
1687377412,9934870a864a064666ee6561bbbae029,PennController,3,0,consent,NULL,PennController,0,_Header_,End,1687377109943,603e69b6e4010612bf0bc7a3,NULL
1687377412,9934870a864a064666ee6561bbbae029,PennController,3,0,consent,NULL,PennController,0,_Trial_,End,1687377113399,603e69b6e4010612bf0bc7a3,NULL
# Columns below this comment are as follows:
# 14. ID.
# 15. Comments.
1687377412,9934870a864a064666ee6561bbbae029,PennController,4,0,intro,NULL,PennController,1,_Trial_,Start,1687377113401,603e69b6e4010612bf0bc7a3,603e69b6e4010612bf0bc7a3,NULL
1687377412,9934870a864a064666ee6561bbbae029,PennController,4,0,intro,NULL,PennController,1,_Header_,Start,1687377113401,603e69b6e4010612bf0bc7a3,603e69b6e4010612bf0bc7a3,NULL
1687377412,9934870a864a064666ee6561bbbae029,PennController,4,0,intro,NULL,PennController,1,_Header_,End,1687377113402,603e69b6e4010612bf0bc7a3,603e69b6e4010612bf0bc7a3,NULL
1687377412,9934870a864a064666ee6561bbbae029,PennController,4,0,intro,NULL,PennController,1,_Trial_,End,1687377121506,603e69b6e4010612bf0bc7a3,603e69b6e4010612bf0bc7a3,NULL
# Columns below this comment are as follows:
# 15. item_number.
# 16. item.
# 17. type.
# 18. Group.
# 19. prog.
# 20. prev_image.
# 21. next_image.
# 22. height.
# 23. Comments.
1687377412,9934870a864a064666ee6561bbbae029,PennController,9,0,experiment,NULL,PennController,7,_Trial_,Start,1687377121508,603e69b6e4010612bf0bc7a3,603e69b6e4010612bf0bc7a3,5,book,critical,F,25,book15.jpg,book35.jpg,high,NULL
1687377412,9934870a864a064666ee6561bbbae029,PennController,9,0,experiment,NULL,PennController,7,_Header_,Start,1687377121508,603e69b6e4010612bf0bc7a3,603e69b6e4010612bf0bc7a3,5,book,critical,F,25,book15.jpg,book35.jpg,high,NULL
1687377412,9934870a864a064666ee6561bbbae029,PennController,9,0,experiment,NULL,PennController,7,_Header_,End,1687377121508,603e69b6e4010612bf0bc7a3,603e69b6e4010612bf0bc7a3,5,book,critical,F,25,book15.jpg,book35.jpg,high,NULL
1687377412,9934870a864a064666ee6561bbbae029,PennController,9,0,experiment,NULL,Canvas,canvas6,Print,NA,1687377127194,603e69b6e4010612bf0bc7a3,603e69b6e4010612bf0bc7a3,5,book,critical,F,25,book15.jpg,book35.jpg,high,NULL
1687377412,9934870a864a064666ee6561bbbae029,PennController,9,0,experiment,NULL,Video,progression,buffer,0.002428,1687377125033,603e69b6e4010612bf0bc7a3,603e69b6e4010612bf0bc7a3,5,book,critical,F,25,book15.jpg,book35.jpg,high,NULL
1687377412,9934870a864a064666ee6561bbbae029,PennController,9,0,experiment,NULL,Selector,choice,Selection,option2,1687377134075,603e69b6e4010612bf0bc7a3,603e69b6e4010612bf0bc7a3,5,book,critical,F,25,book15.jpg,book35.jpg,high,option2;option1
1687377412,9934870a864a064666ee6561bbbae029,PennController,9,0,experiment,NULL,PennController,7,_Trial_,End,1687377134077,603e69b6e4010612bf0bc7a3,603e69b6e4010612bf0bc7a3,5,book,critical,F,25,book15.jpg,book35.jpg,high,NULL
1687377412,9934870a864a064666ee6561bbbae029,PennController,13,0,experiment,NULL,PennController,11,_Trial_,Start,1687377134078,603e69b6e4010612bf0bc7a3,603e69b6e4010612bf0bc7a3,9,cake,critical,F,50,cake42.jpg,cake60.jpg,high,NULL
1687377412,9934870a864a064666ee6561bbbae029,PennController,13,0,experiment,NULL,PennController,11,_Header_,Start,1687377134078,603e69b6e4010612bf0bc7a3,603e69b6e4010612bf0bc7a3,9,cake,critical,F,50,cake42.jpg,cake60.jpg,high,NULL
1687377412,9934870a864a064666ee6561bbbae029,PennController,13,0,experiment,NULL,PennController,11,_Header_,End,1687377134078,603e69b6e4010612bf0bc7a3,603e69b6e4010612bf0bc7a3,9,cake,critical,F,50,cake42.jpg,cake60.jpg,high,NULL
1687377412,9934870a864a064666ee6561bbbae029,PennController,13,0,experiment,NULL,Canvas,canvas6,Print,NA,1687377142157,603e69b6e4010612bf0bc7a3,603e69b6e4010612bf0bc7a3,9,cake,critical,F,50,cake42.jpg,cake60.jpg,high,NULL
1687377412,9934870a864a064666ee6561bbbae029,PennController,13,0,experiment,NULL,Video,progression,buffer,0.00189,1687377137595,603e69b6e4010612bf0bc7a3,603e69b6e4010612bf0bc7a3,9,cake,critical,F,50,cake42.jpg,cake60.jpg,high,NULL
1687377412,9934870a864a064666ee6561bbbae029,PennController,13,0,experiment,NULL,Selector,choice,Selection,option2,1687377145549,603e69b6e4010612bf0bc7a3,603e69b6e4010612bf0bc7a3,9,cake,critical,F,50,cake42.jpg,cake60.jpg,high,option2;option1
1687377412,9934870a864a064666ee6561bbbae029,PennController,13,0,experiment,NULL,PennController,11,_Trial_,End,1687377145550,603e69b6e4010612bf0bc7a3,603e69b6e4010612bf0bc7a3,9,cake,critical,F,50,cake42.jpg,cake60.jpg,high,NULL
1687377412,9934870a864a064666ee6561bbbae029,PennController,31,0,experiment,NULL,PennController,29,_Trial_,Start,1687377145551,603e69b6e4010612bf0bc7a3,603e69b6e4010612bf0bc7a3,27,square,filler,F,50,square40.jpg,square60.jpg,GoalB,NULL
1687377412,9934870a864a064666ee6561bbbae029,PennController,31,0,experiment,NULL,PennController,29,_Header_,Start,1687377145552,603e69b6e4010612bf0bc7a3,603e69b6e4010612bf0bc7a3,27,square,filler,F,50,square40.jpg,square60.jpg,GoalB,NULL
1687377412,9934870a864a064666ee6561bbbae029,PennController,31,0,experiment,NULL,PennController,29,_Header_,End,1687377145552,603e69b6e4010612bf0bc7a3,603e69b6e4010612bf0bc7a3,27,square,filler,F,50,square40.jpg,square60.jpg,GoalB,NULL
1687377412,9934870a864a064666ee6561bbbae029,PennController,31,0,experiment,NULL,Canvas,canvas6,Print,NA,1687377152234,603e69b6e4010612bf0bc7a3,603e69b6e4010612bf0bc7a3,27,square,filler,F,50,square40.jpg,square60.jpg,GoalB,NULL
1687377412,9934870a864a064666ee6561bbbae029,PennController,31,0,experiment,NULL,Video,progression,buffer,0.001957,1687377149067,603e69b6e4010612bf0bc7a3,603e69b6e4010612bf0bc7a3,27,square,filler,F,50,square40.jpg,square60.jpg,GoalB,NULL
1687377412,9934870a864a064666ee6561bbbae029,PennController,31,0,experiment,NULL,Selector,choice,Selection,option2,1687377153901,603e69b6e4010612bf0bc7a3,603e69b6e4010612bf0bc7a3,27,square,filler,F,50,square40.jpg,square60.jpg,GoalB,option1;option2
1687377412,9934870a864a064666ee6561bbbae029,PennController,31,0,experiment,NULL,PennController,29,_Trial_,End,1687377153902,603e69b6e4010612bf0bc7a3,603e69b6e4010612bf0bc7a3,27,square,filler,F,50,square40.jpg,square60.jpg,GoalB,NULL
1687377412,9934870a864a064666ee6561bbbae029,PennController,29,0,experiment,NULL,PennController,27,_Trial_,Start,1687377153903,603e69b6e4010612bf0bc7a3,603e69b6e4010612bf0bc7a3,25,house,filler,F,75,house65.jpg,house85.jpg,GoalB,NULL
1687377412,9934870a864a064666ee6561bbbae029,PennController,29,0,experiment,NULL,PennController,27,_Header_,Start,1687377153903,603e69b6e4010612bf0bc7a3,603e69b6e4010612bf0bc7a3,25,house,filler,F,75,house65.jpg,house85.jpg,GoalB,NULL
1687377412,9934870a864a064666ee6561bbbae029,PennController,29,0,experiment,NULL,PennController,27,_Header_,End,1687377153903,603e69b6e4010612bf0bc7a3,603e69b6e4010612bf0bc7a3,25,house,filler,F,75,house65.jpg,house85.jpg,GoalB,NULL
1687377412,9934870a864a064666ee6561bbbae029,PennController,29,0,experiment,NULL,Canvas,canvas6,Print,NA,1687377161594,603e69b6e4010612bf0bc7a3,603e69b6e4010612bf0bc7a3,25,house,filler,F,75,house65.jpg,house85.jpg,GoalB,NULL
1687377412,9934870a864a064666ee6561bbbae029,PennController,29,0,experiment,NULL,Video,progression,buffer,0.002517,1687377157425,603e69b6e4010612bf0bc7a3,603e69b6e4010612bf0bc7a3,25,house,filler,F,75,house65.jpg,house85.jpg,GoalB,NULL
1687377412,9934870a864a064666ee6561bbbae029,PennController,29,0,experiment,NULL,Selector,choice,Selection,option2,1687377162970,603e69b6e4010612bf0bc7a3,603e69b6e4010612bf0bc7a3,25,house,filler,F,75,house65.jpg,house85.jpg,GoalB,option2;option1
1687377412,9934870a864a064666ee6561bbbae029,PennController,29,0,experiment,NULL,PennController,27,_Trial_,End,1687377162971,603e69b6e4010612bf0bc7a3,603e69b6e4010612bf0bc7a3,25,house,filler,F,75,house65.jpg,house85.jpg,GoalB,NULL
1687377412,9934870a864a064666ee6561bbbae029,PennController,11,0,experiment,NULL,PennController,9,_Trial_,Start,1687377162972,603e69b6e4010612bf0bc7a3,603e69b6e4010612bf0bc7a3,7,stack,critical,F,75,stack65.jpg,stack85.jpg,high,NULL
1687377412,9934870a864a064666ee6561bbbae029,PennController,11,0,experiment,NULL,PennController,9,_Header_,Start,1687377162972,603e69b6e4010612bf0bc7a3,603e69b6e4010612bf0bc7a3,7,stack,critical,F,75,stack65.jpg,stack85.jpg,high,NULL
1687377412,9934870a864a064666ee6561bbbae029,PennController,11,0,experiment,NULL,PennController,9,_Header_,End,1687377162973,603e69b6e4010612bf0bc7a3,603e69b6e4010612bf0bc7a3,7,stack,critical,F,75,stack65.jpg,stack85.jpg,high,NULL
1687377412,9934870a864a064666ee6561bbbae029,PennController,11,0,experiment,NULL,Canvas,canvas6,Print,NA,1687377170654,603e69b6e4010612bf0bc7a3,603e69b6e4010612bf0bc7a3,7,stack,critical,F,75,stack65.jpg,stack85.jpg,high,NULL
1687377412,9934870a864a064666ee6561bbbae029,PennController,11,0,experiment,NULL,Video,progression,buffer,0.001601,1687377166489,603e69b6e4010612bf0bc7a3,603e69b6e4010612bf0bc7a3,7,stack,critical,F,75,stack65.jpg,stack85.jpg,high,NULL
1687377412,9934870a864a064666ee6561bbbae029,PennController,11,0,experiment,NULL,Selector,choice,Selection,option2,1687377172676,603e69b6e4010612bf0bc7a3,603e69b6e4010612bf0bc7a3,7,stack,critical,F,75,stack65.jpg,stack85.jpg,high,option1;option2
1687377412,9934870a864a064666ee6561bbbae029,PennController,11,0,experiment,NULL,PennController,9,_Trial_,End,1687377172676,603e69b6e4010612bf0bc7a3,603e69b6e4010612bf0bc7a3,7,stack,critical,F,75,stack65.jpg,stack85.jpg,high,NULL
1687377412,9934870a864a064666ee6561bbbae029,PennController,24,0,experiment,NULL,PennController,22,_Trial_,Start,1687377172677,603e69b6e4010612bf0bc7a3,603e69b6e4010612bf0bc7a3,20,cat,filler,F,25,cat15.jpg,cat35.jpg,GoalA,NULL
1687377412,9934870a864a064666ee6561bbbae029,PennController,24,0,experiment,NULL,PennController,22,_Header_,Start,1687377172677,603e69b6e4010612bf0bc7a3,603e69b6e4010612bf0bc7a3,20,cat,filler,F,25,cat15.jpg,cat35.jpg,GoalA,NULL
1687377412,9934870a864a064666ee6561bbbae029,PennController,24,0,experiment,NULL,PennController,22,_Header_,End,1687377172677,603e69b6e4010612bf0bc7a3,603e69b6e4010612bf0bc7a3,20,cat,filler,F,25,cat15.jpg,cat35.jpg,GoalA,NULL
1687377412,9934870a864a064666ee6561bbbae029,PennController,24,0,experiment,NULL,Canvas,canvas6,Print,NA,1687377178361,603e69b6e4010612bf0bc7a3,603e69b6e4010612bf0bc7a3,20,cat,filler,F,25,cat15.jpg,cat35.jpg,GoalA,NULL
1687377412,9934870a864a064666ee6561bbbae029,PennController,24,0,experiment,NULL,Video,progression,buffer,0.004164,1687377176201,603e69b6e4010612bf0bc7a3,603e69b6e4010612bf0bc7a3,20,cat,filler,F,25,cat15.jpg,cat35.jpg,GoalA,NULL
1687377412,9934870a864a064666ee6561bbbae029,PennController,24,0,experiment,NULL,Selector,choice,Selection,option2,1687377181176,603e69b6e4010612bf0bc7a3,603e69b6e4010612bf0bc7a3,20,cat,filler,F,25,cat15.jpg,cat35.jpg,GoalA,option2;option1
1687377412,9934870a864a064666ee6561bbbae029,PennController,24,0,experiment,NULL,PennController,22,_Trial_,End,1687377181177,603e69b6e4010612bf0bc7a3,603e69b6e4010612bf0bc7a3,20,cat,filler,F,25,cat15.jpg,cat35.jpg,GoalA,NULL
1687377412,9934870a864a064666ee6561bbbae029,PennController,7,0,experiment,NULL,PennController,5,_Trial_,Start,1687377181178,603e69b6e4010612bf0bc7a3,603e69b6e4010612bf0bc7a3,3,clean,critical,F,50,clean40.jpg,clean60.jpg,high,NULL
1687377412,9934870a864a064666ee6561bbbae029,PennController,7,0,experiment,NULL,PennController,5,_Header_,Start,1687377181178,603e69b6e4010612bf0bc7a3,603e69b6e4010612bf0bc7a3,3,clean,critical,F,50,clean40.jpg,clean60.jpg,high,NULL
1687377412,9934870a864a064666ee6561bbbae029,PennController,7,0,experiment,NULL,PennController,5,_Header_,End,1687377181178,603e69b6e4010612bf0bc7a3,603e69b6e4010612bf0bc7a3,3,clean,critical,F,50,clean40.jpg,clean60.jpg,high,NULL
1687377412,9934870a864a064666ee6561bbbae029,PennController,7,0,experiment,NULL,Canvas,canvas6,Print,NA,1687377187854,603e69b6e4010612bf0bc7a3,603e69b6e4010612bf0bc7a3,3,clean,critical,F,50,clean40.jpg,clean60.jpg,high,NULL
1687377412,9934870a864a064666ee6561bbbae029,PennController,7,0,experiment,NULL,Video,progression,buffer,0.001686,1687377184697,603e69b6e4010612bf0bc7a3,603e69b6e4010612bf0bc7a3,3,clean,critical,F,50,clean40.jpg,clean60.jpg,high,NULL
1687377412,9934870a864a064666ee6561bbbae029,PennController,7,0,experiment,NULL,Selector,choice,Selection,option2,1687377189824,603e69b6e4010612bf0bc7a3,603e69b6e4010612bf0bc7a3,3,clean,critical,F,50,clean40.jpg,clean60.jpg,high,option2;option1
1687377412,9934870a864a064666ee6561bbbae029,PennController,7,0,experiment,NULL,PennController,5,_Trial_,End,1687377189825,603e69b6e4010612bf0bc7a3,603e69b6e4010612bf0bc7a3,3,clean,critical,F,50,clean40.jpg,clean60.jpg,high,NULL
1687377412,9934870a864a064666ee6561bbbae029,PennController,10,0,experiment,NULL,PennController,8,_Trial_,Start,1687377189827,603e69b6e4010612bf0bc7a3,603e69b6e4010612bf0bc7a3,6,flower,critical,F,50,flower40.jpg,flower60.jpg,high,NULL
1687377412,9934870a864a064666ee6561bbbae029,PennController,10,0,experiment,NULL,PennController,8,_Header_,Start,1687377189827,603e69b6e4010612bf0bc7a3,603e69b6e4010612bf0bc7a3,6,flower,critical,F,50,flower40.jpg,flower60.jpg,high,NULL
1687377412,9934870a864a064666ee6561bbbae029,PennController,10,0,experiment,NULL,PennController,8,_Header_,End,1687377189827,603e69b6e4010612bf0bc7a3,603e69b6e4010612bf0bc7a3,6,flower,critical,F,50,flower40.jpg,flower60.jpg,high,NULL
1687377412,9934870a864a064666ee6561bbbae029,PennController,10,0,experiment,NULL,Canvas,canvas6,Print,NA,1687377196512,603e69b6e4010612bf0bc7a3,603e69b6e4010612bf0bc7a3,6,flower,critical,F,50,flower40.jpg,flower60.jpg,high,NULL
1687377412,9934870a864a064666ee6561bbbae029,PennController,10,0,experiment,NULL,Video,progression,buffer,0.001906,1687377193344,603e69b6e4010612bf0bc7a3,603e69b6e4010612bf0bc7a3,6,flower,critical,F,50,flower40.jpg,flower60.jpg,high,NULL
1687377412,9934870a864a064666ee6561bbbae029,PennController,10,0,experiment,NULL,Selector,choice,Selection,option1,1687377200391,603e69b6e4010612bf0bc7a3,603e69b6e4010612bf0bc7a3,6,flower,critical,F,50,flower40.jpg,flower60.jpg,high,option1;option2
1687377412,9934870a864a064666ee6561bbbae029,PennController,10,0,experiment,NULL,PennController,8,_Trial_,End,1687377200392,603e69b6e4010612bf0bc7a3,603e69b6e4010612bf0bc7a3,6,flower,critical,F,50,flower40.jpg,flower60.jpg,high,NULL
1687377412,9934870a864a064666ee6561bbbae029,PennController,17,0,experiment,NULL,PennController,15,_Trial_,Start,1687377200393,603e69b6e4010612bf0bc7a3,603e69b6e4010612bf0bc7a3,13,mix,critical,F,75,mix65.jpg,mix85.jpg,high,NULL
1687377412,9934870a864a064666ee6561bbbae029,PennController,17,0,experiment,NULL,PennController,15,_Header_,Start,1687377200393,603e69b6e4010612bf0bc7a3,603e69b6e4010612bf0bc7a3,13,mix,critical,F,75,mix65.jpg,mix85.jpg,high,NULL
1687377412,9934870a864a064666ee6561bbbae029,PennController,17,0,experiment,NULL,PennController,15,_Header_,End,1687377200393,603e69b6e4010612bf0bc7a3,603e69b6e4010612bf0bc7a3,13,mix,critical,F,75,mix65.jpg,mix85.jpg,high,NULL
1687377412,9934870a864a064666ee6561bbbae029,PennController,17,0,experiment,NULL,Canvas,canvas6,Print,NA,1687377208077,603e69b6e4010612bf0bc7a3,603e69b6e4010612bf0bc7a3,13,mix,critical,F,75,mix65.jpg,mix85.jpg,high,NULL
1687377412,9934870a864a064666ee6561bbbae029,PennController,17,0,experiment,NULL,Video,progression,buffer,0.002297,1687377203911,603e69b6e4010612bf0bc7a3,603e69b6e4010612bf0bc7a3,13,mix,critical,F,75,mix65.jpg,mix85.jpg,high,NULL
1687377412,9934870a864a064666ee6561bbbae029,PennController,17,0,experiment,NULL,Selector,choice,Selection,option2,1687377209638,603e69b6e4010612bf0bc7a3,603e69b6e4010612bf0bc7a3,13,mix,critical,F,75,mix65.jpg,mix85.jpg,high,option2;option1
1687377412,9934870a864a064666ee6561bbbae029,PennController,17,0,experiment,NULL,PennController,15,_Trial_,End,1687377209639,603e69b6e4010612bf0bc7a3,603e69b6e4010612bf0bc7a3,13,mix,critical,F,75,mix65.jpg,mix85.jpg,high,NULL
1687377412,9934870a864a064666ee6561bbbae029,PennController,14,0,experiment,NULL,PennController,12,_Trial_,Start,1687377209640,603e69b6e4010612bf0bc7a3,603e69b6e4010612bf0bc7a3,10,train,critical,F,75,train65.jpg,train85.jpg,high,NULL
1687377412,9934870a864a064666ee6561bbbae029,PennController,14,0,experiment,NULL,PennController,12,_Header_,Start,1687377209640,603e69b6e4010612bf0bc7a3,603e69b6e4010612bf0bc7a3,10,train,critical,F,75,train65.jpg,train85.jpg,high,NULL
1687377412,9934870a864a064666ee6561bbbae029,PennController,14,0,experiment,NULL,PennController,12,_Header_,End,1687377209640,603e69b6e4010612bf0bc7a3,603e69b6e4010612bf0bc7a3,10,train,critical,F,75,train65.jpg,train85.jpg,high,NULL
1687377412,9934870a864a064666ee6561bbbae029,PennController,14,0,experiment,NULL,Canvas,canvas6,Print,NA,1687377217317,603e69b6e4010612bf0bc7a3,603e69b6e4010612bf0bc7a3,10,train,critical,F,75,train65.jpg,train85.jpg,high,NULL
1687377412,9934870a864a064666ee6561bbbae029,PennController,14,0,experiment,NULL,Video,progression,buffer,0.002864,1687377213158,603e69b6e4010612bf0bc7a3,603e69b6e4010612bf0bc7a3,10,train,critical,F,75,train65.jpg,train85.jpg,high,NULL
1687377412,9934870a864a064666ee6561bbbae029,PennController,14,0,experiment,NULL,Selector,choice,Selection,option2,1687377219127,603e69b6e4010612bf0bc7a3,603e69b6e4010612bf0bc7a3,10,train,critical,F,75,train65.jpg,train85.jpg,high,option1;option2
1687377412,9934870a864a064666ee6561bbbae029,PennController,14,0,experiment,NULL,PennController,12,_Trial_,End,1687377219128,603e69b6e4010612bf0bc7a3,603e69b6e4010612bf0bc7a3,10,train,critical,F,75,train65.jpg,train85.jpg,high,NULL
1687377412,9934870a864a064666ee6561bbbae029,PennController,27,0,experiment,NULL,PennController,25,_Trial_,Start,1687377219129,603e69b6e4010612bf0bc7a3,603e69b6e4010612bf0bc7a3,23,color,filler,F,25,color15.jpg,color35.jpg,GoalB,NULL
1687377412,9934870a864a064666ee6561bbbae029,PennController,27,0,experiment,NULL,PennController,25,_Header_,Start,1687377219129,603e69b6e4010612bf0bc7a3,603e69b6e4010612bf0bc7a3,23,color,filler,F,25,color15.jpg,color35.jpg,GoalB,NULL
1687377412,9934870a864a064666ee6561bbbae029,PennController,27,0,experiment,NULL,PennController,25,_Header_,End,1687377219129,603e69b6e4010612bf0bc7a3,603e69b6e4010612bf0bc7a3,23,color,filler,F,25,color15.jpg,color35.jpg,GoalB,NULL
1687377412,9934870a864a064666ee6561bbbae029,PennController,27,0,experiment,NULL,Canvas,canvas6,Print,NA,1687377224806,603e69b6e4010612bf0bc7a3,603e69b6e4010612bf0bc7a3,23,color,filler,F,25,color15.jpg,color35.jpg,GoalB,NULL
1687377412,9934870a864a064666ee6561bbbae029,PennController,27,0,experiment,NULL,Video,progression,buffer,0.00252,1687377222647,603e69b6e4010612bf0bc7a3,603e69b6e4010612bf0bc7a3,23,color,filler,F,25,color15.jpg,color35.jpg,GoalB,NULL
1687377412,9934870a864a064666ee6561bbbae029,PennController,27,0,experiment,NULL,Selector,choice,Selection,option1,1687377230546,603e69b6e4010612bf0bc7a3,603e69b6e4010612bf0bc7a3,23,color,filler,F,25,color15.jpg,color35.jpg,GoalB,option1;option2
1687377412,9934870a864a064666ee6561bbbae029,PennController,27,0,experiment,NULL,PennController,25,_Trial_,End,1687377230547,603e69b6e4010612bf0bc7a3,603e69b6e4010612bf0bc7a3,23,color,filler,F,25,color15.jpg,color35.jpg,GoalB,NULL
1687377412,9934870a864a064666ee6561bbbae029,PennController,19,0,experiment,NULL,PennController,17,_Trial_,Start,1687377230547,603e69b6e4010612bf0bc7a3,603e69b6e4010612bf0bc7a3,15,zip,critical,F,50,zip40.jpg,zip60.jpg,high,NULL
1687377412,9934870a864a064666ee6561bbbae029,PennController,19,0,experiment,NULL,PennController,17,_Header_,Start,1687377230547,603e69b6e4010612bf0bc7a3,603e69b6e4010612bf0bc7a3,15,zip,critical,F,50,zip40.jpg,zip60.jpg,high,NULL
1687377412,9934870a864a064666ee6561bbbae029,PennController,19,0,experiment,NULL,PennController,17,_Header_,End,1687377230547,603e69b6e4010612bf0bc7a3,603e69b6e4010612bf0bc7a3,15,zip,critical,F,50,zip40.jpg,zip60.jpg,high,NULL
1687377412,9934870a864a064666ee6561bbbae029,PennController,19,0,experiment,NULL,Canvas,canvas6,Print,NA,1687377237235,603e69b6e4010612bf0bc7a3,603e69b6e4010612bf0bc7a3,15,zip,critical,F,50,zip40.jpg,zip60.jpg,high,NULL
1687377412,9934870a864a064666ee6561bbbae029,PennController,19,0,experiment,NULL,Video,progression,buffer,0.003099,1687377234065,603e69b6e4010612bf0bc7a3,603e69b6e4010612bf0bc7a3,15,zip,critical,F,50,zip40.jpg,zip60.jpg,high,NULL
1687377412,9934870a864a064666ee6561bbbae029,PennController,19,0,experiment,NULL,Selector,choice,Selection,option1,1687377244798,603e69b6e4010612bf0bc7a3,603e69b6e4010612bf0bc7a3,15,zip,critical,F,50,zip40.jpg,zip60.jpg,high,option2;option1
1687377412,9934870a864a064666ee6561bbbae029,PennController,19,0,experiment,NULL,PennController,17,_Trial_,End,1687377244799,603e69b6e4010612bf0bc7a3,603e69b6e4010612bf0bc7a3,15,zip,critical,F,50,zip40.jpg,zip60.jpg,high,NULL
1687377412,9934870a864a064666ee6561bbbae029,PennController,32,0,experiment,NULL,PennController,30,_Trial_,Start,1687377244800,603e69b6e4010612bf0bc7a3,603e69b6e4010612bf0bc7a3,28,sort,filler,F,75,sort65.jpg,sort85.jpg,GoalA,NULL
1687377412,9934870a864a064666ee6561bbbae029,PennController,32,0,experiment,NULL,PennController,30,_Header_,Start,1687377244800,603e69b6e4010612bf0bc7a3,603e69b6e4010612bf0bc7a3,28,sort,filler,F,75,sort65.jpg,sort85.jpg,GoalA,NULL
1687377412,9934870a864a064666ee6561bbbae029,PennController,32,0,experiment,NULL,PennController,30,_Header_,End,1687377244800,603e69b6e4010612bf0bc7a3,603e69b6e4010612bf0bc7a3,28,sort,filler,F,75,sort65.jpg,sort85.jpg,GoalA,NULL
1687377412,9934870a864a064666ee6561bbbae029,PennController,32,0,experiment,NULL,Canvas,canvas6,Print,NA,1687377252487,603e69b6e4010612bf0bc7a3,603e69b6e4010612bf0bc7a3,28,sort,filler,F,75,sort65.jpg,sort85.jpg,GoalA,NULL
1687377412,9934870a864a064666ee6561bbbae029,PennController,32,0,experiment,NULL,Video,progression,buffer,0.00262,1687377248314,603e69b6e4010612bf0bc7a3,603e69b6e4010612bf0bc7a3,28,sort,filler,F,75,sort65.jpg,sort85.jpg,GoalA,NULL
1687377412,9934870a864a064666ee6561bbbae029,PennController,32,0,experiment,NULL,Selector,choice,Selection,option1,1687377254290,603e69b6e4010612bf0bc7a3,603e69b6e4010612bf0bc7a3,28,sort,filler,F,75,sort65.jpg,sort85.jpg,GoalA,option1;option2
1687377412,9934870a864a064666ee6561bbbae029,PennController,32,0,experiment,NULL,PennController,30,_Trial_,End,1687377254291,603e69b6e4010612bf0bc7a3,603e69b6e4010612bf0bc7a3,28,sort,filler,F,75,sort65.jpg,sort85.jpg,GoalA,NULL
1687377412,9934870a864a064666ee6561bbbae029,PennController,33,0,experiment,NULL,PennController,31,_Trial_,Start,1687377254292,603e69b6e4010612bf0bc7a3,603e69b6e4010612bf0bc7a3,29,frog,filler,F,25,frog15.jpg,frog35.jpg,GoalB,NULL
1687377412,9934870a864a064666ee6561bbbae029,PennController,33,0,experiment,NULL,PennController,31,_Header_,Start,1687377254292,603e69b6e4010612bf0bc7a3,603e69b6e4010612bf0bc7a3,29,frog,filler,F,25,frog15.jpg,frog35.jpg,GoalB,NULL
1687377412,9934870a864a064666ee6561bbbae029,PennController,33,0,experiment,NULL,PennController,31,_Header_,End,1687377254292,603e69b6e4010612bf0bc7a3,603e69b6e4010612bf0bc7a3,29,frog,filler,F,25,frog15.jpg,frog35.jpg,GoalB,NULL
1687377412,9934870a864a064666ee6561bbbae029,PennController,33,0,experiment,NULL,Canvas,canvas6,Print,NA,1687377259975,603e69b6e4010612bf0bc7a3,603e69b6e4010612bf0bc7a3,29,frog,filler,F,25,frog15.jpg,frog35.jpg,GoalB,NULL
1687377412,9934870a864a064666ee6561bbbae029,PennController,33,0,experiment,NULL,Video,progression,buffer,0.002759,1687377257810,603e69b6e4010612bf0bc7a3,603e69b6e4010612bf0bc7a3,29,frog,filler,F,25,frog15.jpg,frog35.jpg,GoalB,NULL
1687377412,9934870a864a064666ee6561bbbae029,PennController,33,0,experiment,NULL,Selector,choice,Selection,option2,1687377261902,603e69b6e4010612bf0bc7a3,603e69b6e4010612bf0bc7a3,29,frog,filler,F,25,frog15.jpg,frog35.jpg,GoalB,option2;option1
1687377412,9934870a864a064666ee6561bbbae029,PennController,33,0,experiment,NULL,PennController,31,_Trial_,End,1687377261903,603e69b6e4010612bf0bc7a3,603e69b6e4010612bf0bc7a3,29,frog,filler,F,25,frog15.jpg,frog35.jpg,GoalB,NULL
1687377412,9934870a864a064666ee6561bbbae029,PennController,15,0,experiment,NULL,PennController,13,_Trial_,Start,1687377261904,603e69b6e4010612bf0bc7a3,603e69b6e4010612bf0bc7a3,11,beads,critical,F,25,beads15.jpg,beads35.jpg,high,NULL
1687377412,9934870a864a064666ee6561bbbae029,PennController,15,0,experiment,NULL,PennController,13,_Header_,Start,1687377261904,603e69b6e4010612bf0bc7a3,603e69b6e4010612bf0bc7a3,11,beads,critical,F,25,beads15.jpg,beads35.jpg,high,NULL
1687377412,9934870a864a064666ee6561bbbae029,PennController,15,0,experiment,NULL,PennController,13,_Header_,End,1687377261904,603e69b6e4010612bf0bc7a3,603e69b6e4010612bf0bc7a3,11,beads,critical,F,25,beads15.jpg,beads35.jpg,high,NULL
1687377412,9934870a864a064666ee6561bbbae029,PennController,15,0,experiment,NULL,Canvas,canvas6,Print,NA,1687377267583,603e69b6e4010612bf0bc7a3,603e69b6e4010612bf0bc7a3,11,beads,critical,F,25,beads15.jpg,beads35.jpg,high,NULL
1687377412,9934870a864a064666ee6561bbbae029,PennController,15,0,experiment,NULL,Video,progression,buffer,0.0022,1687377265422,603e69b6e4010612bf0bc7a3,603e69b6e4010612bf0bc7a3,11,beads,critical,F,25,beads15.jpg,beads35.jpg,high,NULL
1687377412,9934870a864a064666ee6561bbbae029,PennController,15,0,experiment,NULL,Selector,choice,Selection,option2,1687377270360,603e69b6e4010612bf0bc7a3,603e69b6e4010612bf0bc7a3,11,beads,critical,F,25,beads15.jpg,beads35.jpg,high,option2;option1
1687377412,9934870a864a064666ee6561bbbae029,PennController,15,0,experiment,NULL,PennController,13,_Trial_,End,1687377270361,603e69b6e4010612bf0bc7a3,603e69b6e4010612bf0bc7a3,11,beads,critical,F,25,beads15.jpg,beads35.jpg,high,NULL
1687377412,9934870a864a064666ee6561bbbae029,PennController,21,0,experiment,NULL,PennController,19,_Trial_,Start,1687377270362,603e69b6e4010612bf0bc7a3,603e69b6e4010612bf0bc7a3,17,roll,critical,F,25,roll15.jpg,roll35.jpg,high,NULL
1687377412,9934870a864a064666ee6561bbbae029,PennController,21,0,experiment,NULL,PennController,19,_Header_,Start,1687377270362,603e69b6e4010612bf0bc7a3,603e69b6e4010612bf0bc7a3,17,roll,critical,F,25,roll15.jpg,roll35.jpg,high,NULL
1687377412,9934870a864a064666ee6561bbbae029,PennController,21,0,experiment,NULL,PennController,19,_Header_,End,1687377270362,603e69b6e4010612bf0bc7a3,603e69b6e4010612bf0bc7a3,17,roll,critical,F,25,roll15.jpg,roll35.jpg,high,NULL
1687377412,9934870a864a064666ee6561bbbae029,PennController,21,0,experiment,NULL,Canvas,canvas6,Print,NA,1687377276041,603e69b6e4010612bf0bc7a3,603e69b6e4010612bf0bc7a3,17,roll,critical,F,25,roll15.jpg,roll35.jpg,high,NULL
1687377412,9934870a864a064666ee6561bbbae029,PennController,21,0,experiment,NULL,Video,progression,buffer,0.001776,1687377273877,603e69b6e4010612bf0bc7a3,603e69b6e4010612bf0bc7a3,17,roll,critical,F,25,roll15.jpg,roll35.jpg,high,NULL
1687377412,9934870a864a064666ee6561bbbae029,PennController,21,0,experiment,NULL,Selector,choice,Selection,option1,1687377280206,603e69b6e4010612bf0bc7a3,603e69b6e4010612bf0bc7a3,17,roll,critical,F,25,roll15.jpg,roll35.jpg,high,option1;option2
1687377412,9934870a864a064666ee6561bbbae029,PennController,21,0,experiment,NULL,PennController,19,_Trial_,End,1687377280206,603e69b6e4010612bf0bc7a3,603e69b6e4010612bf0bc7a3,17,roll,critical,F,25,roll15.jpg,roll35.jpg,high,NULL
1687377412,9934870a864a064666ee6561bbbae029,PennController,5,0,experiment,NULL,PennController,3,_Trial_,Start,1687377280207,603e69b6e4010612bf0bc7a3,603e69b6e4010612bf0bc7a3,1,vase,critical,F,75,vase65.jpg,vase85.jpg,high,NULL
1687377412,9934870a864a064666ee6561bbbae029,PennController,5,0,experiment,NULL,PennController,3,_Header_,Start,1687377280207,603e69b6e4010612bf0bc7a3,603e69b6e4010612bf0bc7a3,1,vase,critical,F,75,vase65.jpg,vase85.jpg,high,NULL
1687377412,9934870a864a064666ee6561bbbae029,PennController,5,0,experiment,NULL,PennController,3,_Header_,End,1687377280208,603e69b6e4010612bf0bc7a3,603e69b6e4010612bf0bc7a3,1,vase,critical,F,75,vase65.jpg,vase85.jpg,high,NULL
1687377412,9934870a864a064666ee6561bbbae029,PennController,5,0,experiment,NULL,Canvas,canvas6,Print,NA,1687377287887,603e69b6e4010612bf0bc7a3,603e69b6e4010612bf0bc7a3,1,vase,critical,F,75,vase65.jpg,vase85.jpg,high,NULL
1687377412,9934870a864a064666ee6561bbbae029,PennController,5,0,experiment,NULL,Video,progression,buffer,0.001742,1687377283726,603e69b6e4010612bf0bc7a3,603e69b6e4010612bf0bc7a3,1,vase,critical,F,75,vase65.jpg,vase85.jpg,high,NULL
1687377412,9934870a864a064666ee6561bbbae029,PennController,5,0,experiment,NULL,Selector,choice,Selection,option2,1687377289313,603e69b6e4010612bf0bc7a3,603e69b6e4010612bf0bc7a3,1,vase,critical,F,75,vase65.jpg,vase85.jpg,high,option2;option1
1687377412,9934870a864a064666ee6561bbbae029,PennController,5,0,experiment,NULL,PennController,3,_Trial_,End,1687377289314,603e69b6e4010612bf0bc7a3,603e69b6e4010612bf0bc7a3,1,vase,critical,F,75,vase65.jpg,vase85.jpg,high,NULL
1687377412,9934870a864a064666ee6561bbbae029,PennController,30,0,experiment,NULL,PennController,28,_Trial_,Start,1687377289315,603e69b6e4010612bf0bc7a3,603e69b6e4010612bf0bc7a3,26,sandwich,filler,F,25,sandwich15.jpg,sandwich35.jpg,GoalA,NULL
1687377412,9934870a864a064666ee6561bbbae029,PennController,30,0,experiment,NULL,PennController,28,_Header_,Start,1687377289315,603e69b6e4010612bf0bc7a3,603e69b6e4010612bf0bc7a3,26,sandwich,filler,F,25,sandwich15.jpg,sandwich35.jpg,GoalA,NULL
1687377412,9934870a864a064666ee6561bbbae029,PennController,30,0,experiment,NULL,PennController,28,_Header_,End,1687377289315,603e69b6e4010612bf0bc7a3,603e69b6e4010612bf0bc7a3,26,sandwich,filler,F,25,sandwich15.jpg,sandwich35.jpg,GoalA,NULL
1687377412,9934870a864a064666ee6561bbbae029,PennController,30,0,experiment,NULL,Canvas,canvas6,Print,NA,1687377294995,603e69b6e4010612bf0bc7a3,603e69b6e4010612bf0bc7a3,26,sandwich,filler,F,25,sandwich15.jpg,sandwich35.jpg,GoalA,NULL
1687377412,9934870a864a064666ee6561bbbae029,PennController,30,0,experiment,NULL,Video,progression,buffer,0.002689,1687377292834,603e69b6e4010612bf0bc7a3,603e69b6e4010612bf0bc7a3,26,sandwich,filler,F,25,sandwich15.jpg,sandwich35.jpg,GoalA,NULL
1687377412,9934870a864a064666ee6561bbbae029,PennController,30,0,experiment,NULL,Selector,choice,Selection,option2,1687377306400,603e69b6e4010612bf0bc7a3,603e69b6e4010612bf0bc7a3,26,sandwich,filler,F,25,sandwich15.jpg,sandwich35.jpg,GoalA,option2;option1
1687377412,9934870a864a064666ee6561bbbae029,PennController,30,0,experiment,NULL,PennController,28,_Trial_,End,1687377306400,603e69b6e4010612bf0bc7a3,603e69b6e4010612bf0bc7a3,26,sandwich,filler,F,25,sandwich15.jpg,sandwich35.jpg,GoalA,NULL
1687377412,9934870a864a064666ee6561bbbae029,PennController,22,0,experiment,NULL,PennController,20,_Trial_,Start,1687377306401,603e69b6e4010612bf0bc7a3,603e69b6e4010612bf0bc7a3,18,ball,critical,F,50,ball40.jpg,ball60.jpg,high,NULL
1687377412,9934870a864a064666ee6561bbbae029,PennController,22,0,experiment,NULL,PennController,20,_Header_,Start,1687377306401,603e69b6e4010612bf0bc7a3,603e69b6e4010612bf0bc7a3,18,ball,critical,F,50,ball40.jpg,ball60.jpg,high,NULL
1687377412,9934870a864a064666ee6561bbbae029,PennController,22,0,experiment,NULL,PennController,20,_Header_,End,1687377306401,603e69b6e4010612bf0bc7a3,603e69b6e4010612bf0bc7a3,18,ball,critical,F,50,ball40.jpg,ball60.jpg,high,NULL
1687377412,9934870a864a064666ee6561bbbae029,PennController,22,0,experiment,NULL,Canvas,canvas6,Print,NA,1687377313080,603e69b6e4010612bf0bc7a3,603e69b6e4010612bf0bc7a3,18,ball,critical,F,50,ball40.jpg,ball60.jpg,high,NULL
1687377412,9934870a864a064666ee6561bbbae029,PennController,22,0,experiment,NULL,Video,progression,buffer,0.001718,1687377309918,603e69b6e4010612bf0bc7a3,603e69b6e4010612bf0bc7a3,18,ball,critical,F,50,ball40.jpg,ball60.jpg,high,NULL
1687377412,9934870a864a064666ee6561bbbae029,PennController,22,0,experiment,NULL,Selector,choice,Selection,option2,1687377315571,603e69b6e4010612bf0bc7a3,603e69b6e4010612bf0bc7a3,18,ball,critical,F,50,ball40.jpg,ball60.jpg,high,option1;option2
1687377412,9934870a864a064666ee6561bbbae029,PennController,22,0,experiment,NULL,PennController,20,_Trial_,End,1687377315572,603e69b6e4010612bf0bc7a3,603e69b6e4010612bf0bc7a3,18,ball,critical,F,50,ball40.jpg,ball60.jpg,high,NULL
1687377412,9934870a864a064666ee6561bbbae029,PennController,8,0,experiment,NULL,PennController,6,_Trial_,Start,1687377315573,603e69b6e4010612bf0bc7a3,603e69b6e4010612bf0bc7a3,4,candy,critical,F,75,candy65.jpg,candy85.jpg,high,NULL
1687377412,9934870a864a064666ee6561bbbae029,PennController,8,0,experiment,NULL,PennController,6,_Header_,Start,1687377315573,603e69b6e4010612bf0bc7a3,603e69b6e4010612bf0bc7a3,4,candy,critical,F,75,candy65.jpg,candy85.jpg,high,NULL
1687377412,9934870a864a064666ee6561bbbae029,PennController,8,0,experiment,NULL,PennController,6,_Header_,End,1687377315573,603e69b6e4010612bf0bc7a3,603e69b6e4010612bf0bc7a3,4,candy,critical,F,75,candy65.jpg,candy85.jpg,high,NULL
1687377412,9934870a864a064666ee6561bbbae029,PennController,8,0,experiment,NULL,Canvas,canvas6,Print,NA,1687377323254,603e69b6e4010612bf0bc7a3,603e69b6e4010612bf0bc7a3,4,candy,critical,F,75,candy65.jpg,candy85.jpg,high,NULL
1687377412,9934870a864a064666ee6561bbbae029,PennController,8,0,experiment,NULL,Video,progression,buffer,0.001637,1687377319090,603e69b6e4010612bf0bc7a3,603e69b6e4010612bf0bc7a3,4,candy,critical,F,75,candy65.jpg,candy85.jpg,high,NULL
1687377412,9934870a864a064666ee6561bbbae029,PennController,8,0,experiment,NULL,Selector,choice,Selection,option1,1687377330435,603e69b6e4010612bf0bc7a3,603e69b6e4010612bf0bc7a3,4,candy,critical,F,75,candy65.jpg,candy85.jpg,high,option2;option1
1687377412,9934870a864a064666ee6561bbbae029,PennController,8,0,experiment,NULL,PennController,6,_Trial_,End,1687377330436,603e69b6e4010612bf0bc7a3,603e69b6e4010612bf0bc7a3,4,candy,critical,F,75,candy65.jpg,candy85.jpg,high,NULL
1687377412,9934870a864a064666ee6561bbbae029,PennController,23,0,experiment,NULL,PennController,21,_Trial_,Start,1687377330437,603e69b6e4010612bf0bc7a3,603e69b6e4010612bf0bc7a3,19,cup,filler,F,75,cup65.jpg,cup85.jpg,GoalB,NULL
1687377412,9934870a864a064666ee6561bbbae029,PennController,23,0,experiment,NULL,PennController,21,_Header_,Start,1687377330437,603e69b6e4010612bf0bc7a3,603e69b6e4010612bf0bc7a3,19,cup,filler,F,75,cup65.jpg,cup85.jpg,GoalB,NULL
1687377412,9934870a864a064666ee6561bbbae029,PennController,23,0,experiment,NULL,PennController,21,_Header_,End,1687377330437,603e69b6e4010612bf0bc7a3,603e69b6e4010612bf0bc7a3,19,cup,filler,F,75,cup65.jpg,cup85.jpg,GoalB,NULL
1687377412,9934870a864a064666ee6561bbbae029,PennController,23,0,experiment,NULL,Canvas,canvas6,Print,NA,1687377338123,603e69b6e4010612bf0bc7a3,603e69b6e4010612bf0bc7a3,19,cup,filler,F,75,cup65.jpg,cup85.jpg,GoalB,NULL
1687377412,9934870a864a064666ee6561bbbae029,PennController,23,0,experiment,NULL,Video,progression,buffer,0.002232,1687377333948,603e69b6e4010612bf0bc7a3,603e69b6e4010612bf0bc7a3,19,cup,filler,F,75,cup65.jpg,cup85.jpg,GoalB,NULL
1687377412,9934870a864a064666ee6561bbbae029,PennController,23,0,experiment,NULL,Selector,choice,Selection,option1,1687377339340,603e69b6e4010612bf0bc7a3,603e69b6e4010612bf0bc7a3,19,cup,filler,F,75,cup65.jpg,cup85.jpg,GoalB,option2;option1
1687377412,9934870a864a064666ee6561bbbae029,PennController,23,0,experiment,NULL,PennController,21,_Trial_,End,1687377339342,603e69b6e4010612bf0bc7a3,603e69b6e4010612bf0bc7a3,19,cup,filler,F,75,cup65.jpg,cup85.jpg,GoalB,NULL
1687377412,9934870a864a064666ee6561bbbae029,PennController,16,0,experiment,NULL,PennController,14,_Trial_,Start,1687377339344,603e69b6e4010612bf0bc7a3,603e69b6e4010612bf0bc7a3,12,erase,critical,F,50,erase42.jpg,erase60.jpg,high,NULL
1687377412,9934870a864a064666ee6561bbbae029,PennController,16,0,experiment,NULL,PennController,14,_Header_,Start,1687377339344,603e69b6e4010612bf0bc7a3,603e69b6e4010612bf0bc7a3,12,erase,critical,F,50,erase42.jpg,erase60.jpg,high,NULL
1687377412,9934870a864a064666ee6561bbbae029,PennController,16,0,experiment,NULL,PennController,14,_Header_,End,1687377339344,603e69b6e4010612bf0bc7a3,603e69b6e4010612bf0bc7a3,12,erase,critical,F,50,erase42.jpg,erase60.jpg,high,NULL
1687377412,9934870a864a064666ee6561bbbae029,PennController,16,0,experiment,NULL,Canvas,canvas6,Print,NA,1687377347432,603e69b6e4010612bf0bc7a3,603e69b6e4010612bf0bc7a3,12,erase,critical,F,50,erase42.jpg,erase60.jpg,high,NULL
1687377412,9934870a864a064666ee6561bbbae029,PennController,16,0,experiment,NULL,Video,progression,buffer,0.002571,1687377342862,603e69b6e4010612bf0bc7a3,603e69b6e4010612bf0bc7a3,12,erase,critical,F,50,erase42.jpg,erase60.jpg,high,NULL
1687377412,9934870a864a064666ee6561bbbae029,PennController,16,0,experiment,NULL,Selector,choice,Selection,option2,1687377348553,603e69b6e4010612bf0bc7a3,603e69b6e4010612bf0bc7a3,12,erase,critical,F,50,erase42.jpg,erase60.jpg,high,option1;option2
1687377412,9934870a864a064666ee6561bbbae029,PennController,16,0,experiment,NULL,PennController,14,_Trial_,End,1687377348554,603e69b6e4010612bf0bc7a3,603e69b6e4010612bf0bc7a3,12,erase,critical,F,50,erase42.jpg,erase60.jpg,high,NULL
1687377412,9934870a864a064666ee6561bbbae029,PennController,20,0,experiment,NULL,PennController,18,_Trial_,Start,1687377348555,603e69b6e4010612bf0bc7a3,603e69b6e4010612bf0bc7a3,16,blinds,critical,F,75,blinds66.jpg,blinds84.jpg,high,NULL
1687377412,9934870a864a064666ee6561bbbae029,PennController,20,0,experiment,NULL,PennController,18,_Header_,Start,1687377348555,603e69b6e4010612bf0bc7a3,603e69b6e4010612bf0bc7a3,16,blinds,critical,F,75,blinds66.jpg,blinds84.jpg,high,NULL
1687377412,9934870a864a064666ee6561bbbae029,PennController,20,0,experiment,NULL,PennController,18,_Header_,End,1687377348555,603e69b6e4010612bf0bc7a3,603e69b6e4010612bf0bc7a3,16,blinds,critical,F,75,blinds66.jpg,blinds84.jpg,high,NULL
1687377412,9934870a864a064666ee6561bbbae029,PennController,20,0,experiment,NULL,Canvas,canvas6,Print,NA,1687377358240,603e69b6e4010612bf0bc7a3,603e69b6e4010612bf0bc7a3,16,blinds,critical,F,75,blinds66.jpg,blinds84.jpg,high,NULL
1687377412,9934870a864a064666ee6561bbbae029,PennController,20,0,experiment,NULL,Video,progression,buffer,0.002579,1687377352074,603e69b6e4010612bf0bc7a3,603e69b6e4010612bf0bc7a3,16,blinds,critical,F,75,blinds66.jpg,blinds84.jpg,high,NULL
1687377412,9934870a864a064666ee6561bbbae029,PennController,20,0,experiment,NULL,Selector,choice,Selection,option2,1687377361411,603e69b6e4010612bf0bc7a3,603e69b6e4010612bf0bc7a3,16,blinds,critical,F,75,blinds66.jpg,blinds84.jpg,high,option2;option1
1687377412,9934870a864a064666ee6561bbbae029,PennController,20,0,experiment,NULL,PennController,18,_Trial_,End,1687377361412,603e69b6e4010612bf0bc7a3,603e69b6e4010612bf0bc7a3,16,blinds,critical,F,75,blinds66.jpg,blinds84.jpg,high,NULL
1687377412,9934870a864a064666ee6561bbbae029,PennController,18,0,experiment,NULL,PennController,16,_Trial_,Start,1687377361413,603e69b6e4010612bf0bc7a3,603e69b6e4010612bf0bc7a3,14,cover,critical,F,25,cover15.jpg,cover33.jpg,high,NULL
1687377412,9934870a864a064666ee6561bbbae029,PennController,18,0,experiment,NULL,PennController,16,_Header_,Start,1687377361413,603e69b6e4010612bf0bc7a3,603e69b6e4010612bf0bc7a3,14,cover,critical,F,25,cover15.jpg,cover33.jpg,high,NULL
1687377412,9934870a864a064666ee6561bbbae029,PennController,18,0,experiment,NULL,PennController,16,_Header_,End,1687377361413,603e69b6e4010612bf0bc7a3,603e69b6e4010612bf0bc7a3,14,cover,critical,F,25,cover15.jpg,cover33.jpg,high,NULL
1687377412,9934870a864a064666ee6561bbbae029,PennController,18,0,experiment,NULL,Canvas,canvas6,Print,NA,1687377367684,603e69b6e4010612bf0bc7a3,603e69b6e4010612bf0bc7a3,14,cover,critical,F,25,cover15.jpg,cover33.jpg,high,NULL
1687377412,9934870a864a064666ee6561bbbae029,PennController,18,0,experiment,NULL,Video,progression,buffer,0.002053,1687377364927,603e69b6e4010612bf0bc7a3,603e69b6e4010612bf0bc7a3,14,cover,critical,F,25,cover15.jpg,cover33.jpg,high,NULL
1687377412,9934870a864a064666ee6561bbbae029,PennController,18,0,experiment,NULL,Selector,choice,Selection,option1,1687377368782,603e69b6e4010612bf0bc7a3,603e69b6e4010612bf0bc7a3,14,cover,critical,F,25,cover15.jpg,cover33.jpg,high,option2;option1
1687377412,9934870a864a064666ee6561bbbae029,PennController,18,0,experiment,NULL,PennController,16,_Trial_,End,1687377368783,603e69b6e4010612bf0bc7a3,603e69b6e4010612bf0bc7a3,14,cover,critical,F,25,cover15.jpg,cover33.jpg,high,NULL
1687377412,9934870a864a064666ee6561bbbae029,PennController,12,0,experiment,NULL,PennController,10,_Trial_,Start,1687377368783,603e69b6e4010612bf0bc7a3,603e69b6e4010612bf0bc7a3,8,cucumber,critical,F,25,cucumber15.jpg,cucumber33.jpg,high,NULL
1687377412,9934870a864a064666ee6561bbbae029,PennController,12,0,experiment,NULL,PennController,10,_Header_,Start,1687377368783,603e69b6e4010612bf0bc7a3,603e69b6e4010612bf0bc7a3,8,cucumber,critical,F,25,cucumber15.jpg,cucumber33.jpg,high,NULL
1687377412,9934870a864a064666ee6561bbbae029,PennController,12,0,experiment,NULL,PennController,10,_Header_,End,1687377368783,603e69b6e4010612bf0bc7a3,603e69b6e4010612bf0bc7a3,8,cucumber,critical,F,25,cucumber15.jpg,cucumber33.jpg,high,NULL
1687377412,9934870a864a064666ee6561bbbae029,PennController,12,0,experiment,NULL,Canvas,canvas6,Print,NA,1687377375074,603e69b6e4010612bf0bc7a3,603e69b6e4010612bf0bc7a3,8,cucumber,critical,F,25,cucumber15.jpg,cucumber33.jpg,high,NULL
1687377412,9934870a864a064666ee6561bbbae029,PennController,12,0,experiment,NULL,Video,progression,buffer,0.004659,1687377372305,603e69b6e4010612bf0bc7a3,603e69b6e4010612bf0bc7a3,8,cucumber,critical,F,25,cucumber15.jpg,cucumber33.jpg,high,NULL
1687377412,9934870a864a064666ee6561bbbae029,PennController,12,0,experiment,NULL,Selector,choice,Selection,option1,1687377376756,603e69b6e4010612bf0bc7a3,603e69b6e4010612bf0bc7a3,8,cucumber,critical,F,25,cucumber15.jpg,cucumber33.jpg,high,option2;option1
1687377412,9934870a864a064666ee6561bbbae029,PennController,12,0,experiment,NULL,PennController,10,_Trial_,End,1687377376756,603e69b6e4010612bf0bc7a3,603e69b6e4010612bf0bc7a3,8,cucumber,critical,F,25,cucumber15.jpg,cucumber33.jpg,high,NULL
1687377412,9934870a864a064666ee6561bbbae029,PennController,25,0,experiment,NULL,PennController,23,_Trial_,Start,1687377376757,603e69b6e4010612bf0bc7a3,603e69b6e4010612bf0bc7a3,21,visit,filler,F,50,visit40.jpg,visit60.jpg,GoalB,NULL
1687377412,9934870a864a064666ee6561bbbae029,PennController,25,0,experiment,NULL,PennController,23,_Header_,Start,1687377376757,603e69b6e4010612bf0bc7a3,603e69b6e4010612bf0bc7a3,21,visit,filler,F,50,visit40.jpg,visit60.jpg,GoalB,NULL
1687377412,9934870a864a064666ee6561bbbae029,PennController,25,0,experiment,NULL,PennController,23,_Header_,End,1687377376757,603e69b6e4010612bf0bc7a3,603e69b6e4010612bf0bc7a3,21,visit,filler,F,50,visit40.jpg,visit60.jpg,GoalB,NULL
1687377412,9934870a864a064666ee6561bbbae029,PennController,25,0,experiment,NULL,Canvas,canvas6,Print,NA,1687377383432,603e69b6e4010612bf0bc7a3,603e69b6e4010612bf0bc7a3,21,visit,filler,F,50,visit40.jpg,visit60.jpg,GoalB,NULL
1687377412,9934870a864a064666ee6561bbbae029,PennController,25,0,experiment,NULL,Video,progression,buffer,0.002307,1687377380272,603e69b6e4010612bf0bc7a3,603e69b6e4010612bf0bc7a3,21,visit,filler,F,50,visit40.jpg,visit60.jpg,GoalB,NULL
1687377412,9934870a864a064666ee6561bbbae029,PennController,25,0,experiment,NULL,Selector,choice,Selection,option1,1687377387433,603e69b6e4010612bf0bc7a3,603e69b6e4010612bf0bc7a3,21,visit,filler,F,50,visit40.jpg,visit60.jpg,GoalB,option2;option1
1687377412,9934870a864a064666ee6561bbbae029,PennController,25,0,experiment,NULL,PennController,23,_Trial_,End,1687377387434,603e69b6e4010612bf0bc7a3,603e69b6e4010612bf0bc7a3,21,visit,filler,F,50,visit40.jpg,visit60.jpg,GoalB,NULL
1687377412,9934870a864a064666ee6561bbbae029,PennController,28,0,experiment,NULL,PennController,26,_Trial_,Start,1687377387435,603e69b6e4010612bf0bc7a3,603e69b6e4010612bf0bc7a3,24,match,filler,F,50,match40.jpg,match60.jpg,GoalA,NULL
1687377412,9934870a864a064666ee6561bbbae029,PennController,28,0,experiment,NULL,PennController,26,_Header_,Start,1687377387435,603e69b6e4010612bf0bc7a3,603e69b6e4010612bf0bc7a3,24,match,filler,F,50,match40.jpg,match60.jpg,GoalA,NULL
1687377412,9934870a864a064666ee6561bbbae029,PennController,28,0,experiment,NULL,PennController,26,_Header_,End,1687377387435,603e69b6e4010612bf0bc7a3,603e69b6e4010612bf0bc7a3,24,match,filler,F,50,match40.jpg,match60.jpg,GoalA,NULL
1687377412,9934870a864a064666ee6561bbbae029,PennController,28,0,experiment,NULL,Canvas,canvas6,Print,NA,1687377394125,603e69b6e4010612bf0bc7a3,603e69b6e4010612bf0bc7a3,24,match,filler,F,50,match40.jpg,match60.jpg,GoalA,NULL
1687377412,9934870a864a064666ee6561bbbae029,PennController,28,0,experiment,NULL,Video,progression,buffer,0.001753,1687377390953,603e69b6e4010612bf0bc7a3,603e69b6e4010612bf0bc7a3,24,match,filler,F,50,match40.jpg,match60.jpg,GoalA,NULL
1687377412,9934870a864a064666ee6561bbbae029,PennController,28,0,experiment,NULL,Selector,choice,Selection,option1,1687377396930,603e69b6e4010612bf0bc7a3,603e69b6e4010612bf0bc7a3,24,match,filler,F,50,match40.jpg,match60.jpg,GoalA,option2;option1
1687377412,9934870a864a064666ee6561bbbae029,PennController,28,0,experiment,NULL,PennController,26,_Trial_,End,1687377396931,603e69b6e4010612bf0bc7a3,603e69b6e4010612bf0bc7a3,24,match,filler,F,50,match40.jpg,match60.jpg,GoalA,NULL
1687377412,9934870a864a064666ee6561bbbae029,PennController,26,0,experiment,NULL,PennController,24,_Trial_,Start,1687377396932,603e69b6e4010612bf0bc7a3,603e69b6e4010612bf0bc7a3,22,wall,filler,F,75,wall65.jpg,wall85.jpg,GoalA,NULL
1687377412,9934870a864a064666ee6561bbbae029,PennController,26,0,experiment,NULL,PennController,24,_Header_,Start,1687377396932,603e69b6e4010612bf0bc7a3,603e69b6e4010612bf0bc7a3,22,wall,filler,F,75,wall65.jpg,wall85.jpg,GoalA,NULL
1687377412,9934870a864a064666ee6561bbbae029,PennController,26,0,experiment,NULL,PennController,24,_Header_,End,1687377396932,603e69b6e4010612bf0bc7a3,603e69b6e4010612bf0bc7a3,22,wall,filler,F,75,wall65.jpg,wall85.jpg,GoalA,NULL
1687377412,9934870a864a064666ee6561bbbae029,PennController,26,0,experiment,NULL,Canvas,canvas6,Print,NA,1687377404622,603e69b6e4010612bf0bc7a3,603e69b6e4010612bf0bc7a3,22,wall,filler,F,75,wall65.jpg,wall85.jpg,GoalA,NULL
1687377412,9934870a864a064666ee6561bbbae029,PennController,26,0,experiment,NULL,Video,progression,buffer,0.003816,1687377400450,603e69b6e4010612bf0bc7a3,603e69b6e4010612bf0bc7a3,22,wall,filler,F,75,wall65.jpg,wall85.jpg,GoalA,NULL
1687377412,9934870a864a064666ee6561bbbae029,PennController,26,0,experiment,NULL,Selector,choice,Selection,option1,1687377407521,603e69b6e4010612bf0bc7a3,603e69b6e4010612bf0bc7a3,22,wall,filler,F,75,wall65.jpg,wall85.jpg,GoalA,option1;option2
1687377412,9934870a864a064666ee6561bbbae029,PennController,26,0,experiment,NULL,PennController,24,_Trial_,End,1687377407522,603e69b6e4010612bf0bc7a3,603e69b6e4010612bf0bc7a3,22,wall,filler,F,75,wall65.jpg,wall85.jpg,GoalA,NULL
1687377412,9934870a864a064666ee6561bbbae029,PennController,6,0,experiment,NULL,PennController,4,_Trial_,Start,1687377407523,603e69b6e4010612bf0bc7a3,603e69b6e4010612bf0bc7a3,2,door,critical,F,25,door15.jpg,door35.jpg,high,NULL
1687377412,9934870a864a064666ee6561bbbae029,PennController,6,0,experiment,NULL,PennController,4,_Header_,Start,1687377407523,603e69b6e4010612bf0bc7a3,603e69b6e4010612bf0bc7a3,2,door,critical,F,25,door15.jpg,door35.jpg,high,NULL
1687377412,9934870a864a064666ee6561bbbae029,PennController,6,0,experiment,NULL,PennController,4,_Header_,End,1687377407523,603e69b6e4010612bf0bc7a3,603e69b6e4010612bf0bc7a3,2,door,critical,F,25,door15.jpg,door35.jpg,high,NULL
1687377412,9934870a864a064666ee6561bbbae029,PennController,6,0,experiment,NULL,Canvas,canvas6,Print,NA,1687377413199,603e69b6e4010612bf0bc7a3,603e69b6e4010612bf0bc7a3,2,door,critical,F,25,door15.jpg,door35.jpg,high,NULL
1687377412,9934870a864a064666ee6561bbbae029,PennController,6,0,experiment,NULL,Video,progression,buffer,0.001378,1687377411035,603e69b6e4010612bf0bc7a3,603e69b6e4010612bf0bc7a3,2,door,critical,F,25,door15.jpg,door35.jpg,high,NULL
1687377412,9934870a864a064666ee6561bbbae029,PennController,6,0,experiment,NULL,Selector,choice,Selection,option1,1687377414336,603e69b6e4010612bf0bc7a3,603e69b6e4010612bf0bc7a3,2,door,critical,F,25,door15.jpg,door35.jpg,high,option2;option1
1687377412,9934870a864a064666ee6561bbbae029,PennController,6,0,experiment,NULL,PennController,4,_Trial_,End,1687377414336,603e69b6e4010612bf0bc7a3,603e69b6e4010612bf0bc7a3,2,door,critical,F,25,door15.jpg,door35.jpg,high,NULL
