#
# Results on Tuesday June 20 2023 19:08:36 UTC
# USER AGENT: Mozilla/5.0 (Windows NT 10.0; Win64; x64) AppleWebKit/537.36 (KHTML, like Gecko) Chrome/114.0.0.0 Safari/537.36
# Design number was non-random = 54
#
# Columns below this comment are as follows:
# 1. Results reception time.
# 2. MD5 hash of participant's IP address.
# 3. Controller name.
# 4. Order number of item.
# 5. Inner element number.
# 6. Label.
# 7. Latin Square Group.
# 8. PennElementType.
# 9. PennElementName.
# 10. Parameter.
# 11. Value.
# 12. EventTime.
# 13. PROLIFIC_ID.
# 14. Comments.
1687288116,f45c702b2810b7c0908e1c83ce3e7f35,PennController,2,0,consent,NULL,PennController,0,_Trial_,Start,1687287957486,5cbca7948609200001784a87,NULL
1687288116,f45c702b2810b7c0908e1c83ce3e7f35,PennController,2,0,consent,NULL,PennController,0,_Header_,Start,1687287957486,5cbca7948609200001784a87,NULL
1687288116,f45c702b2810b7c0908e1c83ce3e7f35,PennController,2,0,consent,NULL,PennController,0,_Header_,End,1687287957486,5cbca7948609200001784a87,NULL
1687288116,f45c702b2810b7c0908e1c83ce3e7f35,PennController,2,0,consent,NULL,PennController,0,_Trial_,End,1687287963350,5cbca7948609200001784a87,NULL
# Columns below this comment are as follows:
# 14. ID.
# 15. Comments.
1687288116,f45c702b2810b7c0908e1c83ce3e7f35,PennController,3,0,intro,NULL,PennController,1,_Trial_,Start,1687287963357,5cbca7948609200001784a87,5cbca7948609200001784a87,NULL
1687288116,f45c702b2810b7c0908e1c83ce3e7f35,PennController,3,0,intro,NULL,PennController,1,_Header_,Start,1687287963357,5cbca7948609200001784a87,5cbca7948609200001784a87,NULL
1687288116,f45c702b2810b7c0908e1c83ce3e7f35,PennController,3,0,intro,NULL,PennController,1,_Header_,End,1687287963357,5cbca7948609200001784a87,5cbca7948609200001784a87,NULL
1687288116,f45c702b2810b7c0908e1c83ce3e7f35,PennController,3,0,intro,NULL,PennController,1,_Trial_,End,1687287972598,5cbca7948609200001784a87,5cbca7948609200001784a87,NULL
# Columns below this comment are as follows:
# 15. item_number.
# 16. item.
# 17. type.
# 18. Group.
# 19. prog.
# 20. prev_image.
# 21. next_image.
# 22. height.
# 23. Comments.
1687288116,f45c702b2810b7c0908e1c83ce3e7f35,PennController,28,0,experiment,NULL,PennController,27,_Trial_,Start,1687287972604,5cbca7948609200001784a87,5cbca7948609200001784a87,25,house,filler,A,25,house15.jpg,house35.jpg,GoalA,NULL
1687288116,f45c702b2810b7c0908e1c83ce3e7f35,PennController,28,0,experiment,NULL,PennController,27,_Header_,Start,1687287972604,5cbca7948609200001784a87,5cbca7948609200001784a87,25,house,filler,A,25,house15.jpg,house35.jpg,GoalA,NULL
1687288116,f45c702b2810b7c0908e1c83ce3e7f35,PennController,28,0,experiment,NULL,PennController,27,_Header_,End,1687287972604,5cbca7948609200001784a87,5cbca7948609200001784a87,25,house,filler,A,25,house15.jpg,house35.jpg,GoalA,NULL
1687288116,f45c702b2810b7c0908e1c83ce3e7f35,PennController,28,0,experiment,NULL,Canvas,canvas6,Print,NA,1687287978337,5cbca7948609200001784a87,5cbca7948609200001784a87,25,house,filler,A,25,house15.jpg,house35.jpg,GoalA,NULL
1687288116,f45c702b2810b7c0908e1c83ce3e7f35,PennController,28,0,experiment,NULL,Video,progression,buffer,0.004934,1687287976166,5cbca7948609200001784a87,5cbca7948609200001784a87,25,house,filler,A,25,house15.jpg,house35.jpg,GoalA,NULL
1687288116,f45c702b2810b7c0908e1c83ce3e7f35,PennController,28,0,experiment,NULL,Selector,choice,Selection,option2,1687287980288,5cbca7948609200001784a87,5cbca7948609200001784a87,25,house,filler,A,25,house15.jpg,house35.jpg,GoalA,option2;option1
1687288116,f45c702b2810b7c0908e1c83ce3e7f35,PennController,28,0,experiment,NULL,PennController,27,_Trial_,End,1687287980291,5cbca7948609200001784a87,5cbca7948609200001784a87,25,house,filler,A,25,house15.jpg,house35.jpg,GoalA,NULL
1687288116,f45c702b2810b7c0908e1c83ce3e7f35,PennController,29,0,experiment,NULL,PennController,28,_Trial_,Start,1687287980295,5cbca7948609200001784a87,5cbca7948609200001784a87,26,sandwich,filler,A,50,sandwich40.jpg,sandwich60.jpg,GoalB,NULL
1687288116,f45c702b2810b7c0908e1c83ce3e7f35,PennController,29,0,experiment,NULL,PennController,28,_Header_,Start,1687287980295,5cbca7948609200001784a87,5cbca7948609200001784a87,26,sandwich,filler,A,50,sandwich40.jpg,sandwich60.jpg,GoalB,NULL
1687288116,f45c702b2810b7c0908e1c83ce3e7f35,PennController,29,0,experiment,NULL,PennController,28,_Header_,End,1687287980295,5cbca7948609200001784a87,5cbca7948609200001784a87,26,sandwich,filler,A,50,sandwich40.jpg,sandwich60.jpg,GoalB,NULL
1687288116,f45c702b2810b7c0908e1c83ce3e7f35,PennController,29,0,experiment,NULL,Canvas,canvas6,Print,NA,1687287987043,5cbca7948609200001784a87,5cbca7948609200001784a87,26,sandwich,filler,A,50,sandwich40.jpg,sandwich60.jpg,GoalB,NULL
1687288116,f45c702b2810b7c0908e1c83ce3e7f35,PennController,29,0,experiment,NULL,Video,progression,buffer,0.003865,1687287983824,5cbca7948609200001784a87,5cbca7948609200001784a87,26,sandwich,filler,A,50,sandwich40.jpg,sandwich60.jpg,GoalB,NULL
1687288116,f45c702b2810b7c0908e1c83ce3e7f35,PennController,29,0,experiment,NULL,Selector,choice,Selection,option1,1687287989303,5cbca7948609200001784a87,5cbca7948609200001784a87,26,sandwich,filler,A,50,sandwich40.jpg,sandwich60.jpg,GoalB,option2;option1
1687288116,f45c702b2810b7c0908e1c83ce3e7f35,PennController,29,0,experiment,NULL,PennController,28,_Trial_,End,1687287989305,5cbca7948609200001784a87,5cbca7948609200001784a87,26,sandwich,filler,A,50,sandwich40.jpg,sandwich60.jpg,GoalB,NULL
1687288116,f45c702b2810b7c0908e1c83ce3e7f35,PennController,21,0,experiment,NULL,PennController,20,_Trial_,Start,1687287989308,5cbca7948609200001784a87,5cbca7948609200001784a87,18,ball,critical,A,75,ball65.jpg,ball85.jpg,low,NULL
1687288116,f45c702b2810b7c0908e1c83ce3e7f35,PennController,21,0,experiment,NULL,PennController,20,_Header_,Start,1687287989308,5cbca7948609200001784a87,5cbca7948609200001784a87,18,ball,critical,A,75,ball65.jpg,ball85.jpg,low,NULL
1687288116,f45c702b2810b7c0908e1c83ce3e7f35,PennController,21,0,experiment,NULL,PennController,20,_Header_,End,1687287989308,5cbca7948609200001784a87,5cbca7948609200001784a87,18,ball,critical,A,75,ball65.jpg,ball85.jpg,low,NULL
1687288116,f45c702b2810b7c0908e1c83ce3e7f35,PennController,21,0,experiment,NULL,Canvas,canvas6,Print,NA,1687287997013,5cbca7948609200001784a87,5cbca7948609200001784a87,18,ball,critical,A,75,ball65.jpg,ball85.jpg,low,NULL
1687288116,f45c702b2810b7c0908e1c83ce3e7f35,PennController,21,0,experiment,NULL,Video,progression,buffer,0.00785,1687287992844,5cbca7948609200001784a87,5cbca7948609200001784a87,18,ball,critical,A,75,ball65.jpg,ball85.jpg,low,NULL
1687288116,f45c702b2810b7c0908e1c83ce3e7f35,PennController,21,0,experiment,NULL,Selector,choice,Selection,option2,1687287999775,5cbca7948609200001784a87,5cbca7948609200001784a87,18,ball,critical,A,75,ball65.jpg,ball85.jpg,low,option1;option2
1687288116,f45c702b2810b7c0908e1c83ce3e7f35,PennController,21,0,experiment,NULL,PennController,20,_Trial_,End,1687287999777,5cbca7948609200001784a87,5cbca7948609200001784a87,18,ball,critical,A,75,ball65.jpg,ball85.jpg,low,NULL
1687288116,f45c702b2810b7c0908e1c83ce3e7f35,PennController,13,0,experiment,NULL,PennController,12,_Trial_,Start,1687287999779,5cbca7948609200001784a87,5cbca7948609200001784a87,10,train,critical,A,25,train15.jpg,train35.jpg,low,NULL
1687288116,f45c702b2810b7c0908e1c83ce3e7f35,PennController,13,0,experiment,NULL,PennController,12,_Header_,Start,1687287999779,5cbca7948609200001784a87,5cbca7948609200001784a87,10,train,critical,A,25,train15.jpg,train35.jpg,low,NULL
1687288116,f45c702b2810b7c0908e1c83ce3e7f35,PennController,13,0,experiment,NULL,PennController,12,_Header_,End,1687287999779,5cbca7948609200001784a87,5cbca7948609200001784a87,10,train,critical,A,25,train15.jpg,train35.jpg,low,NULL
1687288116,f45c702b2810b7c0908e1c83ce3e7f35,PennController,13,0,experiment,NULL,Canvas,canvas6,Print,NA,1687288005481,5cbca7948609200001784a87,5cbca7948609200001784a87,10,train,critical,A,25,train15.jpg,train35.jpg,low,NULL
1687288116,f45c702b2810b7c0908e1c83ce3e7f35,PennController,13,0,experiment,NULL,Video,progression,buffer,0.004729,1687288003314,5cbca7948609200001784a87,5cbca7948609200001784a87,10,train,critical,A,25,train15.jpg,train35.jpg,low,NULL
1687288116,f45c702b2810b7c0908e1c83ce3e7f35,PennController,13,0,experiment,NULL,Selector,choice,Selection,option1,1687288008246,5cbca7948609200001784a87,5cbca7948609200001784a87,10,train,critical,A,25,train15.jpg,train35.jpg,low,option2;option1
1687288116,f45c702b2810b7c0908e1c83ce3e7f35,PennController,13,0,experiment,NULL,PennController,12,_Trial_,End,1687288008249,5cbca7948609200001784a87,5cbca7948609200001784a87,10,train,critical,A,25,train15.jpg,train35.jpg,low,NULL
1687288116,f45c702b2810b7c0908e1c83ce3e7f35,PennController,26,0,experiment,NULL,PennController,25,_Trial_,Start,1687288008254,5cbca7948609200001784a87,5cbca7948609200001784a87,23,color,filler,A,50,color40.jpg,color60.jpg,GoalA,NULL
1687288116,f45c702b2810b7c0908e1c83ce3e7f35,PennController,26,0,experiment,NULL,PennController,25,_Header_,Start,1687288008254,5cbca7948609200001784a87,5cbca7948609200001784a87,23,color,filler,A,50,color40.jpg,color60.jpg,GoalA,NULL
1687288116,f45c702b2810b7c0908e1c83ce3e7f35,PennController,26,0,experiment,NULL,PennController,25,_Header_,End,1687288008254,5cbca7948609200001784a87,5cbca7948609200001784a87,23,color,filler,A,50,color40.jpg,color60.jpg,GoalA,NULL
1687288116,f45c702b2810b7c0908e1c83ce3e7f35,PennController,26,0,experiment,NULL,Canvas,canvas6,Print,NA,1687288014963,5cbca7948609200001784a87,5cbca7948609200001784a87,23,color,filler,A,50,color40.jpg,color60.jpg,GoalA,NULL
1687288116,f45c702b2810b7c0908e1c83ce3e7f35,PennController,26,0,experiment,NULL,Video,progression,buffer,0.010654,1687288011797,5cbca7948609200001784a87,5cbca7948609200001784a87,23,color,filler,A,50,color40.jpg,color60.jpg,GoalA,NULL
1687288116,f45c702b2810b7c0908e1c83ce3e7f35,PennController,26,0,experiment,NULL,Selector,choice,Selection,option1,1687288017846,5cbca7948609200001784a87,5cbca7948609200001784a87,23,color,filler,A,50,color40.jpg,color60.jpg,GoalA,option2;option1
1687288116,f45c702b2810b7c0908e1c83ce3e7f35,PennController,26,0,experiment,NULL,PennController,25,_Trial_,End,1687288017848,5cbca7948609200001784a87,5cbca7948609200001784a87,23,color,filler,A,50,color40.jpg,color60.jpg,GoalA,NULL
1687288116,f45c702b2810b7c0908e1c83ce3e7f35,PennController,5,0,experiment,NULL,PennController,4,_Trial_,Start,1687288017850,5cbca7948609200001784a87,5cbca7948609200001784a87,2,door,critical,A,50,door40.jpg,door60.jpg,low,NULL
1687288116,f45c702b2810b7c0908e1c83ce3e7f35,PennController,5,0,experiment,NULL,PennController,4,_Header_,Start,1687288017850,5cbca7948609200001784a87,5cbca7948609200001784a87,2,door,critical,A,50,door40.jpg,door60.jpg,low,NULL
1687288116,f45c702b2810b7c0908e1c83ce3e7f35,PennController,5,0,experiment,NULL,PennController,4,_Header_,End,1687288017850,5cbca7948609200001784a87,5cbca7948609200001784a87,2,door,critical,A,50,door40.jpg,door60.jpg,low,NULL
1687288116,f45c702b2810b7c0908e1c83ce3e7f35,PennController,5,0,experiment,NULL,Canvas,canvas6,Print,NA,1687288024603,5cbca7948609200001784a87,5cbca7948609200001784a87,2,door,critical,A,50,door40.jpg,door60.jpg,low,NULL
1687288116,f45c702b2810b7c0908e1c83ce3e7f35,PennController,5,0,experiment,NULL,Video,progression,buffer,0.015873,1687288021403,5cbca7948609200001784a87,5cbca7948609200001784a87,2,door,critical,A,50,door40.jpg,door60.jpg,low,NULL
1687288116,f45c702b2810b7c0908e1c83ce3e7f35,PennController,5,0,experiment,NULL,Selector,choice,Selection,option1,1687288026646,5cbca7948609200001784a87,5cbca7948609200001784a87,2,door,critical,A,50,door40.jpg,door60.jpg,low,option2;option1
1687288116,f45c702b2810b7c0908e1c83ce3e7f35,PennController,5,0,experiment,NULL,PennController,4,_Trial_,End,1687288026648,5cbca7948609200001784a87,5cbca7948609200001784a87,2,door,critical,A,50,door40.jpg,door60.jpg,low,NULL
1687288116,f45c702b2810b7c0908e1c83ce3e7f35,PennController,25,0,experiment,NULL,PennController,24,_Trial_,Start,1687288026650,5cbca7948609200001784a87,5cbca7948609200001784a87,22,wall,filler,A,25,wall15.jpg,wall35.jpg,GoalB,NULL
1687288116,f45c702b2810b7c0908e1c83ce3e7f35,PennController,25,0,experiment,NULL,PennController,24,_Header_,Start,1687288026651,5cbca7948609200001784a87,5cbca7948609200001784a87,22,wall,filler,A,25,wall15.jpg,wall35.jpg,GoalB,NULL
1687288116,f45c702b2810b7c0908e1c83ce3e7f35,PennController,25,0,experiment,NULL,PennController,24,_Header_,End,1687288026651,5cbca7948609200001784a87,5cbca7948609200001784a87,22,wall,filler,A,25,wall15.jpg,wall35.jpg,GoalB,NULL
1687288116,f45c702b2810b7c0908e1c83ce3e7f35,PennController,25,0,experiment,NULL,Canvas,canvas6,Print,NA,1687288032367,5cbca7948609200001784a87,5cbca7948609200001784a87,22,wall,filler,A,25,wall15.jpg,wall35.jpg,GoalB,NULL
1687288116,f45c702b2810b7c0908e1c83ce3e7f35,PennController,25,0,experiment,NULL,Video,progression,buffer,0.006543,1687288030195,5cbca7948609200001784a87,5cbca7948609200001784a87,22,wall,filler,A,25,wall15.jpg,wall35.jpg,GoalB,NULL
1687288116,f45c702b2810b7c0908e1c83ce3e7f35,PennController,25,0,experiment,NULL,Selector,choice,Selection,option1,1687288033799,5cbca7948609200001784a87,5cbca7948609200001784a87,22,wall,filler,A,25,wall15.jpg,wall35.jpg,GoalB,option2;option1
1687288116,f45c702b2810b7c0908e1c83ce3e7f35,PennController,25,0,experiment,NULL,PennController,24,_Trial_,End,1687288033802,5cbca7948609200001784a87,5cbca7948609200001784a87,22,wall,filler,A,25,wall15.jpg,wall35.jpg,GoalB,NULL
1687288116,f45c702b2810b7c0908e1c83ce3e7f35,PennController,15,0,experiment,NULL,PennController,14,_Trial_,Start,1687288033804,5cbca7948609200001784a87,5cbca7948609200001784a87,12,erase,critical,A,75,erase66.jpg,erase84.jpg,low,NULL
1687288116,f45c702b2810b7c0908e1c83ce3e7f35,PennController,15,0,experiment,NULL,PennController,14,_Header_,Start,1687288033804,5cbca7948609200001784a87,5cbca7948609200001784a87,12,erase,critical,A,75,erase66.jpg,erase84.jpg,low,NULL
1687288116,f45c702b2810b7c0908e1c83ce3e7f35,PennController,15,0,experiment,NULL,PennController,14,_Header_,End,1687288033804,5cbca7948609200001784a87,5cbca7948609200001784a87,12,erase,critical,A,75,erase66.jpg,erase84.jpg,low,NULL
1687288116,f45c702b2810b7c0908e1c83ce3e7f35,PennController,15,0,experiment,NULL,Canvas,canvas6,Print,NA,1687288043530,5cbca7948609200001784a87,5cbca7948609200001784a87,12,erase,critical,A,75,erase66.jpg,erase84.jpg,low,NULL
1687288116,f45c702b2810b7c0908e1c83ce3e7f35,PennController,15,0,experiment,NULL,Video,progression,buffer,0.032532,1687288037388,5cbca7948609200001784a87,5cbca7948609200001784a87,12,erase,critical,A,75,erase66.jpg,erase84.jpg,low,NULL
1687288116,f45c702b2810b7c0908e1c83ce3e7f35,PennController,15,0,experiment,NULL,Selector,choice,Selection,option1,1687288046775,5cbca7948609200001784a87,5cbca7948609200001784a87,12,erase,critical,A,75,erase66.jpg,erase84.jpg,low,option1;option2
1687288116,f45c702b2810b7c0908e1c83ce3e7f35,PennController,15,0,experiment,NULL,PennController,14,_Trial_,End,1687288046777,5cbca7948609200001784a87,5cbca7948609200001784a87,12,erase,critical,A,75,erase66.jpg,erase84.jpg,low,NULL
1687288116,f45c702b2810b7c0908e1c83ce3e7f35,PennController,11,0,experiment,NULL,PennController,10,_Trial_,Start,1687288046779,5cbca7948609200001784a87,5cbca7948609200001784a87,8,cucumber,critical,A,50,cucumber42.jpg,cucumber60.jpg,low,NULL
1687288116,f45c702b2810b7c0908e1c83ce3e7f35,PennController,11,0,experiment,NULL,PennController,10,_Header_,Start,1687288046779,5cbca7948609200001784a87,5cbca7948609200001784a87,8,cucumber,critical,A,50,cucumber42.jpg,cucumber60.jpg,low,NULL
1687288116,f45c702b2810b7c0908e1c83ce3e7f35,PennController,11,0,experiment,NULL,PennController,10,_Header_,End,1687288046779,5cbca7948609200001784a87,5cbca7948609200001784a87,8,cucumber,critical,A,50,cucumber42.jpg,cucumber60.jpg,low,NULL
1687288116,f45c702b2810b7c0908e1c83ce3e7f35,PennController,11,0,experiment,NULL,Canvas,canvas6,Print,NA,1687288054894,5cbca7948609200001784a87,5cbca7948609200001784a87,8,cucumber,critical,A,50,cucumber42.jpg,cucumber60.jpg,low,NULL
1687288116,f45c702b2810b7c0908e1c83ce3e7f35,PennController,11,0,experiment,NULL,Video,progression,buffer,0.008772,1687288050331,5cbca7948609200001784a87,5cbca7948609200001784a87,8,cucumber,critical,A,50,cucumber42.jpg,cucumber60.jpg,low,NULL
1687288116,f45c702b2810b7c0908e1c83ce3e7f35,PennController,11,0,experiment,NULL,Selector,choice,Selection,option1,1687288057870,5cbca7948609200001784a87,5cbca7948609200001784a87,8,cucumber,critical,A,50,cucumber42.jpg,cucumber60.jpg,low,option2;option1
1687288116,f45c702b2810b7c0908e1c83ce3e7f35,PennController,11,0,experiment,NULL,PennController,10,_Trial_,End,1687288057872,5cbca7948609200001784a87,5cbca7948609200001784a87,8,cucumber,critical,A,50,cucumber42.jpg,cucumber60.jpg,low,NULL
1687288116,f45c702b2810b7c0908e1c83ce3e7f35,PennController,22,0,experiment,NULL,PennController,21,_Trial_,Start,1687288057874,5cbca7948609200001784a87,5cbca7948609200001784a87,19,cup,filler,A,25,cup15.jpg,cup35.jpg,GoalA,NULL
1687288116,f45c702b2810b7c0908e1c83ce3e7f35,PennController,22,0,experiment,NULL,PennController,21,_Header_,Start,1687288057874,5cbca7948609200001784a87,5cbca7948609200001784a87,19,cup,filler,A,25,cup15.jpg,cup35.jpg,GoalA,NULL
1687288116,f45c702b2810b7c0908e1c83ce3e7f35,PennController,22,0,experiment,NULL,PennController,21,_Header_,End,1687288057874,5cbca7948609200001784a87,5cbca7948609200001784a87,19,cup,filler,A,25,cup15.jpg,cup35.jpg,GoalA,NULL
1687288116,f45c702b2810b7c0908e1c83ce3e7f35,PennController,22,0,experiment,NULL,Canvas,canvas6,Print,NA,1687288063592,5cbca7948609200001784a87,5cbca7948609200001784a87,19,cup,filler,A,25,cup15.jpg,cup35.jpg,GoalA,NULL
1687288116,f45c702b2810b7c0908e1c83ce3e7f35,PennController,22,0,experiment,NULL,Video,progression,buffer,0.011058,1687288061417,5cbca7948609200001784a87,5cbca7948609200001784a87,19,cup,filler,A,25,cup15.jpg,cup35.jpg,GoalA,NULL
1687288116,f45c702b2810b7c0908e1c83ce3e7f35,PennController,22,0,experiment,NULL,Selector,choice,Selection,option2,1687288067559,5cbca7948609200001784a87,5cbca7948609200001784a87,19,cup,filler,A,25,cup15.jpg,cup35.jpg,GoalA,option1;option2
1687288116,f45c702b2810b7c0908e1c83ce3e7f35,PennController,22,0,experiment,NULL,PennController,21,_Trial_,End,1687288067560,5cbca7948609200001784a87,5cbca7948609200001784a87,19,cup,filler,A,25,cup15.jpg,cup35.jpg,GoalA,NULL
1687288116,f45c702b2810b7c0908e1c83ce3e7f35,PennController,16,0,experiment,NULL,PennController,15,_Trial_,Start,1687288067562,5cbca7948609200001784a87,5cbca7948609200001784a87,13,mix,critical,A,25,mix15.jpg,mix35.jpg,low,NULL
1687288116,f45c702b2810b7c0908e1c83ce3e7f35,PennController,16,0,experiment,NULL,PennController,15,_Header_,Start,1687288067562,5cbca7948609200001784a87,5cbca7948609200001784a87,13,mix,critical,A,25,mix15.jpg,mix35.jpg,low,NULL
1687288116,f45c702b2810b7c0908e1c83ce3e7f35,PennController,16,0,experiment,NULL,PennController,15,_Header_,End,1687288067562,5cbca7948609200001784a87,5cbca7948609200001784a87,13,mix,critical,A,25,mix15.jpg,mix35.jpg,low,NULL
1687288116,f45c702b2810b7c0908e1c83ce3e7f35,PennController,16,0,experiment,NULL,Canvas,canvas6,Print,NA,1687288073280,5cbca7948609200001784a87,5cbca7948609200001784a87,13,mix,critical,A,25,mix15.jpg,mix35.jpg,low,NULL
1687288116,f45c702b2810b7c0908e1c83ce3e7f35,PennController,16,0,experiment,NULL,Video,progression,buffer,0.008331,1687288071111,5cbca7948609200001784a87,5cbca7948609200001784a87,13,mix,critical,A,25,mix15.jpg,mix35.jpg,low,NULL
1687288116,f45c702b2810b7c0908e1c83ce3e7f35,PennController,16,0,experiment,NULL,Selector,choice,Selection,option2,1687288074190,5cbca7948609200001784a87,5cbca7948609200001784a87,13,mix,critical,A,25,mix15.jpg,mix35.jpg,low,option1;option2
1687288116,f45c702b2810b7c0908e1c83ce3e7f35,PennController,16,0,experiment,NULL,PennController,15,_Trial_,End,1687288074192,5cbca7948609200001784a87,5cbca7948609200001784a87,13,mix,critical,A,25,mix15.jpg,mix35.jpg,low,NULL
1687288116,f45c702b2810b7c0908e1c83ce3e7f35,PennController,30,0,experiment,NULL,PennController,29,_Trial_,Start,1687288074193,5cbca7948609200001784a87,5cbca7948609200001784a87,27,square,filler,A,75,square65.jpg,square85.jpg,GoalA,NULL
1687288116,f45c702b2810b7c0908e1c83ce3e7f35,PennController,30,0,experiment,NULL,PennController,29,_Header_,Start,1687288074193,5cbca7948609200001784a87,5cbca7948609200001784a87,27,square,filler,A,75,square65.jpg,square85.jpg,GoalA,NULL
1687288116,f45c702b2810b7c0908e1c83ce3e7f35,PennController,30,0,experiment,NULL,PennController,29,_Header_,End,1687288074193,5cbca7948609200001784a87,5cbca7948609200001784a87,27,square,filler,A,75,square65.jpg,square85.jpg,GoalA,NULL
1687288116,f45c702b2810b7c0908e1c83ce3e7f35,PennController,30,0,experiment,NULL,Canvas,canvas6,Print,NA,1687288081928,5cbca7948609200001784a87,5cbca7948609200001784a87,27,square,filler,A,75,square65.jpg,square85.jpg,GoalA,NULL
1687288116,f45c702b2810b7c0908e1c83ce3e7f35,PennController,30,0,experiment,NULL,Video,progression,buffer,0.011985,1687288077760,5cbca7948609200001784a87,5cbca7948609200001784a87,27,square,filler,A,75,square65.jpg,square85.jpg,GoalA,NULL
1687288116,f45c702b2810b7c0908e1c83ce3e7f35,PennController,30,0,experiment,NULL,Selector,choice,Selection,option1,1687288084830,5cbca7948609200001784a87,5cbca7948609200001784a87,27,square,filler,A,75,square65.jpg,square85.jpg,GoalA,option2;option1
1687288116,f45c702b2810b7c0908e1c83ce3e7f35,PennController,30,0,experiment,NULL,PennController,29,_Trial_,End,1687288084832,5cbca7948609200001784a87,5cbca7948609200001784a87,27,square,filler,A,75,square65.jpg,square85.jpg,GoalA,NULL
1687288116,f45c702b2810b7c0908e1c83ce3e7f35,PennController,27,0,experiment,NULL,PennController,26,_Trial_,Start,1687288084833,5cbca7948609200001784a87,5cbca7948609200001784a87,24,match,filler,A,75,match65.jpg,match85.jpg,GoalB,NULL
1687288116,f45c702b2810b7c0908e1c83ce3e7f35,PennController,27,0,experiment,NULL,PennController,26,_Header_,Start,1687288084833,5cbca7948609200001784a87,5cbca7948609200001784a87,24,match,filler,A,75,match65.jpg,match85.jpg,GoalB,NULL
1687288116,f45c702b2810b7c0908e1c83ce3e7f35,PennController,27,0,experiment,NULL,PennController,26,_Header_,End,1687288084833,5cbca7948609200001784a87,5cbca7948609200001784a87,24,match,filler,A,75,match65.jpg,match85.jpg,GoalB,NULL
1687288116,f45c702b2810b7c0908e1c83ce3e7f35,PennController,27,0,experiment,NULL,Canvas,canvas6,Print,NA,1687288092549,5cbca7948609200001784a87,5cbca7948609200001784a87,24,match,filler,A,75,match65.jpg,match85.jpg,GoalB,NULL
1687288116,f45c702b2810b7c0908e1c83ce3e7f35,PennController,27,0,experiment,NULL,Video,progression,buffer,0.008427,1687288088374,5cbca7948609200001784a87,5cbca7948609200001784a87,24,match,filler,A,75,match65.jpg,match85.jpg,GoalB,NULL
1687288116,f45c702b2810b7c0908e1c83ce3e7f35,PennController,27,0,experiment,NULL,Selector,choice,Selection,option1,1687288106160,5cbca7948609200001784a87,5cbca7948609200001784a87,24,match,filler,A,75,match65.jpg,match85.jpg,GoalB,option1;option2
1687288116,f45c702b2810b7c0908e1c83ce3e7f35,PennController,27,0,experiment,NULL,PennController,26,_Trial_,End,1687288106163,5cbca7948609200001784a87,5cbca7948609200001784a87,24,match,filler,A,75,match65.jpg,match85.jpg,GoalB,NULL
1687288116,f45c702b2810b7c0908e1c83ce3e7f35,PennController,31,0,experiment,NULL,PennController,30,_Trial_,Start,1687288106167,5cbca7948609200001784a87,5cbca7948609200001784a87,28,sort,filler,A,25,sort15.jpg,sort35.jpg,GoalB,NULL
1687288116,f45c702b2810b7c0908e1c83ce3e7f35,PennController,31,0,experiment,NULL,PennController,30,_Header_,Start,1687288106167,5cbca7948609200001784a87,5cbca7948609200001784a87,28,sort,filler,A,25,sort15.jpg,sort35.jpg,GoalB,NULL
1687288116,f45c702b2810b7c0908e1c83ce3e7f35,PennController,31,0,experiment,NULL,PennController,30,_Header_,End,1687288106167,5cbca7948609200001784a87,5cbca7948609200001784a87,28,sort,filler,A,25,sort15.jpg,sort35.jpg,GoalB,NULL
1687288116,f45c702b2810b7c0908e1c83ce3e7f35,PennController,31,0,experiment,NULL,Canvas,canvas6,Print,NA,1687288111884,5cbca7948609200001784a87,5cbca7948609200001784a87,28,sort,filler,A,25,sort15.jpg,sort35.jpg,GoalB,NULL
1687288116,f45c702b2810b7c0908e1c83ce3e7f35,PennController,31,0,experiment,NULL,Video,progression,buffer,0.005314,1687288109714,5cbca7948609200001784a87,5cbca7948609200001784a87,28,sort,filler,A,25,sort15.jpg,sort35.jpg,GoalB,NULL
1687288116,f45c702b2810b7c0908e1c83ce3e7f35,PennController,31,0,experiment,NULL,Selector,choice,Selection,option1,1687288114070,5cbca7948609200001784a87,5cbca7948609200001784a87,28,sort,filler,A,25,sort15.jpg,sort35.jpg,GoalB,option1;option2
1687288116,f45c702b2810b7c0908e1c83ce3e7f35,PennController,31,0,experiment,NULL,PennController,30,_Trial_,End,1687288114072,5cbca7948609200001784a87,5cbca7948609200001784a87,28,sort,filler,A,25,sort15.jpg,sort35.jpg,GoalB,NULL
1687288116,f45c702b2810b7c0908e1c83ce3e7f35,PennController,14,0,experiment,NULL,PennController,13,_Trial_,Start,1687288114074,5cbca7948609200001784a87,5cbca7948609200001784a87,11,beads,critical,A,50,beads40.jpg,beads60.jpg,low,NULL
1687288116,f45c702b2810b7c0908e1c83ce3e7f35,PennController,14,0,experiment,NULL,PennController,13,_Header_,Start,1687288114074,5cbca7948609200001784a87,5cbca7948609200001784a87,11,beads,critical,A,50,beads40.jpg,beads60.jpg,low,NULL
1687288116,f45c702b2810b7c0908e1c83ce3e7f35,PennController,14,0,experiment,NULL,PennController,13,_Header_,End,1687288114075,5cbca7948609200001784a87,5cbca7948609200001784a87,11,beads,critical,A,50,beads40.jpg,beads60.jpg,low,NULL
1687288116,f45c702b2810b7c0908e1c83ce3e7f35,PennController,14,0,experiment,NULL,Canvas,canvas6,Print,NA,1687288120796,5cbca7948609200001784a87,5cbca7948609200001784a87,11,beads,critical,A,50,beads40.jpg,beads60.jpg,low,NULL
1687288116,f45c702b2810b7c0908e1c83ce3e7f35,PennController,14,0,experiment,NULL,Video,progression,buffer,0.006598,1687288117623,5cbca7948609200001784a87,5cbca7948609200001784a87,11,beads,critical,A,50,beads40.jpg,beads60.jpg,low,NULL
1687288116,f45c702b2810b7c0908e1c83ce3e7f35,PennController,14,0,experiment,NULL,Selector,choice,Selection,option1,1687288124030,5cbca7948609200001784a87,5cbca7948609200001784a87,11,beads,critical,A,50,beads40.jpg,beads60.jpg,low,option1;option2
1687288116,f45c702b2810b7c0908e1c83ce3e7f35,PennController,14,0,experiment,NULL,PennController,13,_Trial_,End,1687288124033,5cbca7948609200001784a87,5cbca7948609200001784a87,11,beads,critical,A,50,beads40.jpg,beads60.jpg,low,NULL
1687288116,f45c702b2810b7c0908e1c83ce3e7f35,PennController,6,0,experiment,NULL,PennController,5,_Trial_,Start,1687288124035,5cbca7948609200001784a87,5cbca7948609200001784a87,3,clean,critical,A,75,clean65.jpg,clean85.jpg,low,NULL
1687288116,f45c702b2810b7c0908e1c83ce3e7f35,PennController,6,0,experiment,NULL,PennController,5,_Header_,Start,1687288124035,5cbca7948609200001784a87,5cbca7948609200001784a87,3,clean,critical,A,75,clean65.jpg,clean85.jpg,low,NULL
1687288116,f45c702b2810b7c0908e1c83ce3e7f35,PennController,6,0,experiment,NULL,PennController,5,_Header_,End,1687288124035,5cbca7948609200001784a87,5cbca7948609200001784a87,3,clean,critical,A,75,clean65.jpg,clean85.jpg,low,NULL
1687288116,f45c702b2810b7c0908e1c83ce3e7f35,PennController,6,0,experiment,NULL,Canvas,canvas6,Print,NA,1687288131751,5cbca7948609200001784a87,5cbca7948609200001784a87,3,clean,critical,A,75,clean65.jpg,clean85.jpg,low,NULL
1687288116,f45c702b2810b7c0908e1c83ce3e7f35,PennController,6,0,experiment,NULL,Video,progression,buffer,0.007972,1687288127574,5cbca7948609200001784a87,5cbca7948609200001784a87,3,clean,critical,A,75,clean65.jpg,clean85.jpg,low,NULL
1687288116,f45c702b2810b7c0908e1c83ce3e7f35,PennController,6,0,experiment,NULL,Selector,choice,Selection,option1,1687288134255,5cbca7948609200001784a87,5cbca7948609200001784a87,3,clean,critical,A,75,clean65.jpg,clean85.jpg,low,option2;option1
1687288116,f45c702b2810b7c0908e1c83ce3e7f35,PennController,6,0,experiment,NULL,PennController,5,_Trial_,End,1687288134258,5cbca7948609200001784a87,5cbca7948609200001784a87,3,clean,critical,A,75,clean65.jpg,clean85.jpg,low,NULL
1687288116,f45c702b2810b7c0908e1c83ce3e7f35,PennController,8,0,experiment,NULL,PennController,7,_Trial_,Start,1687288134261,5cbca7948609200001784a87,5cbca7948609200001784a87,5,book,critical,A,50,book40.jpg,book60.jpg,low,NULL
1687288116,f45c702b2810b7c0908e1c83ce3e7f35,PennController,8,0,experiment,NULL,PennController,7,_Header_,Start,1687288134261,5cbca7948609200001784a87,5cbca7948609200001784a87,5,book,critical,A,50,book40.jpg,book60.jpg,low,NULL
1687288116,f45c702b2810b7c0908e1c83ce3e7f35,PennController,8,0,experiment,NULL,PennController,7,_Header_,End,1687288134262,5cbca7948609200001784a87,5cbca7948609200001784a87,5,book,critical,A,50,book40.jpg,book60.jpg,low,NULL
1687288116,f45c702b2810b7c0908e1c83ce3e7f35,PennController,8,0,experiment,NULL,Canvas,canvas6,Print,NA,1687288140983,5cbca7948609200001784a87,5cbca7948609200001784a87,5,book,critical,A,50,book40.jpg,book60.jpg,low,NULL
1687288116,f45c702b2810b7c0908e1c83ce3e7f35,PennController,8,0,experiment,NULL,Video,progression,buffer,0.008467,1687288137812,5cbca7948609200001784a87,5cbca7948609200001784a87,5,book,critical,A,50,book40.jpg,book60.jpg,low,NULL
1687288116,f45c702b2810b7c0908e1c83ce3e7f35,PennController,8,0,experiment,NULL,Selector,choice,Selection,option2,1687288145958,5cbca7948609200001784a87,5cbca7948609200001784a87,5,book,critical,A,50,book40.jpg,book60.jpg,low,option2;option1
1687288116,f45c702b2810b7c0908e1c83ce3e7f35,PennController,8,0,experiment,NULL,PennController,7,_Trial_,End,1687288145961,5cbca7948609200001784a87,5cbca7948609200001784a87,5,book,critical,A,50,book40.jpg,book60.jpg,low,NULL
1687288116,f45c702b2810b7c0908e1c83ce3e7f35,PennController,7,0,experiment,NULL,PennController,6,_Trial_,Start,1687288145963,5cbca7948609200001784a87,5cbca7948609200001784a87,4,candy,critical,A,25,candy15.jpg,candy35.jpg,low,NULL
1687288116,f45c702b2810b7c0908e1c83ce3e7f35,PennController,7,0,experiment,NULL,PennController,6,_Header_,Start,1687288145963,5cbca7948609200001784a87,5cbca7948609200001784a87,4,candy,critical,A,25,candy15.jpg,candy35.jpg,low,NULL
1687288116,f45c702b2810b7c0908e1c83ce3e7f35,PennController,7,0,experiment,NULL,PennController,6,_Header_,End,1687288145963,5cbca7948609200001784a87,5cbca7948609200001784a87,4,candy,critical,A,25,candy15.jpg,candy35.jpg,low,NULL
1687288116,f45c702b2810b7c0908e1c83ce3e7f35,PennController,7,0,experiment,NULL,Canvas,canvas6,Print,NA,1687288151684,5cbca7948609200001784a87,5cbca7948609200001784a87,4,candy,critical,A,25,candy15.jpg,candy35.jpg,low,NULL
1687288116,f45c702b2810b7c0908e1c83ce3e7f35,PennController,7,0,experiment,NULL,Video,progression,buffer,0.004433,1687288149505,5cbca7948609200001784a87,5cbca7948609200001784a87,4,candy,critical,A,25,candy15.jpg,candy35.jpg,low,NULL
1687288116,f45c702b2810b7c0908e1c83ce3e7f35,PennController,7,0,experiment,NULL,Selector,choice,Selection,option1,1687288154037,5cbca7948609200001784a87,5cbca7948609200001784a87,4,candy,critical,A,25,candy15.jpg,candy35.jpg,low,option1;option2
1687288116,f45c702b2810b7c0908e1c83ce3e7f35,PennController,7,0,experiment,NULL,PennController,6,_Trial_,End,1687288154040,5cbca7948609200001784a87,5cbca7948609200001784a87,4,candy,critical,A,25,candy15.jpg,candy35.jpg,low,NULL
1687288116,f45c702b2810b7c0908e1c83ce3e7f35,PennController,10,0,experiment,NULL,PennController,9,_Trial_,Start,1687288154041,5cbca7948609200001784a87,5cbca7948609200001784a87,7,stack,critical,A,25,stack15.jpg,stack35.jpg,low,NULL
1687288116,f45c702b2810b7c0908e1c83ce3e7f35,PennController,10,0,experiment,NULL,PennController,9,_Header_,Start,1687288154041,5cbca7948609200001784a87,5cbca7948609200001784a87,7,stack,critical,A,25,stack15.jpg,stack35.jpg,low,NULL
1687288116,f45c702b2810b7c0908e1c83ce3e7f35,PennController,10,0,experiment,NULL,PennController,9,_Header_,End,1687288154042,5cbca7948609200001784a87,5cbca7948609200001784a87,7,stack,critical,A,25,stack15.jpg,stack35.jpg,low,NULL
1687288116,f45c702b2810b7c0908e1c83ce3e7f35,PennController,10,0,experiment,NULL,Canvas,canvas6,Print,NA,1687288159743,5cbca7948609200001784a87,5cbca7948609200001784a87,7,stack,critical,A,25,stack15.jpg,stack35.jpg,low,NULL
1687288116,f45c702b2810b7c0908e1c83ce3e7f35,PennController,10,0,experiment,NULL,Video,progression,buffer,0.017185,1687288157587,5cbca7948609200001784a87,5cbca7948609200001784a87,7,stack,critical,A,25,stack15.jpg,stack35.jpg,low,NULL
1687288116,f45c702b2810b7c0908e1c83ce3e7f35,PennController,10,0,experiment,NULL,Selector,choice,Selection,option2,1687288168373,5cbca7948609200001784a87,5cbca7948609200001784a87,7,stack,critical,A,25,stack15.jpg,stack35.jpg,low,option2;option1
1687288116,f45c702b2810b7c0908e1c83ce3e7f35,PennController,10,0,experiment,NULL,PennController,9,_Trial_,End,1687288168376,5cbca7948609200001784a87,5cbca7948609200001784a87,7,stack,critical,A,25,stack15.jpg,stack35.jpg,low,NULL
1687288116,f45c702b2810b7c0908e1c83ce3e7f35,PennController,23,0,experiment,NULL,PennController,22,_Trial_,Start,1687288168379,5cbca7948609200001784a87,5cbca7948609200001784a87,20,cat,filler,A,50,cat40.jpg,cat60.jpg,GoalB,NULL
1687288116,f45c702b2810b7c0908e1c83ce3e7f35,PennController,23,0,experiment,NULL,PennController,22,_Header_,Start,1687288168379,5cbca7948609200001784a87,5cbca7948609200001784a87,20,cat,filler,A,50,cat40.jpg,cat60.jpg,GoalB,NULL
1687288116,f45c702b2810b7c0908e1c83ce3e7f35,PennController,23,0,experiment,NULL,PennController,22,_Header_,End,1687288168379,5cbca7948609200001784a87,5cbca7948609200001784a87,20,cat,filler,A,50,cat40.jpg,cat60.jpg,GoalB,NULL
1687288116,f45c702b2810b7c0908e1c83ce3e7f35,PennController,23,0,experiment,NULL,Canvas,canvas6,Print,NA,1687288175088,5cbca7948609200001784a87,5cbca7948609200001784a87,20,cat,filler,A,50,cat40.jpg,cat60.jpg,GoalB,NULL
1687288116,f45c702b2810b7c0908e1c83ce3e7f35,PennController,23,0,experiment,NULL,Video,progression,buffer,0.012247,1687288171927,5cbca7948609200001784a87,5cbca7948609200001784a87,20,cat,filler,A,50,cat40.jpg,cat60.jpg,GoalB,NULL
1687288116,f45c702b2810b7c0908e1c83ce3e7f35,PennController,23,0,experiment,NULL,Selector,choice,Selection,option1,1687288176574,5cbca7948609200001784a87,5cbca7948609200001784a87,20,cat,filler,A,50,cat40.jpg,cat60.jpg,GoalB,option2;option1
1687288116,f45c702b2810b7c0908e1c83ce3e7f35,PennController,23,0,experiment,NULL,PennController,22,_Trial_,End,1687288176576,5cbca7948609200001784a87,5cbca7948609200001784a87,20,cat,filler,A,50,cat40.jpg,cat60.jpg,GoalB,NULL
1687288116,f45c702b2810b7c0908e1c83ce3e7f35,PennController,17,0,experiment,NULL,PennController,16,_Trial_,Start,1687288176578,5cbca7948609200001784a87,5cbca7948609200001784a87,14,cover,critical,A,50,cover42.jpg,cover60.jpg,low,NULL
1687288116,f45c702b2810b7c0908e1c83ce3e7f35,PennController,17,0,experiment,NULL,PennController,16,_Header_,Start,1687288176578,5cbca7948609200001784a87,5cbca7948609200001784a87,14,cover,critical,A,50,cover42.jpg,cover60.jpg,low,NULL
1687288116,f45c702b2810b7c0908e1c83ce3e7f35,PennController,17,0,experiment,NULL,PennController,16,_Header_,End,1687288176578,5cbca7948609200001784a87,5cbca7948609200001784a87,14,cover,critical,A,50,cover42.jpg,cover60.jpg,low,NULL
1687288116,f45c702b2810b7c0908e1c83ce3e7f35,PennController,17,0,experiment,NULL,Canvas,canvas6,Print,NA,1687288184709,5cbca7948609200001784a87,5cbca7948609200001784a87,14,cover,critical,A,50,cover42.jpg,cover60.jpg,low,NULL
1687288116,f45c702b2810b7c0908e1c83ce3e7f35,PennController,17,0,experiment,NULL,Video,progression,buffer,0.011185,1687288180138,5cbca7948609200001784a87,5cbca7948609200001784a87,14,cover,critical,A,50,cover42.jpg,cover60.jpg,low,NULL
1687288116,f45c702b2810b7c0908e1c83ce3e7f35,PennController,17,0,experiment,NULL,Selector,choice,Selection,option1,1687288186822,5cbca7948609200001784a87,5cbca7948609200001784a87,14,cover,critical,A,50,cover42.jpg,cover60.jpg,low,option2;option1
1687288116,f45c702b2810b7c0908e1c83ce3e7f35,PennController,17,0,experiment,NULL,PennController,16,_Trial_,End,1687288186824,5cbca7948609200001784a87,5cbca7948609200001784a87,14,cover,critical,A,50,cover42.jpg,cover60.jpg,low,NULL
1687288116,f45c702b2810b7c0908e1c83ce3e7f35,PennController,12,0,experiment,NULL,PennController,11,_Trial_,Start,1687288186825,5cbca7948609200001784a87,5cbca7948609200001784a87,9,cake,critical,A,75,cake66.jpg,cake84.jpg,low,NULL
1687288116,f45c702b2810b7c0908e1c83ce3e7f35,PennController,12,0,experiment,NULL,PennController,11,_Header_,Start,1687288186825,5cbca7948609200001784a87,5cbca7948609200001784a87,9,cake,critical,A,75,cake66.jpg,cake84.jpg,low,NULL
1687288116,f45c702b2810b7c0908e1c83ce3e7f35,PennController,12,0,experiment,NULL,PennController,11,_Header_,End,1687288186825,5cbca7948609200001784a87,5cbca7948609200001784a87,9,cake,critical,A,75,cake66.jpg,cake84.jpg,low,NULL
1687288116,f45c702b2810b7c0908e1c83ce3e7f35,PennController,12,0,experiment,NULL,Canvas,canvas6,Print,NA,1687288196536,5cbca7948609200001784a87,5cbca7948609200001784a87,9,cake,critical,A,75,cake66.jpg,cake84.jpg,low,NULL
1687288116,f45c702b2810b7c0908e1c83ce3e7f35,PennController,12,0,experiment,NULL,Video,progression,buffer,0.006749,1687288190370,5cbca7948609200001784a87,5cbca7948609200001784a87,9,cake,critical,A,75,cake66.jpg,cake84.jpg,low,NULL
1687288116,f45c702b2810b7c0908e1c83ce3e7f35,PennController,12,0,experiment,NULL,Selector,choice,Selection,option1,1687288198701,5cbca7948609200001784a87,5cbca7948609200001784a87,9,cake,critical,A,75,cake66.jpg,cake84.jpg,low,option1;option2
1687288116,f45c702b2810b7c0908e1c83ce3e7f35,PennController,12,0,experiment,NULL,PennController,11,_Trial_,End,1687288198704,5cbca7948609200001784a87,5cbca7948609200001784a87,9,cake,critical,A,75,cake66.jpg,cake84.jpg,low,NULL
1687288116,f45c702b2810b7c0908e1c83ce3e7f35,PennController,18,0,experiment,NULL,PennController,17,_Trial_,Start,1687288198706,5cbca7948609200001784a87,5cbca7948609200001784a87,15,zip,critical,A,75,zip65.jpg,zip85.jpg,low,NULL
1687288116,f45c702b2810b7c0908e1c83ce3e7f35,PennController,18,0,experiment,NULL,PennController,17,_Header_,Start,1687288198706,5cbca7948609200001784a87,5cbca7948609200001784a87,15,zip,critical,A,75,zip65.jpg,zip85.jpg,low,NULL
1687288116,f45c702b2810b7c0908e1c83ce3e7f35,PennController,18,0,experiment,NULL,PennController,17,_Header_,End,1687288198707,5cbca7948609200001784a87,5cbca7948609200001784a87,15,zip,critical,A,75,zip65.jpg,zip85.jpg,low,NULL
1687288116,f45c702b2810b7c0908e1c83ce3e7f35,PennController,18,0,experiment,NULL,Canvas,canvas6,Print,NA,1687288205615,5cbca7948609200001784a87,5cbca7948609200001784a87,15,zip,critical,A,75,zip65.jpg,zip85.jpg,low,NULL
1687288116,f45c702b2810b7c0908e1c83ce3e7f35,PennController,18,0,experiment,NULL,Video,progression,buffer,0.004588,1687288202246,5cbca7948609200001784a87,5cbca7948609200001784a87,15,zip,critical,A,75,zip65.jpg,zip85.jpg,low,NULL
1687288116,f45c702b2810b7c0908e1c83ce3e7f35,PennController,18,0,experiment,NULL,Selector,choice,Selection,option2,1687288208613,5cbca7948609200001784a87,5cbca7948609200001784a87,15,zip,critical,A,75,zip65.jpg,zip85.jpg,low,option1;option2
1687288116,f45c702b2810b7c0908e1c83ce3e7f35,PennController,18,0,experiment,NULL,PennController,17,_Trial_,End,1687288208621,5cbca7948609200001784a87,5cbca7948609200001784a87,15,zip,critical,A,75,zip65.jpg,zip85.jpg,low,NULL
1687288116,f45c702b2810b7c0908e1c83ce3e7f35,PennController,24,0,experiment,NULL,PennController,23,_Trial_,Start,1687288208624,5cbca7948609200001784a87,5cbca7948609200001784a87,21,visit,filler,A,75,visit65.jpg,visit85.jpg,GoalA,NULL
1687288116,f45c702b2810b7c0908e1c83ce3e7f35,PennController,24,0,experiment,NULL,PennController,23,_Header_,Start,1687288208624,5cbca7948609200001784a87,5cbca7948609200001784a87,21,visit,filler,A,75,visit65.jpg,visit85.jpg,GoalA,NULL
1687288116,f45c702b2810b7c0908e1c83ce3e7f35,PennController,24,0,experiment,NULL,PennController,23,_Header_,End,1687288208624,5cbca7948609200001784a87,5cbca7948609200001784a87,21,visit,filler,A,75,visit65.jpg,visit85.jpg,GoalA,NULL
1687288116,f45c702b2810b7c0908e1c83ce3e7f35,PennController,24,0,experiment,NULL,Canvas,canvas6,Print,NA,1687288216337,5cbca7948609200001784a87,5cbca7948609200001784a87,21,visit,filler,A,75,visit65.jpg,visit85.jpg,GoalA,NULL
1687288116,f45c702b2810b7c0908e1c83ce3e7f35,PennController,24,0,experiment,NULL,Video,progression,buffer,0.008395,1687288212162,5cbca7948609200001784a87,5cbca7948609200001784a87,21,visit,filler,A,75,visit65.jpg,visit85.jpg,GoalA,NULL
1687288116,f45c702b2810b7c0908e1c83ce3e7f35,PennController,24,0,experiment,NULL,Selector,choice,Selection,option2,1687288223229,5cbca7948609200001784a87,5cbca7948609200001784a87,21,visit,filler,A,75,visit65.jpg,visit85.jpg,GoalA,option1;option2
1687288116,f45c702b2810b7c0908e1c83ce3e7f35,PennController,24,0,experiment,NULL,PennController,23,_Trial_,End,1687288223232,5cbca7948609200001784a87,5cbca7948609200001784a87,21,visit,filler,A,75,visit65.jpg,visit85.jpg,GoalA,NULL
1687288116,f45c702b2810b7c0908e1c83ce3e7f35,PennController,20,0,experiment,NULL,PennController,19,_Trial_,Start,1687288223235,5cbca7948609200001784a87,5cbca7948609200001784a87,17,roll,critical,A,50,roll40.jpg,roll60.jpg,low,NULL
1687288116,f45c702b2810b7c0908e1c83ce3e7f35,PennController,20,0,experiment,NULL,PennController,19,_Header_,Start,1687288223235,5cbca7948609200001784a87,5cbca7948609200001784a87,17,roll,critical,A,50,roll40.jpg,roll60.jpg,low,NULL
1687288116,f45c702b2810b7c0908e1c83ce3e7f35,PennController,20,0,experiment,NULL,PennController,19,_Header_,End,1687288223235,5cbca7948609200001784a87,5cbca7948609200001784a87,17,roll,critical,A,50,roll40.jpg,roll60.jpg,low,NULL
1687288116,f45c702b2810b7c0908e1c83ce3e7f35,PennController,20,0,experiment,NULL,Canvas,canvas6,Print,NA,1687288229945,5cbca7948609200001784a87,5cbca7948609200001784a87,17,roll,critical,A,50,roll40.jpg,roll60.jpg,low,NULL
1687288116,f45c702b2810b7c0908e1c83ce3e7f35,PennController,20,0,experiment,NULL,Video,progression,buffer,0.021116,1687288226791,5cbca7948609200001784a87,5cbca7948609200001784a87,17,roll,critical,A,50,roll40.jpg,roll60.jpg,low,NULL
1687288116,f45c702b2810b7c0908e1c83ce3e7f35,PennController,20,0,experiment,NULL,Selector,choice,Selection,option1,1687288232782,5cbca7948609200001784a87,5cbca7948609200001784a87,17,roll,critical,A,50,roll40.jpg,roll60.jpg,low,option1;option2
1687288116,f45c702b2810b7c0908e1c83ce3e7f35,PennController,20,0,experiment,NULL,PennController,19,_Trial_,End,1687288232785,5cbca7948609200001784a87,5cbca7948609200001784a87,17,roll,critical,A,50,roll40.jpg,roll60.jpg,low,NULL
1687288116,f45c702b2810b7c0908e1c83ce3e7f35,PennController,4,0,experiment,NULL,PennController,3,_Trial_,Start,1687288232787,5cbca7948609200001784a87,5cbca7948609200001784a87,1,vase,critical,A,25,vase15.jpg,vase35.jpg,low,NULL
1687288116,f45c702b2810b7c0908e1c83ce3e7f35,PennController,4,0,experiment,NULL,PennController,3,_Header_,Start,1687288232787,5cbca7948609200001784a87,5cbca7948609200001784a87,1,vase,critical,A,25,vase15.jpg,vase35.jpg,low,NULL
1687288116,f45c702b2810b7c0908e1c83ce3e7f35,PennController,4,0,experiment,NULL,PennController,3,_Header_,End,1687288232787,5cbca7948609200001784a87,5cbca7948609200001784a87,1,vase,critical,A,25,vase15.jpg,vase35.jpg,low,NULL
1687288116,f45c702b2810b7c0908e1c83ce3e7f35,PennController,4,0,experiment,NULL,Canvas,canvas6,Print,NA,1687288238517,5cbca7948609200001784a87,5cbca7948609200001784a87,1,vase,critical,A,25,vase15.jpg,vase35.jpg,low,NULL
1687288116,f45c702b2810b7c0908e1c83ce3e7f35,PennController,4,0,experiment,NULL,Video,progression,buffer,0.010709,1687288236345,5cbca7948609200001784a87,5cbca7948609200001784a87,1,vase,critical,A,25,vase15.jpg,vase35.jpg,low,NULL
1687288116,f45c702b2810b7c0908e1c83ce3e7f35,PennController,4,0,experiment,NULL,Selector,choice,Selection,option2,1687288242077,5cbca7948609200001784a87,5cbca7948609200001784a87,1,vase,critical,A,25,vase15.jpg,vase35.jpg,low,option2;option1
1687288116,f45c702b2810b7c0908e1c83ce3e7f35,PennController,4,0,experiment,NULL,PennController,3,_Trial_,End,1687288242080,5cbca7948609200001784a87,5cbca7948609200001784a87,1,vase,critical,A,25,vase15.jpg,vase35.jpg,low,NULL
1687288116,f45c702b2810b7c0908e1c83ce3e7f35,PennController,32,0,experiment,NULL,PennController,31,_Trial_,Start,1687288242103,5cbca7948609200001784a87,5cbca7948609200001784a87,29,frog,filler,A,50,frog40.jpg,frog60.jpg,GoalA,NULL
1687288116,f45c702b2810b7c0908e1c83ce3e7f35,PennController,32,0,experiment,NULL,PennController,31,_Header_,Start,1687288242103,5cbca7948609200001784a87,5cbca7948609200001784a87,29,frog,filler,A,50,frog40.jpg,frog60.jpg,GoalA,NULL
1687288116,f45c702b2810b7c0908e1c83ce3e7f35,PennController,32,0,experiment,NULL,PennController,31,_Header_,End,1687288242103,5cbca7948609200001784a87,5cbca7948609200001784a87,29,frog,filler,A,50,frog40.jpg,frog60.jpg,GoalA,NULL
1687288116,f45c702b2810b7c0908e1c83ce3e7f35,PennController,32,0,experiment,NULL,Canvas,canvas6,Print,NA,1687288248808,5cbca7948609200001784a87,5cbca7948609200001784a87,29,frog,filler,A,50,frog40.jpg,frog60.jpg,GoalA,NULL
1687288116,f45c702b2810b7c0908e1c83ce3e7f35,PennController,32,0,experiment,NULL,Video,progression,buffer,0.007894,1687288245642,5cbca7948609200001784a87,5cbca7948609200001784a87,29,frog,filler,A,50,frog40.jpg,frog60.jpg,GoalA,NULL
1687288116,f45c702b2810b7c0908e1c83ce3e7f35,PennController,32,0,experiment,NULL,Selector,choice,Selection,option1,1687288251894,5cbca7948609200001784a87,5cbca7948609200001784a87,29,frog,filler,A,50,frog40.jpg,frog60.jpg,GoalA,option2;option1
1687288116,f45c702b2810b7c0908e1c83ce3e7f35,PennController,32,0,experiment,NULL,PennController,31,_Trial_,End,1687288251898,5cbca7948609200001784a87,5cbca7948609200001784a87,29,frog,filler,A,50,frog40.jpg,frog60.jpg,GoalA,NULL
1687288116,f45c702b2810b7c0908e1c83ce3e7f35,PennController,19,0,experiment,NULL,PennController,18,_Trial_,Start,1687288251902,5cbca7948609200001784a87,5cbca7948609200001784a87,16,blinds,critical,A,25,blinds15.jpg,blinds33.jpg,low,NULL
1687288116,f45c702b2810b7c0908e1c83ce3e7f35,PennController,19,0,experiment,NULL,PennController,18,_Header_,Start,1687288251902,5cbca7948609200001784a87,5cbca7948609200001784a87,16,blinds,critical,A,25,blinds15.jpg,blinds33.jpg,low,NULL
1687288116,f45c702b2810b7c0908e1c83ce3e7f35,PennController,19,0,experiment,NULL,PennController,18,_Header_,End,1687288251902,5cbca7948609200001784a87,5cbca7948609200001784a87,16,blinds,critical,A,25,blinds15.jpg,blinds33.jpg,low,NULL
1687288116,f45c702b2810b7c0908e1c83ce3e7f35,PennController,19,0,experiment,NULL,Canvas,canvas6,Print,NA,1687288258209,5cbca7948609200001784a87,5cbca7948609200001784a87,16,blinds,critical,A,25,blinds15.jpg,blinds33.jpg,low,NULL
1687288116,f45c702b2810b7c0908e1c83ce3e7f35,PennController,19,0,experiment,NULL,Video,progression,buffer,0.008021,1687288255437,5cbca7948609200001784a87,5cbca7948609200001784a87,16,blinds,critical,A,25,blinds15.jpg,blinds33.jpg,low,NULL
1687288116,f45c702b2810b7c0908e1c83ce3e7f35,PennController,19,0,experiment,NULL,Selector,choice,Selection,option1,1687288259742,5cbca7948609200001784a87,5cbca7948609200001784a87,16,blinds,critical,A,25,blinds15.jpg,blinds33.jpg,low,option1;option2
1687288116,f45c702b2810b7c0908e1c83ce3e7f35,PennController,19,0,experiment,NULL,PennController,18,_Trial_,End,1687288259745,5cbca7948609200001784a87,5cbca7948609200001784a87,16,blinds,critical,A,25,blinds15.jpg,blinds33.jpg,low,NULL
1687288116,f45c702b2810b7c0908e1c83ce3e7f35,PennController,9,0,experiment,NULL,PennController,8,_Trial_,Start,1687288259746,5cbca7948609200001784a87,5cbca7948609200001784a87,6,flower,critical,A,75,flower65.jpg,flower85.jpg,low,NULL
1687288116,f45c702b2810b7c0908e1c83ce3e7f35,PennController,9,0,experiment,NULL,PennController,8,_Header_,Start,1687288259746,5cbca7948609200001784a87,5cbca7948609200001784a87,6,flower,critical,A,75,flower65.jpg,flower85.jpg,low,NULL
1687288116,f45c702b2810b7c0908e1c83ce3e7f35,PennController,9,0,experiment,NULL,PennController,8,_Header_,End,1687288259747,5cbca7948609200001784a87,5cbca7948609200001784a87,6,flower,critical,A,75,flower65.jpg,flower85.jpg,low,NULL
1687288116,f45c702b2810b7c0908e1c83ce3e7f35,PennController,9,0,experiment,NULL,Canvas,canvas6,Print,NA,1687288267459,5cbca7948609200001784a87,5cbca7948609200001784a87,6,flower,critical,A,75,flower65.jpg,flower85.jpg,low,NULL
1687288116,f45c702b2810b7c0908e1c83ce3e7f35,PennController,9,0,experiment,NULL,Video,progression,buffer,0.006926,1687288263286,5cbca7948609200001784a87,5cbca7948609200001784a87,6,flower,critical,A,75,flower65.jpg,flower85.jpg,low,NULL
1687288116,f45c702b2810b7c0908e1c83ce3e7f35,PennController,9,0,experiment,NULL,Selector,choice,Selection,option1,1687288269494,5cbca7948609200001784a87,5cbca7948609200001784a87,6,flower,critical,A,75,flower65.jpg,flower85.jpg,low,option1;option2
1687288116,f45c702b2810b7c0908e1c83ce3e7f35,PennController,9,0,experiment,NULL,PennController,8,_Trial_,End,1687288269495,5cbca7948609200001784a87,5cbca7948609200001784a87,6,flower,critical,A,75,flower65.jpg,flower85.jpg,low,NULL
