#
# Results on Tuesday June 20 2023 18:56:17 UTC
# USER AGENT: Mozilla/5.0 (Windows NT 10.0; Win64; x64) AppleWebKit/537.36 (KHTML, like Gecko) Chrome/114.0.0.0 Safari/537.36
# Design number was non-random = 3
#
# Columns below this comment are as follows:
# 1. Results reception time.
# 2. MD5 hash of participant's IP address.
# 3. Controller name.
# 4. Order number of item.
# 5. Inner element number.
# 6. Label.
# 7. Latin Square Group.
# 8. PennElementType.
# 9. PennElementName.
# 10. Parameter.
# 11. Value.
# 12. EventTime.
# 13. PROLIFIC_ID.
# 14. Comments.
1687287377,599d77d96b9d30d7d104ee2bbea89fbe,PennController,2,0,consent,NULL,PennController,0,_Trial_,Start,1687287102790,5ed54d02957bee0c0de36cac,NULL
1687287377,599d77d96b9d30d7d104ee2bbea89fbe,PennController,2,0,consent,NULL,PennController,0,_Header_,Start,1687287102790,5ed54d02957bee0c0de36cac,NULL
1687287377,599d77d96b9d30d7d104ee2bbea89fbe,PennController,2,0,consent,NULL,PennController,0,_Header_,End,1687287102790,5ed54d02957bee0c0de36cac,NULL
1687287377,599d77d96b9d30d7d104ee2bbea89fbe,PennController,2,0,consent,NULL,PennController,0,_Trial_,End,1687287106430,5ed54d02957bee0c0de36cac,NULL
# Columns below this comment are as follows:
# 14. ID.
# 15. Comments.
1687287377,599d77d96b9d30d7d104ee2bbea89fbe,PennController,3,0,intro,NULL,PennController,1,_Trial_,Start,1687287107516,5ed54d02957bee0c0de36cac,5ed54d02957bee0c0de36cac,NULL
1687287377,599d77d96b9d30d7d104ee2bbea89fbe,PennController,3,0,intro,NULL,PennController,1,_Header_,Start,1687287107516,5ed54d02957bee0c0de36cac,5ed54d02957bee0c0de36cac,NULL
1687287377,599d77d96b9d30d7d104ee2bbea89fbe,PennController,3,0,intro,NULL,PennController,1,_Header_,End,1687287107516,5ed54d02957bee0c0de36cac,5ed54d02957bee0c0de36cac,NULL
1687287377,599d77d96b9d30d7d104ee2bbea89fbe,PennController,3,0,intro,NULL,PennController,1,_Trial_,End,1687287121651,5ed54d02957bee0c0de36cac,5ed54d02957bee0c0de36cac,NULL
# Columns below this comment are as follows:
# 15. item_number.
# 16. item.
# 17. type.
# 18. Group.
# 19. prog.
# 20. prev_image.
# 21. next_image.
# 22. height.
# 23. Comments.
1687287377,599d77d96b9d30d7d104ee2bbea89fbe,PennController,25,0,experiment,NULL,PennController,24,_Trial_,Start,1687287121652,5ed54d02957bee0c0de36cac,5ed54d02957bee0c0de36cac,22,wall,filler,D,25,wall15.jpg,wall35.jpg,GoalA,NULL
1687287377,599d77d96b9d30d7d104ee2bbea89fbe,PennController,25,0,experiment,NULL,PennController,24,_Header_,Start,1687287121652,5ed54d02957bee0c0de36cac,5ed54d02957bee0c0de36cac,22,wall,filler,D,25,wall15.jpg,wall35.jpg,GoalA,NULL
1687287377,599d77d96b9d30d7d104ee2bbea89fbe,PennController,25,0,experiment,NULL,PennController,24,_Header_,End,1687287121652,5ed54d02957bee0c0de36cac,5ed54d02957bee0c0de36cac,22,wall,filler,D,25,wall15.jpg,wall35.jpg,GoalA,NULL
1687287377,599d77d96b9d30d7d104ee2bbea89fbe,PennController,25,0,experiment,NULL,Canvas,canvas6,Print,NA,1687287127396,5ed54d02957bee0c0de36cac,5ed54d02957bee0c0de36cac,22,wall,filler,D,25,wall15.jpg,wall35.jpg,GoalA,NULL
1687287377,599d77d96b9d30d7d104ee2bbea89fbe,PennController,25,0,experiment,NULL,Video,progression,buffer,0.007414,1687287125214,5ed54d02957bee0c0de36cac,5ed54d02957bee0c0de36cac,22,wall,filler,D,25,wall15.jpg,wall35.jpg,GoalA,NULL
1687287377,599d77d96b9d30d7d104ee2bbea89fbe,PennController,25,0,experiment,NULL,Selector,choice,Selection,option1,1687287128847,5ed54d02957bee0c0de36cac,5ed54d02957bee0c0de36cac,22,wall,filler,D,25,wall15.jpg,wall35.jpg,GoalA,option2;option1
1687287377,599d77d96b9d30d7d104ee2bbea89fbe,PennController,25,0,experiment,NULL,PennController,24,_Trial_,End,1687287128848,5ed54d02957bee0c0de36cac,5ed54d02957bee0c0de36cac,22,wall,filler,D,25,wall15.jpg,wall35.jpg,GoalA,NULL
1687287377,599d77d96b9d30d7d104ee2bbea89fbe,PennController,9,0,experiment,NULL,PennController,8,_Trial_,Start,1687287128849,5ed54d02957bee0c0de36cac,5ed54d02957bee0c0de36cac,6,flower,critical,D,75,flower65.jpg,flower85.jpg,high,NULL
1687287377,599d77d96b9d30d7d104ee2bbea89fbe,PennController,9,0,experiment,NULL,PennController,8,_Header_,Start,1687287128849,5ed54d02957bee0c0de36cac,5ed54d02957bee0c0de36cac,6,flower,critical,D,75,flower65.jpg,flower85.jpg,high,NULL
1687287377,599d77d96b9d30d7d104ee2bbea89fbe,PennController,9,0,experiment,NULL,PennController,8,_Header_,End,1687287128849,5ed54d02957bee0c0de36cac,5ed54d02957bee0c0de36cac,6,flower,critical,D,75,flower65.jpg,flower85.jpg,high,NULL
1687287377,599d77d96b9d30d7d104ee2bbea89fbe,PennController,9,0,experiment,NULL,Canvas,canvas6,Print,NA,1687287136529,5ed54d02957bee0c0de36cac,5ed54d02957bee0c0de36cac,6,flower,critical,D,75,flower65.jpg,flower85.jpg,high,NULL
1687287377,599d77d96b9d30d7d104ee2bbea89fbe,PennController,9,0,experiment,NULL,Video,progression,buffer,0.001718,1687287132373,5ed54d02957bee0c0de36cac,5ed54d02957bee0c0de36cac,6,flower,critical,D,75,flower65.jpg,flower85.jpg,high,NULL
1687287377,599d77d96b9d30d7d104ee2bbea89fbe,PennController,9,0,experiment,NULL,Selector,choice,Selection,option1,1687287139328,5ed54d02957bee0c0de36cac,5ed54d02957bee0c0de36cac,6,flower,critical,D,75,flower65.jpg,flower85.jpg,high,option2;option1
1687287377,599d77d96b9d30d7d104ee2bbea89fbe,PennController,9,0,experiment,NULL,PennController,8,_Trial_,End,1687287139329,5ed54d02957bee0c0de36cac,5ed54d02957bee0c0de36cac,6,flower,critical,D,75,flower65.jpg,flower85.jpg,high,NULL
1687287377,599d77d96b9d30d7d104ee2bbea89fbe,PennController,15,0,experiment,NULL,PennController,14,_Trial_,Start,1687287139330,5ed54d02957bee0c0de36cac,5ed54d02957bee0c0de36cac,12,erase,critical,D,75,erase66.jpg,erase84.jpg,high,NULL
1687287377,599d77d96b9d30d7d104ee2bbea89fbe,PennController,15,0,experiment,NULL,PennController,14,_Header_,Start,1687287139330,5ed54d02957bee0c0de36cac,5ed54d02957bee0c0de36cac,12,erase,critical,D,75,erase66.jpg,erase84.jpg,high,NULL
1687287377,599d77d96b9d30d7d104ee2bbea89fbe,PennController,15,0,experiment,NULL,PennController,14,_Header_,End,1687287139330,5ed54d02957bee0c0de36cac,5ed54d02957bee0c0de36cac,12,erase,critical,D,75,erase66.jpg,erase84.jpg,high,NULL
1687287377,599d77d96b9d30d7d104ee2bbea89fbe,PennController,15,0,experiment,NULL,Canvas,canvas6,Print,NA,1687287149015,5ed54d02957bee0c0de36cac,5ed54d02957bee0c0de36cac,12,erase,critical,D,75,erase66.jpg,erase84.jpg,high,NULL
1687287377,599d77d96b9d30d7d104ee2bbea89fbe,PennController,15,0,experiment,NULL,Video,progression,buffer,0.00146,1687287142849,5ed54d02957bee0c0de36cac,5ed54d02957bee0c0de36cac,12,erase,critical,D,75,erase66.jpg,erase84.jpg,high,NULL
1687287377,599d77d96b9d30d7d104ee2bbea89fbe,PennController,15,0,experiment,NULL,Selector,choice,Selection,option2,1687287150478,5ed54d02957bee0c0de36cac,5ed54d02957bee0c0de36cac,12,erase,critical,D,75,erase66.jpg,erase84.jpg,high,option1;option2
1687287377,599d77d96b9d30d7d104ee2bbea89fbe,PennController,15,0,experiment,NULL,PennController,14,_Trial_,End,1687287150479,5ed54d02957bee0c0de36cac,5ed54d02957bee0c0de36cac,12,erase,critical,D,75,erase66.jpg,erase84.jpg,high,NULL
1687287377,599d77d96b9d30d7d104ee2bbea89fbe,PennController,12,0,experiment,NULL,PennController,11,_Trial_,Start,1687287150480,5ed54d02957bee0c0de36cac,5ed54d02957bee0c0de36cac,9,cake,critical,D,75,cake66.jpg,cake84.jpg,high,NULL
1687287377,599d77d96b9d30d7d104ee2bbea89fbe,PennController,12,0,experiment,NULL,PennController,11,_Header_,Start,1687287150480,5ed54d02957bee0c0de36cac,5ed54d02957bee0c0de36cac,9,cake,critical,D,75,cake66.jpg,cake84.jpg,high,NULL
1687287377,599d77d96b9d30d7d104ee2bbea89fbe,PennController,12,0,experiment,NULL,PennController,11,_Header_,End,1687287150480,5ed54d02957bee0c0de36cac,5ed54d02957bee0c0de36cac,9,cake,critical,D,75,cake66.jpg,cake84.jpg,high,NULL
1687287377,599d77d96b9d30d7d104ee2bbea89fbe,PennController,12,0,experiment,NULL,Canvas,canvas6,Print,NA,1687287160175,5ed54d02957bee0c0de36cac,5ed54d02957bee0c0de36cac,9,cake,critical,D,75,cake66.jpg,cake84.jpg,high,NULL
1687287377,599d77d96b9d30d7d104ee2bbea89fbe,PennController,12,0,experiment,NULL,Video,progression,buffer,0.001625,1687287154006,5ed54d02957bee0c0de36cac,5ed54d02957bee0c0de36cac,9,cake,critical,D,75,cake66.jpg,cake84.jpg,high,NULL
1687287377,599d77d96b9d30d7d104ee2bbea89fbe,PennController,12,0,experiment,NULL,Selector,choice,Selection,option1,1687287164242,5ed54d02957bee0c0de36cac,5ed54d02957bee0c0de36cac,9,cake,critical,D,75,cake66.jpg,cake84.jpg,high,option1;option2
1687287377,599d77d96b9d30d7d104ee2bbea89fbe,PennController,12,0,experiment,NULL,PennController,11,_Trial_,End,1687287164243,5ed54d02957bee0c0de36cac,5ed54d02957bee0c0de36cac,9,cake,critical,D,75,cake66.jpg,cake84.jpg,high,NULL
1687287377,599d77d96b9d30d7d104ee2bbea89fbe,PennController,11,0,experiment,NULL,PennController,10,_Trial_,Start,1687287164244,5ed54d02957bee0c0de36cac,5ed54d02957bee0c0de36cac,8,cucumber,critical,D,50,cucumber42.jpg,cucumber60.jpg,high,NULL
1687287377,599d77d96b9d30d7d104ee2bbea89fbe,PennController,11,0,experiment,NULL,PennController,10,_Header_,Start,1687287164244,5ed54d02957bee0c0de36cac,5ed54d02957bee0c0de36cac,8,cucumber,critical,D,50,cucumber42.jpg,cucumber60.jpg,high,NULL
1687287377,599d77d96b9d30d7d104ee2bbea89fbe,PennController,11,0,experiment,NULL,PennController,10,_Header_,End,1687287164244,5ed54d02957bee0c0de36cac,5ed54d02957bee0c0de36cac,8,cucumber,critical,D,50,cucumber42.jpg,cucumber60.jpg,high,NULL
1687287377,599d77d96b9d30d7d104ee2bbea89fbe,PennController,11,0,experiment,NULL,Canvas,canvas6,Print,NA,1687287172357,5ed54d02957bee0c0de36cac,5ed54d02957bee0c0de36cac,8,cucumber,critical,D,50,cucumber42.jpg,cucumber60.jpg,high,NULL
1687287377,599d77d96b9d30d7d104ee2bbea89fbe,PennController,11,0,experiment,NULL,Video,progression,buffer,0.002259,1687287167778,5ed54d02957bee0c0de36cac,5ed54d02957bee0c0de36cac,8,cucumber,critical,D,50,cucumber42.jpg,cucumber60.jpg,high,NULL
1687287377,599d77d96b9d30d7d104ee2bbea89fbe,PennController,11,0,experiment,NULL,Selector,choice,Selection,option1,1687287176257,5ed54d02957bee0c0de36cac,5ed54d02957bee0c0de36cac,8,cucumber,critical,D,50,cucumber42.jpg,cucumber60.jpg,high,option2;option1
1687287377,599d77d96b9d30d7d104ee2bbea89fbe,PennController,11,0,experiment,NULL,PennController,10,_Trial_,End,1687287176258,5ed54d02957bee0c0de36cac,5ed54d02957bee0c0de36cac,8,cucumber,critical,D,50,cucumber42.jpg,cucumber60.jpg,high,NULL
1687287377,599d77d96b9d30d7d104ee2bbea89fbe,PennController,29,0,experiment,NULL,PennController,28,_Trial_,Start,1687287176259,5ed54d02957bee0c0de36cac,5ed54d02957bee0c0de36cac,26,sandwich,filler,D,50,sandwich40.jpg,sandwich60.jpg,GoalA,NULL
1687287377,599d77d96b9d30d7d104ee2bbea89fbe,PennController,29,0,experiment,NULL,PennController,28,_Header_,Start,1687287176259,5ed54d02957bee0c0de36cac,5ed54d02957bee0c0de36cac,26,sandwich,filler,D,50,sandwich40.jpg,sandwich60.jpg,GoalA,NULL
1687287377,599d77d96b9d30d7d104ee2bbea89fbe,PennController,29,0,experiment,NULL,PennController,28,_Header_,End,1687287176259,5ed54d02957bee0c0de36cac,5ed54d02957bee0c0de36cac,26,sandwich,filler,D,50,sandwich40.jpg,sandwich60.jpg,GoalA,NULL
1687287377,599d77d96b9d30d7d104ee2bbea89fbe,PennController,29,0,experiment,NULL,Canvas,canvas6,Print,NA,1687287182958,5ed54d02957bee0c0de36cac,5ed54d02957bee0c0de36cac,26,sandwich,filler,D,50,sandwich40.jpg,sandwich60.jpg,GoalA,NULL
1687287377,599d77d96b9d30d7d104ee2bbea89fbe,PennController,29,0,experiment,NULL,Video,progression,buffer,0.001583,1687287179786,5ed54d02957bee0c0de36cac,5ed54d02957bee0c0de36cac,26,sandwich,filler,D,50,sandwich40.jpg,sandwich60.jpg,GoalA,NULL
1687287377,599d77d96b9d30d7d104ee2bbea89fbe,PennController,29,0,experiment,NULL,Selector,choice,Selection,option1,1687287184081,5ed54d02957bee0c0de36cac,5ed54d02957bee0c0de36cac,26,sandwich,filler,D,50,sandwich40.jpg,sandwich60.jpg,GoalA,option2;option1
1687287377,599d77d96b9d30d7d104ee2bbea89fbe,PennController,29,0,experiment,NULL,PennController,28,_Trial_,End,1687287184082,5ed54d02957bee0c0de36cac,5ed54d02957bee0c0de36cac,26,sandwich,filler,D,50,sandwich40.jpg,sandwich60.jpg,GoalA,NULL
1687287377,599d77d96b9d30d7d104ee2bbea89fbe,PennController,5,0,experiment,NULL,PennController,4,_Trial_,Start,1687287184082,5ed54d02957bee0c0de36cac,5ed54d02957bee0c0de36cac,2,door,critical,D,50,door40.jpg,door60.jpg,high,NULL
1687287377,599d77d96b9d30d7d104ee2bbea89fbe,PennController,5,0,experiment,NULL,PennController,4,_Header_,Start,1687287184082,5ed54d02957bee0c0de36cac,5ed54d02957bee0c0de36cac,2,door,critical,D,50,door40.jpg,door60.jpg,high,NULL
1687287377,599d77d96b9d30d7d104ee2bbea89fbe,PennController,5,0,experiment,NULL,PennController,4,_Header_,End,1687287184082,5ed54d02957bee0c0de36cac,5ed54d02957bee0c0de36cac,2,door,critical,D,50,door40.jpg,door60.jpg,high,NULL
1687287377,599d77d96b9d30d7d104ee2bbea89fbe,PennController,5,0,experiment,NULL,Canvas,canvas6,Print,NA,1687287190776,5ed54d02957bee0c0de36cac,5ed54d02957bee0c0de36cac,2,door,critical,D,50,door40.jpg,door60.jpg,high,NULL
1687287377,599d77d96b9d30d7d104ee2bbea89fbe,PennController,5,0,experiment,NULL,Video,progression,buffer,0.002431,1687287187608,5ed54d02957bee0c0de36cac,5ed54d02957bee0c0de36cac,2,door,critical,D,50,door40.jpg,door60.jpg,high,NULL
1687287377,599d77d96b9d30d7d104ee2bbea89fbe,PennController,5,0,experiment,NULL,Selector,choice,Selection,option2,1687287192685,5ed54d02957bee0c0de36cac,5ed54d02957bee0c0de36cac,2,door,critical,D,50,door40.jpg,door60.jpg,high,option1;option2
1687287377,599d77d96b9d30d7d104ee2bbea89fbe,PennController,5,0,experiment,NULL,PennController,4,_Trial_,End,1687287192686,5ed54d02957bee0c0de36cac,5ed54d02957bee0c0de36cac,2,door,critical,D,50,door40.jpg,door60.jpg,high,NULL
1687287377,599d77d96b9d30d7d104ee2bbea89fbe,PennController,23,0,experiment,NULL,PennController,22,_Trial_,Start,1687287192687,5ed54d02957bee0c0de36cac,5ed54d02957bee0c0de36cac,20,cat,filler,D,50,cat40.jpg,cat60.jpg,GoalA,NULL
1687287377,599d77d96b9d30d7d104ee2bbea89fbe,PennController,23,0,experiment,NULL,PennController,22,_Header_,Start,1687287192687,5ed54d02957bee0c0de36cac,5ed54d02957bee0c0de36cac,20,cat,filler,D,50,cat40.jpg,cat60.jpg,GoalA,NULL
1687287377,599d77d96b9d30d7d104ee2bbea89fbe,PennController,23,0,experiment,NULL,PennController,22,_Header_,End,1687287192687,5ed54d02957bee0c0de36cac,5ed54d02957bee0c0de36cac,20,cat,filler,D,50,cat40.jpg,cat60.jpg,GoalA,NULL
1687287377,599d77d96b9d30d7d104ee2bbea89fbe,PennController,23,0,experiment,NULL,Canvas,canvas6,Print,NA,1687287199392,5ed54d02957bee0c0de36cac,5ed54d02957bee0c0de36cac,20,cat,filler,D,50,cat40.jpg,cat60.jpg,GoalA,NULL
1687287377,599d77d96b9d30d7d104ee2bbea89fbe,PennController,23,0,experiment,NULL,Video,progression,buffer,0.005695,1687287196223,5ed54d02957bee0c0de36cac,5ed54d02957bee0c0de36cac,20,cat,filler,D,50,cat40.jpg,cat60.jpg,GoalA,NULL
1687287377,599d77d96b9d30d7d104ee2bbea89fbe,PennController,23,0,experiment,NULL,Selector,choice,Selection,option2,1687287203595,5ed54d02957bee0c0de36cac,5ed54d02957bee0c0de36cac,20,cat,filler,D,50,cat40.jpg,cat60.jpg,GoalA,option1;option2
1687287377,599d77d96b9d30d7d104ee2bbea89fbe,PennController,23,0,experiment,NULL,PennController,22,_Trial_,End,1687287203596,5ed54d02957bee0c0de36cac,5ed54d02957bee0c0de36cac,20,cat,filler,D,50,cat40.jpg,cat60.jpg,GoalA,NULL
1687287377,599d77d96b9d30d7d104ee2bbea89fbe,PennController,10,0,experiment,NULL,PennController,9,_Trial_,Start,1687287203596,5ed54d02957bee0c0de36cac,5ed54d02957bee0c0de36cac,7,stack,critical,D,25,stack15.jpg,stack35.jpg,high,NULL
1687287377,599d77d96b9d30d7d104ee2bbea89fbe,PennController,10,0,experiment,NULL,PennController,9,_Header_,Start,1687287203596,5ed54d02957bee0c0de36cac,5ed54d02957bee0c0de36cac,7,stack,critical,D,25,stack15.jpg,stack35.jpg,high,NULL
1687287377,599d77d96b9d30d7d104ee2bbea89fbe,PennController,10,0,experiment,NULL,PennController,9,_Header_,End,1687287203596,5ed54d02957bee0c0de36cac,5ed54d02957bee0c0de36cac,7,stack,critical,D,25,stack15.jpg,stack35.jpg,high,NULL
1687287377,599d77d96b9d30d7d104ee2bbea89fbe,PennController,10,0,experiment,NULL,Canvas,canvas6,Print,NA,1687287209305,5ed54d02957bee0c0de36cac,5ed54d02957bee0c0de36cac,7,stack,critical,D,25,stack15.jpg,stack35.jpg,high,NULL
1687287377,599d77d96b9d30d7d104ee2bbea89fbe,PennController,10,0,experiment,NULL,Video,progression,buffer,0.011384,1687287207137,5ed54d02957bee0c0de36cac,5ed54d02957bee0c0de36cac,7,stack,critical,D,25,stack15.jpg,stack35.jpg,high,NULL
1687287377,599d77d96b9d30d7d104ee2bbea89fbe,PennController,10,0,experiment,NULL,Selector,choice,Selection,option2,1687287213044,5ed54d02957bee0c0de36cac,5ed54d02957bee0c0de36cac,7,stack,critical,D,25,stack15.jpg,stack35.jpg,high,option2;option1
1687287377,599d77d96b9d30d7d104ee2bbea89fbe,PennController,10,0,experiment,NULL,PennController,9,_Trial_,End,1687287213045,5ed54d02957bee0c0de36cac,5ed54d02957bee0c0de36cac,7,stack,critical,D,25,stack15.jpg,stack35.jpg,high,NULL
1687287377,599d77d96b9d30d7d104ee2bbea89fbe,PennController,19,0,experiment,NULL,PennController,18,_Trial_,Start,1687287213046,5ed54d02957bee0c0de36cac,5ed54d02957bee0c0de36cac,16,blinds,critical,D,25,blinds15.jpg,blinds33.jpg,high,NULL
1687287377,599d77d96b9d30d7d104ee2bbea89fbe,PennController,19,0,experiment,NULL,PennController,18,_Header_,Start,1687287213046,5ed54d02957bee0c0de36cac,5ed54d02957bee0c0de36cac,16,blinds,critical,D,25,blinds15.jpg,blinds33.jpg,high,NULL
1687287377,599d77d96b9d30d7d104ee2bbea89fbe,PennController,19,0,experiment,NULL,PennController,18,_Header_,End,1687287213046,5ed54d02957bee0c0de36cac,5ed54d02957bee0c0de36cac,16,blinds,critical,D,25,blinds15.jpg,blinds33.jpg,high,NULL
1687287377,599d77d96b9d30d7d104ee2bbea89fbe,PennController,19,0,experiment,NULL,Canvas,canvas6,Print,NA,1687287219355,5ed54d02957bee0c0de36cac,5ed54d02957bee0c0de36cac,16,blinds,critical,D,25,blinds15.jpg,blinds33.jpg,high,NULL
1687287377,599d77d96b9d30d7d104ee2bbea89fbe,PennController,19,0,experiment,NULL,Video,progression,buffer,0.002364,1687287216577,5ed54d02957bee0c0de36cac,5ed54d02957bee0c0de36cac,16,blinds,critical,D,25,blinds15.jpg,blinds33.jpg,high,NULL
1687287377,599d77d96b9d30d7d104ee2bbea89fbe,PennController,19,0,experiment,NULL,Selector,choice,Selection,option1,1687287220786,5ed54d02957bee0c0de36cac,5ed54d02957bee0c0de36cac,16,blinds,critical,D,25,blinds15.jpg,blinds33.jpg,high,option2;option1
1687287377,599d77d96b9d30d7d104ee2bbea89fbe,PennController,19,0,experiment,NULL,PennController,18,_Trial_,End,1687287220787,5ed54d02957bee0c0de36cac,5ed54d02957bee0c0de36cac,16,blinds,critical,D,25,blinds15.jpg,blinds33.jpg,high,NULL
1687287377,599d77d96b9d30d7d104ee2bbea89fbe,PennController,24,0,experiment,NULL,PennController,23,_Trial_,Start,1687287220788,5ed54d02957bee0c0de36cac,5ed54d02957bee0c0de36cac,21,visit,filler,D,75,visit65.jpg,visit85.jpg,GoalB,NULL
1687287377,599d77d96b9d30d7d104ee2bbea89fbe,PennController,24,0,experiment,NULL,PennController,23,_Header_,Start,1687287220788,5ed54d02957bee0c0de36cac,5ed54d02957bee0c0de36cac,21,visit,filler,D,75,visit65.jpg,visit85.jpg,GoalB,NULL
1687287377,599d77d96b9d30d7d104ee2bbea89fbe,PennController,24,0,experiment,NULL,PennController,23,_Header_,End,1687287220788,5ed54d02957bee0c0de36cac,5ed54d02957bee0c0de36cac,21,visit,filler,D,75,visit65.jpg,visit85.jpg,GoalB,NULL
1687287377,599d77d96b9d30d7d104ee2bbea89fbe,PennController,24,0,experiment,NULL,Canvas,canvas6,Print,NA,1687287228484,5ed54d02957bee0c0de36cac,5ed54d02957bee0c0de36cac,21,visit,filler,D,75,visit65.jpg,visit85.jpg,GoalB,NULL
1687287377,599d77d96b9d30d7d104ee2bbea89fbe,PennController,24,0,experiment,NULL,Video,progression,buffer,0.002821,1687287224310,5ed54d02957bee0c0de36cac,5ed54d02957bee0c0de36cac,21,visit,filler,D,75,visit65.jpg,visit85.jpg,GoalB,NULL
1687287377,599d77d96b9d30d7d104ee2bbea89fbe,PennController,24,0,experiment,NULL,Selector,choice,Selection,option2,1687287230062,5ed54d02957bee0c0de36cac,5ed54d02957bee0c0de36cac,21,visit,filler,D,75,visit65.jpg,visit85.jpg,GoalB,option1;option2
1687287377,599d77d96b9d30d7d104ee2bbea89fbe,PennController,24,0,experiment,NULL,PennController,23,_Trial_,End,1687287230063,5ed54d02957bee0c0de36cac,5ed54d02957bee0c0de36cac,21,visit,filler,D,75,visit65.jpg,visit85.jpg,GoalB,NULL
1687287377,599d77d96b9d30d7d104ee2bbea89fbe,PennController,6,0,experiment,NULL,PennController,5,_Trial_,Start,1687287230064,5ed54d02957bee0c0de36cac,5ed54d02957bee0c0de36cac,3,clean,critical,D,75,clean65.jpg,clean85.jpg,high,NULL
1687287377,599d77d96b9d30d7d104ee2bbea89fbe,PennController,6,0,experiment,NULL,PennController,5,_Header_,Start,1687287230064,5ed54d02957bee0c0de36cac,5ed54d02957bee0c0de36cac,3,clean,critical,D,75,clean65.jpg,clean85.jpg,high,NULL
1687287377,599d77d96b9d30d7d104ee2bbea89fbe,PennController,6,0,experiment,NULL,PennController,5,_Header_,End,1687287230064,5ed54d02957bee0c0de36cac,5ed54d02957bee0c0de36cac,3,clean,critical,D,75,clean65.jpg,clean85.jpg,high,NULL
1687287377,599d77d96b9d30d7d104ee2bbea89fbe,PennController,6,0,experiment,NULL,Canvas,canvas6,Print,NA,1687287237772,5ed54d02957bee0c0de36cac,5ed54d02957bee0c0de36cac,3,clean,critical,D,75,clean65.jpg,clean85.jpg,high,NULL
1687287377,599d77d96b9d30d7d104ee2bbea89fbe,PennController,6,0,experiment,NULL,Video,progression,buffer,0.002193,1687287233593,5ed54d02957bee0c0de36cac,5ed54d02957bee0c0de36cac,3,clean,critical,D,75,clean65.jpg,clean85.jpg,high,NULL
1687287377,599d77d96b9d30d7d104ee2bbea89fbe,PennController,6,0,experiment,NULL,Selector,choice,Selection,option2,1687287239171,5ed54d02957bee0c0de36cac,5ed54d02957bee0c0de36cac,3,clean,critical,D,75,clean65.jpg,clean85.jpg,high,option1;option2
1687287377,599d77d96b9d30d7d104ee2bbea89fbe,PennController,6,0,experiment,NULL,PennController,5,_Trial_,End,1687287239172,5ed54d02957bee0c0de36cac,5ed54d02957bee0c0de36cac,3,clean,critical,D,75,clean65.jpg,clean85.jpg,high,NULL
1687287377,599d77d96b9d30d7d104ee2bbea89fbe,PennController,8,0,experiment,NULL,PennController,7,_Trial_,Start,1687287239173,5ed54d02957bee0c0de36cac,5ed54d02957bee0c0de36cac,5,book,critical,D,50,book40.jpg,book60.jpg,high,NULL
1687287377,599d77d96b9d30d7d104ee2bbea89fbe,PennController,8,0,experiment,NULL,PennController,7,_Header_,Start,1687287239173,5ed54d02957bee0c0de36cac,5ed54d02957bee0c0de36cac,5,book,critical,D,50,book40.jpg,book60.jpg,high,NULL
1687287377,599d77d96b9d30d7d104ee2bbea89fbe,PennController,8,0,experiment,NULL,PennController,7,_Header_,End,1687287239173,5ed54d02957bee0c0de36cac,5ed54d02957bee0c0de36cac,5,book,critical,D,50,book40.jpg,book60.jpg,high,NULL
1687287377,599d77d96b9d30d7d104ee2bbea89fbe,PennController,8,0,experiment,NULL,Canvas,canvas6,Print,NA,1687287245870,5ed54d02957bee0c0de36cac,5ed54d02957bee0c0de36cac,5,book,critical,D,50,book40.jpg,book60.jpg,high,NULL
1687287377,599d77d96b9d30d7d104ee2bbea89fbe,PennController,8,0,experiment,NULL,Video,progression,buffer,0.001676,1687287242704,5ed54d02957bee0c0de36cac,5ed54d02957bee0c0de36cac,5,book,critical,D,50,book40.jpg,book60.jpg,high,NULL
1687287377,599d77d96b9d30d7d104ee2bbea89fbe,PennController,8,0,experiment,NULL,Selector,choice,Selection,option2,1687287248251,5ed54d02957bee0c0de36cac,5ed54d02957bee0c0de36cac,5,book,critical,D,50,book40.jpg,book60.jpg,high,option2;option1
1687287377,599d77d96b9d30d7d104ee2bbea89fbe,PennController,8,0,experiment,NULL,PennController,7,_Trial_,End,1687287248252,5ed54d02957bee0c0de36cac,5ed54d02957bee0c0de36cac,5,book,critical,D,50,book40.jpg,book60.jpg,high,NULL
1687287377,599d77d96b9d30d7d104ee2bbea89fbe,PennController,20,0,experiment,NULL,PennController,19,_Trial_,Start,1687287248252,5ed54d02957bee0c0de36cac,5ed54d02957bee0c0de36cac,17,roll,critical,D,50,roll40.jpg,roll60.jpg,high,NULL
1687287377,599d77d96b9d30d7d104ee2bbea89fbe,PennController,20,0,experiment,NULL,PennController,19,_Header_,Start,1687287248252,5ed54d02957bee0c0de36cac,5ed54d02957bee0c0de36cac,17,roll,critical,D,50,roll40.jpg,roll60.jpg,high,NULL
1687287377,599d77d96b9d30d7d104ee2bbea89fbe,PennController,20,0,experiment,NULL,PennController,19,_Header_,End,1687287248252,5ed54d02957bee0c0de36cac,5ed54d02957bee0c0de36cac,17,roll,critical,D,50,roll40.jpg,roll60.jpg,high,NULL
1687287377,599d77d96b9d30d7d104ee2bbea89fbe,PennController,20,0,experiment,NULL,Canvas,canvas6,Print,NA,1687287254932,5ed54d02957bee0c0de36cac,5ed54d02957bee0c0de36cac,17,roll,critical,D,50,roll40.jpg,roll60.jpg,high,NULL
1687287377,599d77d96b9d30d7d104ee2bbea89fbe,PennController,20,0,experiment,NULL,Video,progression,buffer,0.001661,1687287251773,5ed54d02957bee0c0de36cac,5ed54d02957bee0c0de36cac,17,roll,critical,D,50,roll40.jpg,roll60.jpg,high,NULL
1687287377,599d77d96b9d30d7d104ee2bbea89fbe,PennController,20,0,experiment,NULL,Selector,choice,Selection,option2,1687287256418,5ed54d02957bee0c0de36cac,5ed54d02957bee0c0de36cac,17,roll,critical,D,50,roll40.jpg,roll60.jpg,high,option2;option1
1687287377,599d77d96b9d30d7d104ee2bbea89fbe,PennController,20,0,experiment,NULL,PennController,19,_Trial_,End,1687287256419,5ed54d02957bee0c0de36cac,5ed54d02957bee0c0de36cac,17,roll,critical,D,50,roll40.jpg,roll60.jpg,high,NULL
1687287377,599d77d96b9d30d7d104ee2bbea89fbe,PennController,31,0,experiment,NULL,PennController,30,_Trial_,Start,1687287256420,5ed54d02957bee0c0de36cac,5ed54d02957bee0c0de36cac,28,sort,filler,D,25,sort15.jpg,sort35.jpg,GoalA,NULL
1687287377,599d77d96b9d30d7d104ee2bbea89fbe,PennController,31,0,experiment,NULL,PennController,30,_Header_,Start,1687287256420,5ed54d02957bee0c0de36cac,5ed54d02957bee0c0de36cac,28,sort,filler,D,25,sort15.jpg,sort35.jpg,GoalA,NULL
1687287377,599d77d96b9d30d7d104ee2bbea89fbe,PennController,31,0,experiment,NULL,PennController,30,_Header_,End,1687287256420,5ed54d02957bee0c0de36cac,5ed54d02957bee0c0de36cac,28,sort,filler,D,25,sort15.jpg,sort35.jpg,GoalA,NULL
1687287377,599d77d96b9d30d7d104ee2bbea89fbe,PennController,31,0,experiment,NULL,Canvas,canvas6,Print,NA,1687287262104,5ed54d02957bee0c0de36cac,5ed54d02957bee0c0de36cac,28,sort,filler,D,25,sort15.jpg,sort35.jpg,GoalA,NULL
1687287377,599d77d96b9d30d7d104ee2bbea89fbe,PennController,31,0,experiment,NULL,Video,progression,buffer,0.001632,1687287259937,5ed54d02957bee0c0de36cac,5ed54d02957bee0c0de36cac,28,sort,filler,D,25,sort15.jpg,sort35.jpg,GoalA,NULL
1687287377,599d77d96b9d30d7d104ee2bbea89fbe,PennController,31,0,experiment,NULL,Selector,choice,Selection,option1,1687287263456,5ed54d02957bee0c0de36cac,5ed54d02957bee0c0de36cac,28,sort,filler,D,25,sort15.jpg,sort35.jpg,GoalA,option2;option1
1687287377,599d77d96b9d30d7d104ee2bbea89fbe,PennController,31,0,experiment,NULL,PennController,30,_Trial_,End,1687287263457,5ed54d02957bee0c0de36cac,5ed54d02957bee0c0de36cac,28,sort,filler,D,25,sort15.jpg,sort35.jpg,GoalA,NULL
1687287377,599d77d96b9d30d7d104ee2bbea89fbe,PennController,30,0,experiment,NULL,PennController,29,_Trial_,Start,1687287263458,5ed54d02957bee0c0de36cac,5ed54d02957bee0c0de36cac,27,square,filler,D,75,square65.jpg,square85.jpg,GoalB,NULL
1687287377,599d77d96b9d30d7d104ee2bbea89fbe,PennController,30,0,experiment,NULL,PennController,29,_Header_,Start,1687287263458,5ed54d02957bee0c0de36cac,5ed54d02957bee0c0de36cac,27,square,filler,D,75,square65.jpg,square85.jpg,GoalB,NULL
1687287377,599d77d96b9d30d7d104ee2bbea89fbe,PennController,30,0,experiment,NULL,PennController,29,_Header_,End,1687287263458,5ed54d02957bee0c0de36cac,5ed54d02957bee0c0de36cac,27,square,filler,D,75,square65.jpg,square85.jpg,GoalB,NULL
1687287377,599d77d96b9d30d7d104ee2bbea89fbe,PennController,30,0,experiment,NULL,Canvas,canvas6,Print,NA,1687287271143,5ed54d02957bee0c0de36cac,5ed54d02957bee0c0de36cac,27,square,filler,D,75,square65.jpg,square85.jpg,GoalB,NULL
1687287377,599d77d96b9d30d7d104ee2bbea89fbe,PennController,30,0,experiment,NULL,Video,progression,buffer,0.002053,1687287266971,5ed54d02957bee0c0de36cac,5ed54d02957bee0c0de36cac,27,square,filler,D,75,square65.jpg,square85.jpg,GoalB,NULL
1687287377,599d77d96b9d30d7d104ee2bbea89fbe,PennController,30,0,experiment,NULL,Selector,choice,Selection,option1,1687287272716,5ed54d02957bee0c0de36cac,5ed54d02957bee0c0de36cac,27,square,filler,D,75,square65.jpg,square85.jpg,GoalB,option2;option1
1687287377,599d77d96b9d30d7d104ee2bbea89fbe,PennController,30,0,experiment,NULL,PennController,29,_Trial_,End,1687287272717,5ed54d02957bee0c0de36cac,5ed54d02957bee0c0de36cac,27,square,filler,D,75,square65.jpg,square85.jpg,GoalB,NULL
1687287377,599d77d96b9d30d7d104ee2bbea89fbe,PennController,7,0,experiment,NULL,PennController,6,_Trial_,Start,1687287272718,5ed54d02957bee0c0de36cac,5ed54d02957bee0c0de36cac,4,candy,critical,D,25,candy15.jpg,candy35.jpg,high,NULL
1687287377,599d77d96b9d30d7d104ee2bbea89fbe,PennController,7,0,experiment,NULL,PennController,6,_Header_,Start,1687287272718,5ed54d02957bee0c0de36cac,5ed54d02957bee0c0de36cac,4,candy,critical,D,25,candy15.jpg,candy35.jpg,high,NULL
1687287377,599d77d96b9d30d7d104ee2bbea89fbe,PennController,7,0,experiment,NULL,PennController,6,_Header_,End,1687287272718,5ed54d02957bee0c0de36cac,5ed54d02957bee0c0de36cac,4,candy,critical,D,25,candy15.jpg,candy35.jpg,high,NULL
1687287377,599d77d96b9d30d7d104ee2bbea89fbe,PennController,7,0,experiment,NULL,Canvas,canvas6,Print,NA,1687287278418,5ed54d02957bee0c0de36cac,5ed54d02957bee0c0de36cac,4,candy,critical,D,25,candy15.jpg,candy35.jpg,high,NULL
1687287377,599d77d96b9d30d7d104ee2bbea89fbe,PennController,7,0,experiment,NULL,Video,progression,buffer,0.002291,1687287276244,5ed54d02957bee0c0de36cac,5ed54d02957bee0c0de36cac,4,candy,critical,D,25,candy15.jpg,candy35.jpg,high,NULL
1687287377,599d77d96b9d30d7d104ee2bbea89fbe,PennController,7,0,experiment,NULL,Selector,choice,Selection,option2,1687287279443,5ed54d02957bee0c0de36cac,5ed54d02957bee0c0de36cac,4,candy,critical,D,25,candy15.jpg,candy35.jpg,high,option1;option2
1687287377,599d77d96b9d30d7d104ee2bbea89fbe,PennController,7,0,experiment,NULL,PennController,6,_Trial_,End,1687287279444,5ed54d02957bee0c0de36cac,5ed54d02957bee0c0de36cac,4,candy,critical,D,25,candy15.jpg,candy35.jpg,high,NULL
1687287377,599d77d96b9d30d7d104ee2bbea89fbe,PennController,4,0,experiment,NULL,PennController,3,_Trial_,Start,1687287279445,5ed54d02957bee0c0de36cac,5ed54d02957bee0c0de36cac,1,vase,critical,D,25,vase15.jpg,vase35.jpg,high,NULL
1687287377,599d77d96b9d30d7d104ee2bbea89fbe,PennController,4,0,experiment,NULL,PennController,3,_Header_,Start,1687287279445,5ed54d02957bee0c0de36cac,5ed54d02957bee0c0de36cac,1,vase,critical,D,25,vase15.jpg,vase35.jpg,high,NULL
1687287377,599d77d96b9d30d7d104ee2bbea89fbe,PennController,4,0,experiment,NULL,PennController,3,_Header_,End,1687287279445,5ed54d02957bee0c0de36cac,5ed54d02957bee0c0de36cac,1,vase,critical,D,25,vase15.jpg,vase35.jpg,high,NULL
1687287377,599d77d96b9d30d7d104ee2bbea89fbe,PennController,4,0,experiment,NULL,Canvas,canvas6,Print,NA,1687287285133,5ed54d02957bee0c0de36cac,5ed54d02957bee0c0de36cac,1,vase,critical,D,25,vase15.jpg,vase35.jpg,high,NULL
1687287377,599d77d96b9d30d7d104ee2bbea89fbe,PennController,4,0,experiment,NULL,Video,progression,buffer,0.002209,1687287282962,5ed54d02957bee0c0de36cac,5ed54d02957bee0c0de36cac,1,vase,critical,D,25,vase15.jpg,vase35.jpg,high,NULL
1687287377,599d77d96b9d30d7d104ee2bbea89fbe,PennController,4,0,experiment,NULL,Selector,choice,Selection,option2,1687287286306,5ed54d02957bee0c0de36cac,5ed54d02957bee0c0de36cac,1,vase,critical,D,25,vase15.jpg,vase35.jpg,high,option1;option2
1687287377,599d77d96b9d30d7d104ee2bbea89fbe,PennController,4,0,experiment,NULL,PennController,3,_Trial_,End,1687287286307,5ed54d02957bee0c0de36cac,5ed54d02957bee0c0de36cac,1,vase,critical,D,25,vase15.jpg,vase35.jpg,high,NULL
1687287377,599d77d96b9d30d7d104ee2bbea89fbe,PennController,13,0,experiment,NULL,PennController,12,_Trial_,Start,1687287286308,5ed54d02957bee0c0de36cac,5ed54d02957bee0c0de36cac,10,train,critical,D,25,train15.jpg,train35.jpg,high,NULL
1687287377,599d77d96b9d30d7d104ee2bbea89fbe,PennController,13,0,experiment,NULL,PennController,12,_Header_,Start,1687287286308,5ed54d02957bee0c0de36cac,5ed54d02957bee0c0de36cac,10,train,critical,D,25,train15.jpg,train35.jpg,high,NULL
1687287377,599d77d96b9d30d7d104ee2bbea89fbe,PennController,13,0,experiment,NULL,PennController,12,_Header_,End,1687287286308,5ed54d02957bee0c0de36cac,5ed54d02957bee0c0de36cac,10,train,critical,D,25,train15.jpg,train35.jpg,high,NULL
1687287377,599d77d96b9d30d7d104ee2bbea89fbe,PennController,13,0,experiment,NULL,Canvas,canvas6,Print,NA,1687287291998,5ed54d02957bee0c0de36cac,5ed54d02957bee0c0de36cac,10,train,critical,D,25,train15.jpg,train35.jpg,high,NULL
1687287377,599d77d96b9d30d7d104ee2bbea89fbe,PennController,13,0,experiment,NULL,Video,progression,buffer,0.002139,1687287289831,5ed54d02957bee0c0de36cac,5ed54d02957bee0c0de36cac,10,train,critical,D,25,train15.jpg,train35.jpg,high,NULL
1687287377,599d77d96b9d30d7d104ee2bbea89fbe,PennController,13,0,experiment,NULL,Selector,choice,Selection,option1,1687287293788,5ed54d02957bee0c0de36cac,5ed54d02957bee0c0de36cac,10,train,critical,D,25,train15.jpg,train35.jpg,high,option1;option2
1687287377,599d77d96b9d30d7d104ee2bbea89fbe,PennController,13,0,experiment,NULL,PennController,12,_Trial_,End,1687287293788,5ed54d02957bee0c0de36cac,5ed54d02957bee0c0de36cac,10,train,critical,D,25,train15.jpg,train35.jpg,high,NULL
1687287377,599d77d96b9d30d7d104ee2bbea89fbe,PennController,28,0,experiment,NULL,PennController,27,_Trial_,Start,1687287293790,5ed54d02957bee0c0de36cac,5ed54d02957bee0c0de36cac,25,house,filler,D,25,house15.jpg,house35.jpg,GoalB,NULL
1687287377,599d77d96b9d30d7d104ee2bbea89fbe,PennController,28,0,experiment,NULL,PennController,27,_Header_,Start,1687287293790,5ed54d02957bee0c0de36cac,5ed54d02957bee0c0de36cac,25,house,filler,D,25,house15.jpg,house35.jpg,GoalB,NULL
1687287377,599d77d96b9d30d7d104ee2bbea89fbe,PennController,28,0,experiment,NULL,PennController,27,_Header_,End,1687287293790,5ed54d02957bee0c0de36cac,5ed54d02957bee0c0de36cac,25,house,filler,D,25,house15.jpg,house35.jpg,GoalB,NULL
1687287377,599d77d96b9d30d7d104ee2bbea89fbe,PennController,28,0,experiment,NULL,Canvas,canvas6,Print,NA,1687287299485,5ed54d02957bee0c0de36cac,5ed54d02957bee0c0de36cac,25,house,filler,D,25,house15.jpg,house35.jpg,GoalB,NULL
1687287377,599d77d96b9d30d7d104ee2bbea89fbe,PennController,28,0,experiment,NULL,Video,progression,buffer,0.006628,1687287297318,5ed54d02957bee0c0de36cac,5ed54d02957bee0c0de36cac,25,house,filler,D,25,house15.jpg,house35.jpg,GoalB,NULL
1687287377,599d77d96b9d30d7d104ee2bbea89fbe,PennController,28,0,experiment,NULL,Selector,choice,Selection,option2,1687287300612,5ed54d02957bee0c0de36cac,5ed54d02957bee0c0de36cac,25,house,filler,D,25,house15.jpg,house35.jpg,GoalB,option2;option1
1687287377,599d77d96b9d30d7d104ee2bbea89fbe,PennController,28,0,experiment,NULL,PennController,27,_Trial_,End,1687287300612,5ed54d02957bee0c0de36cac,5ed54d02957bee0c0de36cac,25,house,filler,D,25,house15.jpg,house35.jpg,GoalB,NULL
1687287377,599d77d96b9d30d7d104ee2bbea89fbe,PennController,21,0,experiment,NULL,PennController,20,_Trial_,Start,1687287300613,5ed54d02957bee0c0de36cac,5ed54d02957bee0c0de36cac,18,ball,critical,D,75,ball65.jpg,ball85.jpg,high,NULL
1687287377,599d77d96b9d30d7d104ee2bbea89fbe,PennController,21,0,experiment,NULL,PennController,20,_Header_,Start,1687287300613,5ed54d02957bee0c0de36cac,5ed54d02957bee0c0de36cac,18,ball,critical,D,75,ball65.jpg,ball85.jpg,high,NULL
1687287377,599d77d96b9d30d7d104ee2bbea89fbe,PennController,21,0,experiment,NULL,PennController,20,_Header_,End,1687287300613,5ed54d02957bee0c0de36cac,5ed54d02957bee0c0de36cac,18,ball,critical,D,75,ball65.jpg,ball85.jpg,high,NULL
1687287377,599d77d96b9d30d7d104ee2bbea89fbe,PennController,21,0,experiment,NULL,Canvas,canvas6,Print,NA,1687287308294,5ed54d02957bee0c0de36cac,5ed54d02957bee0c0de36cac,18,ball,critical,D,75,ball65.jpg,ball85.jpg,high,NULL
1687287377,599d77d96b9d30d7d104ee2bbea89fbe,PennController,21,0,experiment,NULL,Video,progression,buffer,0.002216,1687287304134,5ed54d02957bee0c0de36cac,5ed54d02957bee0c0de36cac,18,ball,critical,D,75,ball65.jpg,ball85.jpg,high,NULL
1687287377,599d77d96b9d30d7d104ee2bbea89fbe,PennController,21,0,experiment,NULL,Selector,choice,Selection,option2,1687287309091,5ed54d02957bee0c0de36cac,5ed54d02957bee0c0de36cac,18,ball,critical,D,75,ball65.jpg,ball85.jpg,high,option1;option2
1687287377,599d77d96b9d30d7d104ee2bbea89fbe,PennController,21,0,experiment,NULL,PennController,20,_Trial_,End,1687287309092,5ed54d02957bee0c0de36cac,5ed54d02957bee0c0de36cac,18,ball,critical,D,75,ball65.jpg,ball85.jpg,high,NULL
1687287377,599d77d96b9d30d7d104ee2bbea89fbe,PennController,16,0,experiment,NULL,PennController,15,_Trial_,Start,1687287309093,5ed54d02957bee0c0de36cac,5ed54d02957bee0c0de36cac,13,mix,critical,D,25,mix15.jpg,mix35.jpg,high,NULL
1687287377,599d77d96b9d30d7d104ee2bbea89fbe,PennController,16,0,experiment,NULL,PennController,15,_Header_,Start,1687287309093,5ed54d02957bee0c0de36cac,5ed54d02957bee0c0de36cac,13,mix,critical,D,25,mix15.jpg,mix35.jpg,high,NULL
1687287377,599d77d96b9d30d7d104ee2bbea89fbe,PennController,16,0,experiment,NULL,PennController,15,_Header_,End,1687287309093,5ed54d02957bee0c0de36cac,5ed54d02957bee0c0de36cac,13,mix,critical,D,25,mix15.jpg,mix35.jpg,high,NULL
1687287377,599d77d96b9d30d7d104ee2bbea89fbe,PennController,16,0,experiment,NULL,Canvas,canvas6,Print,NA,1687287314781,5ed54d02957bee0c0de36cac,5ed54d02957bee0c0de36cac,13,mix,critical,D,25,mix15.jpg,mix35.jpg,high,NULL
1687287377,599d77d96b9d30d7d104ee2bbea89fbe,PennController,16,0,experiment,NULL,Video,progression,buffer,0.001956,1687287312613,5ed54d02957bee0c0de36cac,5ed54d02957bee0c0de36cac,13,mix,critical,D,25,mix15.jpg,mix35.jpg,high,NULL
1687287377,599d77d96b9d30d7d104ee2bbea89fbe,PennController,16,0,experiment,NULL,Selector,choice,Selection,option2,1687287316369,5ed54d02957bee0c0de36cac,5ed54d02957bee0c0de36cac,13,mix,critical,D,25,mix15.jpg,mix35.jpg,high,option2;option1
1687287377,599d77d96b9d30d7d104ee2bbea89fbe,PennController,16,0,experiment,NULL,PennController,15,_Trial_,End,1687287316370,5ed54d02957bee0c0de36cac,5ed54d02957bee0c0de36cac,13,mix,critical,D,25,mix15.jpg,mix35.jpg,high,NULL
1687287377,599d77d96b9d30d7d104ee2bbea89fbe,PennController,17,0,experiment,NULL,PennController,16,_Trial_,Start,1687287316371,5ed54d02957bee0c0de36cac,5ed54d02957bee0c0de36cac,14,cover,critical,D,50,cover42.jpg,cover60.jpg,high,NULL
1687287377,599d77d96b9d30d7d104ee2bbea89fbe,PennController,17,0,experiment,NULL,PennController,16,_Header_,Start,1687287316371,5ed54d02957bee0c0de36cac,5ed54d02957bee0c0de36cac,14,cover,critical,D,50,cover42.jpg,cover60.jpg,high,NULL
1687287377,599d77d96b9d30d7d104ee2bbea89fbe,PennController,17,0,experiment,NULL,PennController,16,_Header_,End,1687287316371,5ed54d02957bee0c0de36cac,5ed54d02957bee0c0de36cac,14,cover,critical,D,50,cover42.jpg,cover60.jpg,high,NULL
1687287377,599d77d96b9d30d7d104ee2bbea89fbe,PennController,17,0,experiment,NULL,Canvas,canvas6,Print,NA,1687287324455,5ed54d02957bee0c0de36cac,5ed54d02957bee0c0de36cac,14,cover,critical,D,50,cover42.jpg,cover60.jpg,high,NULL
1687287377,599d77d96b9d30d7d104ee2bbea89fbe,PennController,17,0,experiment,NULL,Video,progression,buffer,0.003385,1687287319893,5ed54d02957bee0c0de36cac,5ed54d02957bee0c0de36cac,14,cover,critical,D,50,cover42.jpg,cover60.jpg,high,NULL
1687287377,599d77d96b9d30d7d104ee2bbea89fbe,PennController,17,0,experiment,NULL,Selector,choice,Selection,option1,1687287328452,5ed54d02957bee0c0de36cac,5ed54d02957bee0c0de36cac,14,cover,critical,D,50,cover42.jpg,cover60.jpg,high,option1;option2
1687287377,599d77d96b9d30d7d104ee2bbea89fbe,PennController,17,0,experiment,NULL,PennController,16,_Trial_,End,1687287328453,5ed54d02957bee0c0de36cac,5ed54d02957bee0c0de36cac,14,cover,critical,D,50,cover42.jpg,cover60.jpg,high,NULL
1687287377,599d77d96b9d30d7d104ee2bbea89fbe,PennController,27,0,experiment,NULL,PennController,26,_Trial_,Start,1687287328454,5ed54d02957bee0c0de36cac,5ed54d02957bee0c0de36cac,24,match,filler,D,75,match65.jpg,match85.jpg,GoalA,NULL
1687287377,599d77d96b9d30d7d104ee2bbea89fbe,PennController,27,0,experiment,NULL,PennController,26,_Header_,Start,1687287328454,5ed54d02957bee0c0de36cac,5ed54d02957bee0c0de36cac,24,match,filler,D,75,match65.jpg,match85.jpg,GoalA,NULL
1687287377,599d77d96b9d30d7d104ee2bbea89fbe,PennController,27,0,experiment,NULL,PennController,26,_Header_,End,1687287328454,5ed54d02957bee0c0de36cac,5ed54d02957bee0c0de36cac,24,match,filler,D,75,match65.jpg,match85.jpg,GoalA,NULL
1687287377,599d77d96b9d30d7d104ee2bbea89fbe,PennController,27,0,experiment,NULL,Canvas,canvas6,Print,NA,1687287336150,5ed54d02957bee0c0de36cac,5ed54d02957bee0c0de36cac,24,match,filler,D,75,match65.jpg,match85.jpg,GoalA,NULL
1687287377,599d77d96b9d30d7d104ee2bbea89fbe,PennController,27,0,experiment,NULL,Video,progression,buffer,0.002405,1687287331981,5ed54d02957bee0c0de36cac,5ed54d02957bee0c0de36cac,24,match,filler,D,75,match65.jpg,match85.jpg,GoalA,NULL
1687287377,599d77d96b9d30d7d104ee2bbea89fbe,PennController,27,0,experiment,NULL,Selector,choice,Selection,option2,1687287337593,5ed54d02957bee0c0de36cac,5ed54d02957bee0c0de36cac,24,match,filler,D,75,match65.jpg,match85.jpg,GoalA,option2;option1
1687287377,599d77d96b9d30d7d104ee2bbea89fbe,PennController,27,0,experiment,NULL,PennController,26,_Trial_,End,1687287337594,5ed54d02957bee0c0de36cac,5ed54d02957bee0c0de36cac,24,match,filler,D,75,match65.jpg,match85.jpg,GoalA,NULL
1687287377,599d77d96b9d30d7d104ee2bbea89fbe,PennController,14,0,experiment,NULL,PennController,13,_Trial_,Start,1687287337595,5ed54d02957bee0c0de36cac,5ed54d02957bee0c0de36cac,11,beads,critical,D,50,beads40.jpg,beads60.jpg,high,NULL
1687287377,599d77d96b9d30d7d104ee2bbea89fbe,PennController,14,0,experiment,NULL,PennController,13,_Header_,Start,1687287337595,5ed54d02957bee0c0de36cac,5ed54d02957bee0c0de36cac,11,beads,critical,D,50,beads40.jpg,beads60.jpg,high,NULL
1687287377,599d77d96b9d30d7d104ee2bbea89fbe,PennController,14,0,experiment,NULL,PennController,13,_Header_,End,1687287337595,5ed54d02957bee0c0de36cac,5ed54d02957bee0c0de36cac,11,beads,critical,D,50,beads40.jpg,beads60.jpg,high,NULL
1687287377,599d77d96b9d30d7d104ee2bbea89fbe,PennController,14,0,experiment,NULL,Canvas,canvas6,Print,NA,1687287344282,5ed54d02957bee0c0de36cac,5ed54d02957bee0c0de36cac,11,beads,critical,D,50,beads40.jpg,beads60.jpg,high,NULL
1687287377,599d77d96b9d30d7d104ee2bbea89fbe,PennController,14,0,experiment,NULL,Video,progression,buffer,0.001606,1687287341119,5ed54d02957bee0c0de36cac,5ed54d02957bee0c0de36cac,11,beads,critical,D,50,beads40.jpg,beads60.jpg,high,NULL
1687287377,599d77d96b9d30d7d104ee2bbea89fbe,PennController,14,0,experiment,NULL,Selector,choice,Selection,option2,1687287346050,5ed54d02957bee0c0de36cac,5ed54d02957bee0c0de36cac,11,beads,critical,D,50,beads40.jpg,beads60.jpg,high,option2;option1
1687287377,599d77d96b9d30d7d104ee2bbea89fbe,PennController,14,0,experiment,NULL,PennController,13,_Trial_,End,1687287346051,5ed54d02957bee0c0de36cac,5ed54d02957bee0c0de36cac,11,beads,critical,D,50,beads40.jpg,beads60.jpg,high,NULL
1687287377,599d77d96b9d30d7d104ee2bbea89fbe,PennController,18,0,experiment,NULL,PennController,17,_Trial_,Start,1687287346052,5ed54d02957bee0c0de36cac,5ed54d02957bee0c0de36cac,15,zip,critical,D,75,zip65.jpg,zip85.jpg,high,NULL
1687287377,599d77d96b9d30d7d104ee2bbea89fbe,PennController,18,0,experiment,NULL,PennController,17,_Header_,Start,1687287346052,5ed54d02957bee0c0de36cac,5ed54d02957bee0c0de36cac,15,zip,critical,D,75,zip65.jpg,zip85.jpg,high,NULL
1687287377,599d77d96b9d30d7d104ee2bbea89fbe,PennController,18,0,experiment,NULL,PennController,17,_Header_,End,1687287346052,5ed54d02957bee0c0de36cac,5ed54d02957bee0c0de36cac,15,zip,critical,D,75,zip65.jpg,zip85.jpg,high,NULL
1687287377,599d77d96b9d30d7d104ee2bbea89fbe,PennController,18,0,experiment,NULL,Canvas,canvas6,Print,NA,1687287352955,5ed54d02957bee0c0de36cac,5ed54d02957bee0c0de36cac,15,zip,critical,D,75,zip65.jpg,zip85.jpg,high,NULL
1687287377,599d77d96b9d30d7d104ee2bbea89fbe,PennController,18,0,experiment,NULL,Video,progression,buffer,0.006275,1687287349590,5ed54d02957bee0c0de36cac,5ed54d02957bee0c0de36cac,15,zip,critical,D,75,zip65.jpg,zip85.jpg,high,NULL
1687287377,599d77d96b9d30d7d104ee2bbea89fbe,PennController,18,0,experiment,NULL,Selector,choice,Selection,option2,1687287353928,5ed54d02957bee0c0de36cac,5ed54d02957bee0c0de36cac,15,zip,critical,D,75,zip65.jpg,zip85.jpg,high,option1;option2
1687287377,599d77d96b9d30d7d104ee2bbea89fbe,PennController,18,0,experiment,NULL,PennController,17,_Trial_,End,1687287353928,5ed54d02957bee0c0de36cac,5ed54d02957bee0c0de36cac,15,zip,critical,D,75,zip65.jpg,zip85.jpg,high,NULL
1687287377,599d77d96b9d30d7d104ee2bbea89fbe,PennController,26,0,experiment,NULL,PennController,25,_Trial_,Start,1687287353929,5ed54d02957bee0c0de36cac,5ed54d02957bee0c0de36cac,23,color,filler,D,50,color40.jpg,color60.jpg,GoalB,NULL
1687287377,599d77d96b9d30d7d104ee2bbea89fbe,PennController,26,0,experiment,NULL,PennController,25,_Header_,Start,1687287353929,5ed54d02957bee0c0de36cac,5ed54d02957bee0c0de36cac,23,color,filler,D,50,color40.jpg,color60.jpg,GoalB,NULL
1687287377,599d77d96b9d30d7d104ee2bbea89fbe,PennController,26,0,experiment,NULL,PennController,25,_Header_,End,1687287353929,5ed54d02957bee0c0de36cac,5ed54d02957bee0c0de36cac,23,color,filler,D,50,color40.jpg,color60.jpg,GoalB,NULL
1687287377,599d77d96b9d30d7d104ee2bbea89fbe,PennController,26,0,experiment,NULL,Canvas,canvas6,Print,NA,1687287360616,5ed54d02957bee0c0de36cac,5ed54d02957bee0c0de36cac,23,color,filler,D,50,color40.jpg,color60.jpg,GoalB,NULL
1687287377,599d77d96b9d30d7d104ee2bbea89fbe,PennController,26,0,experiment,NULL,Video,progression,buffer,0.001883,1687287357454,5ed54d02957bee0c0de36cac,5ed54d02957bee0c0de36cac,23,color,filler,D,50,color40.jpg,color60.jpg,GoalB,NULL
1687287377,599d77d96b9d30d7d104ee2bbea89fbe,PennController,26,0,experiment,NULL,Selector,choice,Selection,option2,1687287362251,5ed54d02957bee0c0de36cac,5ed54d02957bee0c0de36cac,23,color,filler,D,50,color40.jpg,color60.jpg,GoalB,option1;option2
1687287377,599d77d96b9d30d7d104ee2bbea89fbe,PennController,26,0,experiment,NULL,PennController,25,_Trial_,End,1687287362251,5ed54d02957bee0c0de36cac,5ed54d02957bee0c0de36cac,23,color,filler,D,50,color40.jpg,color60.jpg,GoalB,NULL
1687287377,599d77d96b9d30d7d104ee2bbea89fbe,PennController,32,0,experiment,NULL,PennController,31,_Trial_,Start,1687287362252,5ed54d02957bee0c0de36cac,5ed54d02957bee0c0de36cac,29,frog,filler,D,50,frog40.jpg,frog60.jpg,GoalB,NULL
1687287377,599d77d96b9d30d7d104ee2bbea89fbe,PennController,32,0,experiment,NULL,PennController,31,_Header_,Start,1687287362252,5ed54d02957bee0c0de36cac,5ed54d02957bee0c0de36cac,29,frog,filler,D,50,frog40.jpg,frog60.jpg,GoalB,NULL
1687287377,599d77d96b9d30d7d104ee2bbea89fbe,PennController,32,0,experiment,NULL,PennController,31,_Header_,End,1687287362252,5ed54d02957bee0c0de36cac,5ed54d02957bee0c0de36cac,29,frog,filler,D,50,frog40.jpg,frog60.jpg,GoalB,NULL
1687287377,599d77d96b9d30d7d104ee2bbea89fbe,PennController,32,0,experiment,NULL,Canvas,canvas6,Print,NA,1687287368937,5ed54d02957bee0c0de36cac,5ed54d02957bee0c0de36cac,29,frog,filler,D,50,frog40.jpg,frog60.jpg,GoalB,NULL
1687287377,599d77d96b9d30d7d104ee2bbea89fbe,PennController,32,0,experiment,NULL,Video,progression,buffer,0.001801,1687287365774,5ed54d02957bee0c0de36cac,5ed54d02957bee0c0de36cac,29,frog,filler,D,50,frog40.jpg,frog60.jpg,GoalB,NULL
1687287377,599d77d96b9d30d7d104ee2bbea89fbe,PennController,32,0,experiment,NULL,Selector,choice,Selection,option2,1687287370237,5ed54d02957bee0c0de36cac,5ed54d02957bee0c0de36cac,29,frog,filler,D,50,frog40.jpg,frog60.jpg,GoalB,option1;option2
1687287377,599d77d96b9d30d7d104ee2bbea89fbe,PennController,32,0,experiment,NULL,PennController,31,_Trial_,End,1687287370237,5ed54d02957bee0c0de36cac,5ed54d02957bee0c0de36cac,29,frog,filler,D,50,frog40.jpg,frog60.jpg,GoalB,NULL
1687287377,599d77d96b9d30d7d104ee2bbea89fbe,PennController,22,0,experiment,NULL,PennController,21,_Trial_,Start,1687287370238,5ed54d02957bee0c0de36cac,5ed54d02957bee0c0de36cac,19,cup,filler,D,25,cup15.jpg,cup35.jpg,GoalB,NULL
1687287377,599d77d96b9d30d7d104ee2bbea89fbe,PennController,22,0,experiment,NULL,PennController,21,_Header_,Start,1687287370238,5ed54d02957bee0c0de36cac,5ed54d02957bee0c0de36cac,19,cup,filler,D,25,cup15.jpg,cup35.jpg,GoalB,NULL
1687287377,599d77d96b9d30d7d104ee2bbea89fbe,PennController,22,0,experiment,NULL,PennController,21,_Header_,End,1687287370238,5ed54d02957bee0c0de36cac,5ed54d02957bee0c0de36cac,19,cup,filler,D,25,cup15.jpg,cup35.jpg,GoalB,NULL
1687287377,599d77d96b9d30d7d104ee2bbea89fbe,PennController,22,0,experiment,NULL,Canvas,canvas6,Print,NA,1687287375917,5ed54d02957bee0c0de36cac,5ed54d02957bee0c0de36cac,19,cup,filler,D,25,cup15.jpg,cup35.jpg,GoalB,NULL
1687287377,599d77d96b9d30d7d104ee2bbea89fbe,PennController,22,0,experiment,NULL,Video,progression,buffer,0.001698,1687287373753,5ed54d02957bee0c0de36cac,5ed54d02957bee0c0de36cac,19,cup,filler,D,25,cup15.jpg,cup35.jpg,GoalB,NULL
1687287377,599d77d96b9d30d7d104ee2bbea89fbe,PennController,22,0,experiment,NULL,Selector,choice,Selection,option2,1687287376861,5ed54d02957bee0c0de36cac,5ed54d02957bee0c0de36cac,19,cup,filler,D,25,cup15.jpg,cup35.jpg,GoalB,option1;option2
1687287377,599d77d96b9d30d7d104ee2bbea89fbe,PennController,22,0,experiment,NULL,PennController,21,_Trial_,End,1687287376862,5ed54d02957bee0c0de36cac,5ed54d02957bee0c0de36cac,19,cup,filler,D,25,cup15.jpg,cup35.jpg,GoalB,NULL
