#
# Results on Tuesday June 20 2023 18:57:01 UTC
# USER AGENT: Mozilla/5.0 (Windows NT 10.0; Win64; x64) AppleWebKit/537.36 (KHTML, like Gecko) Chrome/114.0.0.0 Safari/537.36
# Design number was non-random = 3
#
# Columns below this comment are as follows:
# 1. Results reception time.
# 2. MD5 hash of participant's IP address.
# 3. Controller name.
# 4. Order number of item.
# 5. Inner element number.
# 6. Label.
# 7. Latin Square Group.
# 8. PennElementType.
# 9. PennElementName.
# 10. Parameter.
# 11. Value.
# 12. EventTime.
# 13. PROLIFIC_ID.
# 14. Comments.
1687287421,4171f8367a9aac55a387ec7f301497e8,PennController,2,0,consent,NULL,PennController,0,_Trial_,Start,1687287097931,5db9e0044a8eb40431d5e782,NULL
1687287421,4171f8367a9aac55a387ec7f301497e8,PennController,2,0,consent,NULL,PennController,0,_Header_,Start,1687287097931,5db9e0044a8eb40431d5e782,NULL
1687287421,4171f8367a9aac55a387ec7f301497e8,PennController,2,0,consent,NULL,PennController,0,_Header_,End,1687287097931,5db9e0044a8eb40431d5e782,NULL
1687287421,4171f8367a9aac55a387ec7f301497e8,PennController,2,0,consent,NULL,PennController,0,_Trial_,End,1687287134349,5db9e0044a8eb40431d5e782,NULL
# Columns below this comment are as follows:
# 14. ID.
# 15. Comments.
1687287421,4171f8367a9aac55a387ec7f301497e8,PennController,3,0,intro,NULL,PennController,1,_Trial_,Start,1687287134351,5db9e0044a8eb40431d5e782,5db9e0044a8eb40431d5e782,NULL
1687287421,4171f8367a9aac55a387ec7f301497e8,PennController,3,0,intro,NULL,PennController,1,_Header_,Start,1687287134351,5db9e0044a8eb40431d5e782,5db9e0044a8eb40431d5e782,NULL
1687287421,4171f8367a9aac55a387ec7f301497e8,PennController,3,0,intro,NULL,PennController,1,_Header_,End,1687287134351,5db9e0044a8eb40431d5e782,5db9e0044a8eb40431d5e782,NULL
1687287421,4171f8367a9aac55a387ec7f301497e8,PennController,3,0,intro,NULL,PennController,1,_Trial_,End,1687287149967,5db9e0044a8eb40431d5e782,5db9e0044a8eb40431d5e782,NULL
# Columns below this comment are as follows:
# 15. item_number.
# 16. item.
# 17. type.
# 18. Group.
# 19. prog.
# 20. prev_image.
# 21. next_image.
# 22. height.
# 23. Comments.
1687287421,4171f8367a9aac55a387ec7f301497e8,PennController,28,0,experiment,NULL,PennController,27,_Trial_,Start,1687287149968,5db9e0044a8eb40431d5e782,5db9e0044a8eb40431d5e782,25,house,filler,D,25,house15.jpg,house35.jpg,GoalB,NULL
1687287421,4171f8367a9aac55a387ec7f301497e8,PennController,28,0,experiment,NULL,PennController,27,_Header_,Start,1687287149968,5db9e0044a8eb40431d5e782,5db9e0044a8eb40431d5e782,25,house,filler,D,25,house15.jpg,house35.jpg,GoalB,NULL
1687287421,4171f8367a9aac55a387ec7f301497e8,PennController,28,0,experiment,NULL,PennController,27,_Header_,End,1687287149968,5db9e0044a8eb40431d5e782,5db9e0044a8eb40431d5e782,25,house,filler,D,25,house15.jpg,house35.jpg,GoalB,NULL
1687287421,4171f8367a9aac55a387ec7f301497e8,PennController,28,0,experiment,NULL,Canvas,canvas6,Print,NA,1687287155658,5db9e0044a8eb40431d5e782,5db9e0044a8eb40431d5e782,25,house,filler,D,25,house15.jpg,house35.jpg,GoalB,NULL
1687287421,4171f8367a9aac55a387ec7f301497e8,PennController,28,0,experiment,NULL,Video,progression,buffer,0.002623,1687287153494,5db9e0044a8eb40431d5e782,5db9e0044a8eb40431d5e782,25,house,filler,D,25,house15.jpg,house35.jpg,GoalB,NULL
1687287421,4171f8367a9aac55a387ec7f301497e8,PennController,28,0,experiment,NULL,Selector,choice,Selection,option2,1687287159651,5db9e0044a8eb40431d5e782,5db9e0044a8eb40431d5e782,25,house,filler,D,25,house15.jpg,house35.jpg,GoalB,option1;option2
1687287421,4171f8367a9aac55a387ec7f301497e8,PennController,28,0,experiment,NULL,PennController,27,_Trial_,End,1687287159653,5db9e0044a8eb40431d5e782,5db9e0044a8eb40431d5e782,25,house,filler,D,25,house15.jpg,house35.jpg,GoalB,NULL
1687287421,4171f8367a9aac55a387ec7f301497e8,PennController,9,0,experiment,NULL,PennController,8,_Trial_,Start,1687287159654,5db9e0044a8eb40431d5e782,5db9e0044a8eb40431d5e782,6,flower,critical,D,75,flower65.jpg,flower85.jpg,high,NULL
1687287421,4171f8367a9aac55a387ec7f301497e8,PennController,9,0,experiment,NULL,PennController,8,_Header_,Start,1687287159654,5db9e0044a8eb40431d5e782,5db9e0044a8eb40431d5e782,6,flower,critical,D,75,flower65.jpg,flower85.jpg,high,NULL
1687287421,4171f8367a9aac55a387ec7f301497e8,PennController,9,0,experiment,NULL,PennController,8,_Header_,End,1687287159654,5db9e0044a8eb40431d5e782,5db9e0044a8eb40431d5e782,6,flower,critical,D,75,flower65.jpg,flower85.jpg,high,NULL
1687287421,4171f8367a9aac55a387ec7f301497e8,PennController,9,0,experiment,NULL,Canvas,canvas6,Print,NA,1687287167342,5db9e0044a8eb40431d5e782,5db9e0044a8eb40431d5e782,6,flower,critical,D,75,flower65.jpg,flower85.jpg,high,NULL
1687287421,4171f8367a9aac55a387ec7f301497e8,PennController,9,0,experiment,NULL,Video,progression,buffer,0.001606,1687287163175,5db9e0044a8eb40431d5e782,5db9e0044a8eb40431d5e782,6,flower,critical,D,75,flower65.jpg,flower85.jpg,high,NULL
1687287421,4171f8367a9aac55a387ec7f301497e8,PennController,9,0,experiment,NULL,Selector,choice,Selection,option2,1687287171683,5db9e0044a8eb40431d5e782,5db9e0044a8eb40431d5e782,6,flower,critical,D,75,flower65.jpg,flower85.jpg,high,option1;option2
1687287421,4171f8367a9aac55a387ec7f301497e8,PennController,9,0,experiment,NULL,PennController,8,_Trial_,End,1687287171684,5db9e0044a8eb40431d5e782,5db9e0044a8eb40431d5e782,6,flower,critical,D,75,flower65.jpg,flower85.jpg,high,NULL
1687287421,4171f8367a9aac55a387ec7f301497e8,PennController,6,0,experiment,NULL,PennController,5,_Trial_,Start,1687287171685,5db9e0044a8eb40431d5e782,5db9e0044a8eb40431d5e782,3,clean,critical,D,75,clean65.jpg,clean85.jpg,high,NULL
1687287421,4171f8367a9aac55a387ec7f301497e8,PennController,6,0,experiment,NULL,PennController,5,_Header_,Start,1687287171685,5db9e0044a8eb40431d5e782,5db9e0044a8eb40431d5e782,3,clean,critical,D,75,clean65.jpg,clean85.jpg,high,NULL
1687287421,4171f8367a9aac55a387ec7f301497e8,PennController,6,0,experiment,NULL,PennController,5,_Header_,End,1687287171685,5db9e0044a8eb40431d5e782,5db9e0044a8eb40431d5e782,3,clean,critical,D,75,clean65.jpg,clean85.jpg,high,NULL
1687287421,4171f8367a9aac55a387ec7f301497e8,PennController,6,0,experiment,NULL,Canvas,canvas6,Print,NA,1687287179356,5db9e0044a8eb40431d5e782,5db9e0044a8eb40431d5e782,3,clean,critical,D,75,clean65.jpg,clean85.jpg,high,NULL
1687287421,4171f8367a9aac55a387ec7f301497e8,PennController,6,0,experiment,NULL,Video,progression,buffer,0.001779,1687287175201,5db9e0044a8eb40431d5e782,5db9e0044a8eb40431d5e782,3,clean,critical,D,75,clean65.jpg,clean85.jpg,high,NULL
1687287421,4171f8367a9aac55a387ec7f301497e8,PennController,6,0,experiment,NULL,Selector,choice,Selection,option1,1687287185407,5db9e0044a8eb40431d5e782,5db9e0044a8eb40431d5e782,3,clean,critical,D,75,clean65.jpg,clean85.jpg,high,option2;option1
1687287421,4171f8367a9aac55a387ec7f301497e8,PennController,6,0,experiment,NULL,PennController,5,_Trial_,End,1687287185408,5db9e0044a8eb40431d5e782,5db9e0044a8eb40431d5e782,3,clean,critical,D,75,clean65.jpg,clean85.jpg,high,NULL
1687287421,4171f8367a9aac55a387ec7f301497e8,PennController,29,0,experiment,NULL,PennController,28,_Trial_,Start,1687287185408,5db9e0044a8eb40431d5e782,5db9e0044a8eb40431d5e782,26,sandwich,filler,D,50,sandwich40.jpg,sandwich60.jpg,GoalA,NULL
1687287421,4171f8367a9aac55a387ec7f301497e8,PennController,29,0,experiment,NULL,PennController,28,_Header_,Start,1687287185408,5db9e0044a8eb40431d5e782,5db9e0044a8eb40431d5e782,26,sandwich,filler,D,50,sandwich40.jpg,sandwich60.jpg,GoalA,NULL
1687287421,4171f8367a9aac55a387ec7f301497e8,PennController,29,0,experiment,NULL,PennController,28,_Header_,End,1687287185409,5db9e0044a8eb40431d5e782,5db9e0044a8eb40431d5e782,26,sandwich,filler,D,50,sandwich40.jpg,sandwich60.jpg,GoalA,NULL
1687287421,4171f8367a9aac55a387ec7f301497e8,PennController,29,0,experiment,NULL,Canvas,canvas6,Print,NA,1687287192076,5db9e0044a8eb40431d5e782,5db9e0044a8eb40431d5e782,26,sandwich,filler,D,50,sandwich40.jpg,sandwich60.jpg,GoalA,NULL
1687287421,4171f8367a9aac55a387ec7f301497e8,PennController,29,0,experiment,NULL,Video,progression,buffer,0.001664,1687287188919,5db9e0044a8eb40431d5e782,5db9e0044a8eb40431d5e782,26,sandwich,filler,D,50,sandwich40.jpg,sandwich60.jpg,GoalA,NULL
1687287421,4171f8367a9aac55a387ec7f301497e8,PennController,29,0,experiment,NULL,Selector,choice,Selection,option1,1687287193481,5db9e0044a8eb40431d5e782,5db9e0044a8eb40431d5e782,26,sandwich,filler,D,50,sandwich40.jpg,sandwich60.jpg,GoalA,option2;option1
1687287421,4171f8367a9aac55a387ec7f301497e8,PennController,29,0,experiment,NULL,PennController,28,_Trial_,End,1687287193481,5db9e0044a8eb40431d5e782,5db9e0044a8eb40431d5e782,26,sandwich,filler,D,50,sandwich40.jpg,sandwich60.jpg,GoalA,NULL
1687287421,4171f8367a9aac55a387ec7f301497e8,PennController,4,0,experiment,NULL,PennController,3,_Trial_,Start,1687287193482,5db9e0044a8eb40431d5e782,5db9e0044a8eb40431d5e782,1,vase,critical,D,25,vase15.jpg,vase35.jpg,high,NULL
1687287421,4171f8367a9aac55a387ec7f301497e8,PennController,4,0,experiment,NULL,PennController,3,_Header_,Start,1687287193482,5db9e0044a8eb40431d5e782,5db9e0044a8eb40431d5e782,1,vase,critical,D,25,vase15.jpg,vase35.jpg,high,NULL
1687287421,4171f8367a9aac55a387ec7f301497e8,PennController,4,0,experiment,NULL,PennController,3,_Header_,End,1687287193482,5db9e0044a8eb40431d5e782,5db9e0044a8eb40431d5e782,1,vase,critical,D,25,vase15.jpg,vase35.jpg,high,NULL
1687287421,4171f8367a9aac55a387ec7f301497e8,PennController,4,0,experiment,NULL,Canvas,canvas6,Print,NA,1687287199159,5db9e0044a8eb40431d5e782,5db9e0044a8eb40431d5e782,1,vase,critical,D,25,vase15.jpg,vase35.jpg,high,NULL
1687287421,4171f8367a9aac55a387ec7f301497e8,PennController,4,0,experiment,NULL,Video,progression,buffer,0.002146,1687287196998,5db9e0044a8eb40431d5e782,5db9e0044a8eb40431d5e782,1,vase,critical,D,25,vase15.jpg,vase35.jpg,high,NULL
1687287421,4171f8367a9aac55a387ec7f301497e8,PennController,4,0,experiment,NULL,Selector,choice,Selection,option2,1687287201504,5db9e0044a8eb40431d5e782,5db9e0044a8eb40431d5e782,1,vase,critical,D,25,vase15.jpg,vase35.jpg,high,option1;option2
1687287421,4171f8367a9aac55a387ec7f301497e8,PennController,4,0,experiment,NULL,PennController,3,_Trial_,End,1687287201505,5db9e0044a8eb40431d5e782,5db9e0044a8eb40431d5e782,1,vase,critical,D,25,vase15.jpg,vase35.jpg,high,NULL
1687287421,4171f8367a9aac55a387ec7f301497e8,PennController,22,0,experiment,NULL,PennController,21,_Trial_,Start,1687287201506,5db9e0044a8eb40431d5e782,5db9e0044a8eb40431d5e782,19,cup,filler,D,25,cup15.jpg,cup35.jpg,GoalB,NULL
1687287421,4171f8367a9aac55a387ec7f301497e8,PennController,22,0,experiment,NULL,PennController,21,_Header_,Start,1687287201506,5db9e0044a8eb40431d5e782,5db9e0044a8eb40431d5e782,19,cup,filler,D,25,cup15.jpg,cup35.jpg,GoalB,NULL
1687287421,4171f8367a9aac55a387ec7f301497e8,PennController,22,0,experiment,NULL,PennController,21,_Header_,End,1687287201506,5db9e0044a8eb40431d5e782,5db9e0044a8eb40431d5e782,19,cup,filler,D,25,cup15.jpg,cup35.jpg,GoalB,NULL
1687287421,4171f8367a9aac55a387ec7f301497e8,PennController,22,0,experiment,NULL,Canvas,canvas6,Print,NA,1687287207193,5db9e0044a8eb40431d5e782,5db9e0044a8eb40431d5e782,19,cup,filler,D,25,cup15.jpg,cup35.jpg,GoalB,NULL
1687287421,4171f8367a9aac55a387ec7f301497e8,PennController,22,0,experiment,NULL,Video,progression,buffer,0.002301,1687287205025,5db9e0044a8eb40431d5e782,5db9e0044a8eb40431d5e782,19,cup,filler,D,25,cup15.jpg,cup35.jpg,GoalB,NULL
1687287421,4171f8367a9aac55a387ec7f301497e8,PennController,22,0,experiment,NULL,Selector,choice,Selection,option2,1687287209553,5db9e0044a8eb40431d5e782,5db9e0044a8eb40431d5e782,19,cup,filler,D,25,cup15.jpg,cup35.jpg,GoalB,option1;option2
1687287421,4171f8367a9aac55a387ec7f301497e8,PennController,22,0,experiment,NULL,PennController,21,_Trial_,End,1687287209554,5db9e0044a8eb40431d5e782,5db9e0044a8eb40431d5e782,19,cup,filler,D,25,cup15.jpg,cup35.jpg,GoalB,NULL
1687287421,4171f8367a9aac55a387ec7f301497e8,PennController,13,0,experiment,NULL,PennController,12,_Trial_,Start,1687287209554,5db9e0044a8eb40431d5e782,5db9e0044a8eb40431d5e782,10,train,critical,D,25,train15.jpg,train35.jpg,high,NULL
1687287421,4171f8367a9aac55a387ec7f301497e8,PennController,13,0,experiment,NULL,PennController,12,_Header_,Start,1687287209554,5db9e0044a8eb40431d5e782,5db9e0044a8eb40431d5e782,10,train,critical,D,25,train15.jpg,train35.jpg,high,NULL
1687287421,4171f8367a9aac55a387ec7f301497e8,PennController,13,0,experiment,NULL,PennController,12,_Header_,End,1687287209554,5db9e0044a8eb40431d5e782,5db9e0044a8eb40431d5e782,10,train,critical,D,25,train15.jpg,train35.jpg,high,NULL
1687287421,4171f8367a9aac55a387ec7f301497e8,PennController,13,0,experiment,NULL,Canvas,canvas6,Print,NA,1687287215244,5db9e0044a8eb40431d5e782,5db9e0044a8eb40431d5e782,10,train,critical,D,25,train15.jpg,train35.jpg,high,NULL
1687287421,4171f8367a9aac55a387ec7f301497e8,PennController,13,0,experiment,NULL,Video,progression,buffer,0.001645,1687287213075,5db9e0044a8eb40431d5e782,5db9e0044a8eb40431d5e782,10,train,critical,D,25,train15.jpg,train35.jpg,high,NULL
1687287421,4171f8367a9aac55a387ec7f301497e8,PennController,13,0,experiment,NULL,Selector,choice,Selection,option2,1687287219458,5db9e0044a8eb40431d5e782,5db9e0044a8eb40431d5e782,10,train,critical,D,25,train15.jpg,train35.jpg,high,option2;option1
1687287421,4171f8367a9aac55a387ec7f301497e8,PennController,13,0,experiment,NULL,PennController,12,_Trial_,End,1687287219459,5db9e0044a8eb40431d5e782,5db9e0044a8eb40431d5e782,10,train,critical,D,25,train15.jpg,train35.jpg,high,NULL
1687287421,4171f8367a9aac55a387ec7f301497e8,PennController,32,0,experiment,NULL,PennController,31,_Trial_,Start,1687287219460,5db9e0044a8eb40431d5e782,5db9e0044a8eb40431d5e782,29,frog,filler,D,50,frog40.jpg,frog60.jpg,GoalB,NULL
1687287421,4171f8367a9aac55a387ec7f301497e8,PennController,32,0,experiment,NULL,PennController,31,_Header_,Start,1687287219460,5db9e0044a8eb40431d5e782,5db9e0044a8eb40431d5e782,29,frog,filler,D,50,frog40.jpg,frog60.jpg,GoalB,NULL
1687287421,4171f8367a9aac55a387ec7f301497e8,PennController,32,0,experiment,NULL,PennController,31,_Header_,End,1687287219460,5db9e0044a8eb40431d5e782,5db9e0044a8eb40431d5e782,29,frog,filler,D,50,frog40.jpg,frog60.jpg,GoalB,NULL
1687287421,4171f8367a9aac55a387ec7f301497e8,PennController,32,0,experiment,NULL,Canvas,canvas6,Print,NA,1687287226143,5db9e0044a8eb40431d5e782,5db9e0044a8eb40431d5e782,29,frog,filler,D,50,frog40.jpg,frog60.jpg,GoalB,NULL
1687287421,4171f8367a9aac55a387ec7f301497e8,PennController,32,0,experiment,NULL,Video,progression,buffer,0.001494,1687287222976,5db9e0044a8eb40431d5e782,5db9e0044a8eb40431d5e782,29,frog,filler,D,50,frog40.jpg,frog60.jpg,GoalB,NULL
1687287421,4171f8367a9aac55a387ec7f301497e8,PennController,32,0,experiment,NULL,Selector,choice,Selection,option2,1687287228672,5db9e0044a8eb40431d5e782,5db9e0044a8eb40431d5e782,29,frog,filler,D,50,frog40.jpg,frog60.jpg,GoalB,option2;option1
1687287421,4171f8367a9aac55a387ec7f301497e8,PennController,32,0,experiment,NULL,PennController,31,_Trial_,End,1687287228673,5db9e0044a8eb40431d5e782,5db9e0044a8eb40431d5e782,29,frog,filler,D,50,frog40.jpg,frog60.jpg,GoalB,NULL
1687287421,4171f8367a9aac55a387ec7f301497e8,PennController,7,0,experiment,NULL,PennController,6,_Trial_,Start,1687287228673,5db9e0044a8eb40431d5e782,5db9e0044a8eb40431d5e782,4,candy,critical,D,25,candy15.jpg,candy35.jpg,high,NULL
1687287421,4171f8367a9aac55a387ec7f301497e8,PennController,7,0,experiment,NULL,PennController,6,_Header_,Start,1687287228673,5db9e0044a8eb40431d5e782,5db9e0044a8eb40431d5e782,4,candy,critical,D,25,candy15.jpg,candy35.jpg,high,NULL
1687287421,4171f8367a9aac55a387ec7f301497e8,PennController,7,0,experiment,NULL,PennController,6,_Header_,End,1687287228673,5db9e0044a8eb40431d5e782,5db9e0044a8eb40431d5e782,4,candy,critical,D,25,candy15.jpg,candy35.jpg,high,NULL
1687287421,4171f8367a9aac55a387ec7f301497e8,PennController,7,0,experiment,NULL,Canvas,canvas6,Print,NA,1687287234343,5db9e0044a8eb40431d5e782,5db9e0044a8eb40431d5e782,4,candy,critical,D,25,candy15.jpg,candy35.jpg,high,NULL
1687287421,4171f8367a9aac55a387ec7f301497e8,PennController,7,0,experiment,NULL,Video,progression,buffer,0.001741,1687287232184,5db9e0044a8eb40431d5e782,5db9e0044a8eb40431d5e782,4,candy,critical,D,25,candy15.jpg,candy35.jpg,high,NULL
1687287421,4171f8367a9aac55a387ec7f301497e8,PennController,7,0,experiment,NULL,Selector,choice,Selection,option2,1687287238448,5db9e0044a8eb40431d5e782,5db9e0044a8eb40431d5e782,4,candy,critical,D,25,candy15.jpg,candy35.jpg,high,option2;option1
1687287421,4171f8367a9aac55a387ec7f301497e8,PennController,7,0,experiment,NULL,PennController,6,_Trial_,End,1687287238449,5db9e0044a8eb40431d5e782,5db9e0044a8eb40431d5e782,4,candy,critical,D,25,candy15.jpg,candy35.jpg,high,NULL
1687287421,4171f8367a9aac55a387ec7f301497e8,PennController,21,0,experiment,NULL,PennController,20,_Trial_,Start,1687287238449,5db9e0044a8eb40431d5e782,5db9e0044a8eb40431d5e782,18,ball,critical,D,75,ball65.jpg,ball85.jpg,high,NULL
1687287421,4171f8367a9aac55a387ec7f301497e8,PennController,21,0,experiment,NULL,PennController,20,_Header_,Start,1687287238449,5db9e0044a8eb40431d5e782,5db9e0044a8eb40431d5e782,18,ball,critical,D,75,ball65.jpg,ball85.jpg,high,NULL
1687287421,4171f8367a9aac55a387ec7f301497e8,PennController,21,0,experiment,NULL,PennController,20,_Header_,End,1687287238449,5db9e0044a8eb40431d5e782,5db9e0044a8eb40431d5e782,18,ball,critical,D,75,ball65.jpg,ball85.jpg,high,NULL
1687287421,4171f8367a9aac55a387ec7f301497e8,PennController,21,0,experiment,NULL,Canvas,canvas6,Print,NA,1687287246128,5db9e0044a8eb40431d5e782,5db9e0044a8eb40431d5e782,18,ball,critical,D,75,ball65.jpg,ball85.jpg,high,NULL
1687287421,4171f8367a9aac55a387ec7f301497e8,PennController,21,0,experiment,NULL,Video,progression,buffer,0.001804,1687287241961,5db9e0044a8eb40431d5e782,5db9e0044a8eb40431d5e782,18,ball,critical,D,75,ball65.jpg,ball85.jpg,high,NULL
1687287421,4171f8367a9aac55a387ec7f301497e8,PennController,21,0,experiment,NULL,Selector,choice,Selection,option1,1687287248952,5db9e0044a8eb40431d5e782,5db9e0044a8eb40431d5e782,18,ball,critical,D,75,ball65.jpg,ball85.jpg,high,option2;option1
1687287421,4171f8367a9aac55a387ec7f301497e8,PennController,21,0,experiment,NULL,PennController,20,_Trial_,End,1687287248953,5db9e0044a8eb40431d5e782,5db9e0044a8eb40431d5e782,18,ball,critical,D,75,ball65.jpg,ball85.jpg,high,NULL
1687287421,4171f8367a9aac55a387ec7f301497e8,PennController,30,0,experiment,NULL,PennController,29,_Trial_,Start,1687287248953,5db9e0044a8eb40431d5e782,5db9e0044a8eb40431d5e782,27,square,filler,D,75,square65.jpg,square85.jpg,GoalB,NULL
1687287421,4171f8367a9aac55a387ec7f301497e8,PennController,30,0,experiment,NULL,PennController,29,_Header_,Start,1687287248953,5db9e0044a8eb40431d5e782,5db9e0044a8eb40431d5e782,27,square,filler,D,75,square65.jpg,square85.jpg,GoalB,NULL
1687287421,4171f8367a9aac55a387ec7f301497e8,PennController,30,0,experiment,NULL,PennController,29,_Header_,End,1687287248953,5db9e0044a8eb40431d5e782,5db9e0044a8eb40431d5e782,27,square,filler,D,75,square65.jpg,square85.jpg,GoalB,NULL
1687287421,4171f8367a9aac55a387ec7f301497e8,PennController,30,0,experiment,NULL,Canvas,canvas6,Print,NA,1687287256627,5db9e0044a8eb40431d5e782,5db9e0044a8eb40431d5e782,27,square,filler,D,75,square65.jpg,square85.jpg,GoalB,NULL
1687287421,4171f8367a9aac55a387ec7f301497e8,PennController,30,0,experiment,NULL,Video,progression,buffer,0.001446,1687287252465,5db9e0044a8eb40431d5e782,5db9e0044a8eb40431d5e782,27,square,filler,D,75,square65.jpg,square85.jpg,GoalB,NULL
1687287421,4171f8367a9aac55a387ec7f301497e8,PennController,30,0,experiment,NULL,Selector,choice,Selection,option1,1687287258424,5db9e0044a8eb40431d5e782,5db9e0044a8eb40431d5e782,27,square,filler,D,75,square65.jpg,square85.jpg,GoalB,option2;option1
1687287421,4171f8367a9aac55a387ec7f301497e8,PennController,30,0,experiment,NULL,PennController,29,_Trial_,End,1687287258424,5db9e0044a8eb40431d5e782,5db9e0044a8eb40431d5e782,27,square,filler,D,75,square65.jpg,square85.jpg,GoalB,NULL
1687287421,4171f8367a9aac55a387ec7f301497e8,PennController,24,0,experiment,NULL,PennController,23,_Trial_,Start,1687287258425,5db9e0044a8eb40431d5e782,5db9e0044a8eb40431d5e782,21,visit,filler,D,75,visit65.jpg,visit85.jpg,GoalB,NULL
1687287421,4171f8367a9aac55a387ec7f301497e8,PennController,24,0,experiment,NULL,PennController,23,_Header_,Start,1687287258425,5db9e0044a8eb40431d5e782,5db9e0044a8eb40431d5e782,21,visit,filler,D,75,visit65.jpg,visit85.jpg,GoalB,NULL
1687287421,4171f8367a9aac55a387ec7f301497e8,PennController,24,0,experiment,NULL,PennController,23,_Header_,End,1687287258425,5db9e0044a8eb40431d5e782,5db9e0044a8eb40431d5e782,21,visit,filler,D,75,visit65.jpg,visit85.jpg,GoalB,NULL
1687287421,4171f8367a9aac55a387ec7f301497e8,PennController,24,0,experiment,NULL,Canvas,canvas6,Print,NA,1687287266095,5db9e0044a8eb40431d5e782,5db9e0044a8eb40431d5e782,21,visit,filler,D,75,visit65.jpg,visit85.jpg,GoalB,NULL
1687287421,4171f8367a9aac55a387ec7f301497e8,PennController,24,0,experiment,NULL,Video,progression,buffer,0.001699,1687287261937,5db9e0044a8eb40431d5e782,5db9e0044a8eb40431d5e782,21,visit,filler,D,75,visit65.jpg,visit85.jpg,GoalB,NULL
1687287421,4171f8367a9aac55a387ec7f301497e8,PennController,24,0,experiment,NULL,Selector,choice,Selection,option2,1687287267897,5db9e0044a8eb40431d5e782,5db9e0044a8eb40431d5e782,21,visit,filler,D,75,visit65.jpg,visit85.jpg,GoalB,option1;option2
1687287421,4171f8367a9aac55a387ec7f301497e8,PennController,24,0,experiment,NULL,PennController,23,_Trial_,End,1687287267897,5db9e0044a8eb40431d5e782,5db9e0044a8eb40431d5e782,21,visit,filler,D,75,visit65.jpg,visit85.jpg,GoalB,NULL
1687287421,4171f8367a9aac55a387ec7f301497e8,PennController,8,0,experiment,NULL,PennController,7,_Trial_,Start,1687287267898,5db9e0044a8eb40431d5e782,5db9e0044a8eb40431d5e782,5,book,critical,D,50,book40.jpg,book60.jpg,high,NULL
1687287421,4171f8367a9aac55a387ec7f301497e8,PennController,8,0,experiment,NULL,PennController,7,_Header_,Start,1687287267898,5db9e0044a8eb40431d5e782,5db9e0044a8eb40431d5e782,5,book,critical,D,50,book40.jpg,book60.jpg,high,NULL
1687287421,4171f8367a9aac55a387ec7f301497e8,PennController,8,0,experiment,NULL,PennController,7,_Header_,End,1687287267898,5db9e0044a8eb40431d5e782,5db9e0044a8eb40431d5e782,5,book,critical,D,50,book40.jpg,book60.jpg,high,NULL
1687287421,4171f8367a9aac55a387ec7f301497e8,PennController,8,0,experiment,NULL,Canvas,canvas6,Print,NA,1687287274577,5db9e0044a8eb40431d5e782,5db9e0044a8eb40431d5e782,5,book,critical,D,50,book40.jpg,book60.jpg,high,NULL
1687287421,4171f8367a9aac55a387ec7f301497e8,PennController,8,0,experiment,NULL,Video,progression,buffer,0.002055,1687287271410,5db9e0044a8eb40431d5e782,5db9e0044a8eb40431d5e782,5,book,critical,D,50,book40.jpg,book60.jpg,high,NULL
1687287421,4171f8367a9aac55a387ec7f301497e8,PennController,8,0,experiment,NULL,Selector,choice,Selection,option1,1687287278174,5db9e0044a8eb40431d5e782,5db9e0044a8eb40431d5e782,5,book,critical,D,50,book40.jpg,book60.jpg,high,option2;option1
1687287421,4171f8367a9aac55a387ec7f301497e8,PennController,8,0,experiment,NULL,PennController,7,_Trial_,End,1687287278174,5db9e0044a8eb40431d5e782,5db9e0044a8eb40431d5e782,5,book,critical,D,50,book40.jpg,book60.jpg,high,NULL
1687287421,4171f8367a9aac55a387ec7f301497e8,PennController,18,0,experiment,NULL,PennController,17,_Trial_,Start,1687287278175,5db9e0044a8eb40431d5e782,5db9e0044a8eb40431d5e782,15,zip,critical,D,75,zip65.jpg,zip85.jpg,high,NULL
1687287421,4171f8367a9aac55a387ec7f301497e8,PennController,18,0,experiment,NULL,PennController,17,_Header_,Start,1687287278175,5db9e0044a8eb40431d5e782,5db9e0044a8eb40431d5e782,15,zip,critical,D,75,zip65.jpg,zip85.jpg,high,NULL
1687287421,4171f8367a9aac55a387ec7f301497e8,PennController,18,0,experiment,NULL,PennController,17,_Header_,End,1687287278175,5db9e0044a8eb40431d5e782,5db9e0044a8eb40431d5e782,15,zip,critical,D,75,zip65.jpg,zip85.jpg,high,NULL
1687287421,4171f8367a9aac55a387ec7f301497e8,PennController,18,0,experiment,NULL,Canvas,canvas6,Print,NA,1687287285063,5db9e0044a8eb40431d5e782,5db9e0044a8eb40431d5e782,15,zip,critical,D,75,zip65.jpg,zip85.jpg,high,NULL
1687287421,4171f8367a9aac55a387ec7f301497e8,PennController,18,0,experiment,NULL,Video,progression,buffer,0.00233,1687287281693,5db9e0044a8eb40431d5e782,5db9e0044a8eb40431d5e782,15,zip,critical,D,75,zip65.jpg,zip85.jpg,high,NULL
1687287421,4171f8367a9aac55a387ec7f301497e8,PennController,18,0,experiment,NULL,Selector,choice,Selection,option1,1687287288975,5db9e0044a8eb40431d5e782,5db9e0044a8eb40431d5e782,15,zip,critical,D,75,zip65.jpg,zip85.jpg,high,option1;option2
1687287421,4171f8367a9aac55a387ec7f301497e8,PennController,18,0,experiment,NULL,PennController,17,_Trial_,End,1687287288975,5db9e0044a8eb40431d5e782,5db9e0044a8eb40431d5e782,15,zip,critical,D,75,zip65.jpg,zip85.jpg,high,NULL
1687287421,4171f8367a9aac55a387ec7f301497e8,PennController,27,0,experiment,NULL,PennController,26,_Trial_,Start,1687287288976,5db9e0044a8eb40431d5e782,5db9e0044a8eb40431d5e782,24,match,filler,D,75,match65.jpg,match85.jpg,GoalA,NULL
1687287421,4171f8367a9aac55a387ec7f301497e8,PennController,27,0,experiment,NULL,PennController,26,_Header_,Start,1687287288976,5db9e0044a8eb40431d5e782,5db9e0044a8eb40431d5e782,24,match,filler,D,75,match65.jpg,match85.jpg,GoalA,NULL
1687287421,4171f8367a9aac55a387ec7f301497e8,PennController,27,0,experiment,NULL,PennController,26,_Header_,End,1687287288976,5db9e0044a8eb40431d5e782,5db9e0044a8eb40431d5e782,24,match,filler,D,75,match65.jpg,match85.jpg,GoalA,NULL
1687287421,4171f8367a9aac55a387ec7f301497e8,PennController,27,0,experiment,NULL,Canvas,canvas6,Print,NA,1687287296645,5db9e0044a8eb40431d5e782,5db9e0044a8eb40431d5e782,24,match,filler,D,75,match65.jpg,match85.jpg,GoalA,NULL
1687287421,4171f8367a9aac55a387ec7f301497e8,PennController,27,0,experiment,NULL,Video,progression,buffer,0.001803,1687287292492,5db9e0044a8eb40431d5e782,5db9e0044a8eb40431d5e782,24,match,filler,D,75,match65.jpg,match85.jpg,GoalA,NULL
1687287421,4171f8367a9aac55a387ec7f301497e8,PennController,27,0,experiment,NULL,Selector,choice,Selection,option1,1687287298763,5db9e0044a8eb40431d5e782,5db9e0044a8eb40431d5e782,24,match,filler,D,75,match65.jpg,match85.jpg,GoalA,option1;option2
1687287421,4171f8367a9aac55a387ec7f301497e8,PennController,27,0,experiment,NULL,PennController,26,_Trial_,End,1687287298764,5db9e0044a8eb40431d5e782,5db9e0044a8eb40431d5e782,24,match,filler,D,75,match65.jpg,match85.jpg,GoalA,NULL
1687287421,4171f8367a9aac55a387ec7f301497e8,PennController,31,0,experiment,NULL,PennController,30,_Trial_,Start,1687287298765,5db9e0044a8eb40431d5e782,5db9e0044a8eb40431d5e782,28,sort,filler,D,25,sort15.jpg,sort35.jpg,GoalA,NULL
1687287421,4171f8367a9aac55a387ec7f301497e8,PennController,31,0,experiment,NULL,PennController,30,_Header_,Start,1687287298765,5db9e0044a8eb40431d5e782,5db9e0044a8eb40431d5e782,28,sort,filler,D,25,sort15.jpg,sort35.jpg,GoalA,NULL
1687287421,4171f8367a9aac55a387ec7f301497e8,PennController,31,0,experiment,NULL,PennController,30,_Header_,End,1687287298765,5db9e0044a8eb40431d5e782,5db9e0044a8eb40431d5e782,28,sort,filler,D,25,sort15.jpg,sort35.jpg,GoalA,NULL
1687287421,4171f8367a9aac55a387ec7f301497e8,PennController,31,0,experiment,NULL,Canvas,canvas6,Print,NA,1687287304446,5db9e0044a8eb40431d5e782,5db9e0044a8eb40431d5e782,28,sort,filler,D,25,sort15.jpg,sort35.jpg,GoalA,NULL
1687287421,4171f8367a9aac55a387ec7f301497e8,PennController,31,0,experiment,NULL,Video,progression,buffer,0.001575,1687287302284,5db9e0044a8eb40431d5e782,5db9e0044a8eb40431d5e782,28,sort,filler,D,25,sort15.jpg,sort35.jpg,GoalA,NULL
1687287421,4171f8367a9aac55a387ec7f301497e8,PennController,31,0,experiment,NULL,Selector,choice,Selection,option1,1687287306629,5db9e0044a8eb40431d5e782,5db9e0044a8eb40431d5e782,28,sort,filler,D,25,sort15.jpg,sort35.jpg,GoalA,option1;option2
1687287421,4171f8367a9aac55a387ec7f301497e8,PennController,31,0,experiment,NULL,PennController,30,_Trial_,End,1687287306629,5db9e0044a8eb40431d5e782,5db9e0044a8eb40431d5e782,28,sort,filler,D,25,sort15.jpg,sort35.jpg,GoalA,NULL
1687287421,4171f8367a9aac55a387ec7f301497e8,PennController,26,0,experiment,NULL,PennController,25,_Trial_,Start,1687287306630,5db9e0044a8eb40431d5e782,5db9e0044a8eb40431d5e782,23,color,filler,D,50,color40.jpg,color60.jpg,GoalB,NULL
1687287421,4171f8367a9aac55a387ec7f301497e8,PennController,26,0,experiment,NULL,PennController,25,_Header_,Start,1687287306630,5db9e0044a8eb40431d5e782,5db9e0044a8eb40431d5e782,23,color,filler,D,50,color40.jpg,color60.jpg,GoalB,NULL
1687287421,4171f8367a9aac55a387ec7f301497e8,PennController,26,0,experiment,NULL,PennController,25,_Header_,End,1687287306630,5db9e0044a8eb40431d5e782,5db9e0044a8eb40431d5e782,23,color,filler,D,50,color40.jpg,color60.jpg,GoalB,NULL
1687287421,4171f8367a9aac55a387ec7f301497e8,PennController,26,0,experiment,NULL,Canvas,canvas6,Print,NA,1687287313297,5db9e0044a8eb40431d5e782,5db9e0044a8eb40431d5e782,23,color,filler,D,50,color40.jpg,color60.jpg,GoalB,NULL
1687287421,4171f8367a9aac55a387ec7f301497e8,PennController,26,0,experiment,NULL,Video,progression,buffer,0.001555,1687287310140,5db9e0044a8eb40431d5e782,5db9e0044a8eb40431d5e782,23,color,filler,D,50,color40.jpg,color60.jpg,GoalB,NULL
1687287421,4171f8367a9aac55a387ec7f301497e8,PennController,26,0,experiment,NULL,Selector,choice,Selection,option1,1687287315416,5db9e0044a8eb40431d5e782,5db9e0044a8eb40431d5e782,23,color,filler,D,50,color40.jpg,color60.jpg,GoalB,option2;option1
1687287421,4171f8367a9aac55a387ec7f301497e8,PennController,26,0,experiment,NULL,PennController,25,_Trial_,End,1687287315417,5db9e0044a8eb40431d5e782,5db9e0044a8eb40431d5e782,23,color,filler,D,50,color40.jpg,color60.jpg,GoalB,NULL
1687287421,4171f8367a9aac55a387ec7f301497e8,PennController,15,0,experiment,NULL,PennController,14,_Trial_,Start,1687287315418,5db9e0044a8eb40431d5e782,5db9e0044a8eb40431d5e782,12,erase,critical,D,75,erase66.jpg,erase84.jpg,high,NULL
1687287421,4171f8367a9aac55a387ec7f301497e8,PennController,15,0,experiment,NULL,PennController,14,_Header_,Start,1687287315418,5db9e0044a8eb40431d5e782,5db9e0044a8eb40431d5e782,12,erase,critical,D,75,erase66.jpg,erase84.jpg,high,NULL
1687287421,4171f8367a9aac55a387ec7f301497e8,PennController,15,0,experiment,NULL,PennController,14,_Header_,End,1687287315418,5db9e0044a8eb40431d5e782,5db9e0044a8eb40431d5e782,12,erase,critical,D,75,erase66.jpg,erase84.jpg,high,NULL
1687287421,4171f8367a9aac55a387ec7f301497e8,PennController,15,0,experiment,NULL,Canvas,canvas6,Print,NA,1687287325100,5db9e0044a8eb40431d5e782,5db9e0044a8eb40431d5e782,12,erase,critical,D,75,erase66.jpg,erase84.jpg,high,NULL
1687287421,4171f8367a9aac55a387ec7f301497e8,PennController,15,0,experiment,NULL,Video,progression,buffer,0.001435,1687287318939,5db9e0044a8eb40431d5e782,5db9e0044a8eb40431d5e782,12,erase,critical,D,75,erase66.jpg,erase84.jpg,high,NULL
1687287421,4171f8367a9aac55a387ec7f301497e8,PennController,15,0,experiment,NULL,Selector,choice,Selection,option1,1687287326934,5db9e0044a8eb40431d5e782,5db9e0044a8eb40431d5e782,12,erase,critical,D,75,erase66.jpg,erase84.jpg,high,option1;option2
1687287421,4171f8367a9aac55a387ec7f301497e8,PennController,15,0,experiment,NULL,PennController,14,_Trial_,End,1687287326934,5db9e0044a8eb40431d5e782,5db9e0044a8eb40431d5e782,12,erase,critical,D,75,erase66.jpg,erase84.jpg,high,NULL
1687287421,4171f8367a9aac55a387ec7f301497e8,PennController,25,0,experiment,NULL,PennController,24,_Trial_,Start,1687287326935,5db9e0044a8eb40431d5e782,5db9e0044a8eb40431d5e782,22,wall,filler,D,25,wall15.jpg,wall35.jpg,GoalA,NULL
1687287421,4171f8367a9aac55a387ec7f301497e8,PennController,25,0,experiment,NULL,PennController,24,_Header_,Start,1687287326935,5db9e0044a8eb40431d5e782,5db9e0044a8eb40431d5e782,22,wall,filler,D,25,wall15.jpg,wall35.jpg,GoalA,NULL
1687287421,4171f8367a9aac55a387ec7f301497e8,PennController,25,0,experiment,NULL,PennController,24,_Header_,End,1687287326935,5db9e0044a8eb40431d5e782,5db9e0044a8eb40431d5e782,22,wall,filler,D,25,wall15.jpg,wall35.jpg,GoalA,NULL
1687287421,4171f8367a9aac55a387ec7f301497e8,PennController,25,0,experiment,NULL,Canvas,canvas6,Print,NA,1687287332617,5db9e0044a8eb40431d5e782,5db9e0044a8eb40431d5e782,22,wall,filler,D,25,wall15.jpg,wall35.jpg,GoalA,NULL
1687287421,4171f8367a9aac55a387ec7f301497e8,PennController,25,0,experiment,NULL,Video,progression,buffer,0.001682,1687287330450,5db9e0044a8eb40431d5e782,5db9e0044a8eb40431d5e782,22,wall,filler,D,25,wall15.jpg,wall35.jpg,GoalA,NULL
1687287421,4171f8367a9aac55a387ec7f301497e8,PennController,25,0,experiment,NULL,Selector,choice,Selection,option1,1687287334298,5db9e0044a8eb40431d5e782,5db9e0044a8eb40431d5e782,22,wall,filler,D,25,wall15.jpg,wall35.jpg,GoalA,option1;option2
1687287421,4171f8367a9aac55a387ec7f301497e8,PennController,25,0,experiment,NULL,PennController,24,_Trial_,End,1687287334299,5db9e0044a8eb40431d5e782,5db9e0044a8eb40431d5e782,22,wall,filler,D,25,wall15.jpg,wall35.jpg,GoalA,NULL
1687287421,4171f8367a9aac55a387ec7f301497e8,PennController,14,0,experiment,NULL,PennController,13,_Trial_,Start,1687287334300,5db9e0044a8eb40431d5e782,5db9e0044a8eb40431d5e782,11,beads,critical,D,50,beads40.jpg,beads60.jpg,high,NULL
1687287421,4171f8367a9aac55a387ec7f301497e8,PennController,14,0,experiment,NULL,PennController,13,_Header_,Start,1687287334300,5db9e0044a8eb40431d5e782,5db9e0044a8eb40431d5e782,11,beads,critical,D,50,beads40.jpg,beads60.jpg,high,NULL
1687287421,4171f8367a9aac55a387ec7f301497e8,PennController,14,0,experiment,NULL,PennController,13,_Header_,End,1687287334300,5db9e0044a8eb40431d5e782,5db9e0044a8eb40431d5e782,11,beads,critical,D,50,beads40.jpg,beads60.jpg,high,NULL
1687287421,4171f8367a9aac55a387ec7f301497e8,PennController,14,0,experiment,NULL,Canvas,canvas6,Print,NA,1687287340984,5db9e0044a8eb40431d5e782,5db9e0044a8eb40431d5e782,11,beads,critical,D,50,beads40.jpg,beads60.jpg,high,NULL
1687287421,4171f8367a9aac55a387ec7f301497e8,PennController,14,0,experiment,NULL,Video,progression,buffer,0.002309,1687287337813,5db9e0044a8eb40431d5e782,5db9e0044a8eb40431d5e782,11,beads,critical,D,50,beads40.jpg,beads60.jpg,high,NULL
1687287421,4171f8367a9aac55a387ec7f301497e8,PennController,14,0,experiment,NULL,Selector,choice,Selection,option1,1687287343065,5db9e0044a8eb40431d5e782,5db9e0044a8eb40431d5e782,11,beads,critical,D,50,beads40.jpg,beads60.jpg,high,option1;option2
1687287421,4171f8367a9aac55a387ec7f301497e8,PennController,14,0,experiment,NULL,PennController,13,_Trial_,End,1687287343066,5db9e0044a8eb40431d5e782,5db9e0044a8eb40431d5e782,11,beads,critical,D,50,beads40.jpg,beads60.jpg,high,NULL
1687287421,4171f8367a9aac55a387ec7f301497e8,PennController,12,0,experiment,NULL,PennController,11,_Trial_,Start,1687287343067,5db9e0044a8eb40431d5e782,5db9e0044a8eb40431d5e782,9,cake,critical,D,75,cake66.jpg,cake84.jpg,high,NULL
1687287421,4171f8367a9aac55a387ec7f301497e8,PennController,12,0,experiment,NULL,PennController,11,_Header_,Start,1687287343067,5db9e0044a8eb40431d5e782,5db9e0044a8eb40431d5e782,9,cake,critical,D,75,cake66.jpg,cake84.jpg,high,NULL
1687287421,4171f8367a9aac55a387ec7f301497e8,PennController,12,0,experiment,NULL,PennController,11,_Header_,End,1687287343067,5db9e0044a8eb40431d5e782,5db9e0044a8eb40431d5e782,9,cake,critical,D,75,cake66.jpg,cake84.jpg,high,NULL
1687287421,4171f8367a9aac55a387ec7f301497e8,PennController,12,0,experiment,NULL,Canvas,canvas6,Print,NA,1687287352748,5db9e0044a8eb40431d5e782,5db9e0044a8eb40431d5e782,9,cake,critical,D,75,cake66.jpg,cake84.jpg,high,NULL
1687287421,4171f8367a9aac55a387ec7f301497e8,PennController,12,0,experiment,NULL,Video,progression,buffer,0.001696,1687287346585,5db9e0044a8eb40431d5e782,5db9e0044a8eb40431d5e782,9,cake,critical,D,75,cake66.jpg,cake84.jpg,high,NULL
1687287421,4171f8367a9aac55a387ec7f301497e8,PennController,12,0,experiment,NULL,Selector,choice,Selection,option1,1687287354523,5db9e0044a8eb40431d5e782,5db9e0044a8eb40431d5e782,9,cake,critical,D,75,cake66.jpg,cake84.jpg,high,option2;option1
1687287421,4171f8367a9aac55a387ec7f301497e8,PennController,12,0,experiment,NULL,PennController,11,_Trial_,End,1687287354524,5db9e0044a8eb40431d5e782,5db9e0044a8eb40431d5e782,9,cake,critical,D,75,cake66.jpg,cake84.jpg,high,NULL
1687287421,4171f8367a9aac55a387ec7f301497e8,PennController,19,0,experiment,NULL,PennController,18,_Trial_,Start,1687287354525,5db9e0044a8eb40431d5e782,5db9e0044a8eb40431d5e782,16,blinds,critical,D,25,blinds15.jpg,blinds33.jpg,high,NULL
1687287421,4171f8367a9aac55a387ec7f301497e8,PennController,19,0,experiment,NULL,PennController,18,_Header_,Start,1687287354525,5db9e0044a8eb40431d5e782,5db9e0044a8eb40431d5e782,16,blinds,critical,D,25,blinds15.jpg,blinds33.jpg,high,NULL
1687287421,4171f8367a9aac55a387ec7f301497e8,PennController,19,0,experiment,NULL,PennController,18,_Header_,End,1687287354525,5db9e0044a8eb40431d5e782,5db9e0044a8eb40431d5e782,16,blinds,critical,D,25,blinds15.jpg,blinds33.jpg,high,NULL
1687287421,4171f8367a9aac55a387ec7f301497e8,PennController,19,0,experiment,NULL,Canvas,canvas6,Print,NA,1687287360802,5db9e0044a8eb40431d5e782,5db9e0044a8eb40431d5e782,16,blinds,critical,D,25,blinds15.jpg,blinds33.jpg,high,NULL
1687287421,4171f8367a9aac55a387ec7f301497e8,PennController,19,0,experiment,NULL,Video,progression,buffer,0.002367,1687287358042,5db9e0044a8eb40431d5e782,5db9e0044a8eb40431d5e782,16,blinds,critical,D,25,blinds15.jpg,blinds33.jpg,high,NULL
1687287421,4171f8367a9aac55a387ec7f301497e8,PennController,19,0,experiment,NULL,Selector,choice,Selection,option1,1687287362044,5db9e0044a8eb40431d5e782,5db9e0044a8eb40431d5e782,16,blinds,critical,D,25,blinds15.jpg,blinds33.jpg,high,option2;option1
1687287421,4171f8367a9aac55a387ec7f301497e8,PennController,19,0,experiment,NULL,PennController,18,_Trial_,End,1687287362045,5db9e0044a8eb40431d5e782,5db9e0044a8eb40431d5e782,16,blinds,critical,D,25,blinds15.jpg,blinds33.jpg,high,NULL
1687287421,4171f8367a9aac55a387ec7f301497e8,PennController,5,0,experiment,NULL,PennController,4,_Trial_,Start,1687287362046,5db9e0044a8eb40431d5e782,5db9e0044a8eb40431d5e782,2,door,critical,D,50,door40.jpg,door60.jpg,high,NULL
1687287421,4171f8367a9aac55a387ec7f301497e8,PennController,5,0,experiment,NULL,PennController,4,_Header_,Start,1687287362046,5db9e0044a8eb40431d5e782,5db9e0044a8eb40431d5e782,2,door,critical,D,50,door40.jpg,door60.jpg,high,NULL
1687287421,4171f8367a9aac55a387ec7f301497e8,PennController,5,0,experiment,NULL,PennController,4,_Header_,End,1687287362046,5db9e0044a8eb40431d5e782,5db9e0044a8eb40431d5e782,2,door,critical,D,50,door40.jpg,door60.jpg,high,NULL
1687287421,4171f8367a9aac55a387ec7f301497e8,PennController,5,0,experiment,NULL,Canvas,canvas6,Print,NA,1687287368717,5db9e0044a8eb40431d5e782,5db9e0044a8eb40431d5e782,2,door,critical,D,50,door40.jpg,door60.jpg,high,NULL
1687287421,4171f8367a9aac55a387ec7f301497e8,PennController,5,0,experiment,NULL,Video,progression,buffer,0.001347,1687287365560,5db9e0044a8eb40431d5e782,5db9e0044a8eb40431d5e782,2,door,critical,D,50,door40.jpg,door60.jpg,high,NULL
1687287421,4171f8367a9aac55a387ec7f301497e8,PennController,5,0,experiment,NULL,Selector,choice,Selection,option2,1687287370639,5db9e0044a8eb40431d5e782,5db9e0044a8eb40431d5e782,2,door,critical,D,50,door40.jpg,door60.jpg,high,option2;option1
1687287421,4171f8367a9aac55a387ec7f301497e8,PennController,5,0,experiment,NULL,PennController,4,_Trial_,End,1687287370639,5db9e0044a8eb40431d5e782,5db9e0044a8eb40431d5e782,2,door,critical,D,50,door40.jpg,door60.jpg,high,NULL
1687287421,4171f8367a9aac55a387ec7f301497e8,PennController,20,0,experiment,NULL,PennController,19,_Trial_,Start,1687287370640,5db9e0044a8eb40431d5e782,5db9e0044a8eb40431d5e782,17,roll,critical,D,50,roll40.jpg,roll60.jpg,high,NULL
1687287421,4171f8367a9aac55a387ec7f301497e8,PennController,20,0,experiment,NULL,PennController,19,_Header_,Start,1687287370640,5db9e0044a8eb40431d5e782,5db9e0044a8eb40431d5e782,17,roll,critical,D,50,roll40.jpg,roll60.jpg,high,NULL
1687287421,4171f8367a9aac55a387ec7f301497e8,PennController,20,0,experiment,NULL,PennController,19,_Header_,End,1687287370640,5db9e0044a8eb40431d5e782,5db9e0044a8eb40431d5e782,17,roll,critical,D,50,roll40.jpg,roll60.jpg,high,NULL
1687287421,4171f8367a9aac55a387ec7f301497e8,PennController,20,0,experiment,NULL,Canvas,canvas6,Print,NA,1687287377320,5db9e0044a8eb40431d5e782,5db9e0044a8eb40431d5e782,17,roll,critical,D,50,roll40.jpg,roll60.jpg,high,NULL
1687287421,4171f8367a9aac55a387ec7f301497e8,PennController,20,0,experiment,NULL,Video,progression,buffer,0.001724,1687287374155,5db9e0044a8eb40431d5e782,5db9e0044a8eb40431d5e782,17,roll,critical,D,50,roll40.jpg,roll60.jpg,high,NULL
1687287421,4171f8367a9aac55a387ec7f301497e8,PennController,20,0,experiment,NULL,Selector,choice,Selection,option1,1687287378850,5db9e0044a8eb40431d5e782,5db9e0044a8eb40431d5e782,17,roll,critical,D,50,roll40.jpg,roll60.jpg,high,option2;option1
1687287421,4171f8367a9aac55a387ec7f301497e8,PennController,20,0,experiment,NULL,PennController,19,_Trial_,End,1687287378851,5db9e0044a8eb40431d5e782,5db9e0044a8eb40431d5e782,17,roll,critical,D,50,roll40.jpg,roll60.jpg,high,NULL
1687287421,4171f8367a9aac55a387ec7f301497e8,PennController,17,0,experiment,NULL,PennController,16,_Trial_,Start,1687287378851,5db9e0044a8eb40431d5e782,5db9e0044a8eb40431d5e782,14,cover,critical,D,50,cover42.jpg,cover60.jpg,high,NULL
1687287421,4171f8367a9aac55a387ec7f301497e8,PennController,17,0,experiment,NULL,PennController,16,_Header_,Start,1687287378851,5db9e0044a8eb40431d5e782,5db9e0044a8eb40431d5e782,14,cover,critical,D,50,cover42.jpg,cover60.jpg,high,NULL
1687287421,4171f8367a9aac55a387ec7f301497e8,PennController,17,0,experiment,NULL,PennController,16,_Header_,End,1687287378851,5db9e0044a8eb40431d5e782,5db9e0044a8eb40431d5e782,14,cover,critical,D,50,cover42.jpg,cover60.jpg,high,NULL
1687287421,4171f8367a9aac55a387ec7f301497e8,PennController,17,0,experiment,NULL,Canvas,canvas6,Print,NA,1687287386934,5db9e0044a8eb40431d5e782,5db9e0044a8eb40431d5e782,14,cover,critical,D,50,cover42.jpg,cover60.jpg,high,NULL
1687287421,4171f8367a9aac55a387ec7f301497e8,PennController,17,0,experiment,NULL,Video,progression,buffer,0.002772,1687287382367,5db9e0044a8eb40431d5e782,5db9e0044a8eb40431d5e782,14,cover,critical,D,50,cover42.jpg,cover60.jpg,high,NULL
1687287421,4171f8367a9aac55a387ec7f301497e8,PennController,17,0,experiment,NULL,Selector,choice,Selection,option1,1687287387884,5db9e0044a8eb40431d5e782,5db9e0044a8eb40431d5e782,14,cover,critical,D,50,cover42.jpg,cover60.jpg,high,option2;option1
1687287421,4171f8367a9aac55a387ec7f301497e8,PennController,17,0,experiment,NULL,PennController,16,_Trial_,End,1687287387885,5db9e0044a8eb40431d5e782,5db9e0044a8eb40431d5e782,14,cover,critical,D,50,cover42.jpg,cover60.jpg,high,NULL
1687287421,4171f8367a9aac55a387ec7f301497e8,PennController,23,0,experiment,NULL,PennController,22,_Trial_,Start,1687287387886,5db9e0044a8eb40431d5e782,5db9e0044a8eb40431d5e782,20,cat,filler,D,50,cat40.jpg,cat60.jpg,GoalA,NULL
1687287421,4171f8367a9aac55a387ec7f301497e8,PennController,23,0,experiment,NULL,PennController,22,_Header_,Start,1687287387886,5db9e0044a8eb40431d5e782,5db9e0044a8eb40431d5e782,20,cat,filler,D,50,cat40.jpg,cat60.jpg,GoalA,NULL
1687287421,4171f8367a9aac55a387ec7f301497e8,PennController,23,0,experiment,NULL,PennController,22,_Header_,End,1687287387886,5db9e0044a8eb40431d5e782,5db9e0044a8eb40431d5e782,20,cat,filler,D,50,cat40.jpg,cat60.jpg,GoalA,NULL
1687287421,4171f8367a9aac55a387ec7f301497e8,PennController,23,0,experiment,NULL,Canvas,canvas6,Print,NA,1687287394568,5db9e0044a8eb40431d5e782,5db9e0044a8eb40431d5e782,20,cat,filler,D,50,cat40.jpg,cat60.jpg,GoalA,NULL
1687287421,4171f8367a9aac55a387ec7f301497e8,PennController,23,0,experiment,NULL,Video,progression,buffer,0.001468,1687287391400,5db9e0044a8eb40431d5e782,5db9e0044a8eb40431d5e782,20,cat,filler,D,50,cat40.jpg,cat60.jpg,GoalA,NULL
1687287421,4171f8367a9aac55a387ec7f301497e8,PennController,23,0,experiment,NULL,Selector,choice,Selection,option1,1687287397019,5db9e0044a8eb40431d5e782,5db9e0044a8eb40431d5e782,20,cat,filler,D,50,cat40.jpg,cat60.jpg,GoalA,option2;option1
1687287421,4171f8367a9aac55a387ec7f301497e8,PennController,23,0,experiment,NULL,PennController,22,_Trial_,End,1687287397020,5db9e0044a8eb40431d5e782,5db9e0044a8eb40431d5e782,20,cat,filler,D,50,cat40.jpg,cat60.jpg,GoalA,NULL
1687287421,4171f8367a9aac55a387ec7f301497e8,PennController,10,0,experiment,NULL,PennController,9,_Trial_,Start,1687287397021,5db9e0044a8eb40431d5e782,5db9e0044a8eb40431d5e782,7,stack,critical,D,25,stack15.jpg,stack35.jpg,high,NULL
1687287421,4171f8367a9aac55a387ec7f301497e8,PennController,10,0,experiment,NULL,PennController,9,_Header_,Start,1687287397021,5db9e0044a8eb40431d5e782,5db9e0044a8eb40431d5e782,7,stack,critical,D,25,stack15.jpg,stack35.jpg,high,NULL
1687287421,4171f8367a9aac55a387ec7f301497e8,PennController,10,0,experiment,NULL,PennController,9,_Header_,End,1687287397021,5db9e0044a8eb40431d5e782,5db9e0044a8eb40431d5e782,7,stack,critical,D,25,stack15.jpg,stack35.jpg,high,NULL
1687287421,4171f8367a9aac55a387ec7f301497e8,PennController,10,0,experiment,NULL,Canvas,canvas6,Print,NA,1687287402704,5db9e0044a8eb40431d5e782,5db9e0044a8eb40431d5e782,7,stack,critical,D,25,stack15.jpg,stack35.jpg,high,NULL
1687287421,4171f8367a9aac55a387ec7f301497e8,PennController,10,0,experiment,NULL,Video,progression,buffer,0.003093,1687287400537,5db9e0044a8eb40431d5e782,5db9e0044a8eb40431d5e782,7,stack,critical,D,25,stack15.jpg,stack35.jpg,high,NULL
1687287421,4171f8367a9aac55a387ec7f301497e8,PennController,10,0,experiment,NULL,Selector,choice,Selection,option1,1687287404438,5db9e0044a8eb40431d5e782,5db9e0044a8eb40431d5e782,7,stack,critical,D,25,stack15.jpg,stack35.jpg,high,option2;option1
1687287421,4171f8367a9aac55a387ec7f301497e8,PennController,10,0,experiment,NULL,PennController,9,_Trial_,End,1687287404439,5db9e0044a8eb40431d5e782,5db9e0044a8eb40431d5e782,7,stack,critical,D,25,stack15.jpg,stack35.jpg,high,NULL
1687287421,4171f8367a9aac55a387ec7f301497e8,PennController,11,0,experiment,NULL,PennController,10,_Trial_,Start,1687287404439,5db9e0044a8eb40431d5e782,5db9e0044a8eb40431d5e782,8,cucumber,critical,D,50,cucumber42.jpg,cucumber60.jpg,high,NULL
1687287421,4171f8367a9aac55a387ec7f301497e8,PennController,11,0,experiment,NULL,PennController,10,_Header_,Start,1687287404439,5db9e0044a8eb40431d5e782,5db9e0044a8eb40431d5e782,8,cucumber,critical,D,50,cucumber42.jpg,cucumber60.jpg,high,NULL
1687287421,4171f8367a9aac55a387ec7f301497e8,PennController,11,0,experiment,NULL,PennController,10,_Header_,End,1687287404440,5db9e0044a8eb40431d5e782,5db9e0044a8eb40431d5e782,8,cucumber,critical,D,50,cucumber42.jpg,cucumber60.jpg,high,NULL
1687287421,4171f8367a9aac55a387ec7f301497e8,PennController,11,0,experiment,NULL,Canvas,canvas6,Print,NA,1687287412519,5db9e0044a8eb40431d5e782,5db9e0044a8eb40431d5e782,8,cucumber,critical,D,50,cucumber42.jpg,cucumber60.jpg,high,NULL
1687287421,4171f8367a9aac55a387ec7f301497e8,PennController,11,0,experiment,NULL,Video,progression,buffer,0.00206,1687287407951,5db9e0044a8eb40431d5e782,5db9e0044a8eb40431d5e782,8,cucumber,critical,D,50,cucumber42.jpg,cucumber60.jpg,high,NULL
1687287421,4171f8367a9aac55a387ec7f301497e8,PennController,11,0,experiment,NULL,Selector,choice,Selection,option1,1687287414253,5db9e0044a8eb40431d5e782,5db9e0044a8eb40431d5e782,8,cucumber,critical,D,50,cucumber42.jpg,cucumber60.jpg,high,option2;option1
1687287421,4171f8367a9aac55a387ec7f301497e8,PennController,11,0,experiment,NULL,PennController,10,_Trial_,End,1687287414254,5db9e0044a8eb40431d5e782,5db9e0044a8eb40431d5e782,8,cucumber,critical,D,50,cucumber42.jpg,cucumber60.jpg,high,NULL
1687287421,4171f8367a9aac55a387ec7f301497e8,PennController,16,0,experiment,NULL,PennController,15,_Trial_,Start,1687287414255,5db9e0044a8eb40431d5e782,5db9e0044a8eb40431d5e782,13,mix,critical,D,25,mix15.jpg,mix35.jpg,high,NULL
1687287421,4171f8367a9aac55a387ec7f301497e8,PennController,16,0,experiment,NULL,PennController,15,_Header_,Start,1687287414255,5db9e0044a8eb40431d5e782,5db9e0044a8eb40431d5e782,13,mix,critical,D,25,mix15.jpg,mix35.jpg,high,NULL
1687287421,4171f8367a9aac55a387ec7f301497e8,PennController,16,0,experiment,NULL,PennController,15,_Header_,End,1687287414255,5db9e0044a8eb40431d5e782,5db9e0044a8eb40431d5e782,13,mix,critical,D,25,mix15.jpg,mix35.jpg,high,NULL
1687287421,4171f8367a9aac55a387ec7f301497e8,PennController,16,0,experiment,NULL,Canvas,canvas6,Print,NA,1687287419917,5db9e0044a8eb40431d5e782,5db9e0044a8eb40431d5e782,13,mix,critical,D,25,mix15.jpg,mix35.jpg,high,NULL
1687287421,4171f8367a9aac55a387ec7f301497e8,PennController,16,0,experiment,NULL,Video,progression,buffer,0.00213,1687287417764,5db9e0044a8eb40431d5e782,5db9e0044a8eb40431d5e782,13,mix,critical,D,25,mix15.jpg,mix35.jpg,high,NULL
1687287421,4171f8367a9aac55a387ec7f301497e8,PennController,16,0,experiment,NULL,Selector,choice,Selection,option1,1687287421346,5db9e0044a8eb40431d5e782,5db9e0044a8eb40431d5e782,13,mix,critical,D,25,mix15.jpg,mix35.jpg,high,option1;option2
1687287421,4171f8367a9aac55a387ec7f301497e8,PennController,16,0,experiment,NULL,PennController,15,_Trial_,End,1687287421347,5db9e0044a8eb40431d5e782,5db9e0044a8eb40431d5e782,13,mix,critical,D,25,mix15.jpg,mix35.jpg,high,NULL
