#
# Results on Tuesday June 20 2023 19:12:35 UTC
# USER AGENT: Mozilla/5.0 (Windows NT 10.0; Win64; x64) AppleWebKit/537.36 (KHTML, like Gecko) Chrome/114.0.0.0 Safari/537.36
# Design number was non-random = 56
#
# Columns below this comment are as follows:
# 1. Results reception time.
# 2. MD5 hash of participant's IP address.
# 3. Controller name.
# 4. Order number of item.
# 5. Inner element number.
# 6. Label.
# 7. Latin Square Group.
# 8. PennElementType.
# 9. PennElementName.
# 10. Parameter.
# 11. Value.
# 12. EventTime.
# 13. PROLIFIC_ID.
# 14. Comments.
1687288355,0f1515108a0e5953fe2dc069b644bbdf,PennController,2,0,consent,NULL,PennController,0,_Trial_,Start,1687288021440,612110456899ed64c754d95d,NULL
1687288355,0f1515108a0e5953fe2dc069b644bbdf,PennController,2,0,consent,NULL,PennController,0,_Header_,Start,1687288021441,612110456899ed64c754d95d,NULL
1687288355,0f1515108a0e5953fe2dc069b644bbdf,PennController,2,0,consent,NULL,PennController,0,_Header_,End,1687288021441,612110456899ed64c754d95d,NULL
1687288355,0f1515108a0e5953fe2dc069b644bbdf,PennController,2,0,consent,NULL,PennController,0,_Trial_,End,1687288042750,612110456899ed64c754d95d,NULL
# Columns below this comment are as follows:
# 14. ID.
# 15. Comments.
1687288355,0f1515108a0e5953fe2dc069b644bbdf,PennController,3,0,intro,NULL,PennController,1,_Trial_,Start,1687288042761,612110456899ed64c754d95d,612110456899ed64c754d95d,NULL
1687288355,0f1515108a0e5953fe2dc069b644bbdf,PennController,3,0,intro,NULL,PennController,1,_Header_,Start,1687288042761,612110456899ed64c754d95d,612110456899ed64c754d95d,NULL
1687288355,0f1515108a0e5953fe2dc069b644bbdf,PennController,3,0,intro,NULL,PennController,1,_Header_,End,1687288042761,612110456899ed64c754d95d,612110456899ed64c754d95d,NULL
1687288355,0f1515108a0e5953fe2dc069b644bbdf,PennController,3,0,intro,NULL,PennController,1,_Trial_,End,1687288061746,612110456899ed64c754d95d,612110456899ed64c754d95d,NULL
# Columns below this comment are as follows:
# 15. item_number.
# 16. item.
# 17. type.
# 18. Group.
# 19. prog.
# 20. prev_image.
# 21. next_image.
# 22. height.
# 23. Comments.
1687288355,0f1515108a0e5953fe2dc069b644bbdf,PennController,20,0,experiment,NULL,PennController,19,_Trial_,Start,1687288061751,612110456899ed64c754d95d,612110456899ed64c754d95d,17,roll,critical,C,25,roll15.jpg,roll35.jpg,low,NULL
1687288355,0f1515108a0e5953fe2dc069b644bbdf,PennController,20,0,experiment,NULL,PennController,19,_Header_,Start,1687288061751,612110456899ed64c754d95d,612110456899ed64c754d95d,17,roll,critical,C,25,roll15.jpg,roll35.jpg,low,NULL
1687288355,0f1515108a0e5953fe2dc069b644bbdf,PennController,20,0,experiment,NULL,PennController,19,_Header_,End,1687288061751,612110456899ed64c754d95d,612110456899ed64c754d95d,17,roll,critical,C,25,roll15.jpg,roll35.jpg,low,NULL
1687288355,0f1515108a0e5953fe2dc069b644bbdf,PennController,20,0,experiment,NULL,Canvas,canvas6,Print,NA,1687288067553,612110456899ed64c754d95d,612110456899ed64c754d95d,17,roll,critical,C,25,roll15.jpg,roll35.jpg,low,NULL
1687288355,0f1515108a0e5953fe2dc069b644bbdf,PennController,20,0,experiment,NULL,Video,progression,buffer,0.017177,1687288065362,612110456899ed64c754d95d,612110456899ed64c754d95d,17,roll,critical,C,25,roll15.jpg,roll35.jpg,low,NULL
1687288355,0f1515108a0e5953fe2dc069b644bbdf,PennController,20,0,experiment,NULL,Selector,choice,Selection,option2,1687288072460,612110456899ed64c754d95d,612110456899ed64c754d95d,17,roll,critical,C,25,roll15.jpg,roll35.jpg,low,option1;option2
1687288355,0f1515108a0e5953fe2dc069b644bbdf,PennController,20,0,experiment,NULL,PennController,19,_Trial_,End,1687288072474,612110456899ed64c754d95d,612110456899ed64c754d95d,17,roll,critical,C,25,roll15.jpg,roll35.jpg,low,NULL
1687288355,0f1515108a0e5953fe2dc069b644bbdf,PennController,26,0,experiment,NULL,PennController,25,_Trial_,Start,1687288072480,612110456899ed64c754d95d,612110456899ed64c754d95d,23,color,filler,C,25,color15.jpg,color35.jpg,GoalA,NULL
1687288355,0f1515108a0e5953fe2dc069b644bbdf,PennController,26,0,experiment,NULL,PennController,25,_Header_,Start,1687288072480,612110456899ed64c754d95d,612110456899ed64c754d95d,23,color,filler,C,25,color15.jpg,color35.jpg,GoalA,NULL
1687288355,0f1515108a0e5953fe2dc069b644bbdf,PennController,26,0,experiment,NULL,PennController,25,_Header_,End,1687288072480,612110456899ed64c754d95d,612110456899ed64c754d95d,23,color,filler,C,25,color15.jpg,color35.jpg,GoalA,NULL
1687288355,0f1515108a0e5953fe2dc069b644bbdf,PennController,26,0,experiment,NULL,Canvas,canvas6,Print,NA,1687288078226,612110456899ed64c754d95d,612110456899ed64c754d95d,23,color,filler,C,25,color15.jpg,color35.jpg,GoalA,NULL
1687288355,0f1515108a0e5953fe2dc069b644bbdf,PennController,26,0,experiment,NULL,Video,progression,buffer,0.018945,1687288076053,612110456899ed64c754d95d,612110456899ed64c754d95d,23,color,filler,C,25,color15.jpg,color35.jpg,GoalA,NULL
1687288355,0f1515108a0e5953fe2dc069b644bbdf,PennController,26,0,experiment,NULL,Selector,choice,Selection,option2,1687288080662,612110456899ed64c754d95d,612110456899ed64c754d95d,23,color,filler,C,25,color15.jpg,color35.jpg,GoalA,option2;option1
1687288355,0f1515108a0e5953fe2dc069b644bbdf,PennController,26,0,experiment,NULL,PennController,25,_Trial_,End,1687288080669,612110456899ed64c754d95d,612110456899ed64c754d95d,23,color,filler,C,25,color15.jpg,color35.jpg,GoalA,NULL
1687288355,0f1515108a0e5953fe2dc069b644bbdf,PennController,6,0,experiment,NULL,PennController,5,_Trial_,Start,1687288080682,612110456899ed64c754d95d,612110456899ed64c754d95d,3,clean,critical,C,50,clean40.jpg,clean60.jpg,low,NULL
1687288355,0f1515108a0e5953fe2dc069b644bbdf,PennController,6,0,experiment,NULL,PennController,5,_Header_,Start,1687288080682,612110456899ed64c754d95d,612110456899ed64c754d95d,3,clean,critical,C,50,clean40.jpg,clean60.jpg,low,NULL
1687288355,0f1515108a0e5953fe2dc069b644bbdf,PennController,6,0,experiment,NULL,PennController,5,_Header_,End,1687288080682,612110456899ed64c754d95d,612110456899ed64c754d95d,3,clean,critical,C,50,clean40.jpg,clean60.jpg,low,NULL
1687288355,0f1515108a0e5953fe2dc069b644bbdf,PennController,6,0,experiment,NULL,Canvas,canvas6,Print,NA,1687288087428,612110456899ed64c754d95d,612110456899ed64c754d95d,3,clean,critical,C,50,clean40.jpg,clean60.jpg,low,NULL
1687288355,0f1515108a0e5953fe2dc069b644bbdf,PennController,6,0,experiment,NULL,Video,progression,buffer,0.048369,1687288084301,612110456899ed64c754d95d,612110456899ed64c754d95d,3,clean,critical,C,50,clean40.jpg,clean60.jpg,low,NULL
1687288355,0f1515108a0e5953fe2dc069b644bbdf,PennController,6,0,experiment,NULL,Selector,choice,Selection,option2,1687288089282,612110456899ed64c754d95d,612110456899ed64c754d95d,3,clean,critical,C,50,clean40.jpg,clean60.jpg,low,option2;option1
1687288355,0f1515108a0e5953fe2dc069b644bbdf,PennController,6,0,experiment,NULL,PennController,5,_Trial_,End,1687288089288,612110456899ed64c754d95d,612110456899ed64c754d95d,3,clean,critical,C,50,clean40.jpg,clean60.jpg,low,NULL
1687288355,0f1515108a0e5953fe2dc069b644bbdf,PennController,22,0,experiment,NULL,PennController,21,_Trial_,Start,1687288089297,612110456899ed64c754d95d,612110456899ed64c754d95d,19,cup,filler,C,75,cup65.jpg,cup85.jpg,GoalA,NULL
1687288355,0f1515108a0e5953fe2dc069b644bbdf,PennController,22,0,experiment,NULL,PennController,21,_Header_,Start,1687288089297,612110456899ed64c754d95d,612110456899ed64c754d95d,19,cup,filler,C,75,cup65.jpg,cup85.jpg,GoalA,NULL
1687288355,0f1515108a0e5953fe2dc069b644bbdf,PennController,22,0,experiment,NULL,PennController,21,_Header_,End,1687288089297,612110456899ed64c754d95d,612110456899ed64c754d95d,19,cup,filler,C,75,cup65.jpg,cup85.jpg,GoalA,NULL
1687288355,0f1515108a0e5953fe2dc069b644bbdf,PennController,22,0,experiment,NULL,Canvas,canvas6,Print,NA,1687288097033,612110456899ed64c754d95d,612110456899ed64c754d95d,19,cup,filler,C,75,cup65.jpg,cup85.jpg,GoalA,NULL
1687288355,0f1515108a0e5953fe2dc069b644bbdf,PennController,22,0,experiment,NULL,Video,progression,buffer,0.029747,1687288092881,612110456899ed64c754d95d,612110456899ed64c754d95d,19,cup,filler,C,75,cup65.jpg,cup85.jpg,GoalA,NULL
1687288355,0f1515108a0e5953fe2dc069b644bbdf,PennController,22,0,experiment,NULL,Selector,choice,Selection,option2,1687288099626,612110456899ed64c754d95d,612110456899ed64c754d95d,19,cup,filler,C,75,cup65.jpg,cup85.jpg,GoalA,option1;option2
1687288355,0f1515108a0e5953fe2dc069b644bbdf,PennController,22,0,experiment,NULL,PennController,21,_Trial_,End,1687288099628,612110456899ed64c754d95d,612110456899ed64c754d95d,19,cup,filler,C,75,cup65.jpg,cup85.jpg,GoalA,NULL
1687288355,0f1515108a0e5953fe2dc069b644bbdf,PennController,5,0,experiment,NULL,PennController,4,_Trial_,Start,1687288099631,612110456899ed64c754d95d,612110456899ed64c754d95d,2,door,critical,C,25,door15.jpg,door35.jpg,low,NULL
1687288355,0f1515108a0e5953fe2dc069b644bbdf,PennController,5,0,experiment,NULL,PennController,4,_Header_,Start,1687288099631,612110456899ed64c754d95d,612110456899ed64c754d95d,2,door,critical,C,25,door15.jpg,door35.jpg,low,NULL
1687288355,0f1515108a0e5953fe2dc069b644bbdf,PennController,5,0,experiment,NULL,PennController,4,_Header_,End,1687288099631,612110456899ed64c754d95d,612110456899ed64c754d95d,2,door,critical,C,25,door15.jpg,door35.jpg,low,NULL
1687288355,0f1515108a0e5953fe2dc069b644bbdf,PennController,5,0,experiment,NULL,Canvas,canvas6,Print,NA,1687288105365,612110456899ed64c754d95d,612110456899ed64c754d95d,2,door,critical,C,25,door15.jpg,door35.jpg,low,NULL
1687288355,0f1515108a0e5953fe2dc069b644bbdf,PennController,5,0,experiment,NULL,Video,progression,buffer,0.002637,1687288103187,612110456899ed64c754d95d,612110456899ed64c754d95d,2,door,critical,C,25,door15.jpg,door35.jpg,low,NULL
1687288355,0f1515108a0e5953fe2dc069b644bbdf,PennController,5,0,experiment,NULL,Selector,choice,Selection,option1,1687288111098,612110456899ed64c754d95d,612110456899ed64c754d95d,2,door,critical,C,25,door15.jpg,door35.jpg,low,option2;option1
1687288355,0f1515108a0e5953fe2dc069b644bbdf,PennController,5,0,experiment,NULL,PennController,4,_Trial_,End,1687288111105,612110456899ed64c754d95d,612110456899ed64c754d95d,2,door,critical,C,25,door15.jpg,door35.jpg,low,NULL
1687288355,0f1515108a0e5953fe2dc069b644bbdf,PennController,18,0,experiment,NULL,PennController,17,_Trial_,Start,1687288111113,612110456899ed64c754d95d,612110456899ed64c754d95d,15,zip,critical,C,50,zip40.jpg,zip60.jpg,low,NULL
1687288355,0f1515108a0e5953fe2dc069b644bbdf,PennController,18,0,experiment,NULL,PennController,17,_Header_,Start,1687288111113,612110456899ed64c754d95d,612110456899ed64c754d95d,15,zip,critical,C,50,zip40.jpg,zip60.jpg,low,NULL
1687288355,0f1515108a0e5953fe2dc069b644bbdf,PennController,18,0,experiment,NULL,PennController,17,_Header_,End,1687288111113,612110456899ed64c754d95d,612110456899ed64c754d95d,15,zip,critical,C,50,zip40.jpg,zip60.jpg,low,NULL
1687288355,0f1515108a0e5953fe2dc069b644bbdf,PennController,18,0,experiment,NULL,Canvas,canvas6,Print,NA,1687288117846,612110456899ed64c754d95d,612110456899ed64c754d95d,15,zip,critical,C,50,zip40.jpg,zip60.jpg,low,NULL
1687288355,0f1515108a0e5953fe2dc069b644bbdf,PennController,18,0,experiment,NULL,Video,progression,buffer,0.010996,1687288114664,612110456899ed64c754d95d,612110456899ed64c754d95d,15,zip,critical,C,50,zip40.jpg,zip60.jpg,low,NULL
1687288355,0f1515108a0e5953fe2dc069b644bbdf,PennController,18,0,experiment,NULL,Selector,choice,Selection,option1,1687288119494,612110456899ed64c754d95d,612110456899ed64c754d95d,15,zip,critical,C,50,zip40.jpg,zip60.jpg,low,option2;option1
1687288355,0f1515108a0e5953fe2dc069b644bbdf,PennController,18,0,experiment,NULL,PennController,17,_Trial_,End,1687288119497,612110456899ed64c754d95d,612110456899ed64c754d95d,15,zip,critical,C,50,zip40.jpg,zip60.jpg,low,NULL
1687288355,0f1515108a0e5953fe2dc069b644bbdf,PennController,8,0,experiment,NULL,PennController,7,_Trial_,Start,1687288119498,612110456899ed64c754d95d,612110456899ed64c754d95d,5,book,critical,C,25,book15.jpg,book35.jpg,low,NULL
1687288355,0f1515108a0e5953fe2dc069b644bbdf,PennController,8,0,experiment,NULL,PennController,7,_Header_,Start,1687288119498,612110456899ed64c754d95d,612110456899ed64c754d95d,5,book,critical,C,25,book15.jpg,book35.jpg,low,NULL
1687288355,0f1515108a0e5953fe2dc069b644bbdf,PennController,8,0,experiment,NULL,PennController,7,_Header_,End,1687288119498,612110456899ed64c754d95d,612110456899ed64c754d95d,5,book,critical,C,25,book15.jpg,book35.jpg,low,NULL
1687288355,0f1515108a0e5953fe2dc069b644bbdf,PennController,8,0,experiment,NULL,Canvas,canvas6,Print,NA,1687288125262,612110456899ed64c754d95d,612110456899ed64c754d95d,5,book,critical,C,25,book15.jpg,book35.jpg,low,NULL
1687288355,0f1515108a0e5953fe2dc069b644bbdf,PennController,8,0,experiment,NULL,Video,progression,buffer,0.009114,1687288123081,612110456899ed64c754d95d,612110456899ed64c754d95d,5,book,critical,C,25,book15.jpg,book35.jpg,low,NULL
1687288355,0f1515108a0e5953fe2dc069b644bbdf,PennController,8,0,experiment,NULL,Selector,choice,Selection,option2,1687288128487,612110456899ed64c754d95d,612110456899ed64c754d95d,5,book,critical,C,25,book15.jpg,book35.jpg,low,option1;option2
1687288355,0f1515108a0e5953fe2dc069b644bbdf,PennController,8,0,experiment,NULL,PennController,7,_Trial_,End,1687288128495,612110456899ed64c754d95d,612110456899ed64c754d95d,5,book,critical,C,25,book15.jpg,book35.jpg,low,NULL
1687288355,0f1515108a0e5953fe2dc069b644bbdf,PennController,10,0,experiment,NULL,PennController,9,_Trial_,Start,1687288128500,612110456899ed64c754d95d,612110456899ed64c754d95d,7,stack,critical,C,75,stack65.jpg,stack85.jpg,low,NULL
1687288355,0f1515108a0e5953fe2dc069b644bbdf,PennController,10,0,experiment,NULL,PennController,9,_Header_,Start,1687288128500,612110456899ed64c754d95d,612110456899ed64c754d95d,7,stack,critical,C,75,stack65.jpg,stack85.jpg,low,NULL
1687288355,0f1515108a0e5953fe2dc069b644bbdf,PennController,10,0,experiment,NULL,PennController,9,_Header_,End,1687288128500,612110456899ed64c754d95d,612110456899ed64c754d95d,7,stack,critical,C,75,stack65.jpg,stack85.jpg,low,NULL
1687288355,0f1515108a0e5953fe2dc069b644bbdf,PennController,10,0,experiment,NULL,Canvas,canvas6,Print,NA,1687288136262,612110456899ed64c754d95d,612110456899ed64c754d95d,7,stack,critical,C,75,stack65.jpg,stack85.jpg,low,NULL
1687288355,0f1515108a0e5953fe2dc069b644bbdf,PennController,10,0,experiment,NULL,Video,progression,buffer,0.034201,1687288132098,612110456899ed64c754d95d,612110456899ed64c754d95d,7,stack,critical,C,75,stack65.jpg,stack85.jpg,low,NULL
1687288355,0f1515108a0e5953fe2dc069b644bbdf,PennController,10,0,experiment,NULL,Selector,choice,Selection,option2,1687288144219,612110456899ed64c754d95d,612110456899ed64c754d95d,7,stack,critical,C,75,stack65.jpg,stack85.jpg,low,option1;option2
1687288355,0f1515108a0e5953fe2dc069b644bbdf,PennController,10,0,experiment,NULL,PennController,9,_Trial_,End,1687288144222,612110456899ed64c754d95d,612110456899ed64c754d95d,7,stack,critical,C,75,stack65.jpg,stack85.jpg,low,NULL
1687288355,0f1515108a0e5953fe2dc069b644bbdf,PennController,23,0,experiment,NULL,PennController,22,_Trial_,Start,1687288144228,612110456899ed64c754d95d,612110456899ed64c754d95d,20,cat,filler,C,25,cat15.jpg,cat35.jpg,GoalB,NULL
1687288355,0f1515108a0e5953fe2dc069b644bbdf,PennController,23,0,experiment,NULL,PennController,22,_Header_,Start,1687288144228,612110456899ed64c754d95d,612110456899ed64c754d95d,20,cat,filler,C,25,cat15.jpg,cat35.jpg,GoalB,NULL
1687288355,0f1515108a0e5953fe2dc069b644bbdf,PennController,23,0,experiment,NULL,PennController,22,_Header_,End,1687288144228,612110456899ed64c754d95d,612110456899ed64c754d95d,20,cat,filler,C,25,cat15.jpg,cat35.jpg,GoalB,NULL
1687288355,0f1515108a0e5953fe2dc069b644bbdf,PennController,23,0,experiment,NULL,Canvas,canvas6,Print,NA,1687288149961,612110456899ed64c754d95d,612110456899ed64c754d95d,20,cat,filler,C,25,cat15.jpg,cat35.jpg,GoalB,NULL
1687288355,0f1515108a0e5953fe2dc069b644bbdf,PennController,23,0,experiment,NULL,Video,progression,buffer,0.027725,1687288147806,612110456899ed64c754d95d,612110456899ed64c754d95d,20,cat,filler,C,25,cat15.jpg,cat35.jpg,GoalB,NULL
1687288355,0f1515108a0e5953fe2dc069b644bbdf,PennController,23,0,experiment,NULL,Selector,choice,Selection,option2,1687288151665,612110456899ed64c754d95d,612110456899ed64c754d95d,20,cat,filler,C,25,cat15.jpg,cat35.jpg,GoalB,option1;option2
1687288355,0f1515108a0e5953fe2dc069b644bbdf,PennController,23,0,experiment,NULL,PennController,22,_Trial_,End,1687288151667,612110456899ed64c754d95d,612110456899ed64c754d95d,20,cat,filler,C,25,cat15.jpg,cat35.jpg,GoalB,NULL
1687288355,0f1515108a0e5953fe2dc069b644bbdf,PennController,24,0,experiment,NULL,PennController,23,_Trial_,Start,1687288151669,612110456899ed64c754d95d,612110456899ed64c754d95d,21,visit,filler,C,50,visit40.jpg,visit60.jpg,GoalA,NULL
1687288355,0f1515108a0e5953fe2dc069b644bbdf,PennController,24,0,experiment,NULL,PennController,23,_Header_,Start,1687288151669,612110456899ed64c754d95d,612110456899ed64c754d95d,21,visit,filler,C,50,visit40.jpg,visit60.jpg,GoalA,NULL
1687288355,0f1515108a0e5953fe2dc069b644bbdf,PennController,24,0,experiment,NULL,PennController,23,_Header_,End,1687288151669,612110456899ed64c754d95d,612110456899ed64c754d95d,21,visit,filler,C,50,visit40.jpg,visit60.jpg,GoalA,NULL
1687288355,0f1515108a0e5953fe2dc069b644bbdf,PennController,24,0,experiment,NULL,Canvas,canvas6,Print,NA,1687288158434,612110456899ed64c754d95d,612110456899ed64c754d95d,21,visit,filler,C,50,visit40.jpg,visit60.jpg,GoalA,NULL
1687288355,0f1515108a0e5953fe2dc069b644bbdf,PennController,24,0,experiment,NULL,Video,progression,buffer,0.012023,1687288155260,612110456899ed64c754d95d,612110456899ed64c754d95d,21,visit,filler,C,50,visit40.jpg,visit60.jpg,GoalA,NULL
1687288355,0f1515108a0e5953fe2dc069b644bbdf,PennController,24,0,experiment,NULL,Selector,choice,Selection,option1,1687288162995,612110456899ed64c754d95d,612110456899ed64c754d95d,21,visit,filler,C,50,visit40.jpg,visit60.jpg,GoalA,option1;option2
1687288355,0f1515108a0e5953fe2dc069b644bbdf,PennController,24,0,experiment,NULL,PennController,23,_Trial_,End,1687288162998,612110456899ed64c754d95d,612110456899ed64c754d95d,21,visit,filler,C,50,visit40.jpg,visit60.jpg,GoalA,NULL
1687288355,0f1515108a0e5953fe2dc069b644bbdf,PennController,27,0,experiment,NULL,PennController,26,_Trial_,Start,1687288163001,612110456899ed64c754d95d,612110456899ed64c754d95d,24,match,filler,C,50,match40.jpg,match60.jpg,GoalB,NULL
1687288355,0f1515108a0e5953fe2dc069b644bbdf,PennController,27,0,experiment,NULL,PennController,26,_Header_,Start,1687288163001,612110456899ed64c754d95d,612110456899ed64c754d95d,24,match,filler,C,50,match40.jpg,match60.jpg,GoalB,NULL
1687288355,0f1515108a0e5953fe2dc069b644bbdf,PennController,27,0,experiment,NULL,PennController,26,_Header_,End,1687288163001,612110456899ed64c754d95d,612110456899ed64c754d95d,24,match,filler,C,50,match40.jpg,match60.jpg,GoalB,NULL
1687288355,0f1515108a0e5953fe2dc069b644bbdf,PennController,27,0,experiment,NULL,Canvas,canvas6,Print,NA,1687288169709,612110456899ed64c754d95d,612110456899ed64c754d95d,24,match,filler,C,50,match40.jpg,match60.jpg,GoalB,NULL
1687288355,0f1515108a0e5953fe2dc069b644bbdf,PennController,27,0,experiment,NULL,Video,progression,buffer,0.006221,1687288166547,612110456899ed64c754d95d,612110456899ed64c754d95d,24,match,filler,C,50,match40.jpg,match60.jpg,GoalB,NULL
1687288355,0f1515108a0e5953fe2dc069b644bbdf,PennController,27,0,experiment,NULL,Selector,choice,Selection,option1,1687288172837,612110456899ed64c754d95d,612110456899ed64c754d95d,24,match,filler,C,50,match40.jpg,match60.jpg,GoalB,option1;option2
1687288355,0f1515108a0e5953fe2dc069b644bbdf,PennController,27,0,experiment,NULL,PennController,26,_Trial_,End,1687288172842,612110456899ed64c754d95d,612110456899ed64c754d95d,24,match,filler,C,50,match40.jpg,match60.jpg,GoalB,NULL
1687288355,0f1515108a0e5953fe2dc069b644bbdf,PennController,14,0,experiment,NULL,PennController,13,_Trial_,Start,1687288172850,612110456899ed64c754d95d,612110456899ed64c754d95d,11,beads,critical,C,25,beads15.jpg,beads35.jpg,low,NULL
1687288355,0f1515108a0e5953fe2dc069b644bbdf,PennController,14,0,experiment,NULL,PennController,13,_Header_,Start,1687288172850,612110456899ed64c754d95d,612110456899ed64c754d95d,11,beads,critical,C,25,beads15.jpg,beads35.jpg,low,NULL
1687288355,0f1515108a0e5953fe2dc069b644bbdf,PennController,14,0,experiment,NULL,PennController,13,_Header_,End,1687288172850,612110456899ed64c754d95d,612110456899ed64c754d95d,11,beads,critical,C,25,beads15.jpg,beads35.jpg,low,NULL
1687288355,0f1515108a0e5953fe2dc069b644bbdf,PennController,14,0,experiment,NULL,Canvas,canvas6,Print,NA,1687288178593,612110456899ed64c754d95d,612110456899ed64c754d95d,11,beads,critical,C,25,beads15.jpg,beads35.jpg,low,NULL
1687288355,0f1515108a0e5953fe2dc069b644bbdf,PennController,14,0,experiment,NULL,Video,progression,buffer,0.018587,1687288176419,612110456899ed64c754d95d,612110456899ed64c754d95d,11,beads,critical,C,25,beads15.jpg,beads35.jpg,low,NULL
1687288355,0f1515108a0e5953fe2dc069b644bbdf,PennController,14,0,experiment,NULL,Selector,choice,Selection,option2,1687288180490,612110456899ed64c754d95d,612110456899ed64c754d95d,11,beads,critical,C,25,beads15.jpg,beads35.jpg,low,option2;option1
1687288355,0f1515108a0e5953fe2dc069b644bbdf,PennController,14,0,experiment,NULL,PennController,13,_Trial_,End,1687288180491,612110456899ed64c754d95d,612110456899ed64c754d95d,11,beads,critical,C,25,beads15.jpg,beads35.jpg,low,NULL
1687288355,0f1515108a0e5953fe2dc069b644bbdf,PennController,7,0,experiment,NULL,PennController,6,_Trial_,Start,1687288180493,612110456899ed64c754d95d,612110456899ed64c754d95d,4,candy,critical,C,75,candy65.jpg,candy85.jpg,low,NULL
1687288355,0f1515108a0e5953fe2dc069b644bbdf,PennController,7,0,experiment,NULL,PennController,6,_Header_,Start,1687288180493,612110456899ed64c754d95d,612110456899ed64c754d95d,4,candy,critical,C,75,candy65.jpg,candy85.jpg,low,NULL
1687288355,0f1515108a0e5953fe2dc069b644bbdf,PennController,7,0,experiment,NULL,PennController,6,_Header_,End,1687288180493,612110456899ed64c754d95d,612110456899ed64c754d95d,4,candy,critical,C,75,candy65.jpg,candy85.jpg,low,NULL
1687288355,0f1515108a0e5953fe2dc069b644bbdf,PennController,7,0,experiment,NULL,Canvas,canvas6,Print,NA,1687288188221,612110456899ed64c754d95d,612110456899ed64c754d95d,4,candy,critical,C,75,candy65.jpg,candy85.jpg,low,NULL
1687288355,0f1515108a0e5953fe2dc069b644bbdf,PennController,7,0,experiment,NULL,Video,progression,buffer,0.028646,1687288184066,612110456899ed64c754d95d,612110456899ed64c754d95d,4,candy,critical,C,75,candy65.jpg,candy85.jpg,low,NULL
1687288355,0f1515108a0e5953fe2dc069b644bbdf,PennController,7,0,experiment,NULL,Selector,choice,Selection,option2,1687288191958,612110456899ed64c754d95d,612110456899ed64c754d95d,4,candy,critical,C,75,candy65.jpg,candy85.jpg,low,option2;option1
1687288355,0f1515108a0e5953fe2dc069b644bbdf,PennController,7,0,experiment,NULL,PennController,6,_Trial_,End,1687288191960,612110456899ed64c754d95d,612110456899ed64c754d95d,4,candy,critical,C,75,candy65.jpg,candy85.jpg,low,NULL
1687288355,0f1515108a0e5953fe2dc069b644bbdf,PennController,28,0,experiment,NULL,PennController,27,_Trial_,Start,1687288191965,612110456899ed64c754d95d,612110456899ed64c754d95d,25,house,filler,C,75,house65.jpg,house85.jpg,GoalA,NULL
1687288355,0f1515108a0e5953fe2dc069b644bbdf,PennController,28,0,experiment,NULL,PennController,27,_Header_,Start,1687288191965,612110456899ed64c754d95d,612110456899ed64c754d95d,25,house,filler,C,75,house65.jpg,house85.jpg,GoalA,NULL
1687288355,0f1515108a0e5953fe2dc069b644bbdf,PennController,28,0,experiment,NULL,PennController,27,_Header_,End,1687288191965,612110456899ed64c754d95d,612110456899ed64c754d95d,25,house,filler,C,75,house65.jpg,house85.jpg,GoalA,NULL
1687288355,0f1515108a0e5953fe2dc069b644bbdf,PennController,28,0,experiment,NULL,Canvas,canvas6,Print,NA,1687288199676,612110456899ed64c754d95d,612110456899ed64c754d95d,25,house,filler,C,75,house65.jpg,house85.jpg,GoalA,NULL
1687288355,0f1515108a0e5953fe2dc069b644bbdf,PennController,28,0,experiment,NULL,Video,progression,buffer,0.028656,1687288195544,612110456899ed64c754d95d,612110456899ed64c754d95d,25,house,filler,C,75,house65.jpg,house85.jpg,GoalA,NULL
1687288355,0f1515108a0e5953fe2dc069b644bbdf,PennController,28,0,experiment,NULL,Selector,choice,Selection,option2,1687288202290,612110456899ed64c754d95d,612110456899ed64c754d95d,25,house,filler,C,75,house65.jpg,house85.jpg,GoalA,option2;option1
1687288355,0f1515108a0e5953fe2dc069b644bbdf,PennController,28,0,experiment,NULL,PennController,27,_Trial_,End,1687288202292,612110456899ed64c754d95d,612110456899ed64c754d95d,25,house,filler,C,75,house65.jpg,house85.jpg,GoalA,NULL
1687288355,0f1515108a0e5953fe2dc069b644bbdf,PennController,11,0,experiment,NULL,PennController,10,_Trial_,Start,1687288202294,612110456899ed64c754d95d,612110456899ed64c754d95d,8,cucumber,critical,C,25,cucumber15.jpg,cucumber33.jpg,low,NULL
1687288355,0f1515108a0e5953fe2dc069b644bbdf,PennController,11,0,experiment,NULL,PennController,10,_Header_,Start,1687288202294,612110456899ed64c754d95d,612110456899ed64c754d95d,8,cucumber,critical,C,25,cucumber15.jpg,cucumber33.jpg,low,NULL
1687288355,0f1515108a0e5953fe2dc069b644bbdf,PennController,11,0,experiment,NULL,PennController,10,_Header_,End,1687288202294,612110456899ed64c754d95d,612110456899ed64c754d95d,8,cucumber,critical,C,25,cucumber15.jpg,cucumber33.jpg,low,NULL
1687288355,0f1515108a0e5953fe2dc069b644bbdf,PennController,11,0,experiment,NULL,Canvas,canvas6,Print,NA,1687288208635,612110456899ed64c754d95d,612110456899ed64c754d95d,8,cucumber,critical,C,25,cucumber15.jpg,cucumber33.jpg,low,NULL
1687288355,0f1515108a0e5953fe2dc069b644bbdf,PennController,11,0,experiment,NULL,Video,progression,buffer,0.014549,1687288205852,612110456899ed64c754d95d,612110456899ed64c754d95d,8,cucumber,critical,C,25,cucumber15.jpg,cucumber33.jpg,low,NULL
1687288355,0f1515108a0e5953fe2dc069b644bbdf,PennController,11,0,experiment,NULL,Selector,choice,Selection,option1,1687288210341,612110456899ed64c754d95d,612110456899ed64c754d95d,8,cucumber,critical,C,25,cucumber15.jpg,cucumber33.jpg,low,option1;option2
1687288355,0f1515108a0e5953fe2dc069b644bbdf,PennController,11,0,experiment,NULL,PennController,10,_Trial_,End,1687288210343,612110456899ed64c754d95d,612110456899ed64c754d95d,8,cucumber,critical,C,25,cucumber15.jpg,cucumber33.jpg,low,NULL
1687288355,0f1515108a0e5953fe2dc069b644bbdf,PennController,17,0,experiment,NULL,PennController,16,_Trial_,Start,1687288210345,612110456899ed64c754d95d,612110456899ed64c754d95d,14,cover,critical,C,25,cover15.jpg,cover33.jpg,low,NULL
1687288355,0f1515108a0e5953fe2dc069b644bbdf,PennController,17,0,experiment,NULL,PennController,16,_Header_,Start,1687288210345,612110456899ed64c754d95d,612110456899ed64c754d95d,14,cover,critical,C,25,cover15.jpg,cover33.jpg,low,NULL
1687288355,0f1515108a0e5953fe2dc069b644bbdf,PennController,17,0,experiment,NULL,PennController,16,_Header_,End,1687288210345,612110456899ed64c754d95d,612110456899ed64c754d95d,14,cover,critical,C,25,cover15.jpg,cover33.jpg,low,NULL
1687288355,0f1515108a0e5953fe2dc069b644bbdf,PennController,17,0,experiment,NULL,Canvas,canvas6,Print,NA,1687288216675,612110456899ed64c754d95d,612110456899ed64c754d95d,14,cover,critical,C,25,cover15.jpg,cover33.jpg,low,NULL
1687288355,0f1515108a0e5953fe2dc069b644bbdf,PennController,17,0,experiment,NULL,Video,progression,buffer,0.009688,1687288213901,612110456899ed64c754d95d,612110456899ed64c754d95d,14,cover,critical,C,25,cover15.jpg,cover33.jpg,low,NULL
1687288355,0f1515108a0e5953fe2dc069b644bbdf,PennController,17,0,experiment,NULL,Selector,choice,Selection,option1,1687288219714,612110456899ed64c754d95d,612110456899ed64c754d95d,14,cover,critical,C,25,cover15.jpg,cover33.jpg,low,option1;option2
1687288355,0f1515108a0e5953fe2dc069b644bbdf,PennController,17,0,experiment,NULL,PennController,16,_Trial_,End,1687288219730,612110456899ed64c754d95d,612110456899ed64c754d95d,14,cover,critical,C,25,cover15.jpg,cover33.jpg,low,NULL
1687288355,0f1515108a0e5953fe2dc069b644bbdf,PennController,29,0,experiment,NULL,PennController,28,_Trial_,Start,1687288219737,612110456899ed64c754d95d,612110456899ed64c754d95d,26,sandwich,filler,C,25,sandwich15.jpg,sandwich35.jpg,GoalB,NULL
1687288355,0f1515108a0e5953fe2dc069b644bbdf,PennController,29,0,experiment,NULL,PennController,28,_Header_,Start,1687288219737,612110456899ed64c754d95d,612110456899ed64c754d95d,26,sandwich,filler,C,25,sandwich15.jpg,sandwich35.jpg,GoalB,NULL
1687288355,0f1515108a0e5953fe2dc069b644bbdf,PennController,29,0,experiment,NULL,PennController,28,_Header_,End,1687288219737,612110456899ed64c754d95d,612110456899ed64c754d95d,26,sandwich,filler,C,25,sandwich15.jpg,sandwich35.jpg,GoalB,NULL
1687288355,0f1515108a0e5953fe2dc069b644bbdf,PennController,29,0,experiment,NULL,Canvas,canvas6,Print,NA,1687288225453,612110456899ed64c754d95d,612110456899ed64c754d95d,26,sandwich,filler,C,25,sandwich15.jpg,sandwich35.jpg,GoalB,NULL
1687288355,0f1515108a0e5953fe2dc069b644bbdf,PennController,29,0,experiment,NULL,Video,progression,buffer,0.007714,1687288223271,612110456899ed64c754d95d,612110456899ed64c754d95d,26,sandwich,filler,C,25,sandwich15.jpg,sandwich35.jpg,GoalB,NULL
1687288355,0f1515108a0e5953fe2dc069b644bbdf,PennController,29,0,experiment,NULL,Selector,choice,Selection,option2,1687288227357,612110456899ed64c754d95d,612110456899ed64c754d95d,26,sandwich,filler,C,25,sandwich15.jpg,sandwich35.jpg,GoalB,option2;option1
1687288355,0f1515108a0e5953fe2dc069b644bbdf,PennController,29,0,experiment,NULL,PennController,28,_Trial_,End,1687288227362,612110456899ed64c754d95d,612110456899ed64c754d95d,26,sandwich,filler,C,25,sandwich15.jpg,sandwich35.jpg,GoalB,NULL
1687288355,0f1515108a0e5953fe2dc069b644bbdf,PennController,16,0,experiment,NULL,PennController,15,_Trial_,Start,1687288227370,612110456899ed64c754d95d,612110456899ed64c754d95d,13,mix,critical,C,75,mix65.jpg,mix85.jpg,low,NULL
1687288355,0f1515108a0e5953fe2dc069b644bbdf,PennController,16,0,experiment,NULL,PennController,15,_Header_,Start,1687288227370,612110456899ed64c754d95d,612110456899ed64c754d95d,13,mix,critical,C,75,mix65.jpg,mix85.jpg,low,NULL
1687288355,0f1515108a0e5953fe2dc069b644bbdf,PennController,16,0,experiment,NULL,PennController,15,_Header_,End,1687288227370,612110456899ed64c754d95d,612110456899ed64c754d95d,13,mix,critical,C,75,mix65.jpg,mix85.jpg,low,NULL
1687288355,0f1515108a0e5953fe2dc069b644bbdf,PennController,16,0,experiment,NULL,Canvas,canvas6,Print,NA,1687288235108,612110456899ed64c754d95d,612110456899ed64c754d95d,13,mix,critical,C,75,mix65.jpg,mix85.jpg,low,NULL
1687288355,0f1515108a0e5953fe2dc069b644bbdf,PennController,16,0,experiment,NULL,Video,progression,buffer,0.030804,1687288230957,612110456899ed64c754d95d,612110456899ed64c754d95d,13,mix,critical,C,75,mix65.jpg,mix85.jpg,low,NULL
1687288355,0f1515108a0e5953fe2dc069b644bbdf,PennController,16,0,experiment,NULL,Selector,choice,Selection,option1,1687288239044,612110456899ed64c754d95d,612110456899ed64c754d95d,13,mix,critical,C,75,mix65.jpg,mix85.jpg,low,option1;option2
1687288355,0f1515108a0e5953fe2dc069b644bbdf,PennController,16,0,experiment,NULL,PennController,15,_Trial_,End,1687288239053,612110456899ed64c754d95d,612110456899ed64c754d95d,13,mix,critical,C,75,mix65.jpg,mix85.jpg,low,NULL
1687288355,0f1515108a0e5953fe2dc069b644bbdf,PennController,21,0,experiment,NULL,PennController,20,_Trial_,Start,1687288239056,612110456899ed64c754d95d,612110456899ed64c754d95d,18,ball,critical,C,50,ball40.jpg,ball60.jpg,low,NULL
1687288355,0f1515108a0e5953fe2dc069b644bbdf,PennController,21,0,experiment,NULL,PennController,20,_Header_,Start,1687288239056,612110456899ed64c754d95d,612110456899ed64c754d95d,18,ball,critical,C,50,ball40.jpg,ball60.jpg,low,NULL
1687288355,0f1515108a0e5953fe2dc069b644bbdf,PennController,21,0,experiment,NULL,PennController,20,_Header_,End,1687288239057,612110456899ed64c754d95d,612110456899ed64c754d95d,18,ball,critical,C,50,ball40.jpg,ball60.jpg,low,NULL
1687288355,0f1515108a0e5953fe2dc069b644bbdf,PennController,21,0,experiment,NULL,Canvas,canvas6,Print,NA,1687288245761,612110456899ed64c754d95d,612110456899ed64c754d95d,18,ball,critical,C,50,ball40.jpg,ball60.jpg,low,NULL
1687288355,0f1515108a0e5953fe2dc069b644bbdf,PennController,21,0,experiment,NULL,Video,progression,buffer,0.00688,1687288242601,612110456899ed64c754d95d,612110456899ed64c754d95d,18,ball,critical,C,50,ball40.jpg,ball60.jpg,low,NULL
1687288355,0f1515108a0e5953fe2dc069b644bbdf,PennController,21,0,experiment,NULL,Selector,choice,Selection,option2,1687288247925,612110456899ed64c754d95d,612110456899ed64c754d95d,18,ball,critical,C,50,ball40.jpg,ball60.jpg,low,option2;option1
1687288355,0f1515108a0e5953fe2dc069b644bbdf,PennController,21,0,experiment,NULL,PennController,20,_Trial_,End,1687288247930,612110456899ed64c754d95d,612110456899ed64c754d95d,18,ball,critical,C,50,ball40.jpg,ball60.jpg,low,NULL
1687288355,0f1515108a0e5953fe2dc069b644bbdf,PennController,15,0,experiment,NULL,PennController,14,_Trial_,Start,1687288247937,612110456899ed64c754d95d,612110456899ed64c754d95d,12,erase,critical,C,50,erase42.jpg,erase60.jpg,low,NULL
1687288355,0f1515108a0e5953fe2dc069b644bbdf,PennController,15,0,experiment,NULL,PennController,14,_Header_,Start,1687288247937,612110456899ed64c754d95d,612110456899ed64c754d95d,12,erase,critical,C,50,erase42.jpg,erase60.jpg,low,NULL
1687288355,0f1515108a0e5953fe2dc069b644bbdf,PennController,15,0,experiment,NULL,PennController,14,_Header_,End,1687288247937,612110456899ed64c754d95d,612110456899ed64c754d95d,12,erase,critical,C,50,erase42.jpg,erase60.jpg,low,NULL
1687288355,0f1515108a0e5953fe2dc069b644bbdf,PennController,15,0,experiment,NULL,Canvas,canvas6,Print,NA,1687288256071,612110456899ed64c754d95d,612110456899ed64c754d95d,12,erase,critical,C,50,erase42.jpg,erase60.jpg,low,NULL
1687288355,0f1515108a0e5953fe2dc069b644bbdf,PennController,15,0,experiment,NULL,Video,progression,buffer,0.031767,1687288251530,612110456899ed64c754d95d,612110456899ed64c754d95d,12,erase,critical,C,50,erase42.jpg,erase60.jpg,low,NULL
1687288355,0f1515108a0e5953fe2dc069b644bbdf,PennController,15,0,experiment,NULL,Selector,choice,Selection,option2,1687288259171,612110456899ed64c754d95d,612110456899ed64c754d95d,12,erase,critical,C,50,erase42.jpg,erase60.jpg,low,option2;option1
1687288355,0f1515108a0e5953fe2dc069b644bbdf,PennController,15,0,experiment,NULL,PennController,14,_Trial_,End,1687288259173,612110456899ed64c754d95d,612110456899ed64c754d95d,12,erase,critical,C,50,erase42.jpg,erase60.jpg,low,NULL
1687288355,0f1515108a0e5953fe2dc069b644bbdf,PennController,9,0,experiment,NULL,PennController,8,_Trial_,Start,1687288259175,612110456899ed64c754d95d,612110456899ed64c754d95d,6,flower,critical,C,50,flower40.jpg,flower60.jpg,low,NULL
1687288355,0f1515108a0e5953fe2dc069b644bbdf,PennController,9,0,experiment,NULL,PennController,8,_Header_,Start,1687288259175,612110456899ed64c754d95d,612110456899ed64c754d95d,6,flower,critical,C,50,flower40.jpg,flower60.jpg,low,NULL
1687288355,0f1515108a0e5953fe2dc069b644bbdf,PennController,9,0,experiment,NULL,PennController,8,_Header_,End,1687288259175,612110456899ed64c754d95d,612110456899ed64c754d95d,6,flower,critical,C,50,flower40.jpg,flower60.jpg,low,NULL
1687288355,0f1515108a0e5953fe2dc069b644bbdf,PennController,9,0,experiment,NULL,Canvas,canvas6,Print,NA,1687288265926,612110456899ed64c754d95d,612110456899ed64c754d95d,6,flower,critical,C,50,flower40.jpg,flower60.jpg,low,NULL
1687288355,0f1515108a0e5953fe2dc069b644bbdf,PennController,9,0,experiment,NULL,Video,progression,buffer,0.032289,1687288262773,612110456899ed64c754d95d,612110456899ed64c754d95d,6,flower,critical,C,50,flower40.jpg,flower60.jpg,low,NULL
1687288355,0f1515108a0e5953fe2dc069b644bbdf,PennController,9,0,experiment,NULL,Selector,choice,Selection,option1,1687288268288,612110456899ed64c754d95d,612110456899ed64c754d95d,6,flower,critical,C,50,flower40.jpg,flower60.jpg,low,option1;option2
1687288355,0f1515108a0e5953fe2dc069b644bbdf,PennController,9,0,experiment,NULL,PennController,8,_Trial_,End,1687288268293,612110456899ed64c754d95d,612110456899ed64c754d95d,6,flower,critical,C,50,flower40.jpg,flower60.jpg,low,NULL
1687288355,0f1515108a0e5953fe2dc069b644bbdf,PennController,31,0,experiment,NULL,PennController,30,_Trial_,Start,1687288268296,612110456899ed64c754d95d,612110456899ed64c754d95d,28,sort,filler,C,75,sort65.jpg,sort85.jpg,GoalB,NULL
1687288355,0f1515108a0e5953fe2dc069b644bbdf,PennController,31,0,experiment,NULL,PennController,30,_Header_,Start,1687288268296,612110456899ed64c754d95d,612110456899ed64c754d95d,28,sort,filler,C,75,sort65.jpg,sort85.jpg,GoalB,NULL
1687288355,0f1515108a0e5953fe2dc069b644bbdf,PennController,31,0,experiment,NULL,PennController,30,_Header_,End,1687288268297,612110456899ed64c754d95d,612110456899ed64c754d95d,28,sort,filler,C,75,sort65.jpg,sort85.jpg,GoalB,NULL
1687288355,0f1515108a0e5953fe2dc069b644bbdf,PennController,31,0,experiment,NULL,Canvas,canvas6,Print,NA,1687288276050,612110456899ed64c754d95d,612110456899ed64c754d95d,28,sort,filler,C,75,sort65.jpg,sort85.jpg,GoalB,NULL
1687288355,0f1515108a0e5953fe2dc069b644bbdf,PennController,31,0,experiment,NULL,Video,progression,buffer,0.032794,1687288271878,612110456899ed64c754d95d,612110456899ed64c754d95d,28,sort,filler,C,75,sort65.jpg,sort85.jpg,GoalB,NULL
1687288355,0f1515108a0e5953fe2dc069b644bbdf,PennController,31,0,experiment,NULL,Selector,choice,Selection,option2,1687288278983,612110456899ed64c754d95d,612110456899ed64c754d95d,28,sort,filler,C,75,sort65.jpg,sort85.jpg,GoalB,option2;option1
1687288355,0f1515108a0e5953fe2dc069b644bbdf,PennController,31,0,experiment,NULL,PennController,30,_Trial_,End,1687288278987,612110456899ed64c754d95d,612110456899ed64c754d95d,28,sort,filler,C,75,sort65.jpg,sort85.jpg,GoalB,NULL
1687288355,0f1515108a0e5953fe2dc069b644bbdf,PennController,30,0,experiment,NULL,PennController,29,_Trial_,Start,1687288278988,612110456899ed64c754d95d,612110456899ed64c754d95d,27,square,filler,C,50,square40.jpg,square60.jpg,GoalA,NULL
1687288355,0f1515108a0e5953fe2dc069b644bbdf,PennController,30,0,experiment,NULL,PennController,29,_Header_,Start,1687288278988,612110456899ed64c754d95d,612110456899ed64c754d95d,27,square,filler,C,50,square40.jpg,square60.jpg,GoalA,NULL
1687288355,0f1515108a0e5953fe2dc069b644bbdf,PennController,30,0,experiment,NULL,PennController,29,_Header_,End,1687288278988,612110456899ed64c754d95d,612110456899ed64c754d95d,27,square,filler,C,50,square40.jpg,square60.jpg,GoalA,NULL
1687288355,0f1515108a0e5953fe2dc069b644bbdf,PennController,30,0,experiment,NULL,Canvas,canvas6,Print,NA,1687288285715,612110456899ed64c754d95d,612110456899ed64c754d95d,27,square,filler,C,50,square40.jpg,square60.jpg,GoalA,NULL
1687288355,0f1515108a0e5953fe2dc069b644bbdf,PennController,30,0,experiment,NULL,Video,progression,buffer,0.007942,1687288282538,612110456899ed64c754d95d,612110456899ed64c754d95d,27,square,filler,C,50,square40.jpg,square60.jpg,GoalA,NULL
1687288355,0f1515108a0e5953fe2dc069b644bbdf,PennController,30,0,experiment,NULL,Selector,choice,Selection,option1,1687288287810,612110456899ed64c754d95d,612110456899ed64c754d95d,27,square,filler,C,50,square40.jpg,square60.jpg,GoalA,option2;option1
1687288355,0f1515108a0e5953fe2dc069b644bbdf,PennController,30,0,experiment,NULL,PennController,29,_Trial_,End,1687288287811,612110456899ed64c754d95d,612110456899ed64c754d95d,27,square,filler,C,50,square40.jpg,square60.jpg,GoalA,NULL
1687288355,0f1515108a0e5953fe2dc069b644bbdf,PennController,4,0,experiment,NULL,PennController,3,_Trial_,Start,1687288287813,612110456899ed64c754d95d,612110456899ed64c754d95d,1,vase,critical,C,75,vase65.jpg,vase85.jpg,low,NULL
1687288355,0f1515108a0e5953fe2dc069b644bbdf,PennController,4,0,experiment,NULL,PennController,3,_Header_,Start,1687288287813,612110456899ed64c754d95d,612110456899ed64c754d95d,1,vase,critical,C,75,vase65.jpg,vase85.jpg,low,NULL
1687288355,0f1515108a0e5953fe2dc069b644bbdf,PennController,4,0,experiment,NULL,PennController,3,_Header_,End,1687288287813,612110456899ed64c754d95d,612110456899ed64c754d95d,1,vase,critical,C,75,vase65.jpg,vase85.jpg,low,NULL
1687288355,0f1515108a0e5953fe2dc069b644bbdf,PennController,4,0,experiment,NULL,Canvas,canvas6,Print,NA,1687288295520,612110456899ed64c754d95d,612110456899ed64c754d95d,1,vase,critical,C,75,vase65.jpg,vase85.jpg,low,NULL
1687288355,0f1515108a0e5953fe2dc069b644bbdf,PennController,4,0,experiment,NULL,Video,progression,buffer,0.031594,1687288291378,612110456899ed64c754d95d,612110456899ed64c754d95d,1,vase,critical,C,75,vase65.jpg,vase85.jpg,low,NULL
1687288355,0f1515108a0e5953fe2dc069b644bbdf,PennController,4,0,experiment,NULL,Selector,choice,Selection,option1,1687288298668,612110456899ed64c754d95d,612110456899ed64c754d95d,1,vase,critical,C,75,vase65.jpg,vase85.jpg,low,option1;option2
1687288355,0f1515108a0e5953fe2dc069b644bbdf,PennController,4,0,experiment,NULL,PennController,3,_Trial_,End,1687288298675,612110456899ed64c754d95d,612110456899ed64c754d95d,1,vase,critical,C,75,vase65.jpg,vase85.jpg,low,NULL
1687288355,0f1515108a0e5953fe2dc069b644bbdf,PennController,25,0,experiment,NULL,PennController,24,_Trial_,Start,1687288298679,612110456899ed64c754d95d,612110456899ed64c754d95d,22,wall,filler,C,75,wall65.jpg,wall85.jpg,GoalB,NULL
1687288355,0f1515108a0e5953fe2dc069b644bbdf,PennController,25,0,experiment,NULL,PennController,24,_Header_,Start,1687288298679,612110456899ed64c754d95d,612110456899ed64c754d95d,22,wall,filler,C,75,wall65.jpg,wall85.jpg,GoalB,NULL
1687288355,0f1515108a0e5953fe2dc069b644bbdf,PennController,25,0,experiment,NULL,PennController,24,_Header_,End,1687288298679,612110456899ed64c754d95d,612110456899ed64c754d95d,22,wall,filler,C,75,wall65.jpg,wall85.jpg,GoalB,NULL
1687288355,0f1515108a0e5953fe2dc069b644bbdf,PennController,25,0,experiment,NULL,Canvas,canvas6,Print,NA,1687288306385,612110456899ed64c754d95d,612110456899ed64c754d95d,22,wall,filler,C,75,wall65.jpg,wall85.jpg,GoalB,NULL
1687288355,0f1515108a0e5953fe2dc069b644bbdf,PennController,25,0,experiment,NULL,Video,progression,buffer,0.032808,1687288302251,612110456899ed64c754d95d,612110456899ed64c754d95d,22,wall,filler,C,75,wall65.jpg,wall85.jpg,GoalB,NULL
1687288355,0f1515108a0e5953fe2dc069b644bbdf,PennController,25,0,experiment,NULL,Selector,choice,Selection,option2,1687288308596,612110456899ed64c754d95d,612110456899ed64c754d95d,22,wall,filler,C,75,wall65.jpg,wall85.jpg,GoalB,option1;option2
1687288355,0f1515108a0e5953fe2dc069b644bbdf,PennController,25,0,experiment,NULL,PennController,24,_Trial_,End,1687288308602,612110456899ed64c754d95d,612110456899ed64c754d95d,22,wall,filler,C,75,wall65.jpg,wall85.jpg,GoalB,NULL
1687288355,0f1515108a0e5953fe2dc069b644bbdf,PennController,13,0,experiment,NULL,PennController,12,_Trial_,Start,1687288308611,612110456899ed64c754d95d,612110456899ed64c754d95d,10,train,critical,C,75,train65.jpg,train85.jpg,low,NULL
1687288355,0f1515108a0e5953fe2dc069b644bbdf,PennController,13,0,experiment,NULL,PennController,12,_Header_,Start,1687288308611,612110456899ed64c754d95d,612110456899ed64c754d95d,10,train,critical,C,75,train65.jpg,train85.jpg,low,NULL
1687288355,0f1515108a0e5953fe2dc069b644bbdf,PennController,13,0,experiment,NULL,PennController,12,_Header_,End,1687288308611,612110456899ed64c754d95d,612110456899ed64c754d95d,10,train,critical,C,75,train65.jpg,train85.jpg,low,NULL
1687288355,0f1515108a0e5953fe2dc069b644bbdf,PennController,13,0,experiment,NULL,Canvas,canvas6,Print,NA,1687288316324,612110456899ed64c754d95d,612110456899ed64c754d95d,10,train,critical,C,75,train65.jpg,train85.jpg,low,NULL
1687288355,0f1515108a0e5953fe2dc069b644bbdf,PennController,13,0,experiment,NULL,Video,progression,buffer,0.007207,1687288312156,612110456899ed64c754d95d,612110456899ed64c754d95d,10,train,critical,C,75,train65.jpg,train85.jpg,low,NULL
1687288355,0f1515108a0e5953fe2dc069b644bbdf,PennController,13,0,experiment,NULL,Selector,choice,Selection,option2,1687288318918,612110456899ed64c754d95d,612110456899ed64c754d95d,10,train,critical,C,75,train65.jpg,train85.jpg,low,option1;option2
1687288355,0f1515108a0e5953fe2dc069b644bbdf,PennController,13,0,experiment,NULL,PennController,12,_Trial_,End,1687288318920,612110456899ed64c754d95d,612110456899ed64c754d95d,10,train,critical,C,75,train65.jpg,train85.jpg,low,NULL
1687288355,0f1515108a0e5953fe2dc069b644bbdf,PennController,32,0,experiment,NULL,PennController,31,_Trial_,Start,1687288318923,612110456899ed64c754d95d,612110456899ed64c754d95d,29,frog,filler,C,25,frog15.jpg,frog35.jpg,GoalA,NULL
1687288355,0f1515108a0e5953fe2dc069b644bbdf,PennController,32,0,experiment,NULL,PennController,31,_Header_,Start,1687288318923,612110456899ed64c754d95d,612110456899ed64c754d95d,29,frog,filler,C,25,frog15.jpg,frog35.jpg,GoalA,NULL
1687288355,0f1515108a0e5953fe2dc069b644bbdf,PennController,32,0,experiment,NULL,PennController,31,_Header_,End,1687288318923,612110456899ed64c754d95d,612110456899ed64c754d95d,29,frog,filler,C,25,frog15.jpg,frog35.jpg,GoalA,NULL
1687288355,0f1515108a0e5953fe2dc069b644bbdf,PennController,32,0,experiment,NULL,Canvas,canvas6,Print,NA,1687288324659,612110456899ed64c754d95d,612110456899ed64c754d95d,29,frog,filler,C,25,frog15.jpg,frog35.jpg,GoalA,NULL
1687288355,0f1515108a0e5953fe2dc069b644bbdf,PennController,32,0,experiment,NULL,Video,progression,buffer,0.050596,1687288322532,612110456899ed64c754d95d,612110456899ed64c754d95d,29,frog,filler,C,25,frog15.jpg,frog35.jpg,GoalA,NULL
1687288355,0f1515108a0e5953fe2dc069b644bbdf,PennController,32,0,experiment,NULL,Selector,choice,Selection,option2,1687288326327,612110456899ed64c754d95d,612110456899ed64c754d95d,29,frog,filler,C,25,frog15.jpg,frog35.jpg,GoalA,option2;option1
1687288355,0f1515108a0e5953fe2dc069b644bbdf,PennController,32,0,experiment,NULL,PennController,31,_Trial_,End,1687288326332,612110456899ed64c754d95d,612110456899ed64c754d95d,29,frog,filler,C,25,frog15.jpg,frog35.jpg,GoalA,NULL
1687288355,0f1515108a0e5953fe2dc069b644bbdf,PennController,12,0,experiment,NULL,PennController,11,_Trial_,Start,1687288326337,612110456899ed64c754d95d,612110456899ed64c754d95d,9,cake,critical,C,50,cake42.jpg,cake60.jpg,low,NULL
1687288355,0f1515108a0e5953fe2dc069b644bbdf,PennController,12,0,experiment,NULL,PennController,11,_Header_,Start,1687288326337,612110456899ed64c754d95d,612110456899ed64c754d95d,9,cake,critical,C,50,cake42.jpg,cake60.jpg,low,NULL
1687288355,0f1515108a0e5953fe2dc069b644bbdf,PennController,12,0,experiment,NULL,PennController,11,_Header_,End,1687288326338,612110456899ed64c754d95d,612110456899ed64c754d95d,9,cake,critical,C,50,cake42.jpg,cake60.jpg,low,NULL
1687288355,0f1515108a0e5953fe2dc069b644bbdf,PennController,12,0,experiment,NULL,Canvas,canvas6,Print,NA,1687288334495,612110456899ed64c754d95d,612110456899ed64c754d95d,9,cake,critical,C,50,cake42.jpg,cake60.jpg,low,NULL
1687288355,0f1515108a0e5953fe2dc069b644bbdf,PennController,12,0,experiment,NULL,Video,progression,buffer,0.017077,1687288329910,612110456899ed64c754d95d,612110456899ed64c754d95d,9,cake,critical,C,50,cake42.jpg,cake60.jpg,low,NULL
1687288355,0f1515108a0e5953fe2dc069b644bbdf,PennController,12,0,experiment,NULL,Selector,choice,Selection,option2,1687288336555,612110456899ed64c754d95d,612110456899ed64c754d95d,9,cake,critical,C,50,cake42.jpg,cake60.jpg,low,option2;option1
1687288355,0f1515108a0e5953fe2dc069b644bbdf,PennController,12,0,experiment,NULL,PennController,11,_Trial_,End,1687288336559,612110456899ed64c754d95d,612110456899ed64c754d95d,9,cake,critical,C,50,cake42.jpg,cake60.jpg,low,NULL
1687288355,0f1515108a0e5953fe2dc069b644bbdf,PennController,19,0,experiment,NULL,PennController,18,_Trial_,Start,1687288336561,612110456899ed64c754d95d,612110456899ed64c754d95d,16,blinds,critical,C,75,blinds66.jpg,blinds84.jpg,low,NULL
1687288355,0f1515108a0e5953fe2dc069b644bbdf,PennController,19,0,experiment,NULL,PennController,18,_Header_,Start,1687288336561,612110456899ed64c754d95d,612110456899ed64c754d95d,16,blinds,critical,C,75,blinds66.jpg,blinds84.jpg,low,NULL
1687288355,0f1515108a0e5953fe2dc069b644bbdf,PennController,19,0,experiment,NULL,PennController,18,_Header_,End,1687288336561,612110456899ed64c754d95d,612110456899ed64c754d95d,16,blinds,critical,C,75,blinds66.jpg,blinds84.jpg,low,NULL
1687288355,0f1515108a0e5953fe2dc069b644bbdf,PennController,19,0,experiment,NULL,Canvas,canvas6,Print,NA,1687288346294,612110456899ed64c754d95d,612110456899ed64c754d95d,16,blinds,critical,C,75,blinds66.jpg,blinds84.jpg,low,NULL
1687288355,0f1515108a0e5953fe2dc069b644bbdf,PennController,19,0,experiment,NULL,Video,progression,buffer,0.03228,1687288340127,612110456899ed64c754d95d,612110456899ed64c754d95d,16,blinds,critical,C,75,blinds66.jpg,blinds84.jpg,low,NULL
1687288355,0f1515108a0e5953fe2dc069b644bbdf,PennController,19,0,experiment,NULL,Selector,choice,Selection,option1,1687288350118,612110456899ed64c754d95d,612110456899ed64c754d95d,16,blinds,critical,C,75,blinds66.jpg,blinds84.jpg,low,option1;option2
1687288355,0f1515108a0e5953fe2dc069b644bbdf,PennController,19,0,experiment,NULL,PennController,18,_Trial_,End,1687288350123,612110456899ed64c754d95d,612110456899ed64c754d95d,16,blinds,critical,C,75,blinds66.jpg,blinds84.jpg,low,NULL
