#
# Results on Thursday June 22 2023 05:09:03 UTC
# USER AGENT: Mozilla/5.0 (Windows NT 10.0; Win64; x64) AppleWebKit/537.36 (KHTML, like Gecko) Chrome/114.0.0.0 Safari/537.36
# Design number was non-random = 77
#
# Columns below this comment are as follows:
# 1. Results reception time.
# 2. MD5 hash of participant's IP address.
# 3. Controller name.
# 4. Order number of item.
# 5. Inner element number.
# 6. Label.
# 7. Latin Square Group.
# 8. PennElementType.
# 9. PennElementName.
# 10. Parameter.
# 11. Value.
# 12. EventTime.
# 13. PROLIFIC_ID.
# 14. Comments.
1687410543,63dbbdd109c859d399578aa4d3d4ac40,PennController,3,0,consent,NULL,PennController,0,_Trial_,Start,1687410234377,5c5895f5af5bed0001f9ee92,NULL
1687410543,63dbbdd109c859d399578aa4d3d4ac40,PennController,3,0,consent,NULL,PennController,0,_Header_,Start,1687410234377,5c5895f5af5bed0001f9ee92,NULL
1687410543,63dbbdd109c859d399578aa4d3d4ac40,PennController,3,0,consent,NULL,PennController,0,_Header_,End,1687410234378,5c5895f5af5bed0001f9ee92,NULL
1687410543,63dbbdd109c859d399578aa4d3d4ac40,PennController,3,0,consent,NULL,PennController,0,_Trial_,End,1687410251404,5c5895f5af5bed0001f9ee92,NULL
# Columns below this comment are as follows:
# 14. ID.
# 15. Comments.
1687410543,63dbbdd109c859d399578aa4d3d4ac40,PennController,4,0,intro,NULL,PennController,1,_Trial_,Start,1687410251406,5c5895f5af5bed0001f9ee92,5c5895f5af5bed0001f9ee92,NULL
1687410543,63dbbdd109c859d399578aa4d3d4ac40,PennController,4,0,intro,NULL,PennController,1,_Header_,Start,1687410251406,5c5895f5af5bed0001f9ee92,5c5895f5af5bed0001f9ee92,NULL
1687410543,63dbbdd109c859d399578aa4d3d4ac40,PennController,4,0,intro,NULL,PennController,1,_Header_,End,1687410251406,5c5895f5af5bed0001f9ee92,5c5895f5af5bed0001f9ee92,NULL
1687410543,63dbbdd109c859d399578aa4d3d4ac40,PennController,4,0,intro,NULL,PennController,1,_Trial_,End,1687410272546,5c5895f5af5bed0001f9ee92,5c5895f5af5bed0001f9ee92,NULL
# Columns below this comment are as follows:
# 15. item_number.
# 16. item.
# 17. type.
# 18. Group.
# 19. prog.
# 20. prev_image.
# 21. next_image.
# 22. height.
# 23. Comments.
1687410543,63dbbdd109c859d399578aa4d3d4ac40,PennController,24,0,experiment,NULL,PennController,22,_Trial_,Start,1687410272550,5c5895f5af5bed0001f9ee92,5c5895f5af5bed0001f9ee92,20,cat,filler,E,75,cat65.jpg,cat85.jpg,GoalA,NULL
1687410543,63dbbdd109c859d399578aa4d3d4ac40,PennController,24,0,experiment,NULL,PennController,22,_Header_,Start,1687410272550,5c5895f5af5bed0001f9ee92,5c5895f5af5bed0001f9ee92,20,cat,filler,E,75,cat65.jpg,cat85.jpg,GoalA,NULL
1687410543,63dbbdd109c859d399578aa4d3d4ac40,PennController,24,0,experiment,NULL,PennController,22,_Header_,End,1687410272550,5c5895f5af5bed0001f9ee92,5c5895f5af5bed0001f9ee92,20,cat,filler,E,75,cat65.jpg,cat85.jpg,GoalA,NULL
1687410543,63dbbdd109c859d399578aa4d3d4ac40,PennController,24,0,experiment,NULL,Canvas,canvas6,Print,NA,1687410280289,5c5895f5af5bed0001f9ee92,5c5895f5af5bed0001f9ee92,20,cat,filler,E,75,cat65.jpg,cat85.jpg,GoalA,NULL
1687410543,63dbbdd109c859d399578aa4d3d4ac40,PennController,24,0,experiment,NULL,Video,progression,buffer,0.007255,1687410276108,5c5895f5af5bed0001f9ee92,5c5895f5af5bed0001f9ee92,20,cat,filler,E,75,cat65.jpg,cat85.jpg,GoalA,NULL
1687410543,63dbbdd109c859d399578aa4d3d4ac40,PennController,24,0,experiment,NULL,Selector,choice,Selection,option2,1687410285463,5c5895f5af5bed0001f9ee92,5c5895f5af5bed0001f9ee92,20,cat,filler,E,75,cat65.jpg,cat85.jpg,GoalA,option2;option1
1687410543,63dbbdd109c859d399578aa4d3d4ac40,PennController,24,0,experiment,NULL,PennController,22,_Trial_,End,1687410285465,5c5895f5af5bed0001f9ee92,5c5895f5af5bed0001f9ee92,20,cat,filler,E,75,cat65.jpg,cat85.jpg,GoalA,NULL
1687410543,63dbbdd109c859d399578aa4d3d4ac40,PennController,31,0,experiment,NULL,PennController,29,_Trial_,Start,1687410285467,5c5895f5af5bed0001f9ee92,5c5895f5af5bed0001f9ee92,27,square,filler,E,25,square15.jpg,square35.jpg,GoalB,NULL
1687410543,63dbbdd109c859d399578aa4d3d4ac40,PennController,31,0,experiment,NULL,PennController,29,_Header_,Start,1687410285467,5c5895f5af5bed0001f9ee92,5c5895f5af5bed0001f9ee92,27,square,filler,E,25,square15.jpg,square35.jpg,GoalB,NULL
1687410543,63dbbdd109c859d399578aa4d3d4ac40,PennController,31,0,experiment,NULL,PennController,29,_Header_,End,1687410285467,5c5895f5af5bed0001f9ee92,5c5895f5af5bed0001f9ee92,27,square,filler,E,25,square15.jpg,square35.jpg,GoalB,NULL
1687410543,63dbbdd109c859d399578aa4d3d4ac40,PennController,31,0,experiment,NULL,Canvas,canvas6,Print,NA,1687410291186,5c5895f5af5bed0001f9ee92,5c5895f5af5bed0001f9ee92,27,square,filler,E,25,square15.jpg,square35.jpg,GoalB,NULL
1687410543,63dbbdd109c859d399578aa4d3d4ac40,PennController,31,0,experiment,NULL,Video,progression,buffer,0.004466,1687410288999,5c5895f5af5bed0001f9ee92,5c5895f5af5bed0001f9ee92,27,square,filler,E,25,square15.jpg,square35.jpg,GoalB,NULL
1687410543,63dbbdd109c859d399578aa4d3d4ac40,PennController,31,0,experiment,NULL,Selector,choice,Selection,option2,1687410294412,5c5895f5af5bed0001f9ee92,5c5895f5af5bed0001f9ee92,27,square,filler,E,25,square15.jpg,square35.jpg,GoalB,option1;option2
1687410543,63dbbdd109c859d399578aa4d3d4ac40,PennController,31,0,experiment,NULL,PennController,29,_Trial_,End,1687410294413,5c5895f5af5bed0001f9ee92,5c5895f5af5bed0001f9ee92,27,square,filler,E,25,square15.jpg,square35.jpg,GoalB,NULL
1687410543,63dbbdd109c859d399578aa4d3d4ac40,PennController,5,0,experiment,NULL,PennController,3,_Trial_,Start,1687410294414,5c5895f5af5bed0001f9ee92,5c5895f5af5bed0001f9ee92,1,vase,critical,E,50,vase40.jpg,vase60.jpg,high,NULL
1687410543,63dbbdd109c859d399578aa4d3d4ac40,PennController,5,0,experiment,NULL,PennController,3,_Header_,Start,1687410294414,5c5895f5af5bed0001f9ee92,5c5895f5af5bed0001f9ee92,1,vase,critical,E,50,vase40.jpg,vase60.jpg,high,NULL
1687410543,63dbbdd109c859d399578aa4d3d4ac40,PennController,5,0,experiment,NULL,PennController,3,_Header_,End,1687410294414,5c5895f5af5bed0001f9ee92,5c5895f5af5bed0001f9ee92,1,vase,critical,E,50,vase40.jpg,vase60.jpg,high,NULL
1687410543,63dbbdd109c859d399578aa4d3d4ac40,PennController,5,0,experiment,NULL,Canvas,canvas6,Print,NA,1687410301122,5c5895f5af5bed0001f9ee92,5c5895f5af5bed0001f9ee92,1,vase,critical,E,50,vase40.jpg,vase60.jpg,high,NULL
1687410543,63dbbdd109c859d399578aa4d3d4ac40,PennController,5,0,experiment,NULL,Video,progression,buffer,0.006099,1687410297945,5c5895f5af5bed0001f9ee92,5c5895f5af5bed0001f9ee92,1,vase,critical,E,50,vase40.jpg,vase60.jpg,high,NULL
1687410543,63dbbdd109c859d399578aa4d3d4ac40,PennController,5,0,experiment,NULL,Selector,choice,Selection,option1,1687410304376,5c5895f5af5bed0001f9ee92,5c5895f5af5bed0001f9ee92,1,vase,critical,E,50,vase40.jpg,vase60.jpg,high,option1;option2
1687410543,63dbbdd109c859d399578aa4d3d4ac40,PennController,5,0,experiment,NULL,PennController,3,_Trial_,End,1687410304377,5c5895f5af5bed0001f9ee92,5c5895f5af5bed0001f9ee92,1,vase,critical,E,50,vase40.jpg,vase60.jpg,high,NULL
1687410543,63dbbdd109c859d399578aa4d3d4ac40,PennController,14,0,experiment,NULL,PennController,12,_Trial_,Start,1687410304379,5c5895f5af5bed0001f9ee92,5c5895f5af5bed0001f9ee92,10,train,critical,E,50,train40.jpg,train60.jpg,high,NULL
1687410543,63dbbdd109c859d399578aa4d3d4ac40,PennController,14,0,experiment,NULL,PennController,12,_Header_,Start,1687410304379,5c5895f5af5bed0001f9ee92,5c5895f5af5bed0001f9ee92,10,train,critical,E,50,train40.jpg,train60.jpg,high,NULL
1687410543,63dbbdd109c859d399578aa4d3d4ac40,PennController,14,0,experiment,NULL,PennController,12,_Header_,End,1687410304379,5c5895f5af5bed0001f9ee92,5c5895f5af5bed0001f9ee92,10,train,critical,E,50,train40.jpg,train60.jpg,high,NULL
1687410543,63dbbdd109c859d399578aa4d3d4ac40,PennController,14,0,experiment,NULL,Canvas,canvas6,Print,NA,1687410311097,5c5895f5af5bed0001f9ee92,5c5895f5af5bed0001f9ee92,10,train,critical,E,50,train40.jpg,train60.jpg,high,NULL
1687410543,63dbbdd109c859d399578aa4d3d4ac40,PennController,14,0,experiment,NULL,Video,progression,buffer,0.006093,1687410307914,5c5895f5af5bed0001f9ee92,5c5895f5af5bed0001f9ee92,10,train,critical,E,50,train40.jpg,train60.jpg,high,NULL
1687410543,63dbbdd109c859d399578aa4d3d4ac40,PennController,14,0,experiment,NULL,Selector,choice,Selection,option2,1687410312826,5c5895f5af5bed0001f9ee92,5c5895f5af5bed0001f9ee92,10,train,critical,E,50,train40.jpg,train60.jpg,high,option2;option1
1687410543,63dbbdd109c859d399578aa4d3d4ac40,PennController,14,0,experiment,NULL,PennController,12,_Trial_,End,1687410312827,5c5895f5af5bed0001f9ee92,5c5895f5af5bed0001f9ee92,10,train,critical,E,50,train40.jpg,train60.jpg,high,NULL
1687410543,63dbbdd109c859d399578aa4d3d4ac40,PennController,9,0,experiment,NULL,PennController,7,_Trial_,Start,1687410312828,5c5895f5af5bed0001f9ee92,5c5895f5af5bed0001f9ee92,5,book,critical,E,75,book65.jpg,book85.jpg,high,NULL
1687410543,63dbbdd109c859d399578aa4d3d4ac40,PennController,9,0,experiment,NULL,PennController,7,_Header_,Start,1687410312828,5c5895f5af5bed0001f9ee92,5c5895f5af5bed0001f9ee92,5,book,critical,E,75,book65.jpg,book85.jpg,high,NULL
1687410543,63dbbdd109c859d399578aa4d3d4ac40,PennController,9,0,experiment,NULL,PennController,7,_Header_,End,1687410312828,5c5895f5af5bed0001f9ee92,5c5895f5af5bed0001f9ee92,5,book,critical,E,75,book65.jpg,book85.jpg,high,NULL
1687410543,63dbbdd109c859d399578aa4d3d4ac40,PennController,9,0,experiment,NULL,Canvas,canvas6,Print,NA,1687410320541,5c5895f5af5bed0001f9ee92,5c5895f5af5bed0001f9ee92,5,book,critical,E,75,book65.jpg,book85.jpg,high,NULL
1687410543,63dbbdd109c859d399578aa4d3d4ac40,PennController,9,0,experiment,NULL,Video,progression,buffer,0.004414,1687410316357,5c5895f5af5bed0001f9ee92,5c5895f5af5bed0001f9ee92,5,book,critical,E,75,book65.jpg,book85.jpg,high,NULL
1687410543,63dbbdd109c859d399578aa4d3d4ac40,PennController,9,0,experiment,NULL,Selector,choice,Selection,option1,1687410325050,5c5895f5af5bed0001f9ee92,5c5895f5af5bed0001f9ee92,5,book,critical,E,75,book65.jpg,book85.jpg,high,option2;option1
1687410543,63dbbdd109c859d399578aa4d3d4ac40,PennController,9,0,experiment,NULL,PennController,7,_Trial_,End,1687410325051,5c5895f5af5bed0001f9ee92,5c5895f5af5bed0001f9ee92,5,book,critical,E,75,book65.jpg,book85.jpg,high,NULL
1687410543,63dbbdd109c859d399578aa4d3d4ac40,PennController,16,0,experiment,NULL,PennController,14,_Trial_,Start,1687410325053,5c5895f5af5bed0001f9ee92,5c5895f5af5bed0001f9ee92,12,erase,critical,E,25,erase15.jpg,erase33.jpg,high,NULL
1687410543,63dbbdd109c859d399578aa4d3d4ac40,PennController,16,0,experiment,NULL,PennController,14,_Header_,Start,1687410325053,5c5895f5af5bed0001f9ee92,5c5895f5af5bed0001f9ee92,12,erase,critical,E,25,erase15.jpg,erase33.jpg,high,NULL
1687410543,63dbbdd109c859d399578aa4d3d4ac40,PennController,16,0,experiment,NULL,PennController,14,_Header_,End,1687410325053,5c5895f5af5bed0001f9ee92,5c5895f5af5bed0001f9ee92,12,erase,critical,E,25,erase15.jpg,erase33.jpg,high,NULL
1687410543,63dbbdd109c859d399578aa4d3d4ac40,PennController,16,0,experiment,NULL,Canvas,canvas6,Print,NA,1687410331359,5c5895f5af5bed0001f9ee92,5c5895f5af5bed0001f9ee92,12,erase,critical,E,25,erase15.jpg,erase33.jpg,high,NULL
1687410543,63dbbdd109c859d399578aa4d3d4ac40,PennController,16,0,experiment,NULL,Video,progression,buffer,0.006013,1687410328587,5c5895f5af5bed0001f9ee92,5c5895f5af5bed0001f9ee92,12,erase,critical,E,25,erase15.jpg,erase33.jpg,high,NULL
1687410543,63dbbdd109c859d399578aa4d3d4ac40,PennController,16,0,experiment,NULL,Selector,choice,Selection,option2,1687410335331,5c5895f5af5bed0001f9ee92,5c5895f5af5bed0001f9ee92,12,erase,critical,E,25,erase15.jpg,erase33.jpg,high,option1;option2
1687410543,63dbbdd109c859d399578aa4d3d4ac40,PennController,16,0,experiment,NULL,PennController,14,_Trial_,End,1687410335333,5c5895f5af5bed0001f9ee92,5c5895f5af5bed0001f9ee92,12,erase,critical,E,25,erase15.jpg,erase33.jpg,high,NULL
1687410543,63dbbdd109c859d399578aa4d3d4ac40,PennController,21,0,experiment,NULL,PennController,19,_Trial_,Start,1687410335335,5c5895f5af5bed0001f9ee92,5c5895f5af5bed0001f9ee92,17,roll,critical,E,75,roll65.jpg,roll85.jpg,high,NULL
1687410543,63dbbdd109c859d399578aa4d3d4ac40,PennController,21,0,experiment,NULL,PennController,19,_Header_,Start,1687410335335,5c5895f5af5bed0001f9ee92,5c5895f5af5bed0001f9ee92,17,roll,critical,E,75,roll65.jpg,roll85.jpg,high,NULL
1687410543,63dbbdd109c859d399578aa4d3d4ac40,PennController,21,0,experiment,NULL,PennController,19,_Header_,End,1687410335335,5c5895f5af5bed0001f9ee92,5c5895f5af5bed0001f9ee92,17,roll,critical,E,75,roll65.jpg,roll85.jpg,high,NULL
1687410543,63dbbdd109c859d399578aa4d3d4ac40,PennController,21,0,experiment,NULL,Canvas,canvas6,Print,NA,1687410343044,5c5895f5af5bed0001f9ee92,5c5895f5af5bed0001f9ee92,17,roll,critical,E,75,roll65.jpg,roll85.jpg,high,NULL
1687410543,63dbbdd109c859d399578aa4d3d4ac40,PennController,21,0,experiment,NULL,Video,progression,buffer,0.004478,1687410338868,5c5895f5af5bed0001f9ee92,5c5895f5af5bed0001f9ee92,17,roll,critical,E,75,roll65.jpg,roll85.jpg,high,NULL
1687410543,63dbbdd109c859d399578aa4d3d4ac40,PennController,21,0,experiment,NULL,Selector,choice,Selection,option1,1687410346057,5c5895f5af5bed0001f9ee92,5c5895f5af5bed0001f9ee92,17,roll,critical,E,75,roll65.jpg,roll85.jpg,high,option2;option1
1687410543,63dbbdd109c859d399578aa4d3d4ac40,PennController,21,0,experiment,NULL,PennController,19,_Trial_,End,1687410346059,5c5895f5af5bed0001f9ee92,5c5895f5af5bed0001f9ee92,17,roll,critical,E,75,roll65.jpg,roll85.jpg,high,NULL
1687410543,63dbbdd109c859d399578aa4d3d4ac40,PennController,22,0,experiment,NULL,PennController,20,_Trial_,Start,1687410346060,5c5895f5af5bed0001f9ee92,5c5895f5af5bed0001f9ee92,18,ball,critical,E,25,ball15.jpg,ball35.jpg,high,NULL
1687410543,63dbbdd109c859d399578aa4d3d4ac40,PennController,22,0,experiment,NULL,PennController,20,_Header_,Start,1687410346060,5c5895f5af5bed0001f9ee92,5c5895f5af5bed0001f9ee92,18,ball,critical,E,25,ball15.jpg,ball35.jpg,high,NULL
1687410543,63dbbdd109c859d399578aa4d3d4ac40,PennController,22,0,experiment,NULL,PennController,20,_Header_,End,1687410346060,5c5895f5af5bed0001f9ee92,5c5895f5af5bed0001f9ee92,18,ball,critical,E,25,ball15.jpg,ball35.jpg,high,NULL
1687410543,63dbbdd109c859d399578aa4d3d4ac40,PennController,22,0,experiment,NULL,Canvas,canvas6,Print,NA,1687410351767,5c5895f5af5bed0001f9ee92,5c5895f5af5bed0001f9ee92,18,ball,critical,E,25,ball15.jpg,ball35.jpg,high,NULL
1687410543,63dbbdd109c859d399578aa4d3d4ac40,PennController,22,0,experiment,NULL,Video,progression,buffer,0.006176,1687410349588,5c5895f5af5bed0001f9ee92,5c5895f5af5bed0001f9ee92,18,ball,critical,E,25,ball15.jpg,ball35.jpg,high,NULL
1687410543,63dbbdd109c859d399578aa4d3d4ac40,PennController,22,0,experiment,NULL,Selector,choice,Selection,option2,1687410353675,5c5895f5af5bed0001f9ee92,5c5895f5af5bed0001f9ee92,18,ball,critical,E,25,ball15.jpg,ball35.jpg,high,option2;option1
1687410543,63dbbdd109c859d399578aa4d3d4ac40,PennController,22,0,experiment,NULL,PennController,20,_Trial_,End,1687410353677,5c5895f5af5bed0001f9ee92,5c5895f5af5bed0001f9ee92,18,ball,critical,E,25,ball15.jpg,ball35.jpg,high,NULL
1687410543,63dbbdd109c859d399578aa4d3d4ac40,PennController,6,0,experiment,NULL,PennController,4,_Trial_,Start,1687410353678,5c5895f5af5bed0001f9ee92,5c5895f5af5bed0001f9ee92,2,door,critical,E,75,door65.jpg,door85.jpg,high,NULL
1687410543,63dbbdd109c859d399578aa4d3d4ac40,PennController,6,0,experiment,NULL,PennController,4,_Header_,Start,1687410353678,5c5895f5af5bed0001f9ee92,5c5895f5af5bed0001f9ee92,2,door,critical,E,75,door65.jpg,door85.jpg,high,NULL
1687410543,63dbbdd109c859d399578aa4d3d4ac40,PennController,6,0,experiment,NULL,PennController,4,_Header_,End,1687410353678,5c5895f5af5bed0001f9ee92,5c5895f5af5bed0001f9ee92,2,door,critical,E,75,door65.jpg,door85.jpg,high,NULL
1687410543,63dbbdd109c859d399578aa4d3d4ac40,PennController,6,0,experiment,NULL,Canvas,canvas6,Print,NA,1687410361383,5c5895f5af5bed0001f9ee92,5c5895f5af5bed0001f9ee92,2,door,critical,E,75,door65.jpg,door85.jpg,high,NULL
1687410543,63dbbdd109c859d399578aa4d3d4ac40,PennController,6,0,experiment,NULL,Video,progression,buffer,0.006288,1687410357202,5c5895f5af5bed0001f9ee92,5c5895f5af5bed0001f9ee92,2,door,critical,E,75,door65.jpg,door85.jpg,high,NULL
1687410543,63dbbdd109c859d399578aa4d3d4ac40,PennController,6,0,experiment,NULL,Selector,choice,Selection,option1,1687410362557,5c5895f5af5bed0001f9ee92,5c5895f5af5bed0001f9ee92,2,door,critical,E,75,door65.jpg,door85.jpg,high,option2;option1
1687410543,63dbbdd109c859d399578aa4d3d4ac40,PennController,6,0,experiment,NULL,PennController,4,_Trial_,End,1687410362559,5c5895f5af5bed0001f9ee92,5c5895f5af5bed0001f9ee92,2,door,critical,E,75,door65.jpg,door85.jpg,high,NULL
1687410543,63dbbdd109c859d399578aa4d3d4ac40,PennController,25,0,experiment,NULL,PennController,23,_Trial_,Start,1687410362560,5c5895f5af5bed0001f9ee92,5c5895f5af5bed0001f9ee92,21,visit,filler,E,25,visit15.jpg,visit35.jpg,GoalB,NULL
1687410543,63dbbdd109c859d399578aa4d3d4ac40,PennController,25,0,experiment,NULL,PennController,23,_Header_,Start,1687410362560,5c5895f5af5bed0001f9ee92,5c5895f5af5bed0001f9ee92,21,visit,filler,E,25,visit15.jpg,visit35.jpg,GoalB,NULL
1687410543,63dbbdd109c859d399578aa4d3d4ac40,PennController,25,0,experiment,NULL,PennController,23,_Header_,End,1687410362560,5c5895f5af5bed0001f9ee92,5c5895f5af5bed0001f9ee92,21,visit,filler,E,25,visit15.jpg,visit35.jpg,GoalB,NULL
1687410543,63dbbdd109c859d399578aa4d3d4ac40,PennController,25,0,experiment,NULL,Canvas,canvas6,Print,NA,1687410368279,5c5895f5af5bed0001f9ee92,5c5895f5af5bed0001f9ee92,21,visit,filler,E,25,visit15.jpg,visit35.jpg,GoalB,NULL
1687410543,63dbbdd109c859d399578aa4d3d4ac40,PennController,25,0,experiment,NULL,Video,progression,buffer,0.004571,1687410366095,5c5895f5af5bed0001f9ee92,5c5895f5af5bed0001f9ee92,21,visit,filler,E,25,visit15.jpg,visit35.jpg,GoalB,NULL
1687410543,63dbbdd109c859d399578aa4d3d4ac40,PennController,25,0,experiment,NULL,Selector,choice,Selection,option2,1687410370101,5c5895f5af5bed0001f9ee92,5c5895f5af5bed0001f9ee92,21,visit,filler,E,25,visit15.jpg,visit35.jpg,GoalB,option2;option1
1687410543,63dbbdd109c859d399578aa4d3d4ac40,PennController,25,0,experiment,NULL,PennController,23,_Trial_,End,1687410370103,5c5895f5af5bed0001f9ee92,5c5895f5af5bed0001f9ee92,21,visit,filler,E,25,visit15.jpg,visit35.jpg,GoalB,NULL
1687410543,63dbbdd109c859d399578aa4d3d4ac40,PennController,27,0,experiment,NULL,PennController,25,_Trial_,Start,1687410370104,5c5895f5af5bed0001f9ee92,5c5895f5af5bed0001f9ee92,23,color,filler,E,75,color65.jpg,color85.jpg,GoalB,NULL
1687410543,63dbbdd109c859d399578aa4d3d4ac40,PennController,27,0,experiment,NULL,PennController,25,_Header_,Start,1687410370104,5c5895f5af5bed0001f9ee92,5c5895f5af5bed0001f9ee92,23,color,filler,E,75,color65.jpg,color85.jpg,GoalB,NULL
1687410543,63dbbdd109c859d399578aa4d3d4ac40,PennController,27,0,experiment,NULL,PennController,25,_Header_,End,1687410370104,5c5895f5af5bed0001f9ee92,5c5895f5af5bed0001f9ee92,23,color,filler,E,75,color65.jpg,color85.jpg,GoalB,NULL
1687410543,63dbbdd109c859d399578aa4d3d4ac40,PennController,27,0,experiment,NULL,Canvas,canvas6,Print,NA,1687410377820,5c5895f5af5bed0001f9ee92,5c5895f5af5bed0001f9ee92,23,color,filler,E,75,color65.jpg,color85.jpg,GoalB,NULL
1687410543,63dbbdd109c859d399578aa4d3d4ac40,PennController,27,0,experiment,NULL,Video,progression,buffer,0.006262,1687410373632,5c5895f5af5bed0001f9ee92,5c5895f5af5bed0001f9ee92,23,color,filler,E,75,color65.jpg,color85.jpg,GoalB,NULL
1687410543,63dbbdd109c859d399578aa4d3d4ac40,PennController,27,0,experiment,NULL,Selector,choice,Selection,option2,1687410381591,5c5895f5af5bed0001f9ee92,5c5895f5af5bed0001f9ee92,23,color,filler,E,75,color65.jpg,color85.jpg,GoalB,option2;option1
1687410543,63dbbdd109c859d399578aa4d3d4ac40,PennController,27,0,experiment,NULL,PennController,25,_Trial_,End,1687410381593,5c5895f5af5bed0001f9ee92,5c5895f5af5bed0001f9ee92,23,color,filler,E,75,color65.jpg,color85.jpg,GoalB,NULL
1687410543,63dbbdd109c859d399578aa4d3d4ac40,PennController,23,0,experiment,NULL,PennController,21,_Trial_,Start,1687410381594,5c5895f5af5bed0001f9ee92,5c5895f5af5bed0001f9ee92,19,cup,filler,E,50,cup40.jpg,cup60.jpg,GoalB,NULL
1687410543,63dbbdd109c859d399578aa4d3d4ac40,PennController,23,0,experiment,NULL,PennController,21,_Header_,Start,1687410381594,5c5895f5af5bed0001f9ee92,5c5895f5af5bed0001f9ee92,19,cup,filler,E,50,cup40.jpg,cup60.jpg,GoalB,NULL
1687410543,63dbbdd109c859d399578aa4d3d4ac40,PennController,23,0,experiment,NULL,PennController,21,_Header_,End,1687410381594,5c5895f5af5bed0001f9ee92,5c5895f5af5bed0001f9ee92,19,cup,filler,E,50,cup40.jpg,cup60.jpg,GoalB,NULL
1687410543,63dbbdd109c859d399578aa4d3d4ac40,PennController,23,0,experiment,NULL,Canvas,canvas6,Print,NA,1687410388312,5c5895f5af5bed0001f9ee92,5c5895f5af5bed0001f9ee92,19,cup,filler,E,50,cup40.jpg,cup60.jpg,GoalB,NULL
1687410543,63dbbdd109c859d399578aa4d3d4ac40,PennController,23,0,experiment,NULL,Video,progression,buffer,0.004266,1687410385126,5c5895f5af5bed0001f9ee92,5c5895f5af5bed0001f9ee92,19,cup,filler,E,50,cup40.jpg,cup60.jpg,GoalB,NULL
1687410543,63dbbdd109c859d399578aa4d3d4ac40,PennController,23,0,experiment,NULL,Selector,choice,Selection,option1,1687410390983,5c5895f5af5bed0001f9ee92,5c5895f5af5bed0001f9ee92,19,cup,filler,E,50,cup40.jpg,cup60.jpg,GoalB,option1;option2
1687410543,63dbbdd109c859d399578aa4d3d4ac40,PennController,23,0,experiment,NULL,PennController,21,_Trial_,End,1687410390984,5c5895f5af5bed0001f9ee92,5c5895f5af5bed0001f9ee92,19,cup,filler,E,50,cup40.jpg,cup60.jpg,GoalB,NULL
1687410543,63dbbdd109c859d399578aa4d3d4ac40,PennController,28,0,experiment,NULL,PennController,26,_Trial_,Start,1687410390985,5c5895f5af5bed0001f9ee92,5c5895f5af5bed0001f9ee92,24,match,filler,E,25,match15.jpg,match35.jpg,GoalA,NULL
1687410543,63dbbdd109c859d399578aa4d3d4ac40,PennController,28,0,experiment,NULL,PennController,26,_Header_,Start,1687410390985,5c5895f5af5bed0001f9ee92,5c5895f5af5bed0001f9ee92,24,match,filler,E,25,match15.jpg,match35.jpg,GoalA,NULL
1687410543,63dbbdd109c859d399578aa4d3d4ac40,PennController,28,0,experiment,NULL,PennController,26,_Header_,End,1687410390985,5c5895f5af5bed0001f9ee92,5c5895f5af5bed0001f9ee92,24,match,filler,E,25,match15.jpg,match35.jpg,GoalA,NULL
1687410543,63dbbdd109c859d399578aa4d3d4ac40,PennController,28,0,experiment,NULL,Canvas,canvas6,Print,NA,1687410396704,5c5895f5af5bed0001f9ee92,5c5895f5af5bed0001f9ee92,24,match,filler,E,25,match15.jpg,match35.jpg,GoalA,NULL
1687410543,63dbbdd109c859d399578aa4d3d4ac40,PennController,28,0,experiment,NULL,Video,progression,buffer,0.004284,1687410394517,5c5895f5af5bed0001f9ee92,5c5895f5af5bed0001f9ee92,24,match,filler,E,25,match15.jpg,match35.jpg,GoalA,NULL
1687410543,63dbbdd109c859d399578aa4d3d4ac40,PennController,28,0,experiment,NULL,Selector,choice,Selection,option1,1687410398745,5c5895f5af5bed0001f9ee92,5c5895f5af5bed0001f9ee92,24,match,filler,E,25,match15.jpg,match35.jpg,GoalA,option1;option2
1687410543,63dbbdd109c859d399578aa4d3d4ac40,PennController,28,0,experiment,NULL,PennController,26,_Trial_,End,1687410398746,5c5895f5af5bed0001f9ee92,5c5895f5af5bed0001f9ee92,24,match,filler,E,25,match15.jpg,match35.jpg,GoalA,NULL
1687410543,63dbbdd109c859d399578aa4d3d4ac40,PennController,26,0,experiment,NULL,PennController,24,_Trial_,Start,1687410398748,5c5895f5af5bed0001f9ee92,5c5895f5af5bed0001f9ee92,22,wall,filler,E,50,wall40.jpg,wall60.jpg,GoalA,NULL
1687410543,63dbbdd109c859d399578aa4d3d4ac40,PennController,26,0,experiment,NULL,PennController,24,_Header_,Start,1687410398748,5c5895f5af5bed0001f9ee92,5c5895f5af5bed0001f9ee92,22,wall,filler,E,50,wall40.jpg,wall60.jpg,GoalA,NULL
1687410543,63dbbdd109c859d399578aa4d3d4ac40,PennController,26,0,experiment,NULL,PennController,24,_Header_,End,1687410398748,5c5895f5af5bed0001f9ee92,5c5895f5af5bed0001f9ee92,22,wall,filler,E,50,wall40.jpg,wall60.jpg,GoalA,NULL
1687410543,63dbbdd109c859d399578aa4d3d4ac40,PennController,26,0,experiment,NULL,Canvas,canvas6,Print,NA,1687410405453,5c5895f5af5bed0001f9ee92,5c5895f5af5bed0001f9ee92,22,wall,filler,E,50,wall40.jpg,wall60.jpg,GoalA,NULL
1687410543,63dbbdd109c859d399578aa4d3d4ac40,PennController,26,0,experiment,NULL,Video,progression,buffer,0.005973,1687410402275,5c5895f5af5bed0001f9ee92,5c5895f5af5bed0001f9ee92,22,wall,filler,E,50,wall40.jpg,wall60.jpg,GoalA,NULL
1687410543,63dbbdd109c859d399578aa4d3d4ac40,PennController,26,0,experiment,NULL,Selector,choice,Selection,option2,1687410406883,5c5895f5af5bed0001f9ee92,5c5895f5af5bed0001f9ee92,22,wall,filler,E,50,wall40.jpg,wall60.jpg,GoalA,option2;option1
1687410543,63dbbdd109c859d399578aa4d3d4ac40,PennController,26,0,experiment,NULL,PennController,24,_Trial_,End,1687410406884,5c5895f5af5bed0001f9ee92,5c5895f5af5bed0001f9ee92,22,wall,filler,E,50,wall40.jpg,wall60.jpg,GoalA,NULL
1687410543,63dbbdd109c859d399578aa4d3d4ac40,PennController,18,0,experiment,NULL,PennController,16,_Trial_,Start,1687410406885,5c5895f5af5bed0001f9ee92,5c5895f5af5bed0001f9ee92,14,cover,critical,E,75,cover66.jpg,cover84.jpg,high,NULL
1687410543,63dbbdd109c859d399578aa4d3d4ac40,PennController,18,0,experiment,NULL,PennController,16,_Header_,Start,1687410406885,5c5895f5af5bed0001f9ee92,5c5895f5af5bed0001f9ee92,14,cover,critical,E,75,cover66.jpg,cover84.jpg,high,NULL
1687410543,63dbbdd109c859d399578aa4d3d4ac40,PennController,18,0,experiment,NULL,PennController,16,_Header_,End,1687410406885,5c5895f5af5bed0001f9ee92,5c5895f5af5bed0001f9ee92,14,cover,critical,E,75,cover66.jpg,cover84.jpg,high,NULL
1687410543,63dbbdd109c859d399578aa4d3d4ac40,PennController,18,0,experiment,NULL,Canvas,canvas6,Print,NA,1687410416604,5c5895f5af5bed0001f9ee92,5c5895f5af5bed0001f9ee92,14,cover,critical,E,75,cover66.jpg,cover84.jpg,high,NULL
1687410543,63dbbdd109c859d399578aa4d3d4ac40,PennController,18,0,experiment,NULL,Video,progression,buffer,0.006054,1687410410422,5c5895f5af5bed0001f9ee92,5c5895f5af5bed0001f9ee92,14,cover,critical,E,75,cover66.jpg,cover84.jpg,high,NULL
1687410543,63dbbdd109c859d399578aa4d3d4ac40,PennController,18,0,experiment,NULL,Selector,choice,Selection,option1,1687410419499,5c5895f5af5bed0001f9ee92,5c5895f5af5bed0001f9ee92,14,cover,critical,E,75,cover66.jpg,cover84.jpg,high,option2;option1
1687410543,63dbbdd109c859d399578aa4d3d4ac40,PennController,18,0,experiment,NULL,PennController,16,_Trial_,End,1687410419500,5c5895f5af5bed0001f9ee92,5c5895f5af5bed0001f9ee92,14,cover,critical,E,75,cover66.jpg,cover84.jpg,high,NULL
1687410543,63dbbdd109c859d399578aa4d3d4ac40,PennController,13,0,experiment,NULL,PennController,11,_Trial_,Start,1687410419502,5c5895f5af5bed0001f9ee92,5c5895f5af5bed0001f9ee92,9,cake,critical,E,25,cake15.jpg,cake33.jpg,high,NULL
1687410543,63dbbdd109c859d399578aa4d3d4ac40,PennController,13,0,experiment,NULL,PennController,11,_Header_,Start,1687410419502,5c5895f5af5bed0001f9ee92,5c5895f5af5bed0001f9ee92,9,cake,critical,E,25,cake15.jpg,cake33.jpg,high,NULL
1687410543,63dbbdd109c859d399578aa4d3d4ac40,PennController,13,0,experiment,NULL,PennController,11,_Header_,End,1687410419502,5c5895f5af5bed0001f9ee92,5c5895f5af5bed0001f9ee92,9,cake,critical,E,25,cake15.jpg,cake33.jpg,high,NULL
1687410543,63dbbdd109c859d399578aa4d3d4ac40,PennController,13,0,experiment,NULL,Canvas,canvas6,Print,NA,1687410425809,5c5895f5af5bed0001f9ee92,5c5895f5af5bed0001f9ee92,9,cake,critical,E,25,cake15.jpg,cake33.jpg,high,NULL
1687410543,63dbbdd109c859d399578aa4d3d4ac40,PennController,13,0,experiment,NULL,Video,progression,buffer,0.005852,1687410423031,5c5895f5af5bed0001f9ee92,5c5895f5af5bed0001f9ee92,9,cake,critical,E,25,cake15.jpg,cake33.jpg,high,NULL
1687410543,63dbbdd109c859d399578aa4d3d4ac40,PennController,13,0,experiment,NULL,Selector,choice,Selection,option2,1687410427789,5c5895f5af5bed0001f9ee92,5c5895f5af5bed0001f9ee92,9,cake,critical,E,25,cake15.jpg,cake33.jpg,high,option1;option2
1687410543,63dbbdd109c859d399578aa4d3d4ac40,PennController,13,0,experiment,NULL,PennController,11,_Trial_,End,1687410427790,5c5895f5af5bed0001f9ee92,5c5895f5af5bed0001f9ee92,9,cake,critical,E,25,cake15.jpg,cake33.jpg,high,NULL
1687410543,63dbbdd109c859d399578aa4d3d4ac40,PennController,20,0,experiment,NULL,PennController,18,_Trial_,Start,1687410427791,5c5895f5af5bed0001f9ee92,5c5895f5af5bed0001f9ee92,16,blinds,critical,E,50,blinds42.jpg,blinds60.jpg,high,NULL
1687410543,63dbbdd109c859d399578aa4d3d4ac40,PennController,20,0,experiment,NULL,PennController,18,_Header_,Start,1687410427791,5c5895f5af5bed0001f9ee92,5c5895f5af5bed0001f9ee92,16,blinds,critical,E,50,blinds42.jpg,blinds60.jpg,high,NULL
1687410543,63dbbdd109c859d399578aa4d3d4ac40,PennController,20,0,experiment,NULL,PennController,18,_Header_,End,1687410427791,5c5895f5af5bed0001f9ee92,5c5895f5af5bed0001f9ee92,16,blinds,critical,E,50,blinds42.jpg,blinds60.jpg,high,NULL
1687410543,63dbbdd109c859d399578aa4d3d4ac40,PennController,20,0,experiment,NULL,Canvas,canvas6,Print,NA,1687410435903,5c5895f5af5bed0001f9ee92,5c5895f5af5bed0001f9ee92,16,blinds,critical,E,50,blinds42.jpg,blinds60.jpg,high,NULL
1687410543,63dbbdd109c859d399578aa4d3d4ac40,PennController,20,0,experiment,NULL,Video,progression,buffer,0.006062,1687410431322,5c5895f5af5bed0001f9ee92,5c5895f5af5bed0001f9ee92,16,blinds,critical,E,50,blinds42.jpg,blinds60.jpg,high,NULL
1687410543,63dbbdd109c859d399578aa4d3d4ac40,PennController,20,0,experiment,NULL,Selector,choice,Selection,option2,1687410437913,5c5895f5af5bed0001f9ee92,5c5895f5af5bed0001f9ee92,16,blinds,critical,E,50,blinds42.jpg,blinds60.jpg,high,option2;option1
1687410543,63dbbdd109c859d399578aa4d3d4ac40,PennController,20,0,experiment,NULL,PennController,18,_Trial_,End,1687410437914,5c5895f5af5bed0001f9ee92,5c5895f5af5bed0001f9ee92,16,blinds,critical,E,50,blinds42.jpg,blinds60.jpg,high,NULL
1687410543,63dbbdd109c859d399578aa4d3d4ac40,PennController,29,0,experiment,NULL,PennController,27,_Trial_,Start,1687410437916,5c5895f5af5bed0001f9ee92,5c5895f5af5bed0001f9ee92,25,house,filler,E,50,house40.jpg,house60.jpg,GoalB,NULL
1687410543,63dbbdd109c859d399578aa4d3d4ac40,PennController,29,0,experiment,NULL,PennController,27,_Header_,Start,1687410437916,5c5895f5af5bed0001f9ee92,5c5895f5af5bed0001f9ee92,25,house,filler,E,50,house40.jpg,house60.jpg,GoalB,NULL
1687410543,63dbbdd109c859d399578aa4d3d4ac40,PennController,29,0,experiment,NULL,PennController,27,_Header_,End,1687410437916,5c5895f5af5bed0001f9ee92,5c5895f5af5bed0001f9ee92,25,house,filler,E,50,house40.jpg,house60.jpg,GoalB,NULL
1687410543,63dbbdd109c859d399578aa4d3d4ac40,PennController,29,0,experiment,NULL,Canvas,canvas6,Print,NA,1687410444627,5c5895f5af5bed0001f9ee92,5c5895f5af5bed0001f9ee92,25,house,filler,E,50,house40.jpg,house60.jpg,GoalB,NULL
1687410543,63dbbdd109c859d399578aa4d3d4ac40,PennController,29,0,experiment,NULL,Video,progression,buffer,0.005944,1687410441451,5c5895f5af5bed0001f9ee92,5c5895f5af5bed0001f9ee92,25,house,filler,E,50,house40.jpg,house60.jpg,GoalB,NULL
1687410543,63dbbdd109c859d399578aa4d3d4ac40,PennController,29,0,experiment,NULL,Selector,choice,Selection,option1,1687410446243,5c5895f5af5bed0001f9ee92,5c5895f5af5bed0001f9ee92,25,house,filler,E,50,house40.jpg,house60.jpg,GoalB,option1;option2
1687410543,63dbbdd109c859d399578aa4d3d4ac40,PennController,29,0,experiment,NULL,PennController,27,_Trial_,End,1687410446244,5c5895f5af5bed0001f9ee92,5c5895f5af5bed0001f9ee92,25,house,filler,E,50,house40.jpg,house60.jpg,GoalB,NULL
1687410543,63dbbdd109c859d399578aa4d3d4ac40,PennController,19,0,experiment,NULL,PennController,17,_Trial_,Start,1687410446245,5c5895f5af5bed0001f9ee92,5c5895f5af5bed0001f9ee92,15,zip,critical,E,25,zip15.jpg,zip35.jpg,high,NULL
1687410543,63dbbdd109c859d399578aa4d3d4ac40,PennController,19,0,experiment,NULL,PennController,17,_Header_,Start,1687410446245,5c5895f5af5bed0001f9ee92,5c5895f5af5bed0001f9ee92,15,zip,critical,E,25,zip15.jpg,zip35.jpg,high,NULL
1687410543,63dbbdd109c859d399578aa4d3d4ac40,PennController,19,0,experiment,NULL,PennController,17,_Header_,End,1687410446245,5c5895f5af5bed0001f9ee92,5c5895f5af5bed0001f9ee92,15,zip,critical,E,25,zip15.jpg,zip35.jpg,high,NULL
1687410543,63dbbdd109c859d399578aa4d3d4ac40,PennController,19,0,experiment,NULL,Canvas,canvas6,Print,NA,1687410451949,5c5895f5af5bed0001f9ee92,5c5895f5af5bed0001f9ee92,15,zip,critical,E,25,zip15.jpg,zip35.jpg,high,NULL
1687410543,63dbbdd109c859d399578aa4d3d4ac40,PennController,19,0,experiment,NULL,Video,progression,buffer,0.004219,1687410449773,5c5895f5af5bed0001f9ee92,5c5895f5af5bed0001f9ee92,15,zip,critical,E,25,zip15.jpg,zip35.jpg,high,NULL
1687410543,63dbbdd109c859d399578aa4d3d4ac40,PennController,19,0,experiment,NULL,Selector,choice,Selection,option2,1687410453605,5c5895f5af5bed0001f9ee92,5c5895f5af5bed0001f9ee92,15,zip,critical,E,25,zip15.jpg,zip35.jpg,high,option2;option1
1687410543,63dbbdd109c859d399578aa4d3d4ac40,PennController,19,0,experiment,NULL,PennController,17,_Trial_,End,1687410453606,5c5895f5af5bed0001f9ee92,5c5895f5af5bed0001f9ee92,15,zip,critical,E,25,zip15.jpg,zip35.jpg,high,NULL
1687410543,63dbbdd109c859d399578aa4d3d4ac40,PennController,32,0,experiment,NULL,PennController,30,_Trial_,Start,1687410453607,5c5895f5af5bed0001f9ee92,5c5895f5af5bed0001f9ee92,28,sort,filler,E,50,sort40.jpg,sort60.jpg,GoalA,NULL
1687410543,63dbbdd109c859d399578aa4d3d4ac40,PennController,32,0,experiment,NULL,PennController,30,_Header_,Start,1687410453607,5c5895f5af5bed0001f9ee92,5c5895f5af5bed0001f9ee92,28,sort,filler,E,50,sort40.jpg,sort60.jpg,GoalA,NULL
1687410543,63dbbdd109c859d399578aa4d3d4ac40,PennController,32,0,experiment,NULL,PennController,30,_Header_,End,1687410453607,5c5895f5af5bed0001f9ee92,5c5895f5af5bed0001f9ee92,28,sort,filler,E,50,sort40.jpg,sort60.jpg,GoalA,NULL
1687410543,63dbbdd109c859d399578aa4d3d4ac40,PennController,32,0,experiment,NULL,Canvas,canvas6,Print,NA,1687410460314,5c5895f5af5bed0001f9ee92,5c5895f5af5bed0001f9ee92,28,sort,filler,E,50,sort40.jpg,sort60.jpg,GoalA,NULL
1687410543,63dbbdd109c859d399578aa4d3d4ac40,PennController,32,0,experiment,NULL,Video,progression,buffer,0.004183,1687410457138,5c5895f5af5bed0001f9ee92,5c5895f5af5bed0001f9ee92,28,sort,filler,E,50,sort40.jpg,sort60.jpg,GoalA,NULL
1687410543,63dbbdd109c859d399578aa4d3d4ac40,PennController,32,0,experiment,NULL,Selector,choice,Selection,option2,1687410462599,5c5895f5af5bed0001f9ee92,5c5895f5af5bed0001f9ee92,28,sort,filler,E,50,sort40.jpg,sort60.jpg,GoalA,option2;option1
1687410543,63dbbdd109c859d399578aa4d3d4ac40,PennController,32,0,experiment,NULL,PennController,30,_Trial_,End,1687410462600,5c5895f5af5bed0001f9ee92,5c5895f5af5bed0001f9ee92,28,sort,filler,E,50,sort40.jpg,sort60.jpg,GoalA,NULL
1687410543,63dbbdd109c859d399578aa4d3d4ac40,PennController,11,0,experiment,NULL,PennController,9,_Trial_,Start,1687410462601,5c5895f5af5bed0001f9ee92,5c5895f5af5bed0001f9ee92,7,stack,critical,E,50,stack40.jpg,stack60.jpg,high,NULL
1687410543,63dbbdd109c859d399578aa4d3d4ac40,PennController,11,0,experiment,NULL,PennController,9,_Header_,Start,1687410462601,5c5895f5af5bed0001f9ee92,5c5895f5af5bed0001f9ee92,7,stack,critical,E,50,stack40.jpg,stack60.jpg,high,NULL
1687410543,63dbbdd109c859d399578aa4d3d4ac40,PennController,11,0,experiment,NULL,PennController,9,_Header_,End,1687410462601,5c5895f5af5bed0001f9ee92,5c5895f5af5bed0001f9ee92,7,stack,critical,E,50,stack40.jpg,stack60.jpg,high,NULL
1687410543,63dbbdd109c859d399578aa4d3d4ac40,PennController,11,0,experiment,NULL,Canvas,canvas6,Print,NA,1687410469316,5c5895f5af5bed0001f9ee92,5c5895f5af5bed0001f9ee92,7,stack,critical,E,50,stack40.jpg,stack60.jpg,high,NULL
1687410543,63dbbdd109c859d399578aa4d3d4ac40,PennController,11,0,experiment,NULL,Video,progression,buffer,0.006403,1687410466135,5c5895f5af5bed0001f9ee92,5c5895f5af5bed0001f9ee92,7,stack,critical,E,50,stack40.jpg,stack60.jpg,high,NULL
1687410543,63dbbdd109c859d399578aa4d3d4ac40,PennController,11,0,experiment,NULL,Selector,choice,Selection,option2,1687410470771,5c5895f5af5bed0001f9ee92,5c5895f5af5bed0001f9ee92,7,stack,critical,E,50,stack40.jpg,stack60.jpg,high,option1;option2
1687410543,63dbbdd109c859d399578aa4d3d4ac40,PennController,11,0,experiment,NULL,PennController,9,_Trial_,End,1687410470772,5c5895f5af5bed0001f9ee92,5c5895f5af5bed0001f9ee92,7,stack,critical,E,50,stack40.jpg,stack60.jpg,high,NULL
1687410543,63dbbdd109c859d399578aa4d3d4ac40,PennController,15,0,experiment,NULL,PennController,13,_Trial_,Start,1687410470773,5c5895f5af5bed0001f9ee92,5c5895f5af5bed0001f9ee92,11,beads,critical,E,75,beads65.jpg,beads85.jpg,high,NULL
1687410543,63dbbdd109c859d399578aa4d3d4ac40,PennController,15,0,experiment,NULL,PennController,13,_Header_,Start,1687410470773,5c5895f5af5bed0001f9ee92,5c5895f5af5bed0001f9ee92,11,beads,critical,E,75,beads65.jpg,beads85.jpg,high,NULL
1687410543,63dbbdd109c859d399578aa4d3d4ac40,PennController,15,0,experiment,NULL,PennController,13,_Header_,End,1687410470773,5c5895f5af5bed0001f9ee92,5c5895f5af5bed0001f9ee92,11,beads,critical,E,75,beads65.jpg,beads85.jpg,high,NULL
1687410543,63dbbdd109c859d399578aa4d3d4ac40,PennController,15,0,experiment,NULL,Canvas,canvas6,Print,NA,1687410478480,5c5895f5af5bed0001f9ee92,5c5895f5af5bed0001f9ee92,11,beads,critical,E,75,beads65.jpg,beads85.jpg,high,NULL
1687410543,63dbbdd109c859d399578aa4d3d4ac40,PennController,15,0,experiment,NULL,Video,progression,buffer,0.005875,1687410474306,5c5895f5af5bed0001f9ee92,5c5895f5af5bed0001f9ee92,11,beads,critical,E,75,beads65.jpg,beads85.jpg,high,NULL
1687410543,63dbbdd109c859d399578aa4d3d4ac40,PennController,15,0,experiment,NULL,Selector,choice,Selection,option1,1687410482451,5c5895f5af5bed0001f9ee92,5c5895f5af5bed0001f9ee92,11,beads,critical,E,75,beads65.jpg,beads85.jpg,high,option2;option1
1687410543,63dbbdd109c859d399578aa4d3d4ac40,PennController,15,0,experiment,NULL,PennController,13,_Trial_,End,1687410482452,5c5895f5af5bed0001f9ee92,5c5895f5af5bed0001f9ee92,11,beads,critical,E,75,beads65.jpg,beads85.jpg,high,NULL
1687410543,63dbbdd109c859d399578aa4d3d4ac40,PennController,12,0,experiment,NULL,PennController,10,_Trial_,Start,1687410482453,5c5895f5af5bed0001f9ee92,5c5895f5af5bed0001f9ee92,8,cucumber,critical,E,75,cucumber66.jpg,cucumber84.jpg,high,NULL
1687410543,63dbbdd109c859d399578aa4d3d4ac40,PennController,12,0,experiment,NULL,PennController,10,_Header_,Start,1687410482453,5c5895f5af5bed0001f9ee92,5c5895f5af5bed0001f9ee92,8,cucumber,critical,E,75,cucumber66.jpg,cucumber84.jpg,high,NULL
1687410543,63dbbdd109c859d399578aa4d3d4ac40,PennController,12,0,experiment,NULL,PennController,10,_Header_,End,1687410482453,5c5895f5af5bed0001f9ee92,5c5895f5af5bed0001f9ee92,8,cucumber,critical,E,75,cucumber66.jpg,cucumber84.jpg,high,NULL
1687410543,63dbbdd109c859d399578aa4d3d4ac40,PennController,12,0,experiment,NULL,Canvas,canvas6,Print,NA,1687410492162,5c5895f5af5bed0001f9ee92,5c5895f5af5bed0001f9ee92,8,cucumber,critical,E,75,cucumber66.jpg,cucumber84.jpg,high,NULL
1687410543,63dbbdd109c859d399578aa4d3d4ac40,PennController,12,0,experiment,NULL,Video,progression,buffer,0.00595,1687410485983,5c5895f5af5bed0001f9ee92,5c5895f5af5bed0001f9ee92,8,cucumber,critical,E,75,cucumber66.jpg,cucumber84.jpg,high,NULL
1687410543,63dbbdd109c859d399578aa4d3d4ac40,PennController,12,0,experiment,NULL,Selector,choice,Selection,option2,1687410493601,5c5895f5af5bed0001f9ee92,5c5895f5af5bed0001f9ee92,8,cucumber,critical,E,75,cucumber66.jpg,cucumber84.jpg,high,option2;option1
1687410543,63dbbdd109c859d399578aa4d3d4ac40,PennController,12,0,experiment,NULL,PennController,10,_Trial_,End,1687410493602,5c5895f5af5bed0001f9ee92,5c5895f5af5bed0001f9ee92,8,cucumber,critical,E,75,cucumber66.jpg,cucumber84.jpg,high,NULL
1687410543,63dbbdd109c859d399578aa4d3d4ac40,PennController,7,0,experiment,NULL,PennController,5,_Trial_,Start,1687410493603,5c5895f5af5bed0001f9ee92,5c5895f5af5bed0001f9ee92,3,clean,critical,E,25,clean15.jpg,clean35.jpg,high,NULL
1687410543,63dbbdd109c859d399578aa4d3d4ac40,PennController,7,0,experiment,NULL,PennController,5,_Header_,Start,1687410493603,5c5895f5af5bed0001f9ee92,5c5895f5af5bed0001f9ee92,3,clean,critical,E,25,clean15.jpg,clean35.jpg,high,NULL
1687410543,63dbbdd109c859d399578aa4d3d4ac40,PennController,7,0,experiment,NULL,PennController,5,_Header_,End,1687410493604,5c5895f5af5bed0001f9ee92,5c5895f5af5bed0001f9ee92,3,clean,critical,E,25,clean15.jpg,clean35.jpg,high,NULL
1687410543,63dbbdd109c859d399578aa4d3d4ac40,PennController,7,0,experiment,NULL,Canvas,canvas6,Print,NA,1687410499314,5c5895f5af5bed0001f9ee92,5c5895f5af5bed0001f9ee92,3,clean,critical,E,25,clean15.jpg,clean35.jpg,high,NULL
1687410543,63dbbdd109c859d399578aa4d3d4ac40,PennController,7,0,experiment,NULL,Video,progression,buffer,0.005975,1687410497134,5c5895f5af5bed0001f9ee92,5c5895f5af5bed0001f9ee92,3,clean,critical,E,25,clean15.jpg,clean35.jpg,high,NULL
1687410543,63dbbdd109c859d399578aa4d3d4ac40,PennController,7,0,experiment,NULL,Selector,choice,Selection,option1,1687410500431,5c5895f5af5bed0001f9ee92,5c5895f5af5bed0001f9ee92,3,clean,critical,E,25,clean15.jpg,clean35.jpg,high,option2;option1
1687410543,63dbbdd109c859d399578aa4d3d4ac40,PennController,7,0,experiment,NULL,PennController,5,_Trial_,End,1687410500432,5c5895f5af5bed0001f9ee92,5c5895f5af5bed0001f9ee92,3,clean,critical,E,25,clean15.jpg,clean35.jpg,high,NULL
1687410543,63dbbdd109c859d399578aa4d3d4ac40,PennController,10,0,experiment,NULL,PennController,8,_Trial_,Start,1687410500433,5c5895f5af5bed0001f9ee92,5c5895f5af5bed0001f9ee92,6,flower,critical,E,25,flower15.jpg,flower35.jpg,high,NULL
1687410543,63dbbdd109c859d399578aa4d3d4ac40,PennController,10,0,experiment,NULL,PennController,8,_Header_,Start,1687410500433,5c5895f5af5bed0001f9ee92,5c5895f5af5bed0001f9ee92,6,flower,critical,E,25,flower15.jpg,flower35.jpg,high,NULL
1687410543,63dbbdd109c859d399578aa4d3d4ac40,PennController,10,0,experiment,NULL,PennController,8,_Header_,End,1687410500433,5c5895f5af5bed0001f9ee92,5c5895f5af5bed0001f9ee92,6,flower,critical,E,25,flower15.jpg,flower35.jpg,high,NULL
1687410543,63dbbdd109c859d399578aa4d3d4ac40,PennController,10,0,experiment,NULL,Canvas,canvas6,Print,NA,1687410506143,5c5895f5af5bed0001f9ee92,5c5895f5af5bed0001f9ee92,6,flower,critical,E,25,flower15.jpg,flower35.jpg,high,NULL
1687410543,63dbbdd109c859d399578aa4d3d4ac40,PennController,10,0,experiment,NULL,Video,progression,buffer,0.006162,1687410503963,5c5895f5af5bed0001f9ee92,5c5895f5af5bed0001f9ee92,6,flower,critical,E,25,flower15.jpg,flower35.jpg,high,NULL
1687410543,63dbbdd109c859d399578aa4d3d4ac40,PennController,10,0,experiment,NULL,Selector,choice,Selection,option2,1687410507340,5c5895f5af5bed0001f9ee92,5c5895f5af5bed0001f9ee92,6,flower,critical,E,25,flower15.jpg,flower35.jpg,high,option1;option2
1687410543,63dbbdd109c859d399578aa4d3d4ac40,PennController,10,0,experiment,NULL,PennController,8,_Trial_,End,1687410507342,5c5895f5af5bed0001f9ee92,5c5895f5af5bed0001f9ee92,6,flower,critical,E,25,flower15.jpg,flower35.jpg,high,NULL
1687410543,63dbbdd109c859d399578aa4d3d4ac40,PennController,30,0,experiment,NULL,PennController,28,_Trial_,Start,1687410507343,5c5895f5af5bed0001f9ee92,5c5895f5af5bed0001f9ee92,26,sandwich,filler,E,75,sandwich65.jpg,sandwich85.jpg,GoalA,NULL
1687410543,63dbbdd109c859d399578aa4d3d4ac40,PennController,30,0,experiment,NULL,PennController,28,_Header_,Start,1687410507343,5c5895f5af5bed0001f9ee92,5c5895f5af5bed0001f9ee92,26,sandwich,filler,E,75,sandwich65.jpg,sandwich85.jpg,GoalA,NULL
1687410543,63dbbdd109c859d399578aa4d3d4ac40,PennController,30,0,experiment,NULL,PennController,28,_Header_,End,1687410507343,5c5895f5af5bed0001f9ee92,5c5895f5af5bed0001f9ee92,26,sandwich,filler,E,75,sandwich65.jpg,sandwich85.jpg,GoalA,NULL
1687410543,63dbbdd109c859d399578aa4d3d4ac40,PennController,30,0,experiment,NULL,Canvas,canvas6,Print,NA,1687410515054,5c5895f5af5bed0001f9ee92,5c5895f5af5bed0001f9ee92,26,sandwich,filler,E,75,sandwich65.jpg,sandwich85.jpg,GoalA,NULL
1687410543,63dbbdd109c859d399578aa4d3d4ac40,PennController,30,0,experiment,NULL,Video,progression,buffer,0.007954,1687410510874,5c5895f5af5bed0001f9ee92,5c5895f5af5bed0001f9ee92,26,sandwich,filler,E,75,sandwich65.jpg,sandwich85.jpg,GoalA,NULL
1687410543,63dbbdd109c859d399578aa4d3d4ac40,PennController,30,0,experiment,NULL,Selector,choice,Selection,option1,1687410516416,5c5895f5af5bed0001f9ee92,5c5895f5af5bed0001f9ee92,26,sandwich,filler,E,75,sandwich65.jpg,sandwich85.jpg,GoalA,option2;option1
1687410543,63dbbdd109c859d399578aa4d3d4ac40,PennController,30,0,experiment,NULL,PennController,28,_Trial_,End,1687410516418,5c5895f5af5bed0001f9ee92,5c5895f5af5bed0001f9ee92,26,sandwich,filler,E,75,sandwich65.jpg,sandwich85.jpg,GoalA,NULL
1687410543,63dbbdd109c859d399578aa4d3d4ac40,PennController,33,0,experiment,NULL,PennController,31,_Trial_,Start,1687410516419,5c5895f5af5bed0001f9ee92,5c5895f5af5bed0001f9ee92,29,frog,filler,E,75,frog65.jpg,frog85.jpg,GoalB,NULL
1687410543,63dbbdd109c859d399578aa4d3d4ac40,PennController,33,0,experiment,NULL,PennController,31,_Header_,Start,1687410516419,5c5895f5af5bed0001f9ee92,5c5895f5af5bed0001f9ee92,29,frog,filler,E,75,frog65.jpg,frog85.jpg,GoalB,NULL
1687410543,63dbbdd109c859d399578aa4d3d4ac40,PennController,33,0,experiment,NULL,PennController,31,_Header_,End,1687410516419,5c5895f5af5bed0001f9ee92,5c5895f5af5bed0001f9ee92,29,frog,filler,E,75,frog65.jpg,frog85.jpg,GoalB,NULL
1687410543,63dbbdd109c859d399578aa4d3d4ac40,PennController,33,0,experiment,NULL,Canvas,canvas6,Print,NA,1687410524124,5c5895f5af5bed0001f9ee92,5c5895f5af5bed0001f9ee92,29,frog,filler,E,75,frog65.jpg,frog85.jpg,GoalB,NULL
1687410543,63dbbdd109c859d399578aa4d3d4ac40,PennController,33,0,experiment,NULL,Video,progression,buffer,0.004169,1687410519945,5c5895f5af5bed0001f9ee92,5c5895f5af5bed0001f9ee92,29,frog,filler,E,75,frog65.jpg,frog85.jpg,GoalB,NULL
1687410543,63dbbdd109c859d399578aa4d3d4ac40,PennController,33,0,experiment,NULL,Selector,choice,Selection,option1,1687410525736,5c5895f5af5bed0001f9ee92,5c5895f5af5bed0001f9ee92,29,frog,filler,E,75,frog65.jpg,frog85.jpg,GoalB,option1;option2
1687410543,63dbbdd109c859d399578aa4d3d4ac40,PennController,33,0,experiment,NULL,PennController,31,_Trial_,End,1687410525737,5c5895f5af5bed0001f9ee92,5c5895f5af5bed0001f9ee92,29,frog,filler,E,75,frog65.jpg,frog85.jpg,GoalB,NULL
1687410543,63dbbdd109c859d399578aa4d3d4ac40,PennController,8,0,experiment,NULL,PennController,6,_Trial_,Start,1687410525739,5c5895f5af5bed0001f9ee92,5c5895f5af5bed0001f9ee92,4,candy,critical,E,50,candy40.jpg,candy60.jpg,high,NULL
1687410543,63dbbdd109c859d399578aa4d3d4ac40,PennController,8,0,experiment,NULL,PennController,6,_Header_,Start,1687410525739,5c5895f5af5bed0001f9ee92,5c5895f5af5bed0001f9ee92,4,candy,critical,E,50,candy40.jpg,candy60.jpg,high,NULL
1687410543,63dbbdd109c859d399578aa4d3d4ac40,PennController,8,0,experiment,NULL,PennController,6,_Header_,End,1687410525739,5c5895f5af5bed0001f9ee92,5c5895f5af5bed0001f9ee92,4,candy,critical,E,50,candy40.jpg,candy60.jpg,high,NULL
1687410543,63dbbdd109c859d399578aa4d3d4ac40,PennController,8,0,experiment,NULL,Canvas,canvas6,Print,NA,1687410532446,5c5895f5af5bed0001f9ee92,5c5895f5af5bed0001f9ee92,4,candy,critical,E,50,candy40.jpg,candy60.jpg,high,NULL
1687410543,63dbbdd109c859d399578aa4d3d4ac40,PennController,8,0,experiment,NULL,Video,progression,buffer,0.005958,1687410529267,5c5895f5af5bed0001f9ee92,5c5895f5af5bed0001f9ee92,4,candy,critical,E,50,candy40.jpg,candy60.jpg,high,NULL
1687410543,63dbbdd109c859d399578aa4d3d4ac40,PennController,8,0,experiment,NULL,Selector,choice,Selection,option2,1687410534850,5c5895f5af5bed0001f9ee92,5c5895f5af5bed0001f9ee92,4,candy,critical,E,50,candy40.jpg,candy60.jpg,high,option2;option1
1687410543,63dbbdd109c859d399578aa4d3d4ac40,PennController,8,0,experiment,NULL,PennController,6,_Trial_,End,1687410534851,5c5895f5af5bed0001f9ee92,5c5895f5af5bed0001f9ee92,4,candy,critical,E,50,candy40.jpg,candy60.jpg,high,NULL
1687410543,63dbbdd109c859d399578aa4d3d4ac40,PennController,17,0,experiment,NULL,PennController,15,_Trial_,Start,1687410534852,5c5895f5af5bed0001f9ee92,5c5895f5af5bed0001f9ee92,13,mix,critical,E,50,mix40.jpg,mix60.jpg,high,NULL
1687410543,63dbbdd109c859d399578aa4d3d4ac40,PennController,17,0,experiment,NULL,PennController,15,_Header_,Start,1687410534852,5c5895f5af5bed0001f9ee92,5c5895f5af5bed0001f9ee92,13,mix,critical,E,50,mix40.jpg,mix60.jpg,high,NULL
1687410543,63dbbdd109c859d399578aa4d3d4ac40,PennController,17,0,experiment,NULL,PennController,15,_Header_,End,1687410534852,5c5895f5af5bed0001f9ee92,5c5895f5af5bed0001f9ee92,13,mix,critical,E,50,mix40.jpg,mix60.jpg,high,NULL
1687410543,63dbbdd109c859d399578aa4d3d4ac40,PennController,17,0,experiment,NULL,Canvas,canvas6,Print,NA,1687410541552,5c5895f5af5bed0001f9ee92,5c5895f5af5bed0001f9ee92,13,mix,critical,E,50,mix40.jpg,mix60.jpg,high,NULL
1687410543,63dbbdd109c859d399578aa4d3d4ac40,PennController,17,0,experiment,NULL,Video,progression,buffer,0.00585,1687410538382,5c5895f5af5bed0001f9ee92,5c5895f5af5bed0001f9ee92,13,mix,critical,E,50,mix40.jpg,mix60.jpg,high,NULL
1687410543,63dbbdd109c859d399578aa4d3d4ac40,PennController,17,0,experiment,NULL,Selector,choice,Selection,option1,1687410543420,5c5895f5af5bed0001f9ee92,5c5895f5af5bed0001f9ee92,13,mix,critical,E,50,mix40.jpg,mix60.jpg,high,option2;option1
1687410543,63dbbdd109c859d399578aa4d3d4ac40,PennController,17,0,experiment,NULL,PennController,15,_Trial_,End,1687410543422,5c5895f5af5bed0001f9ee92,5c5895f5af5bed0001f9ee92,13,mix,critical,E,50,mix40.jpg,mix60.jpg,high,NULL
