#
# Results on Wednesday June 21 2023 19:58:41 UTC
# USER AGENT: Mozilla/5.0 (Windows NT 10.0; Win64; x64) AppleWebKit/537.36 (KHTML, like Gecko) Chrome/114.0.0.0 Safari/537.36
# Design number was non-random = 67
#
# Columns below this comment are as follows:
# 1. Results reception time.
# 2. MD5 hash of participant's IP address.
# 3. Controller name.
# 4. Order number of item.
# 5. Inner element number.
# 6. Label.
# 7. Latin Square Group.
# 8. PennElementType.
# 9. PennElementName.
# 10. Parameter.
# 11. Value.
# 12. EventTime.
# 13. PROLIFIC_ID.
# 14. Comments.
1687377521,be41e14d56ddba7dd4d658e0d7f1ff79,PennController,3,0,consent,NULL,PennController,0,_Trial_,Start,1687377109757,615ca96d7640b6c31b9e4462,NULL
1687377521,be41e14d56ddba7dd4d658e0d7f1ff79,PennController,3,0,consent,NULL,PennController,0,_Header_,Start,1687377109757,615ca96d7640b6c31b9e4462,NULL
1687377521,be41e14d56ddba7dd4d658e0d7f1ff79,PennController,3,0,consent,NULL,PennController,0,_Header_,End,1687377109757,615ca96d7640b6c31b9e4462,NULL
1687377521,be41e14d56ddba7dd4d658e0d7f1ff79,PennController,3,0,consent,NULL,PennController,0,_Trial_,End,1687377196548,615ca96d7640b6c31b9e4462,NULL
# Columns below this comment are as follows:
# 14. ID.
# 15. Comments.
1687377521,be41e14d56ddba7dd4d658e0d7f1ff79,PennController,4,0,intro,NULL,PennController,1,_Trial_,Start,1687377196550,615ca96d7640b6c31b9e4462,615ca96d7640b6c31b9e4462,NULL
1687377521,be41e14d56ddba7dd4d658e0d7f1ff79,PennController,4,0,intro,NULL,PennController,1,_Header_,Start,1687377196550,615ca96d7640b6c31b9e4462,615ca96d7640b6c31b9e4462,NULL
1687377521,be41e14d56ddba7dd4d658e0d7f1ff79,PennController,4,0,intro,NULL,PennController,1,_Header_,End,1687377196550,615ca96d7640b6c31b9e4462,615ca96d7640b6c31b9e4462,NULL
1687377521,be41e14d56ddba7dd4d658e0d7f1ff79,PennController,4,0,intro,NULL,PennController,1,_Trial_,End,1687377229248,615ca96d7640b6c31b9e4462,615ca96d7640b6c31b9e4462,NULL
# Columns below this comment are as follows:
# 15. item_number.
# 16. item.
# 17. type.
# 18. Group.
# 19. prog.
# 20. prev_image.
# 21. next_image.
# 22. height.
# 23. Comments.
1687377521,be41e14d56ddba7dd4d658e0d7f1ff79,PennController,13,0,experiment,NULL,PennController,11,_Trial_,Start,1687377229251,615ca96d7640b6c31b9e4462,615ca96d7640b6c31b9e4462,9,cake,critical,F,50,cake42.jpg,cake60.jpg,high,NULL
1687377521,be41e14d56ddba7dd4d658e0d7f1ff79,PennController,13,0,experiment,NULL,PennController,11,_Header_,Start,1687377229251,615ca96d7640b6c31b9e4462,615ca96d7640b6c31b9e4462,9,cake,critical,F,50,cake42.jpg,cake60.jpg,high,NULL
1687377521,be41e14d56ddba7dd4d658e0d7f1ff79,PennController,13,0,experiment,NULL,PennController,11,_Header_,End,1687377229251,615ca96d7640b6c31b9e4462,615ca96d7640b6c31b9e4462,9,cake,critical,F,50,cake42.jpg,cake60.jpg,high,NULL
1687377521,be41e14d56ddba7dd4d658e0d7f1ff79,PennController,13,0,experiment,NULL,Canvas,canvas6,Print,NA,1687377237355,615ca96d7640b6c31b9e4462,615ca96d7640b6c31b9e4462,9,cake,critical,F,50,cake42.jpg,cake60.jpg,high,NULL
1687377521,be41e14d56ddba7dd4d658e0d7f1ff79,PennController,13,0,experiment,NULL,Video,progression,buffer,0.003761,1687377232783,615ca96d7640b6c31b9e4462,615ca96d7640b6c31b9e4462,9,cake,critical,F,50,cake42.jpg,cake60.jpg,high,NULL
1687377521,be41e14d56ddba7dd4d658e0d7f1ff79,PennController,13,0,experiment,NULL,Selector,choice,Selection,option2,1687377240391,615ca96d7640b6c31b9e4462,615ca96d7640b6c31b9e4462,9,cake,critical,F,50,cake42.jpg,cake60.jpg,high,option1;option2
1687377521,be41e14d56ddba7dd4d658e0d7f1ff79,PennController,13,0,experiment,NULL,PennController,11,_Trial_,End,1687377240393,615ca96d7640b6c31b9e4462,615ca96d7640b6c31b9e4462,9,cake,critical,F,50,cake42.jpg,cake60.jpg,high,NULL
1687377521,be41e14d56ddba7dd4d658e0d7f1ff79,PennController,11,0,experiment,NULL,PennController,9,_Trial_,Start,1687377240394,615ca96d7640b6c31b9e4462,615ca96d7640b6c31b9e4462,7,stack,critical,F,75,stack65.jpg,stack85.jpg,high,NULL
1687377521,be41e14d56ddba7dd4d658e0d7f1ff79,PennController,11,0,experiment,NULL,PennController,9,_Header_,Start,1687377240394,615ca96d7640b6c31b9e4462,615ca96d7640b6c31b9e4462,7,stack,critical,F,75,stack65.jpg,stack85.jpg,high,NULL
1687377521,be41e14d56ddba7dd4d658e0d7f1ff79,PennController,11,0,experiment,NULL,PennController,9,_Header_,End,1687377240394,615ca96d7640b6c31b9e4462,615ca96d7640b6c31b9e4462,7,stack,critical,F,75,stack65.jpg,stack85.jpg,high,NULL
1687377521,be41e14d56ddba7dd4d658e0d7f1ff79,PennController,11,0,experiment,NULL,Canvas,canvas6,Print,NA,1687377248091,615ca96d7640b6c31b9e4462,615ca96d7640b6c31b9e4462,7,stack,critical,F,75,stack65.jpg,stack85.jpg,high,NULL
1687377521,be41e14d56ddba7dd4d658e0d7f1ff79,PennController,11,0,experiment,NULL,Video,progression,buffer,0.003252,1687377243924,615ca96d7640b6c31b9e4462,615ca96d7640b6c31b9e4462,7,stack,critical,F,75,stack65.jpg,stack85.jpg,high,NULL
1687377521,be41e14d56ddba7dd4d658e0d7f1ff79,PennController,11,0,experiment,NULL,Selector,choice,Selection,option2,1687377251697,615ca96d7640b6c31b9e4462,615ca96d7640b6c31b9e4462,7,stack,critical,F,75,stack65.jpg,stack85.jpg,high,option1;option2
1687377521,be41e14d56ddba7dd4d658e0d7f1ff79,PennController,11,0,experiment,NULL,PennController,9,_Trial_,End,1687377251698,615ca96d7640b6c31b9e4462,615ca96d7640b6c31b9e4462,7,stack,critical,F,75,stack65.jpg,stack85.jpg,high,NULL
1687377521,be41e14d56ddba7dd4d658e0d7f1ff79,PennController,5,0,experiment,NULL,PennController,3,_Trial_,Start,1687377251699,615ca96d7640b6c31b9e4462,615ca96d7640b6c31b9e4462,1,vase,critical,F,75,vase65.jpg,vase85.jpg,high,NULL
1687377521,be41e14d56ddba7dd4d658e0d7f1ff79,PennController,5,0,experiment,NULL,PennController,3,_Header_,Start,1687377251699,615ca96d7640b6c31b9e4462,615ca96d7640b6c31b9e4462,1,vase,critical,F,75,vase65.jpg,vase85.jpg,high,NULL
1687377521,be41e14d56ddba7dd4d658e0d7f1ff79,PennController,5,0,experiment,NULL,PennController,3,_Header_,End,1687377251700,615ca96d7640b6c31b9e4462,615ca96d7640b6c31b9e4462,1,vase,critical,F,75,vase65.jpg,vase85.jpg,high,NULL
1687377521,be41e14d56ddba7dd4d658e0d7f1ff79,PennController,5,0,experiment,NULL,Canvas,canvas6,Print,NA,1687377259406,615ca96d7640b6c31b9e4462,615ca96d7640b6c31b9e4462,1,vase,critical,F,75,vase65.jpg,vase85.jpg,high,NULL
1687377521,be41e14d56ddba7dd4d658e0d7f1ff79,PennController,5,0,experiment,NULL,Video,progression,buffer,0.002934,1687377255229,615ca96d7640b6c31b9e4462,615ca96d7640b6c31b9e4462,1,vase,critical,F,75,vase65.jpg,vase85.jpg,high,NULL
1687377521,be41e14d56ddba7dd4d658e0d7f1ff79,PennController,5,0,experiment,NULL,Selector,choice,Selection,option2,1687377261919,615ca96d7640b6c31b9e4462,615ca96d7640b6c31b9e4462,1,vase,critical,F,75,vase65.jpg,vase85.jpg,high,option2;option1
1687377521,be41e14d56ddba7dd4d658e0d7f1ff79,PennController,5,0,experiment,NULL,PennController,3,_Trial_,End,1687377261920,615ca96d7640b6c31b9e4462,615ca96d7640b6c31b9e4462,1,vase,critical,F,75,vase65.jpg,vase85.jpg,high,NULL
1687377521,be41e14d56ddba7dd4d658e0d7f1ff79,PennController,33,0,experiment,NULL,PennController,31,_Trial_,Start,1687377261921,615ca96d7640b6c31b9e4462,615ca96d7640b6c31b9e4462,29,frog,filler,F,25,frog15.jpg,frog35.jpg,GoalB,NULL
1687377521,be41e14d56ddba7dd4d658e0d7f1ff79,PennController,33,0,experiment,NULL,PennController,31,_Header_,Start,1687377261921,615ca96d7640b6c31b9e4462,615ca96d7640b6c31b9e4462,29,frog,filler,F,25,frog15.jpg,frog35.jpg,GoalB,NULL
1687377521,be41e14d56ddba7dd4d658e0d7f1ff79,PennController,33,0,experiment,NULL,PennController,31,_Header_,End,1687377261922,615ca96d7640b6c31b9e4462,615ca96d7640b6c31b9e4462,29,frog,filler,F,25,frog15.jpg,frog35.jpg,GoalB,NULL
1687377521,be41e14d56ddba7dd4d658e0d7f1ff79,PennController,33,0,experiment,NULL,Canvas,canvas6,Print,NA,1687377267646,615ca96d7640b6c31b9e4462,615ca96d7640b6c31b9e4462,29,frog,filler,F,25,frog15.jpg,frog35.jpg,GoalB,NULL
1687377521,be41e14d56ddba7dd4d658e0d7f1ff79,PennController,33,0,experiment,NULL,Video,progression,buffer,0.003216,1687377265462,615ca96d7640b6c31b9e4462,615ca96d7640b6c31b9e4462,29,frog,filler,F,25,frog15.jpg,frog35.jpg,GoalB,NULL
1687377521,be41e14d56ddba7dd4d658e0d7f1ff79,PennController,33,0,experiment,NULL,Selector,choice,Selection,option2,1687377270307,615ca96d7640b6c31b9e4462,615ca96d7640b6c31b9e4462,29,frog,filler,F,25,frog15.jpg,frog35.jpg,GoalB,option2;option1
1687377521,be41e14d56ddba7dd4d658e0d7f1ff79,PennController,33,0,experiment,NULL,PennController,31,_Trial_,End,1687377270308,615ca96d7640b6c31b9e4462,615ca96d7640b6c31b9e4462,29,frog,filler,F,25,frog15.jpg,frog35.jpg,GoalB,NULL
1687377521,be41e14d56ddba7dd4d658e0d7f1ff79,PennController,29,0,experiment,NULL,PennController,27,_Trial_,Start,1687377270309,615ca96d7640b6c31b9e4462,615ca96d7640b6c31b9e4462,25,house,filler,F,75,house65.jpg,house85.jpg,GoalB,NULL
1687377521,be41e14d56ddba7dd4d658e0d7f1ff79,PennController,29,0,experiment,NULL,PennController,27,_Header_,Start,1687377270309,615ca96d7640b6c31b9e4462,615ca96d7640b6c31b9e4462,25,house,filler,F,75,house65.jpg,house85.jpg,GoalB,NULL
1687377521,be41e14d56ddba7dd4d658e0d7f1ff79,PennController,29,0,experiment,NULL,PennController,27,_Header_,End,1687377270309,615ca96d7640b6c31b9e4462,615ca96d7640b6c31b9e4462,25,house,filler,F,75,house65.jpg,house85.jpg,GoalB,NULL
1687377521,be41e14d56ddba7dd4d658e0d7f1ff79,PennController,29,0,experiment,NULL,Canvas,canvas6,Print,NA,1687377278008,615ca96d7640b6c31b9e4462,615ca96d7640b6c31b9e4462,25,house,filler,F,75,house65.jpg,house85.jpg,GoalB,NULL
1687377521,be41e14d56ddba7dd4d658e0d7f1ff79,PennController,29,0,experiment,NULL,Video,progression,buffer,0.003722,1687377273840,615ca96d7640b6c31b9e4462,615ca96d7640b6c31b9e4462,25,house,filler,F,75,house65.jpg,house85.jpg,GoalB,NULL
1687377521,be41e14d56ddba7dd4d658e0d7f1ff79,PennController,29,0,experiment,NULL,Selector,choice,Selection,option2,1687377280720,615ca96d7640b6c31b9e4462,615ca96d7640b6c31b9e4462,25,house,filler,F,75,house65.jpg,house85.jpg,GoalB,option1;option2
1687377521,be41e14d56ddba7dd4d658e0d7f1ff79,PennController,29,0,experiment,NULL,PennController,27,_Trial_,End,1687377280721,615ca96d7640b6c31b9e4462,615ca96d7640b6c31b9e4462,25,house,filler,F,75,house65.jpg,house85.jpg,GoalB,NULL
1687377521,be41e14d56ddba7dd4d658e0d7f1ff79,PennController,30,0,experiment,NULL,PennController,28,_Trial_,Start,1687377280722,615ca96d7640b6c31b9e4462,615ca96d7640b6c31b9e4462,26,sandwich,filler,F,25,sandwich15.jpg,sandwich35.jpg,GoalA,NULL
1687377521,be41e14d56ddba7dd4d658e0d7f1ff79,PennController,30,0,experiment,NULL,PennController,28,_Header_,Start,1687377280722,615ca96d7640b6c31b9e4462,615ca96d7640b6c31b9e4462,26,sandwich,filler,F,25,sandwich15.jpg,sandwich35.jpg,GoalA,NULL
1687377521,be41e14d56ddba7dd4d658e0d7f1ff79,PennController,30,0,experiment,NULL,PennController,28,_Header_,End,1687377280722,615ca96d7640b6c31b9e4462,615ca96d7640b6c31b9e4462,26,sandwich,filler,F,25,sandwich15.jpg,sandwich35.jpg,GoalA,NULL
1687377521,be41e14d56ddba7dd4d658e0d7f1ff79,PennController,30,0,experiment,NULL,Canvas,canvas6,Print,NA,1687377286425,615ca96d7640b6c31b9e4462,615ca96d7640b6c31b9e4462,26,sandwich,filler,F,25,sandwich15.jpg,sandwich35.jpg,GoalA,NULL
1687377521,be41e14d56ddba7dd4d658e0d7f1ff79,PennController,30,0,experiment,NULL,Video,progression,buffer,0.003358,1687377284253,615ca96d7640b6c31b9e4462,615ca96d7640b6c31b9e4462,26,sandwich,filler,F,25,sandwich15.jpg,sandwich35.jpg,GoalA,NULL
1687377521,be41e14d56ddba7dd4d658e0d7f1ff79,PennController,30,0,experiment,NULL,Selector,choice,Selection,option1,1687377288351,615ca96d7640b6c31b9e4462,615ca96d7640b6c31b9e4462,26,sandwich,filler,F,25,sandwich15.jpg,sandwich35.jpg,GoalA,option2;option1
1687377521,be41e14d56ddba7dd4d658e0d7f1ff79,PennController,30,0,experiment,NULL,PennController,28,_Trial_,End,1687377288352,615ca96d7640b6c31b9e4462,615ca96d7640b6c31b9e4462,26,sandwich,filler,F,25,sandwich15.jpg,sandwich35.jpg,GoalA,NULL
1687377521,be41e14d56ddba7dd4d658e0d7f1ff79,PennController,23,0,experiment,NULL,PennController,21,_Trial_,Start,1687377288354,615ca96d7640b6c31b9e4462,615ca96d7640b6c31b9e4462,19,cup,filler,F,75,cup65.jpg,cup85.jpg,GoalB,NULL
1687377521,be41e14d56ddba7dd4d658e0d7f1ff79,PennController,23,0,experiment,NULL,PennController,21,_Header_,Start,1687377288354,615ca96d7640b6c31b9e4462,615ca96d7640b6c31b9e4462,19,cup,filler,F,75,cup65.jpg,cup85.jpg,GoalB,NULL
1687377521,be41e14d56ddba7dd4d658e0d7f1ff79,PennController,23,0,experiment,NULL,PennController,21,_Header_,End,1687377288354,615ca96d7640b6c31b9e4462,615ca96d7640b6c31b9e4462,19,cup,filler,F,75,cup65.jpg,cup85.jpg,GoalB,NULL
1687377521,be41e14d56ddba7dd4d658e0d7f1ff79,PennController,23,0,experiment,NULL,Canvas,canvas6,Print,NA,1687377296067,615ca96d7640b6c31b9e4462,615ca96d7640b6c31b9e4462,19,cup,filler,F,75,cup65.jpg,cup85.jpg,GoalB,NULL
1687377521,be41e14d56ddba7dd4d658e0d7f1ff79,PennController,23,0,experiment,NULL,Video,progression,buffer,0.003203,1687377291885,615ca96d7640b6c31b9e4462,615ca96d7640b6c31b9e4462,19,cup,filler,F,75,cup65.jpg,cup85.jpg,GoalB,NULL
1687377521,be41e14d56ddba7dd4d658e0d7f1ff79,PennController,23,0,experiment,NULL,Selector,choice,Selection,option1,1687377297884,615ca96d7640b6c31b9e4462,615ca96d7640b6c31b9e4462,19,cup,filler,F,75,cup65.jpg,cup85.jpg,GoalB,option2;option1
1687377521,be41e14d56ddba7dd4d658e0d7f1ff79,PennController,23,0,experiment,NULL,PennController,21,_Trial_,End,1687377297885,615ca96d7640b6c31b9e4462,615ca96d7640b6c31b9e4462,19,cup,filler,F,75,cup65.jpg,cup85.jpg,GoalB,NULL
1687377521,be41e14d56ddba7dd4d658e0d7f1ff79,PennController,19,0,experiment,NULL,PennController,17,_Trial_,Start,1687377297886,615ca96d7640b6c31b9e4462,615ca96d7640b6c31b9e4462,15,zip,critical,F,50,zip40.jpg,zip60.jpg,high,NULL
1687377521,be41e14d56ddba7dd4d658e0d7f1ff79,PennController,19,0,experiment,NULL,PennController,17,_Header_,Start,1687377297886,615ca96d7640b6c31b9e4462,615ca96d7640b6c31b9e4462,15,zip,critical,F,50,zip40.jpg,zip60.jpg,high,NULL
1687377521,be41e14d56ddba7dd4d658e0d7f1ff79,PennController,19,0,experiment,NULL,PennController,17,_Header_,End,1687377297886,615ca96d7640b6c31b9e4462,615ca96d7640b6c31b9e4462,15,zip,critical,F,50,zip40.jpg,zip60.jpg,high,NULL
1687377521,be41e14d56ddba7dd4d658e0d7f1ff79,PennController,19,0,experiment,NULL,Canvas,canvas6,Print,NA,1687377304592,615ca96d7640b6c31b9e4462,615ca96d7640b6c31b9e4462,15,zip,critical,F,50,zip40.jpg,zip60.jpg,high,NULL
1687377521,be41e14d56ddba7dd4d658e0d7f1ff79,PennController,19,0,experiment,NULL,Video,progression,buffer,0.00328,1687377301423,615ca96d7640b6c31b9e4462,615ca96d7640b6c31b9e4462,15,zip,critical,F,50,zip40.jpg,zip60.jpg,high,NULL
1687377521,be41e14d56ddba7dd4d658e0d7f1ff79,PennController,19,0,experiment,NULL,Selector,choice,Selection,option2,1687377306552,615ca96d7640b6c31b9e4462,615ca96d7640b6c31b9e4462,15,zip,critical,F,50,zip40.jpg,zip60.jpg,high,option2;option1
1687377521,be41e14d56ddba7dd4d658e0d7f1ff79,PennController,19,0,experiment,NULL,PennController,17,_Trial_,End,1687377306553,615ca96d7640b6c31b9e4462,615ca96d7640b6c31b9e4462,15,zip,critical,F,50,zip40.jpg,zip60.jpg,high,NULL
1687377521,be41e14d56ddba7dd4d658e0d7f1ff79,PennController,9,0,experiment,NULL,PennController,7,_Trial_,Start,1687377306554,615ca96d7640b6c31b9e4462,615ca96d7640b6c31b9e4462,5,book,critical,F,25,book15.jpg,book35.jpg,high,NULL
1687377521,be41e14d56ddba7dd4d658e0d7f1ff79,PennController,9,0,experiment,NULL,PennController,7,_Header_,Start,1687377306554,615ca96d7640b6c31b9e4462,615ca96d7640b6c31b9e4462,5,book,critical,F,25,book15.jpg,book35.jpg,high,NULL
1687377521,be41e14d56ddba7dd4d658e0d7f1ff79,PennController,9,0,experiment,NULL,PennController,7,_Header_,End,1687377306554,615ca96d7640b6c31b9e4462,615ca96d7640b6c31b9e4462,5,book,critical,F,25,book15.jpg,book35.jpg,high,NULL
1687377521,be41e14d56ddba7dd4d658e0d7f1ff79,PennController,9,0,experiment,NULL,Canvas,canvas6,Print,NA,1687377312255,615ca96d7640b6c31b9e4462,615ca96d7640b6c31b9e4462,5,book,critical,F,25,book15.jpg,book35.jpg,high,NULL
1687377521,be41e14d56ddba7dd4d658e0d7f1ff79,PennController,9,0,experiment,NULL,Video,progression,buffer,0.005078,1687377310088,615ca96d7640b6c31b9e4462,615ca96d7640b6c31b9e4462,5,book,critical,F,25,book15.jpg,book35.jpg,high,NULL
1687377521,be41e14d56ddba7dd4d658e0d7f1ff79,PennController,9,0,experiment,NULL,Selector,choice,Selection,option2,1687377314021,615ca96d7640b6c31b9e4462,615ca96d7640b6c31b9e4462,5,book,critical,F,25,book15.jpg,book35.jpg,high,option1;option2
1687377521,be41e14d56ddba7dd4d658e0d7f1ff79,PennController,9,0,experiment,NULL,PennController,7,_Trial_,End,1687377314022,615ca96d7640b6c31b9e4462,615ca96d7640b6c31b9e4462,5,book,critical,F,25,book15.jpg,book35.jpg,high,NULL
1687377521,be41e14d56ddba7dd4d658e0d7f1ff79,PennController,7,0,experiment,NULL,PennController,5,_Trial_,Start,1687377314023,615ca96d7640b6c31b9e4462,615ca96d7640b6c31b9e4462,3,clean,critical,F,50,clean40.jpg,clean60.jpg,high,NULL
1687377521,be41e14d56ddba7dd4d658e0d7f1ff79,PennController,7,0,experiment,NULL,PennController,5,_Header_,Start,1687377314023,615ca96d7640b6c31b9e4462,615ca96d7640b6c31b9e4462,3,clean,critical,F,50,clean40.jpg,clean60.jpg,high,NULL
1687377521,be41e14d56ddba7dd4d658e0d7f1ff79,PennController,7,0,experiment,NULL,PennController,5,_Header_,End,1687377314023,615ca96d7640b6c31b9e4462,615ca96d7640b6c31b9e4462,3,clean,critical,F,50,clean40.jpg,clean60.jpg,high,NULL
1687377521,be41e14d56ddba7dd4d658e0d7f1ff79,PennController,7,0,experiment,NULL,Canvas,canvas6,Print,NA,1687377320717,615ca96d7640b6c31b9e4462,615ca96d7640b6c31b9e4462,3,clean,critical,F,50,clean40.jpg,clean60.jpg,high,NULL
1687377521,be41e14d56ddba7dd4d658e0d7f1ff79,PennController,7,0,experiment,NULL,Video,progression,buffer,0.003154,1687377317552,615ca96d7640b6c31b9e4462,615ca96d7640b6c31b9e4462,3,clean,critical,F,50,clean40.jpg,clean60.jpg,high,NULL
1687377521,be41e14d56ddba7dd4d658e0d7f1ff79,PennController,7,0,experiment,NULL,Selector,choice,Selection,option2,1687377322757,615ca96d7640b6c31b9e4462,615ca96d7640b6c31b9e4462,3,clean,critical,F,50,clean40.jpg,clean60.jpg,high,option1;option2
1687377521,be41e14d56ddba7dd4d658e0d7f1ff79,PennController,7,0,experiment,NULL,PennController,5,_Trial_,End,1687377322758,615ca96d7640b6c31b9e4462,615ca96d7640b6c31b9e4462,3,clean,critical,F,50,clean40.jpg,clean60.jpg,high,NULL
1687377521,be41e14d56ddba7dd4d658e0d7f1ff79,PennController,27,0,experiment,NULL,PennController,25,_Trial_,Start,1687377322759,615ca96d7640b6c31b9e4462,615ca96d7640b6c31b9e4462,23,color,filler,F,25,color15.jpg,color35.jpg,GoalB,NULL
1687377521,be41e14d56ddba7dd4d658e0d7f1ff79,PennController,27,0,experiment,NULL,PennController,25,_Header_,Start,1687377322759,615ca96d7640b6c31b9e4462,615ca96d7640b6c31b9e4462,23,color,filler,F,25,color15.jpg,color35.jpg,GoalB,NULL
1687377521,be41e14d56ddba7dd4d658e0d7f1ff79,PennController,27,0,experiment,NULL,PennController,25,_Header_,End,1687377322759,615ca96d7640b6c31b9e4462,615ca96d7640b6c31b9e4462,23,color,filler,F,25,color15.jpg,color35.jpg,GoalB,NULL
1687377521,be41e14d56ddba7dd4d658e0d7f1ff79,PennController,27,0,experiment,NULL,Canvas,canvas6,Print,NA,1687377328477,615ca96d7640b6c31b9e4462,615ca96d7640b6c31b9e4462,23,color,filler,F,25,color15.jpg,color35.jpg,GoalB,NULL
1687377521,be41e14d56ddba7dd4d658e0d7f1ff79,PennController,27,0,experiment,NULL,Video,progression,buffer,0.003098,1687377326294,615ca96d7640b6c31b9e4462,615ca96d7640b6c31b9e4462,23,color,filler,F,25,color15.jpg,color35.jpg,GoalB,NULL
1687377521,be41e14d56ddba7dd4d658e0d7f1ff79,PennController,27,0,experiment,NULL,Selector,choice,Selection,option2,1687377330056,615ca96d7640b6c31b9e4462,615ca96d7640b6c31b9e4462,23,color,filler,F,25,color15.jpg,color35.jpg,GoalB,option1;option2
1687377521,be41e14d56ddba7dd4d658e0d7f1ff79,PennController,27,0,experiment,NULL,PennController,25,_Trial_,End,1687377330057,615ca96d7640b6c31b9e4462,615ca96d7640b6c31b9e4462,23,color,filler,F,25,color15.jpg,color35.jpg,GoalB,NULL
1687377521,be41e14d56ddba7dd4d658e0d7f1ff79,PennController,21,0,experiment,NULL,PennController,19,_Trial_,Start,1687377330058,615ca96d7640b6c31b9e4462,615ca96d7640b6c31b9e4462,17,roll,critical,F,25,roll15.jpg,roll35.jpg,high,NULL
1687377521,be41e14d56ddba7dd4d658e0d7f1ff79,PennController,21,0,experiment,NULL,PennController,19,_Header_,Start,1687377330058,615ca96d7640b6c31b9e4462,615ca96d7640b6c31b9e4462,17,roll,critical,F,25,roll15.jpg,roll35.jpg,high,NULL
1687377521,be41e14d56ddba7dd4d658e0d7f1ff79,PennController,21,0,experiment,NULL,PennController,19,_Header_,End,1687377330058,615ca96d7640b6c31b9e4462,615ca96d7640b6c31b9e4462,17,roll,critical,F,25,roll15.jpg,roll35.jpg,high,NULL
1687377521,be41e14d56ddba7dd4d658e0d7f1ff79,PennController,21,0,experiment,NULL,Canvas,canvas6,Print,NA,1687377335766,615ca96d7640b6c31b9e4462,615ca96d7640b6c31b9e4462,17,roll,critical,F,25,roll15.jpg,roll35.jpg,high,NULL
1687377521,be41e14d56ddba7dd4d658e0d7f1ff79,PennController,21,0,experiment,NULL,Video,progression,buffer,0.002017,1687377333593,615ca96d7640b6c31b9e4462,615ca96d7640b6c31b9e4462,17,roll,critical,F,25,roll15.jpg,roll35.jpg,high,NULL
1687377521,be41e14d56ddba7dd4d658e0d7f1ff79,PennController,21,0,experiment,NULL,Selector,choice,Selection,option1,1687377338826,615ca96d7640b6c31b9e4462,615ca96d7640b6c31b9e4462,17,roll,critical,F,25,roll15.jpg,roll35.jpg,high,option1;option2
1687377521,be41e14d56ddba7dd4d658e0d7f1ff79,PennController,21,0,experiment,NULL,PennController,19,_Trial_,End,1687377338827,615ca96d7640b6c31b9e4462,615ca96d7640b6c31b9e4462,17,roll,critical,F,25,roll15.jpg,roll35.jpg,high,NULL
1687377521,be41e14d56ddba7dd4d658e0d7f1ff79,PennController,6,0,experiment,NULL,PennController,4,_Trial_,Start,1687377338828,615ca96d7640b6c31b9e4462,615ca96d7640b6c31b9e4462,2,door,critical,F,25,door15.jpg,door35.jpg,high,NULL
1687377521,be41e14d56ddba7dd4d658e0d7f1ff79,PennController,6,0,experiment,NULL,PennController,4,_Header_,Start,1687377338828,615ca96d7640b6c31b9e4462,615ca96d7640b6c31b9e4462,2,door,critical,F,25,door15.jpg,door35.jpg,high,NULL
1687377521,be41e14d56ddba7dd4d658e0d7f1ff79,PennController,6,0,experiment,NULL,PennController,4,_Header_,End,1687377338828,615ca96d7640b6c31b9e4462,615ca96d7640b6c31b9e4462,2,door,critical,F,25,door15.jpg,door35.jpg,high,NULL
1687377521,be41e14d56ddba7dd4d658e0d7f1ff79,PennController,6,0,experiment,NULL,Canvas,canvas6,Print,NA,1687377344526,615ca96d7640b6c31b9e4462,615ca96d7640b6c31b9e4462,2,door,critical,F,25,door15.jpg,door35.jpg,high,NULL
1687377521,be41e14d56ddba7dd4d658e0d7f1ff79,PennController,6,0,experiment,NULL,Video,progression,buffer,0.004385,1687377342357,615ca96d7640b6c31b9e4462,615ca96d7640b6c31b9e4462,2,door,critical,F,25,door15.jpg,door35.jpg,high,NULL
1687377521,be41e14d56ddba7dd4d658e0d7f1ff79,PennController,6,0,experiment,NULL,Selector,choice,Selection,option1,1687377346006,615ca96d7640b6c31b9e4462,615ca96d7640b6c31b9e4462,2,door,critical,F,25,door15.jpg,door35.jpg,high,option2;option1
1687377521,be41e14d56ddba7dd4d658e0d7f1ff79,PennController,6,0,experiment,NULL,PennController,4,_Trial_,End,1687377346007,615ca96d7640b6c31b9e4462,615ca96d7640b6c31b9e4462,2,door,critical,F,25,door15.jpg,door35.jpg,high,NULL
1687377521,be41e14d56ddba7dd4d658e0d7f1ff79,PennController,31,0,experiment,NULL,PennController,29,_Trial_,Start,1687377346008,615ca96d7640b6c31b9e4462,615ca96d7640b6c31b9e4462,27,square,filler,F,50,square40.jpg,square60.jpg,GoalB,NULL
1687377521,be41e14d56ddba7dd4d658e0d7f1ff79,PennController,31,0,experiment,NULL,PennController,29,_Header_,Start,1687377346008,615ca96d7640b6c31b9e4462,615ca96d7640b6c31b9e4462,27,square,filler,F,50,square40.jpg,square60.jpg,GoalB,NULL
1687377521,be41e14d56ddba7dd4d658e0d7f1ff79,PennController,31,0,experiment,NULL,PennController,29,_Header_,End,1687377346008,615ca96d7640b6c31b9e4462,615ca96d7640b6c31b9e4462,27,square,filler,F,50,square40.jpg,square60.jpg,GoalB,NULL
1687377521,be41e14d56ddba7dd4d658e0d7f1ff79,PennController,31,0,experiment,NULL,Canvas,canvas6,Print,NA,1687377352710,615ca96d7640b6c31b9e4462,615ca96d7640b6c31b9e4462,27,square,filler,F,50,square40.jpg,square60.jpg,GoalB,NULL
1687377521,be41e14d56ddba7dd4d658e0d7f1ff79,PennController,31,0,experiment,NULL,Video,progression,buffer,0.003033,1687377349533,615ca96d7640b6c31b9e4462,615ca96d7640b6c31b9e4462,27,square,filler,F,50,square40.jpg,square60.jpg,GoalB,NULL
1687377521,be41e14d56ddba7dd4d658e0d7f1ff79,PennController,31,0,experiment,NULL,Selector,choice,Selection,option2,1687377362056,615ca96d7640b6c31b9e4462,615ca96d7640b6c31b9e4462,27,square,filler,F,50,square40.jpg,square60.jpg,GoalB,option1;option2
1687377521,be41e14d56ddba7dd4d658e0d7f1ff79,PennController,31,0,experiment,NULL,PennController,29,_Trial_,End,1687377362057,615ca96d7640b6c31b9e4462,615ca96d7640b6c31b9e4462,27,square,filler,F,50,square40.jpg,square60.jpg,GoalB,NULL
1687377521,be41e14d56ddba7dd4d658e0d7f1ff79,PennController,22,0,experiment,NULL,PennController,20,_Trial_,Start,1687377362058,615ca96d7640b6c31b9e4462,615ca96d7640b6c31b9e4462,18,ball,critical,F,50,ball40.jpg,ball60.jpg,high,NULL
1687377521,be41e14d56ddba7dd4d658e0d7f1ff79,PennController,22,0,experiment,NULL,PennController,20,_Header_,Start,1687377362058,615ca96d7640b6c31b9e4462,615ca96d7640b6c31b9e4462,18,ball,critical,F,50,ball40.jpg,ball60.jpg,high,NULL
1687377521,be41e14d56ddba7dd4d658e0d7f1ff79,PennController,22,0,experiment,NULL,PennController,20,_Header_,End,1687377362058,615ca96d7640b6c31b9e4462,615ca96d7640b6c31b9e4462,18,ball,critical,F,50,ball40.jpg,ball60.jpg,high,NULL
1687377521,be41e14d56ddba7dd4d658e0d7f1ff79,PennController,22,0,experiment,NULL,Canvas,canvas6,Print,NA,1687377368753,615ca96d7640b6c31b9e4462,615ca96d7640b6c31b9e4462,18,ball,critical,F,50,ball40.jpg,ball60.jpg,high,NULL
1687377521,be41e14d56ddba7dd4d658e0d7f1ff79,PennController,22,0,experiment,NULL,Video,progression,buffer,0.003106,1687377365588,615ca96d7640b6c31b9e4462,615ca96d7640b6c31b9e4462,18,ball,critical,F,50,ball40.jpg,ball60.jpg,high,NULL
1687377521,be41e14d56ddba7dd4d658e0d7f1ff79,PennController,22,0,experiment,NULL,Selector,choice,Selection,option2,1687377371435,615ca96d7640b6c31b9e4462,615ca96d7640b6c31b9e4462,18,ball,critical,F,50,ball40.jpg,ball60.jpg,high,option1;option2
1687377521,be41e14d56ddba7dd4d658e0d7f1ff79,PennController,22,0,experiment,NULL,PennController,20,_Trial_,End,1687377371436,615ca96d7640b6c31b9e4462,615ca96d7640b6c31b9e4462,18,ball,critical,F,50,ball40.jpg,ball60.jpg,high,NULL
1687377521,be41e14d56ddba7dd4d658e0d7f1ff79,PennController,17,0,experiment,NULL,PennController,15,_Trial_,Start,1687377371437,615ca96d7640b6c31b9e4462,615ca96d7640b6c31b9e4462,13,mix,critical,F,75,mix65.jpg,mix85.jpg,high,NULL
1687377521,be41e14d56ddba7dd4d658e0d7f1ff79,PennController,17,0,experiment,NULL,PennController,15,_Header_,Start,1687377371437,615ca96d7640b6c31b9e4462,615ca96d7640b6c31b9e4462,13,mix,critical,F,75,mix65.jpg,mix85.jpg,high,NULL
1687377521,be41e14d56ddba7dd4d658e0d7f1ff79,PennController,17,0,experiment,NULL,PennController,15,_Header_,End,1687377371437,615ca96d7640b6c31b9e4462,615ca96d7640b6c31b9e4462,13,mix,critical,F,75,mix65.jpg,mix85.jpg,high,NULL
1687377521,be41e14d56ddba7dd4d658e0d7f1ff79,PennController,17,0,experiment,NULL,Canvas,canvas6,Print,NA,1687377379128,615ca96d7640b6c31b9e4462,615ca96d7640b6c31b9e4462,13,mix,critical,F,75,mix65.jpg,mix85.jpg,high,NULL
1687377521,be41e14d56ddba7dd4d658e0d7f1ff79,PennController,17,0,experiment,NULL,Video,progression,buffer,0.003023,1687377374966,615ca96d7640b6c31b9e4462,615ca96d7640b6c31b9e4462,13,mix,critical,F,75,mix65.jpg,mix85.jpg,high,NULL
1687377521,be41e14d56ddba7dd4d658e0d7f1ff79,PennController,17,0,experiment,NULL,Selector,choice,Selection,option2,1687377380558,615ca96d7640b6c31b9e4462,615ca96d7640b6c31b9e4462,13,mix,critical,F,75,mix65.jpg,mix85.jpg,high,option1;option2
1687377521,be41e14d56ddba7dd4d658e0d7f1ff79,PennController,17,0,experiment,NULL,PennController,15,_Trial_,End,1687377380560,615ca96d7640b6c31b9e4462,615ca96d7640b6c31b9e4462,13,mix,critical,F,75,mix65.jpg,mix85.jpg,high,NULL
1687377521,be41e14d56ddba7dd4d658e0d7f1ff79,PennController,12,0,experiment,NULL,PennController,10,_Trial_,Start,1687377380561,615ca96d7640b6c31b9e4462,615ca96d7640b6c31b9e4462,8,cucumber,critical,F,25,cucumber15.jpg,cucumber33.jpg,high,NULL
1687377521,be41e14d56ddba7dd4d658e0d7f1ff79,PennController,12,0,experiment,NULL,PennController,10,_Header_,Start,1687377380561,615ca96d7640b6c31b9e4462,615ca96d7640b6c31b9e4462,8,cucumber,critical,F,25,cucumber15.jpg,cucumber33.jpg,high,NULL
1687377521,be41e14d56ddba7dd4d658e0d7f1ff79,PennController,12,0,experiment,NULL,PennController,10,_Header_,End,1687377380561,615ca96d7640b6c31b9e4462,615ca96d7640b6c31b9e4462,8,cucumber,critical,F,25,cucumber15.jpg,cucumber33.jpg,high,NULL
1687377521,be41e14d56ddba7dd4d658e0d7f1ff79,PennController,12,0,experiment,NULL,Canvas,canvas6,Print,NA,1687377386860,615ca96d7640b6c31b9e4462,615ca96d7640b6c31b9e4462,8,cucumber,critical,F,25,cucumber15.jpg,cucumber33.jpg,high,NULL
1687377521,be41e14d56ddba7dd4d658e0d7f1ff79,PennController,12,0,experiment,NULL,Video,progression,buffer,0.002671,1687377384092,615ca96d7640b6c31b9e4462,615ca96d7640b6c31b9e4462,8,cucumber,critical,F,25,cucumber15.jpg,cucumber33.jpg,high,NULL
1687377521,be41e14d56ddba7dd4d658e0d7f1ff79,PennController,12,0,experiment,NULL,Selector,choice,Selection,option2,1687377390310,615ca96d7640b6c31b9e4462,615ca96d7640b6c31b9e4462,8,cucumber,critical,F,25,cucumber15.jpg,cucumber33.jpg,high,option2;option1
1687377521,be41e14d56ddba7dd4d658e0d7f1ff79,PennController,12,0,experiment,NULL,PennController,10,_Trial_,End,1687377390311,615ca96d7640b6c31b9e4462,615ca96d7640b6c31b9e4462,8,cucumber,critical,F,25,cucumber15.jpg,cucumber33.jpg,high,NULL
1687377521,be41e14d56ddba7dd4d658e0d7f1ff79,PennController,20,0,experiment,NULL,PennController,18,_Trial_,Start,1687377390312,615ca96d7640b6c31b9e4462,615ca96d7640b6c31b9e4462,16,blinds,critical,F,75,blinds66.jpg,blinds84.jpg,high,NULL
1687377521,be41e14d56ddba7dd4d658e0d7f1ff79,PennController,20,0,experiment,NULL,PennController,18,_Header_,Start,1687377390312,615ca96d7640b6c31b9e4462,615ca96d7640b6c31b9e4462,16,blinds,critical,F,75,blinds66.jpg,blinds84.jpg,high,NULL
1687377521,be41e14d56ddba7dd4d658e0d7f1ff79,PennController,20,0,experiment,NULL,PennController,18,_Header_,End,1687377390312,615ca96d7640b6c31b9e4462,615ca96d7640b6c31b9e4462,16,blinds,critical,F,75,blinds66.jpg,blinds84.jpg,high,NULL
1687377521,be41e14d56ddba7dd4d658e0d7f1ff79,PennController,20,0,experiment,NULL,Canvas,canvas6,Print,NA,1687377400013,615ca96d7640b6c31b9e4462,615ca96d7640b6c31b9e4462,16,blinds,critical,F,75,blinds66.jpg,blinds84.jpg,high,NULL
1687377521,be41e14d56ddba7dd4d658e0d7f1ff79,PennController,20,0,experiment,NULL,Video,progression,buffer,0.002911,1687377393841,615ca96d7640b6c31b9e4462,615ca96d7640b6c31b9e4462,16,blinds,critical,F,75,blinds66.jpg,blinds84.jpg,high,NULL
1687377521,be41e14d56ddba7dd4d658e0d7f1ff79,PennController,20,0,experiment,NULL,Selector,choice,Selection,option2,1687377401808,615ca96d7640b6c31b9e4462,615ca96d7640b6c31b9e4462,16,blinds,critical,F,75,blinds66.jpg,blinds84.jpg,high,option2;option1
1687377521,be41e14d56ddba7dd4d658e0d7f1ff79,PennController,20,0,experiment,NULL,PennController,18,_Trial_,End,1687377401809,615ca96d7640b6c31b9e4462,615ca96d7640b6c31b9e4462,16,blinds,critical,F,75,blinds66.jpg,blinds84.jpg,high,NULL
1687377521,be41e14d56ddba7dd4d658e0d7f1ff79,PennController,18,0,experiment,NULL,PennController,16,_Trial_,Start,1687377401810,615ca96d7640b6c31b9e4462,615ca96d7640b6c31b9e4462,14,cover,critical,F,25,cover15.jpg,cover33.jpg,high,NULL
1687377521,be41e14d56ddba7dd4d658e0d7f1ff79,PennController,18,0,experiment,NULL,PennController,16,_Header_,Start,1687377401810,615ca96d7640b6c31b9e4462,615ca96d7640b6c31b9e4462,14,cover,critical,F,25,cover15.jpg,cover33.jpg,high,NULL
1687377521,be41e14d56ddba7dd4d658e0d7f1ff79,PennController,18,0,experiment,NULL,PennController,16,_Header_,End,1687377401810,615ca96d7640b6c31b9e4462,615ca96d7640b6c31b9e4462,14,cover,critical,F,25,cover15.jpg,cover33.jpg,high,NULL
1687377521,be41e14d56ddba7dd4d658e0d7f1ff79,PennController,18,0,experiment,NULL,Canvas,canvas6,Print,NA,1687377408105,615ca96d7640b6c31b9e4462,615ca96d7640b6c31b9e4462,14,cover,critical,F,25,cover15.jpg,cover33.jpg,high,NULL
1687377521,be41e14d56ddba7dd4d658e0d7f1ff79,PennController,18,0,experiment,NULL,Video,progression,buffer,0.003089,1687377405335,615ca96d7640b6c31b9e4462,615ca96d7640b6c31b9e4462,14,cover,critical,F,25,cover15.jpg,cover33.jpg,high,NULL
1687377521,be41e14d56ddba7dd4d658e0d7f1ff79,PennController,18,0,experiment,NULL,Selector,choice,Selection,option2,1687377413124,615ca96d7640b6c31b9e4462,615ca96d7640b6c31b9e4462,14,cover,critical,F,25,cover15.jpg,cover33.jpg,high,option2;option1
1687377521,be41e14d56ddba7dd4d658e0d7f1ff79,PennController,18,0,experiment,NULL,PennController,16,_Trial_,End,1687377413125,615ca96d7640b6c31b9e4462,615ca96d7640b6c31b9e4462,14,cover,critical,F,25,cover15.jpg,cover33.jpg,high,NULL
1687377521,be41e14d56ddba7dd4d658e0d7f1ff79,PennController,16,0,experiment,NULL,PennController,14,_Trial_,Start,1687377413126,615ca96d7640b6c31b9e4462,615ca96d7640b6c31b9e4462,12,erase,critical,F,50,erase42.jpg,erase60.jpg,high,NULL
1687377521,be41e14d56ddba7dd4d658e0d7f1ff79,PennController,16,0,experiment,NULL,PennController,14,_Header_,Start,1687377413126,615ca96d7640b6c31b9e4462,615ca96d7640b6c31b9e4462,12,erase,critical,F,50,erase42.jpg,erase60.jpg,high,NULL
1687377521,be41e14d56ddba7dd4d658e0d7f1ff79,PennController,16,0,experiment,NULL,PennController,14,_Header_,End,1687377413126,615ca96d7640b6c31b9e4462,615ca96d7640b6c31b9e4462,12,erase,critical,F,50,erase42.jpg,erase60.jpg,high,NULL
1687377521,be41e14d56ddba7dd4d658e0d7f1ff79,PennController,16,0,experiment,NULL,Canvas,canvas6,Print,NA,1687377421231,615ca96d7640b6c31b9e4462,615ca96d7640b6c31b9e4462,12,erase,critical,F,50,erase42.jpg,erase60.jpg,high,NULL
1687377521,be41e14d56ddba7dd4d658e0d7f1ff79,PennController,16,0,experiment,NULL,Video,progression,buffer,0.004915,1687377416657,615ca96d7640b6c31b9e4462,615ca96d7640b6c31b9e4462,12,erase,critical,F,50,erase42.jpg,erase60.jpg,high,NULL
1687377521,be41e14d56ddba7dd4d658e0d7f1ff79,PennController,16,0,experiment,NULL,Selector,choice,Selection,option1,1687377434962,615ca96d7640b6c31b9e4462,615ca96d7640b6c31b9e4462,12,erase,critical,F,50,erase42.jpg,erase60.jpg,high,option2;option1
1687377521,be41e14d56ddba7dd4d658e0d7f1ff79,PennController,16,0,experiment,NULL,PennController,14,_Trial_,End,1687377434963,615ca96d7640b6c31b9e4462,615ca96d7640b6c31b9e4462,12,erase,critical,F,50,erase42.jpg,erase60.jpg,high,NULL
1687377521,be41e14d56ddba7dd4d658e0d7f1ff79,PennController,15,0,experiment,NULL,PennController,13,_Trial_,Start,1687377434964,615ca96d7640b6c31b9e4462,615ca96d7640b6c31b9e4462,11,beads,critical,F,25,beads15.jpg,beads35.jpg,high,NULL
1687377521,be41e14d56ddba7dd4d658e0d7f1ff79,PennController,15,0,experiment,NULL,PennController,13,_Header_,Start,1687377434964,615ca96d7640b6c31b9e4462,615ca96d7640b6c31b9e4462,11,beads,critical,F,25,beads15.jpg,beads35.jpg,high,NULL
1687377521,be41e14d56ddba7dd4d658e0d7f1ff79,PennController,15,0,experiment,NULL,PennController,13,_Header_,End,1687377434964,615ca96d7640b6c31b9e4462,615ca96d7640b6c31b9e4462,11,beads,critical,F,25,beads15.jpg,beads35.jpg,high,NULL
1687377521,be41e14d56ddba7dd4d658e0d7f1ff79,PennController,15,0,experiment,NULL,Canvas,canvas6,Print,NA,1687377440667,615ca96d7640b6c31b9e4462,615ca96d7640b6c31b9e4462,11,beads,critical,F,25,beads15.jpg,beads35.jpg,high,NULL
1687377521,be41e14d56ddba7dd4d658e0d7f1ff79,PennController,15,0,experiment,NULL,Video,progression,buffer,0.003193,1687377438497,615ca96d7640b6c31b9e4462,615ca96d7640b6c31b9e4462,11,beads,critical,F,25,beads15.jpg,beads35.jpg,high,NULL
1687377521,be41e14d56ddba7dd4d658e0d7f1ff79,PennController,15,0,experiment,NULL,Selector,choice,Selection,option1,1687377442663,615ca96d7640b6c31b9e4462,615ca96d7640b6c31b9e4462,11,beads,critical,F,25,beads15.jpg,beads35.jpg,high,option1;option2
1687377521,be41e14d56ddba7dd4d658e0d7f1ff79,PennController,15,0,experiment,NULL,PennController,13,_Trial_,End,1687377442664,615ca96d7640b6c31b9e4462,615ca96d7640b6c31b9e4462,11,beads,critical,F,25,beads15.jpg,beads35.jpg,high,NULL
1687377521,be41e14d56ddba7dd4d658e0d7f1ff79,PennController,28,0,experiment,NULL,PennController,26,_Trial_,Start,1687377442664,615ca96d7640b6c31b9e4462,615ca96d7640b6c31b9e4462,24,match,filler,F,50,match40.jpg,match60.jpg,GoalA,NULL
1687377521,be41e14d56ddba7dd4d658e0d7f1ff79,PennController,28,0,experiment,NULL,PennController,26,_Header_,Start,1687377442664,615ca96d7640b6c31b9e4462,615ca96d7640b6c31b9e4462,24,match,filler,F,50,match40.jpg,match60.jpg,GoalA,NULL
1687377521,be41e14d56ddba7dd4d658e0d7f1ff79,PennController,28,0,experiment,NULL,PennController,26,_Header_,End,1687377442664,615ca96d7640b6c31b9e4462,615ca96d7640b6c31b9e4462,24,match,filler,F,50,match40.jpg,match60.jpg,GoalA,NULL
1687377521,be41e14d56ddba7dd4d658e0d7f1ff79,PennController,28,0,experiment,NULL,Canvas,canvas6,Print,NA,1687377449365,615ca96d7640b6c31b9e4462,615ca96d7640b6c31b9e4462,24,match,filler,F,50,match40.jpg,match60.jpg,GoalA,NULL
1687377521,be41e14d56ddba7dd4d658e0d7f1ff79,PennController,28,0,experiment,NULL,Video,progression,buffer,0.003183,1687377446190,615ca96d7640b6c31b9e4462,615ca96d7640b6c31b9e4462,24,match,filler,F,50,match40.jpg,match60.jpg,GoalA,NULL
1687377521,be41e14d56ddba7dd4d658e0d7f1ff79,PennController,28,0,experiment,NULL,Selector,choice,Selection,option2,1687377452210,615ca96d7640b6c31b9e4462,615ca96d7640b6c31b9e4462,24,match,filler,F,50,match40.jpg,match60.jpg,GoalA,option1;option2
1687377521,be41e14d56ddba7dd4d658e0d7f1ff79,PennController,28,0,experiment,NULL,PennController,26,_Trial_,End,1687377452211,615ca96d7640b6c31b9e4462,615ca96d7640b6c31b9e4462,24,match,filler,F,50,match40.jpg,match60.jpg,GoalA,NULL
1687377521,be41e14d56ddba7dd4d658e0d7f1ff79,PennController,8,0,experiment,NULL,PennController,6,_Trial_,Start,1687377452212,615ca96d7640b6c31b9e4462,615ca96d7640b6c31b9e4462,4,candy,critical,F,75,candy65.jpg,candy85.jpg,high,NULL
1687377521,be41e14d56ddba7dd4d658e0d7f1ff79,PennController,8,0,experiment,NULL,PennController,6,_Header_,Start,1687377452212,615ca96d7640b6c31b9e4462,615ca96d7640b6c31b9e4462,4,candy,critical,F,75,candy65.jpg,candy85.jpg,high,NULL
1687377521,be41e14d56ddba7dd4d658e0d7f1ff79,PennController,8,0,experiment,NULL,PennController,6,_Header_,End,1687377452212,615ca96d7640b6c31b9e4462,615ca96d7640b6c31b9e4462,4,candy,critical,F,75,candy65.jpg,candy85.jpg,high,NULL
1687377521,be41e14d56ddba7dd4d658e0d7f1ff79,PennController,8,0,experiment,NULL,Canvas,canvas6,Print,NA,1687377459909,615ca96d7640b6c31b9e4462,615ca96d7640b6c31b9e4462,4,candy,critical,F,75,candy65.jpg,candy85.jpg,high,NULL
1687377521,be41e14d56ddba7dd4d658e0d7f1ff79,PennController,8,0,experiment,NULL,Video,progression,buffer,0.002095,1687377455738,615ca96d7640b6c31b9e4462,615ca96d7640b6c31b9e4462,4,candy,critical,F,75,candy65.jpg,candy85.jpg,high,NULL
1687377521,be41e14d56ddba7dd4d658e0d7f1ff79,PennController,8,0,experiment,NULL,Selector,choice,Selection,option1,1687377462364,615ca96d7640b6c31b9e4462,615ca96d7640b6c31b9e4462,4,candy,critical,F,75,candy65.jpg,candy85.jpg,high,option1;option2
1687377521,be41e14d56ddba7dd4d658e0d7f1ff79,PennController,8,0,experiment,NULL,PennController,6,_Trial_,End,1687377462365,615ca96d7640b6c31b9e4462,615ca96d7640b6c31b9e4462,4,candy,critical,F,75,candy65.jpg,candy85.jpg,high,NULL
1687377521,be41e14d56ddba7dd4d658e0d7f1ff79,PennController,14,0,experiment,NULL,PennController,12,_Trial_,Start,1687377462366,615ca96d7640b6c31b9e4462,615ca96d7640b6c31b9e4462,10,train,critical,F,75,train65.jpg,train85.jpg,high,NULL
1687377521,be41e14d56ddba7dd4d658e0d7f1ff79,PennController,14,0,experiment,NULL,PennController,12,_Header_,Start,1687377462366,615ca96d7640b6c31b9e4462,615ca96d7640b6c31b9e4462,10,train,critical,F,75,train65.jpg,train85.jpg,high,NULL
1687377521,be41e14d56ddba7dd4d658e0d7f1ff79,PennController,14,0,experiment,NULL,PennController,12,_Header_,End,1687377462366,615ca96d7640b6c31b9e4462,615ca96d7640b6c31b9e4462,10,train,critical,F,75,train65.jpg,train85.jpg,high,NULL
1687377521,be41e14d56ddba7dd4d658e0d7f1ff79,PennController,14,0,experiment,NULL,Canvas,canvas6,Print,NA,1687377470073,615ca96d7640b6c31b9e4462,615ca96d7640b6c31b9e4462,10,train,critical,F,75,train65.jpg,train85.jpg,high,NULL
1687377521,be41e14d56ddba7dd4d658e0d7f1ff79,PennController,14,0,experiment,NULL,Video,progression,buffer,0.010563,1687377465906,615ca96d7640b6c31b9e4462,615ca96d7640b6c31b9e4462,10,train,critical,F,75,train65.jpg,train85.jpg,high,NULL
1687377521,be41e14d56ddba7dd4d658e0d7f1ff79,PennController,14,0,experiment,NULL,Selector,choice,Selection,option2,1687377471968,615ca96d7640b6c31b9e4462,615ca96d7640b6c31b9e4462,10,train,critical,F,75,train65.jpg,train85.jpg,high,option2;option1
1687377521,be41e14d56ddba7dd4d658e0d7f1ff79,PennController,14,0,experiment,NULL,PennController,12,_Trial_,End,1687377471970,615ca96d7640b6c31b9e4462,615ca96d7640b6c31b9e4462,10,train,critical,F,75,train65.jpg,train85.jpg,high,NULL
1687377521,be41e14d56ddba7dd4d658e0d7f1ff79,PennController,25,0,experiment,NULL,PennController,23,_Trial_,Start,1687377471971,615ca96d7640b6c31b9e4462,615ca96d7640b6c31b9e4462,21,visit,filler,F,50,visit40.jpg,visit60.jpg,GoalB,NULL
1687377521,be41e14d56ddba7dd4d658e0d7f1ff79,PennController,25,0,experiment,NULL,PennController,23,_Header_,Start,1687377471971,615ca96d7640b6c31b9e4462,615ca96d7640b6c31b9e4462,21,visit,filler,F,50,visit40.jpg,visit60.jpg,GoalB,NULL
1687377521,be41e14d56ddba7dd4d658e0d7f1ff79,PennController,25,0,experiment,NULL,PennController,23,_Header_,End,1687377471971,615ca96d7640b6c31b9e4462,615ca96d7640b6c31b9e4462,21,visit,filler,F,50,visit40.jpg,visit60.jpg,GoalB,NULL
1687377521,be41e14d56ddba7dd4d658e0d7f1ff79,PennController,25,0,experiment,NULL,Canvas,canvas6,Print,NA,1687377478671,615ca96d7640b6c31b9e4462,615ca96d7640b6c31b9e4462,21,visit,filler,F,50,visit40.jpg,visit60.jpg,GoalB,NULL
1687377521,be41e14d56ddba7dd4d658e0d7f1ff79,PennController,25,0,experiment,NULL,Video,progression,buffer,0.002952,1687377475496,615ca96d7640b6c31b9e4462,615ca96d7640b6c31b9e4462,21,visit,filler,F,50,visit40.jpg,visit60.jpg,GoalB,NULL
1687377521,be41e14d56ddba7dd4d658e0d7f1ff79,PennController,25,0,experiment,NULL,Selector,choice,Selection,option2,1687377480118,615ca96d7640b6c31b9e4462,615ca96d7640b6c31b9e4462,21,visit,filler,F,50,visit40.jpg,visit60.jpg,GoalB,option1;option2
1687377521,be41e14d56ddba7dd4d658e0d7f1ff79,PennController,25,0,experiment,NULL,PennController,23,_Trial_,End,1687377480119,615ca96d7640b6c31b9e4462,615ca96d7640b6c31b9e4462,21,visit,filler,F,50,visit40.jpg,visit60.jpg,GoalB,NULL
1687377521,be41e14d56ddba7dd4d658e0d7f1ff79,PennController,10,0,experiment,NULL,PennController,8,_Trial_,Start,1687377480119,615ca96d7640b6c31b9e4462,615ca96d7640b6c31b9e4462,6,flower,critical,F,50,flower40.jpg,flower60.jpg,high,NULL
1687377521,be41e14d56ddba7dd4d658e0d7f1ff79,PennController,10,0,experiment,NULL,PennController,8,_Header_,Start,1687377480119,615ca96d7640b6c31b9e4462,615ca96d7640b6c31b9e4462,6,flower,critical,F,50,flower40.jpg,flower60.jpg,high,NULL
1687377521,be41e14d56ddba7dd4d658e0d7f1ff79,PennController,10,0,experiment,NULL,PennController,8,_Header_,End,1687377480119,615ca96d7640b6c31b9e4462,615ca96d7640b6c31b9e4462,6,flower,critical,F,50,flower40.jpg,flower60.jpg,high,NULL
1687377521,be41e14d56ddba7dd4d658e0d7f1ff79,PennController,10,0,experiment,NULL,Canvas,canvas6,Print,NA,1687377486817,615ca96d7640b6c31b9e4462,615ca96d7640b6c31b9e4462,6,flower,critical,F,50,flower40.jpg,flower60.jpg,high,NULL
1687377521,be41e14d56ddba7dd4d658e0d7f1ff79,PennController,10,0,experiment,NULL,Video,progression,buffer,0.004809,1687377483645,615ca96d7640b6c31b9e4462,615ca96d7640b6c31b9e4462,6,flower,critical,F,50,flower40.jpg,flower60.jpg,high,NULL
1687377521,be41e14d56ddba7dd4d658e0d7f1ff79,PennController,10,0,experiment,NULL,Selector,choice,Selection,option1,1687377488224,615ca96d7640b6c31b9e4462,615ca96d7640b6c31b9e4462,6,flower,critical,F,50,flower40.jpg,flower60.jpg,high,option1;option2
1687377521,be41e14d56ddba7dd4d658e0d7f1ff79,PennController,10,0,experiment,NULL,PennController,8,_Trial_,End,1687377488225,615ca96d7640b6c31b9e4462,615ca96d7640b6c31b9e4462,6,flower,critical,F,50,flower40.jpg,flower60.jpg,high,NULL
1687377521,be41e14d56ddba7dd4d658e0d7f1ff79,PennController,32,0,experiment,NULL,PennController,30,_Trial_,Start,1687377488226,615ca96d7640b6c31b9e4462,615ca96d7640b6c31b9e4462,28,sort,filler,F,75,sort65.jpg,sort85.jpg,GoalA,NULL
1687377521,be41e14d56ddba7dd4d658e0d7f1ff79,PennController,32,0,experiment,NULL,PennController,30,_Header_,Start,1687377488226,615ca96d7640b6c31b9e4462,615ca96d7640b6c31b9e4462,28,sort,filler,F,75,sort65.jpg,sort85.jpg,GoalA,NULL
1687377521,be41e14d56ddba7dd4d658e0d7f1ff79,PennController,32,0,experiment,NULL,PennController,30,_Header_,End,1687377488226,615ca96d7640b6c31b9e4462,615ca96d7640b6c31b9e4462,28,sort,filler,F,75,sort65.jpg,sort85.jpg,GoalA,NULL
1687377521,be41e14d56ddba7dd4d658e0d7f1ff79,PennController,32,0,experiment,NULL,Canvas,canvas6,Print,NA,1687377495929,615ca96d7640b6c31b9e4462,615ca96d7640b6c31b9e4462,28,sort,filler,F,75,sort65.jpg,sort85.jpg,GoalA,NULL
1687377521,be41e14d56ddba7dd4d658e0d7f1ff79,PennController,32,0,experiment,NULL,Video,progression,buffer,0.00309,1687377491751,615ca96d7640b6c31b9e4462,615ca96d7640b6c31b9e4462,28,sort,filler,F,75,sort65.jpg,sort85.jpg,GoalA,NULL
1687377521,be41e14d56ddba7dd4d658e0d7f1ff79,PennController,32,0,experiment,NULL,Selector,choice,Selection,option2,1687377501990,615ca96d7640b6c31b9e4462,615ca96d7640b6c31b9e4462,28,sort,filler,F,75,sort65.jpg,sort85.jpg,GoalA,option1;option2
1687377521,be41e14d56ddba7dd4d658e0d7f1ff79,PennController,32,0,experiment,NULL,PennController,30,_Trial_,End,1687377501991,615ca96d7640b6c31b9e4462,615ca96d7640b6c31b9e4462,28,sort,filler,F,75,sort65.jpg,sort85.jpg,GoalA,NULL
1687377521,be41e14d56ddba7dd4d658e0d7f1ff79,PennController,24,0,experiment,NULL,PennController,22,_Trial_,Start,1687377501992,615ca96d7640b6c31b9e4462,615ca96d7640b6c31b9e4462,20,cat,filler,F,25,cat15.jpg,cat35.jpg,GoalA,NULL
1687377521,be41e14d56ddba7dd4d658e0d7f1ff79,PennController,24,0,experiment,NULL,PennController,22,_Header_,Start,1687377501992,615ca96d7640b6c31b9e4462,615ca96d7640b6c31b9e4462,20,cat,filler,F,25,cat15.jpg,cat35.jpg,GoalA,NULL
1687377521,be41e14d56ddba7dd4d658e0d7f1ff79,PennController,24,0,experiment,NULL,PennController,22,_Header_,End,1687377501992,615ca96d7640b6c31b9e4462,615ca96d7640b6c31b9e4462,20,cat,filler,F,25,cat15.jpg,cat35.jpg,GoalA,NULL
1687377521,be41e14d56ddba7dd4d658e0d7f1ff79,PennController,24,0,experiment,NULL,Canvas,canvas6,Print,NA,1687377507696,615ca96d7640b6c31b9e4462,615ca96d7640b6c31b9e4462,20,cat,filler,F,25,cat15.jpg,cat35.jpg,GoalA,NULL
1687377521,be41e14d56ddba7dd4d658e0d7f1ff79,PennController,24,0,experiment,NULL,Video,progression,buffer,0.003003,1687377505521,615ca96d7640b6c31b9e4462,615ca96d7640b6c31b9e4462,20,cat,filler,F,25,cat15.jpg,cat35.jpg,GoalA,NULL
1687377521,be41e14d56ddba7dd4d658e0d7f1ff79,PennController,24,0,experiment,NULL,Selector,choice,Selection,option2,1687377510606,615ca96d7640b6c31b9e4462,615ca96d7640b6c31b9e4462,20,cat,filler,F,25,cat15.jpg,cat35.jpg,GoalA,option1;option2
1687377521,be41e14d56ddba7dd4d658e0d7f1ff79,PennController,24,0,experiment,NULL,PennController,22,_Trial_,End,1687377510607,615ca96d7640b6c31b9e4462,615ca96d7640b6c31b9e4462,20,cat,filler,F,25,cat15.jpg,cat35.jpg,GoalA,NULL
1687377521,be41e14d56ddba7dd4d658e0d7f1ff79,PennController,26,0,experiment,NULL,PennController,24,_Trial_,Start,1687377510608,615ca96d7640b6c31b9e4462,615ca96d7640b6c31b9e4462,22,wall,filler,F,75,wall65.jpg,wall85.jpg,GoalA,NULL
1687377521,be41e14d56ddba7dd4d658e0d7f1ff79,PennController,26,0,experiment,NULL,PennController,24,_Header_,Start,1687377510608,615ca96d7640b6c31b9e4462,615ca96d7640b6c31b9e4462,22,wall,filler,F,75,wall65.jpg,wall85.jpg,GoalA,NULL
1687377521,be41e14d56ddba7dd4d658e0d7f1ff79,PennController,26,0,experiment,NULL,PennController,24,_Header_,End,1687377510608,615ca96d7640b6c31b9e4462,615ca96d7640b6c31b9e4462,22,wall,filler,F,75,wall65.jpg,wall85.jpg,GoalA,NULL
1687377521,be41e14d56ddba7dd4d658e0d7f1ff79,PennController,26,0,experiment,NULL,Canvas,canvas6,Print,NA,1687377518305,615ca96d7640b6c31b9e4462,615ca96d7640b6c31b9e4462,22,wall,filler,F,75,wall65.jpg,wall85.jpg,GoalA,NULL
1687377521,be41e14d56ddba7dd4d658e0d7f1ff79,PennController,26,0,experiment,NULL,Video,progression,buffer,0.004155,1687377514138,615ca96d7640b6c31b9e4462,615ca96d7640b6c31b9e4462,22,wall,filler,F,75,wall65.jpg,wall85.jpg,GoalA,NULL
1687377521,be41e14d56ddba7dd4d658e0d7f1ff79,PennController,26,0,experiment,NULL,Selector,choice,Selection,option2,1687377522752,615ca96d7640b6c31b9e4462,615ca96d7640b6c31b9e4462,22,wall,filler,F,75,wall65.jpg,wall85.jpg,GoalA,option1;option2
1687377521,be41e14d56ddba7dd4d658e0d7f1ff79,PennController,26,0,experiment,NULL,PennController,24,_Trial_,End,1687377522753,615ca96d7640b6c31b9e4462,615ca96d7640b6c31b9e4462,22,wall,filler,F,75,wall65.jpg,wall85.jpg,GoalA,NULL
