#
# Results on Tuesday June 20 2023 19:00:57 UTC
# USER AGENT: Mozilla/5.0 (Macintosh; Intel Mac OS X 10_15_7) AppleWebKit/537.36 (KHTML, like Gecko) Chrome/114.0.0.0 Safari/537.36
# Design number was non-random = 10
#
# Columns below this comment are as follows:
# 1. Results reception time.
# 2. MD5 hash of participant's IP address.
# 3. Controller name.
# 4. Order number of item.
# 5. Inner element number.
# 6. Label.
# 7. Latin Square Group.
# 8. PennElementType.
# 9. PennElementName.
# 10. Parameter.
# 11. Value.
# 12. EventTime.
# 13. PROLIFIC_ID.
# 14. Comments.
1687287657,99dc6cf0910e617274859fae09a95f3b,PennController,2,0,consent,NULL,PennController,0,_Trial_,Start,1687287280687,613a74c8402a5fc10a269abc,NULL
1687287657,99dc6cf0910e617274859fae09a95f3b,PennController,2,0,consent,NULL,PennController,0,_Header_,Start,1687287280687,613a74c8402a5fc10a269abc,NULL
1687287657,99dc6cf0910e617274859fae09a95f3b,PennController,2,0,consent,NULL,PennController,0,_Header_,End,1687287280687,613a74c8402a5fc10a269abc,NULL
1687287657,99dc6cf0910e617274859fae09a95f3b,PennController,2,0,consent,NULL,PennController,0,_Trial_,End,1687287372041,613a74c8402a5fc10a269abc,NULL
# Columns below this comment are as follows:
# 14. ID.
# 15. Comments.
1687287657,99dc6cf0910e617274859fae09a95f3b,PennController,3,0,intro,NULL,PennController,1,_Trial_,Start,1687287372047,613a74c8402a5fc10a269abc,613a74c8402a5fc10a269abc,NULL
1687287657,99dc6cf0910e617274859fae09a95f3b,PennController,3,0,intro,NULL,PennController,1,_Header_,Start,1687287372047,613a74c8402a5fc10a269abc,613a74c8402a5fc10a269abc,NULL
1687287657,99dc6cf0910e617274859fae09a95f3b,PennController,3,0,intro,NULL,PennController,1,_Header_,End,1687287372047,613a74c8402a5fc10a269abc,613a74c8402a5fc10a269abc,NULL
1687287657,99dc6cf0910e617274859fae09a95f3b,PennController,3,0,intro,NULL,PennController,1,_Trial_,End,1687287377719,613a74c8402a5fc10a269abc,613a74c8402a5fc10a269abc,NULL
# Columns below this comment are as follows:
# 15. item_number.
# 16. item.
# 17. type.
# 18. Group.
# 19. prog.
# 20. prev_image.
# 21. next_image.
# 22. height.
# 23. Comments.
1687287657,99dc6cf0910e617274859fae09a95f3b,PennController,26,0,experiment,NULL,PennController,25,_Trial_,Start,1687287377721,613a74c8402a5fc10a269abc,613a74c8402a5fc10a269abc,23,color,filler,E,75,color65.jpg,color85.jpg,GoalB,NULL
1687287657,99dc6cf0910e617274859fae09a95f3b,PennController,26,0,experiment,NULL,PennController,25,_Header_,Start,1687287377721,613a74c8402a5fc10a269abc,613a74c8402a5fc10a269abc,23,color,filler,E,75,color65.jpg,color85.jpg,GoalB,NULL
1687287657,99dc6cf0910e617274859fae09a95f3b,PennController,26,0,experiment,NULL,PennController,25,_Header_,End,1687287377721,613a74c8402a5fc10a269abc,613a74c8402a5fc10a269abc,23,color,filler,E,75,color65.jpg,color85.jpg,GoalB,NULL
1687287657,99dc6cf0910e617274859fae09a95f3b,PennController,26,0,experiment,NULL,Canvas,canvas6,Print,NA,1687287385436,613a74c8402a5fc10a269abc,613a74c8402a5fc10a269abc,23,color,filler,E,75,color65.jpg,color85.jpg,GoalB,NULL
1687287657,99dc6cf0910e617274859fae09a95f3b,PennController,26,0,experiment,NULL,Video,progression,buffer,0.005523,1687287381269,613a74c8402a5fc10a269abc,613a74c8402a5fc10a269abc,23,color,filler,E,75,color65.jpg,color85.jpg,GoalB,NULL
1687287657,99dc6cf0910e617274859fae09a95f3b,PennController,26,0,experiment,NULL,Selector,choice,Selection,option2,1687287390000,613a74c8402a5fc10a269abc,613a74c8402a5fc10a269abc,23,color,filler,E,75,color65.jpg,color85.jpg,GoalB,option1;option2
1687287657,99dc6cf0910e617274859fae09a95f3b,PennController,26,0,experiment,NULL,PennController,25,_Trial_,End,1687287390005,613a74c8402a5fc10a269abc,613a74c8402a5fc10a269abc,23,color,filler,E,75,color65.jpg,color85.jpg,GoalB,NULL
1687287657,99dc6cf0910e617274859fae09a95f3b,PennController,7,0,experiment,NULL,PennController,6,_Trial_,Start,1687287390007,613a74c8402a5fc10a269abc,613a74c8402a5fc10a269abc,4,candy,critical,E,50,candy40.jpg,candy60.jpg,high,NULL
1687287657,99dc6cf0910e617274859fae09a95f3b,PennController,7,0,experiment,NULL,PennController,6,_Header_,Start,1687287390007,613a74c8402a5fc10a269abc,613a74c8402a5fc10a269abc,4,candy,critical,E,50,candy40.jpg,candy60.jpg,high,NULL
1687287657,99dc6cf0910e617274859fae09a95f3b,PennController,7,0,experiment,NULL,PennController,6,_Header_,End,1687287390007,613a74c8402a5fc10a269abc,613a74c8402a5fc10a269abc,4,candy,critical,E,50,candy40.jpg,candy60.jpg,high,NULL
1687287657,99dc6cf0910e617274859fae09a95f3b,PennController,7,0,experiment,NULL,Canvas,canvas6,Print,NA,1687287396704,613a74c8402a5fc10a269abc,613a74c8402a5fc10a269abc,4,candy,critical,E,50,candy40.jpg,candy60.jpg,high,NULL
1687287657,99dc6cf0910e617274859fae09a95f3b,PennController,7,0,experiment,NULL,Video,progression,buffer,0.005244,1687287393540,613a74c8402a5fc10a269abc,613a74c8402a5fc10a269abc,4,candy,critical,E,50,candy40.jpg,candy60.jpg,high,NULL
1687287657,99dc6cf0910e617274859fae09a95f3b,PennController,7,0,experiment,NULL,Selector,choice,Selection,option2,1687287399262,613a74c8402a5fc10a269abc,613a74c8402a5fc10a269abc,4,candy,critical,E,50,candy40.jpg,candy60.jpg,high,option1;option2
1687287657,99dc6cf0910e617274859fae09a95f3b,PennController,7,0,experiment,NULL,PennController,6,_Trial_,End,1687287399264,613a74c8402a5fc10a269abc,613a74c8402a5fc10a269abc,4,candy,critical,E,50,candy40.jpg,candy60.jpg,high,NULL
1687287657,99dc6cf0910e617274859fae09a95f3b,PennController,4,0,experiment,NULL,PennController,3,_Trial_,Start,1687287399268,613a74c8402a5fc10a269abc,613a74c8402a5fc10a269abc,1,vase,critical,E,50,vase40.jpg,vase60.jpg,high,NULL
1687287657,99dc6cf0910e617274859fae09a95f3b,PennController,4,0,experiment,NULL,PennController,3,_Header_,Start,1687287399268,613a74c8402a5fc10a269abc,613a74c8402a5fc10a269abc,1,vase,critical,E,50,vase40.jpg,vase60.jpg,high,NULL
1687287657,99dc6cf0910e617274859fae09a95f3b,PennController,4,0,experiment,NULL,PennController,3,_Header_,End,1687287399268,613a74c8402a5fc10a269abc,613a74c8402a5fc10a269abc,1,vase,critical,E,50,vase40.jpg,vase60.jpg,high,NULL
1687287657,99dc6cf0910e617274859fae09a95f3b,PennController,4,0,experiment,NULL,Canvas,canvas6,Print,NA,1687287405970,613a74c8402a5fc10a269abc,613a74c8402a5fc10a269abc,1,vase,critical,E,50,vase40.jpg,vase60.jpg,high,NULL
1687287657,99dc6cf0910e617274859fae09a95f3b,PennController,4,0,experiment,NULL,Video,progression,buffer,0.006866,1687287402801,613a74c8402a5fc10a269abc,613a74c8402a5fc10a269abc,1,vase,critical,E,50,vase40.jpg,vase60.jpg,high,NULL
1687287657,99dc6cf0910e617274859fae09a95f3b,PennController,4,0,experiment,NULL,Selector,choice,Selection,option1,1687287407227,613a74c8402a5fc10a269abc,613a74c8402a5fc10a269abc,1,vase,critical,E,50,vase40.jpg,vase60.jpg,high,option2;option1
1687287657,99dc6cf0910e617274859fae09a95f3b,PennController,4,0,experiment,NULL,PennController,3,_Trial_,End,1687287407231,613a74c8402a5fc10a269abc,613a74c8402a5fc10a269abc,1,vase,critical,E,50,vase40.jpg,vase60.jpg,high,NULL
1687287657,99dc6cf0910e617274859fae09a95f3b,PennController,5,0,experiment,NULL,PennController,4,_Trial_,Start,1687287407233,613a74c8402a5fc10a269abc,613a74c8402a5fc10a269abc,2,door,critical,E,75,door65.jpg,door85.jpg,high,NULL
1687287657,99dc6cf0910e617274859fae09a95f3b,PennController,5,0,experiment,NULL,PennController,4,_Header_,Start,1687287407233,613a74c8402a5fc10a269abc,613a74c8402a5fc10a269abc,2,door,critical,E,75,door65.jpg,door85.jpg,high,NULL
1687287657,99dc6cf0910e617274859fae09a95f3b,PennController,5,0,experiment,NULL,PennController,4,_Header_,End,1687287407233,613a74c8402a5fc10a269abc,613a74c8402a5fc10a269abc,2,door,critical,E,75,door65.jpg,door85.jpg,high,NULL
1687287657,99dc6cf0910e617274859fae09a95f3b,PennController,5,0,experiment,NULL,Canvas,canvas6,Print,NA,1687287414943,613a74c8402a5fc10a269abc,613a74c8402a5fc10a269abc,2,door,critical,E,75,door65.jpg,door85.jpg,high,NULL
1687287657,99dc6cf0910e617274859fae09a95f3b,PennController,5,0,experiment,NULL,Video,progression,buffer,0.004568,1687287410765,613a74c8402a5fc10a269abc,613a74c8402a5fc10a269abc,2,door,critical,E,75,door65.jpg,door85.jpg,high,NULL
1687287657,99dc6cf0910e617274859fae09a95f3b,PennController,5,0,experiment,NULL,Selector,choice,Selection,option2,1687287417103,613a74c8402a5fc10a269abc,613a74c8402a5fc10a269abc,2,door,critical,E,75,door65.jpg,door85.jpg,high,option1;option2
1687287657,99dc6cf0910e617274859fae09a95f3b,PennController,5,0,experiment,NULL,PennController,4,_Trial_,End,1687287417105,613a74c8402a5fc10a269abc,613a74c8402a5fc10a269abc,2,door,critical,E,75,door65.jpg,door85.jpg,high,NULL
1687287657,99dc6cf0910e617274859fae09a95f3b,PennController,32,0,experiment,NULL,PennController,31,_Trial_,Start,1687287417107,613a74c8402a5fc10a269abc,613a74c8402a5fc10a269abc,29,frog,filler,E,75,frog65.jpg,frog85.jpg,GoalB,NULL
1687287657,99dc6cf0910e617274859fae09a95f3b,PennController,32,0,experiment,NULL,PennController,31,_Header_,Start,1687287417107,613a74c8402a5fc10a269abc,613a74c8402a5fc10a269abc,29,frog,filler,E,75,frog65.jpg,frog85.jpg,GoalB,NULL
1687287657,99dc6cf0910e617274859fae09a95f3b,PennController,32,0,experiment,NULL,PennController,31,_Header_,End,1687287417110,613a74c8402a5fc10a269abc,613a74c8402a5fc10a269abc,29,frog,filler,E,75,frog65.jpg,frog85.jpg,GoalB,NULL
1687287657,99dc6cf0910e617274859fae09a95f3b,PennController,32,0,experiment,NULL,Canvas,canvas6,Print,NA,1687287424805,613a74c8402a5fc10a269abc,613a74c8402a5fc10a269abc,29,frog,filler,E,75,frog65.jpg,frog85.jpg,GoalB,NULL
1687287657,99dc6cf0910e617274859fae09a95f3b,PennController,32,0,experiment,NULL,Video,progression,buffer,0.00454,1687287420640,613a74c8402a5fc10a269abc,613a74c8402a5fc10a269abc,29,frog,filler,E,75,frog65.jpg,frog85.jpg,GoalB,NULL
1687287657,99dc6cf0910e617274859fae09a95f3b,PennController,32,0,experiment,NULL,Selector,choice,Selection,option1,1687287426313,613a74c8402a5fc10a269abc,613a74c8402a5fc10a269abc,29,frog,filler,E,75,frog65.jpg,frog85.jpg,GoalB,option1;option2
1687287657,99dc6cf0910e617274859fae09a95f3b,PennController,32,0,experiment,NULL,PennController,31,_Trial_,End,1687287426315,613a74c8402a5fc10a269abc,613a74c8402a5fc10a269abc,29,frog,filler,E,75,frog65.jpg,frog85.jpg,GoalB,NULL
1687287657,99dc6cf0910e617274859fae09a95f3b,PennController,23,0,experiment,NULL,PennController,22,_Trial_,Start,1687287426318,613a74c8402a5fc10a269abc,613a74c8402a5fc10a269abc,20,cat,filler,E,75,cat65.jpg,cat85.jpg,GoalA,NULL
1687287657,99dc6cf0910e617274859fae09a95f3b,PennController,23,0,experiment,NULL,PennController,22,_Header_,Start,1687287426318,613a74c8402a5fc10a269abc,613a74c8402a5fc10a269abc,20,cat,filler,E,75,cat65.jpg,cat85.jpg,GoalA,NULL
1687287657,99dc6cf0910e617274859fae09a95f3b,PennController,23,0,experiment,NULL,PennController,22,_Header_,End,1687287426318,613a74c8402a5fc10a269abc,613a74c8402a5fc10a269abc,20,cat,filler,E,75,cat65.jpg,cat85.jpg,GoalA,NULL
1687287657,99dc6cf0910e617274859fae09a95f3b,PennController,23,0,experiment,NULL,Canvas,canvas6,Print,NA,1687287434023,613a74c8402a5fc10a269abc,613a74c8402a5fc10a269abc,20,cat,filler,E,75,cat65.jpg,cat85.jpg,GoalA,NULL
1687287657,99dc6cf0910e617274859fae09a95f3b,PennController,23,0,experiment,NULL,Video,progression,buffer,0.006097,1687287429850,613a74c8402a5fc10a269abc,613a74c8402a5fc10a269abc,20,cat,filler,E,75,cat65.jpg,cat85.jpg,GoalA,NULL
1687287657,99dc6cf0910e617274859fae09a95f3b,PennController,23,0,experiment,NULL,Selector,choice,Selection,option2,1687287435498,613a74c8402a5fc10a269abc,613a74c8402a5fc10a269abc,20,cat,filler,E,75,cat65.jpg,cat85.jpg,GoalA,option2;option1
1687287657,99dc6cf0910e617274859fae09a95f3b,PennController,23,0,experiment,NULL,PennController,22,_Trial_,End,1687287435501,613a74c8402a5fc10a269abc,613a74c8402a5fc10a269abc,20,cat,filler,E,75,cat65.jpg,cat85.jpg,GoalA,NULL
1687287657,99dc6cf0910e617274859fae09a95f3b,PennController,18,0,experiment,NULL,PennController,17,_Trial_,Start,1687287435502,613a74c8402a5fc10a269abc,613a74c8402a5fc10a269abc,15,zip,critical,E,25,zip15.jpg,zip35.jpg,high,NULL
1687287657,99dc6cf0910e617274859fae09a95f3b,PennController,18,0,experiment,NULL,PennController,17,_Header_,Start,1687287435502,613a74c8402a5fc10a269abc,613a74c8402a5fc10a269abc,15,zip,critical,E,25,zip15.jpg,zip35.jpg,high,NULL
1687287657,99dc6cf0910e617274859fae09a95f3b,PennController,18,0,experiment,NULL,PennController,17,_Header_,End,1687287435502,613a74c8402a5fc10a269abc,613a74c8402a5fc10a269abc,15,zip,critical,E,25,zip15.jpg,zip35.jpg,high,NULL
1687287657,99dc6cf0910e617274859fae09a95f3b,PennController,18,0,experiment,NULL,Canvas,canvas6,Print,NA,1687287441190,613a74c8402a5fc10a269abc,613a74c8402a5fc10a269abc,15,zip,critical,E,25,zip15.jpg,zip35.jpg,high,NULL
1687287657,99dc6cf0910e617274859fae09a95f3b,PennController,18,0,experiment,NULL,Video,progression,buffer,0.005124,1687287439029,613a74c8402a5fc10a269abc,613a74c8402a5fc10a269abc,15,zip,critical,E,25,zip15.jpg,zip35.jpg,high,NULL
1687287657,99dc6cf0910e617274859fae09a95f3b,PennController,18,0,experiment,NULL,Selector,choice,Selection,option2,1687287443867,613a74c8402a5fc10a269abc,613a74c8402a5fc10a269abc,15,zip,critical,E,25,zip15.jpg,zip35.jpg,high,option2;option1
1687287657,99dc6cf0910e617274859fae09a95f3b,PennController,18,0,experiment,NULL,PennController,17,_Trial_,End,1687287443869,613a74c8402a5fc10a269abc,613a74c8402a5fc10a269abc,15,zip,critical,E,25,zip15.jpg,zip35.jpg,high,NULL
1687287657,99dc6cf0910e617274859fae09a95f3b,PennController,17,0,experiment,NULL,PennController,16,_Trial_,Start,1687287443874,613a74c8402a5fc10a269abc,613a74c8402a5fc10a269abc,14,cover,critical,E,75,cover66.jpg,cover84.jpg,high,NULL
1687287657,99dc6cf0910e617274859fae09a95f3b,PennController,17,0,experiment,NULL,PennController,16,_Header_,Start,1687287443874,613a74c8402a5fc10a269abc,613a74c8402a5fc10a269abc,14,cover,critical,E,75,cover66.jpg,cover84.jpg,high,NULL
1687287657,99dc6cf0910e617274859fae09a95f3b,PennController,17,0,experiment,NULL,PennController,16,_Header_,End,1687287443874,613a74c8402a5fc10a269abc,613a74c8402a5fc10a269abc,14,cover,critical,E,75,cover66.jpg,cover84.jpg,high,NULL
1687287657,99dc6cf0910e617274859fae09a95f3b,PennController,17,0,experiment,NULL,Canvas,canvas6,Print,NA,1687287453576,613a74c8402a5fc10a269abc,613a74c8402a5fc10a269abc,14,cover,critical,E,75,cover66.jpg,cover84.jpg,high,NULL
1687287657,99dc6cf0910e617274859fae09a95f3b,PennController,17,0,experiment,NULL,Video,progression,buffer,0.006306,1687287447402,613a74c8402a5fc10a269abc,613a74c8402a5fc10a269abc,14,cover,critical,E,75,cover66.jpg,cover84.jpg,high,NULL
1687287657,99dc6cf0910e617274859fae09a95f3b,PennController,17,0,experiment,NULL,Selector,choice,Selection,option1,1687287457374,613a74c8402a5fc10a269abc,613a74c8402a5fc10a269abc,14,cover,critical,E,75,cover66.jpg,cover84.jpg,high,option1;option2
1687287657,99dc6cf0910e617274859fae09a95f3b,PennController,17,0,experiment,NULL,PennController,16,_Trial_,End,1687287457376,613a74c8402a5fc10a269abc,613a74c8402a5fc10a269abc,14,cover,critical,E,75,cover66.jpg,cover84.jpg,high,NULL
1687287657,99dc6cf0910e617274859fae09a95f3b,PennController,10,0,experiment,NULL,PennController,9,_Trial_,Start,1687287457380,613a74c8402a5fc10a269abc,613a74c8402a5fc10a269abc,7,stack,critical,E,50,stack40.jpg,stack60.jpg,high,NULL
1687287657,99dc6cf0910e617274859fae09a95f3b,PennController,10,0,experiment,NULL,PennController,9,_Header_,Start,1687287457380,613a74c8402a5fc10a269abc,613a74c8402a5fc10a269abc,7,stack,critical,E,50,stack40.jpg,stack60.jpg,high,NULL
1687287657,99dc6cf0910e617274859fae09a95f3b,PennController,10,0,experiment,NULL,PennController,9,_Header_,End,1687287457381,613a74c8402a5fc10a269abc,613a74c8402a5fc10a269abc,7,stack,critical,E,50,stack40.jpg,stack60.jpg,high,NULL
1687287657,99dc6cf0910e617274859fae09a95f3b,PennController,10,0,experiment,NULL,Canvas,canvas6,Print,NA,1687287464079,613a74c8402a5fc10a269abc,613a74c8402a5fc10a269abc,7,stack,critical,E,50,stack40.jpg,stack60.jpg,high,NULL
1687287657,99dc6cf0910e617274859fae09a95f3b,PennController,10,0,experiment,NULL,Video,progression,buffer,0.006338,1687287460914,613a74c8402a5fc10a269abc,613a74c8402a5fc10a269abc,7,stack,critical,E,50,stack40.jpg,stack60.jpg,high,NULL
1687287657,99dc6cf0910e617274859fae09a95f3b,PennController,10,0,experiment,NULL,Selector,choice,Selection,option1,1687287466257,613a74c8402a5fc10a269abc,613a74c8402a5fc10a269abc,7,stack,critical,E,50,stack40.jpg,stack60.jpg,high,option1;option2
1687287657,99dc6cf0910e617274859fae09a95f3b,PennController,10,0,experiment,NULL,PennController,9,_Trial_,End,1687287466260,613a74c8402a5fc10a269abc,613a74c8402a5fc10a269abc,7,stack,critical,E,50,stack40.jpg,stack60.jpg,high,NULL
1687287657,99dc6cf0910e617274859fae09a95f3b,PennController,6,0,experiment,NULL,PennController,5,_Trial_,Start,1687287466266,613a74c8402a5fc10a269abc,613a74c8402a5fc10a269abc,3,clean,critical,E,25,clean15.jpg,clean35.jpg,high,NULL
1687287657,99dc6cf0910e617274859fae09a95f3b,PennController,6,0,experiment,NULL,PennController,5,_Header_,Start,1687287466266,613a74c8402a5fc10a269abc,613a74c8402a5fc10a269abc,3,clean,critical,E,25,clean15.jpg,clean35.jpg,high,NULL
1687287657,99dc6cf0910e617274859fae09a95f3b,PennController,6,0,experiment,NULL,PennController,5,_Header_,End,1687287466266,613a74c8402a5fc10a269abc,613a74c8402a5fc10a269abc,3,clean,critical,E,25,clean15.jpg,clean35.jpg,high,NULL
1687287657,99dc6cf0910e617274859fae09a95f3b,PennController,6,0,experiment,NULL,Canvas,canvas6,Print,NA,1687287471961,613a74c8402a5fc10a269abc,613a74c8402a5fc10a269abc,3,clean,critical,E,25,clean15.jpg,clean35.jpg,high,NULL
1687287657,99dc6cf0910e617274859fae09a95f3b,PennController,6,0,experiment,NULL,Video,progression,buffer,0.006394,1687287469794,613a74c8402a5fc10a269abc,613a74c8402a5fc10a269abc,3,clean,critical,E,25,clean15.jpg,clean35.jpg,high,NULL
1687287657,99dc6cf0910e617274859fae09a95f3b,PennController,6,0,experiment,NULL,Selector,choice,Selection,option2,1687287474724,613a74c8402a5fc10a269abc,613a74c8402a5fc10a269abc,3,clean,critical,E,25,clean15.jpg,clean35.jpg,high,option2;option1
1687287657,99dc6cf0910e617274859fae09a95f3b,PennController,6,0,experiment,NULL,PennController,5,_Trial_,End,1687287474726,613a74c8402a5fc10a269abc,613a74c8402a5fc10a269abc,3,clean,critical,E,25,clean15.jpg,clean35.jpg,high,NULL
1687287657,99dc6cf0910e617274859fae09a95f3b,PennController,19,0,experiment,NULL,PennController,18,_Trial_,Start,1687287474728,613a74c8402a5fc10a269abc,613a74c8402a5fc10a269abc,16,blinds,critical,E,50,blinds42.jpg,blinds60.jpg,high,NULL
1687287657,99dc6cf0910e617274859fae09a95f3b,PennController,19,0,experiment,NULL,PennController,18,_Header_,Start,1687287474728,613a74c8402a5fc10a269abc,613a74c8402a5fc10a269abc,16,blinds,critical,E,50,blinds42.jpg,blinds60.jpg,high,NULL
1687287657,99dc6cf0910e617274859fae09a95f3b,PennController,19,0,experiment,NULL,PennController,18,_Header_,End,1687287474728,613a74c8402a5fc10a269abc,613a74c8402a5fc10a269abc,16,blinds,critical,E,50,blinds42.jpg,blinds60.jpg,high,NULL
1687287657,99dc6cf0910e617274859fae09a95f3b,PennController,19,0,experiment,NULL,Canvas,canvas6,Print,NA,1687287482832,613a74c8402a5fc10a269abc,613a74c8402a5fc10a269abc,16,blinds,critical,E,50,blinds42.jpg,blinds60.jpg,high,NULL
1687287657,99dc6cf0910e617274859fae09a95f3b,PennController,19,0,experiment,NULL,Video,progression,buffer,0.004612,1687287478253,613a74c8402a5fc10a269abc,613a74c8402a5fc10a269abc,16,blinds,critical,E,50,blinds42.jpg,blinds60.jpg,high,NULL
1687287657,99dc6cf0910e617274859fae09a95f3b,PennController,19,0,experiment,NULL,Selector,choice,Selection,option1,1687287484154,613a74c8402a5fc10a269abc,613a74c8402a5fc10a269abc,16,blinds,critical,E,50,blinds42.jpg,blinds60.jpg,high,option1;option2
1687287657,99dc6cf0910e617274859fae09a95f3b,PennController,19,0,experiment,NULL,PennController,18,_Trial_,End,1687287484156,613a74c8402a5fc10a269abc,613a74c8402a5fc10a269abc,16,blinds,critical,E,50,blinds42.jpg,blinds60.jpg,high,NULL
1687287657,99dc6cf0910e617274859fae09a95f3b,PennController,15,0,experiment,NULL,PennController,14,_Trial_,Start,1687287484158,613a74c8402a5fc10a269abc,613a74c8402a5fc10a269abc,12,erase,critical,E,25,erase15.jpg,erase33.jpg,high,NULL
1687287657,99dc6cf0910e617274859fae09a95f3b,PennController,15,0,experiment,NULL,PennController,14,_Header_,Start,1687287484158,613a74c8402a5fc10a269abc,613a74c8402a5fc10a269abc,12,erase,critical,E,25,erase15.jpg,erase33.jpg,high,NULL
1687287657,99dc6cf0910e617274859fae09a95f3b,PennController,15,0,experiment,NULL,PennController,14,_Header_,End,1687287484158,613a74c8402a5fc10a269abc,613a74c8402a5fc10a269abc,12,erase,critical,E,25,erase15.jpg,erase33.jpg,high,NULL
1687287657,99dc6cf0910e617274859fae09a95f3b,PennController,15,0,experiment,NULL,Canvas,canvas6,Print,NA,1687287490463,613a74c8402a5fc10a269abc,613a74c8402a5fc10a269abc,12,erase,critical,E,25,erase15.jpg,erase33.jpg,high,NULL
1687287657,99dc6cf0910e617274859fae09a95f3b,PennController,15,0,experiment,NULL,Video,progression,buffer,0.006159,1687287487692,613a74c8402a5fc10a269abc,613a74c8402a5fc10a269abc,12,erase,critical,E,25,erase15.jpg,erase33.jpg,high,NULL
1687287657,99dc6cf0910e617274859fae09a95f3b,PennController,15,0,experiment,NULL,Selector,choice,Selection,option1,1687287493445,613a74c8402a5fc10a269abc,613a74c8402a5fc10a269abc,12,erase,critical,E,25,erase15.jpg,erase33.jpg,high,option1;option2
1687287657,99dc6cf0910e617274859fae09a95f3b,PennController,15,0,experiment,NULL,PennController,14,_Trial_,End,1687287493447,613a74c8402a5fc10a269abc,613a74c8402a5fc10a269abc,12,erase,critical,E,25,erase15.jpg,erase33.jpg,high,NULL
1687287657,99dc6cf0910e617274859fae09a95f3b,PennController,14,0,experiment,NULL,PennController,13,_Trial_,Start,1687287493452,613a74c8402a5fc10a269abc,613a74c8402a5fc10a269abc,11,beads,critical,E,75,beads65.jpg,beads85.jpg,high,NULL
1687287657,99dc6cf0910e617274859fae09a95f3b,PennController,14,0,experiment,NULL,PennController,13,_Header_,Start,1687287493452,613a74c8402a5fc10a269abc,613a74c8402a5fc10a269abc,11,beads,critical,E,75,beads65.jpg,beads85.jpg,high,NULL
1687287657,99dc6cf0910e617274859fae09a95f3b,PennController,14,0,experiment,NULL,PennController,13,_Header_,End,1687287493452,613a74c8402a5fc10a269abc,613a74c8402a5fc10a269abc,11,beads,critical,E,75,beads65.jpg,beads85.jpg,high,NULL
1687287657,99dc6cf0910e617274859fae09a95f3b,PennController,14,0,experiment,NULL,Canvas,canvas6,Print,NA,1687287501163,613a74c8402a5fc10a269abc,613a74c8402a5fc10a269abc,11,beads,critical,E,75,beads65.jpg,beads85.jpg,high,NULL
1687287657,99dc6cf0910e617274859fae09a95f3b,PennController,14,0,experiment,NULL,Video,progression,buffer,0.004682,1687287496985,613a74c8402a5fc10a269abc,613a74c8402a5fc10a269abc,11,beads,critical,E,75,beads65.jpg,beads85.jpg,high,NULL
1687287657,99dc6cf0910e617274859fae09a95f3b,PennController,14,0,experiment,NULL,Selector,choice,Selection,option1,1687287502106,613a74c8402a5fc10a269abc,613a74c8402a5fc10a269abc,11,beads,critical,E,75,beads65.jpg,beads85.jpg,high,option1;option2
1687287657,99dc6cf0910e617274859fae09a95f3b,PennController,14,0,experiment,NULL,PennController,13,_Trial_,End,1687287502108,613a74c8402a5fc10a269abc,613a74c8402a5fc10a269abc,11,beads,critical,E,75,beads65.jpg,beads85.jpg,high,NULL
1687287657,99dc6cf0910e617274859fae09a95f3b,PennController,22,0,experiment,NULL,PennController,21,_Trial_,Start,1687287502110,613a74c8402a5fc10a269abc,613a74c8402a5fc10a269abc,19,cup,filler,E,50,cup40.jpg,cup60.jpg,GoalB,NULL
1687287657,99dc6cf0910e617274859fae09a95f3b,PennController,22,0,experiment,NULL,PennController,21,_Header_,Start,1687287502110,613a74c8402a5fc10a269abc,613a74c8402a5fc10a269abc,19,cup,filler,E,50,cup40.jpg,cup60.jpg,GoalB,NULL
1687287657,99dc6cf0910e617274859fae09a95f3b,PennController,22,0,experiment,NULL,PennController,21,_Header_,End,1687287502110,613a74c8402a5fc10a269abc,613a74c8402a5fc10a269abc,19,cup,filler,E,50,cup40.jpg,cup60.jpg,GoalB,NULL
1687287657,99dc6cf0910e617274859fae09a95f3b,PennController,22,0,experiment,NULL,Canvas,canvas6,Print,NA,1687287508813,613a74c8402a5fc10a269abc,613a74c8402a5fc10a269abc,19,cup,filler,E,50,cup40.jpg,cup60.jpg,GoalB,NULL
1687287657,99dc6cf0910e617274859fae09a95f3b,PennController,22,0,experiment,NULL,Video,progression,buffer,0.004629,1687287505636,613a74c8402a5fc10a269abc,613a74c8402a5fc10a269abc,19,cup,filler,E,50,cup40.jpg,cup60.jpg,GoalB,NULL
1687287657,99dc6cf0910e617274859fae09a95f3b,PennController,22,0,experiment,NULL,Selector,choice,Selection,option1,1687287510896,613a74c8402a5fc10a269abc,613a74c8402a5fc10a269abc,19,cup,filler,E,50,cup40.jpg,cup60.jpg,GoalB,option1;option2
1687287657,99dc6cf0910e617274859fae09a95f3b,PennController,22,0,experiment,NULL,PennController,21,_Trial_,End,1687287510898,613a74c8402a5fc10a269abc,613a74c8402a5fc10a269abc,19,cup,filler,E,50,cup40.jpg,cup60.jpg,GoalB,NULL
1687287657,99dc6cf0910e617274859fae09a95f3b,PennController,16,0,experiment,NULL,PennController,15,_Trial_,Start,1687287510900,613a74c8402a5fc10a269abc,613a74c8402a5fc10a269abc,13,mix,critical,E,50,mix40.jpg,mix60.jpg,high,NULL
1687287657,99dc6cf0910e617274859fae09a95f3b,PennController,16,0,experiment,NULL,PennController,15,_Header_,Start,1687287510900,613a74c8402a5fc10a269abc,613a74c8402a5fc10a269abc,13,mix,critical,E,50,mix40.jpg,mix60.jpg,high,NULL
1687287657,99dc6cf0910e617274859fae09a95f3b,PennController,16,0,experiment,NULL,PennController,15,_Header_,End,1687287510900,613a74c8402a5fc10a269abc,613a74c8402a5fc10a269abc,13,mix,critical,E,50,mix40.jpg,mix60.jpg,high,NULL
1687287657,99dc6cf0910e617274859fae09a95f3b,PennController,16,0,experiment,NULL,Canvas,canvas6,Print,NA,1687287517598,613a74c8402a5fc10a269abc,613a74c8402a5fc10a269abc,13,mix,critical,E,50,mix40.jpg,mix60.jpg,high,NULL
1687287657,99dc6cf0910e617274859fae09a95f3b,PennController,16,0,experiment,NULL,Video,progression,buffer,0.004852,1687287514435,613a74c8402a5fc10a269abc,613a74c8402a5fc10a269abc,13,mix,critical,E,50,mix40.jpg,mix60.jpg,high,NULL
1687287657,99dc6cf0910e617274859fae09a95f3b,PennController,16,0,experiment,NULL,Selector,choice,Selection,option2,1687287520756,613a74c8402a5fc10a269abc,613a74c8402a5fc10a269abc,13,mix,critical,E,50,mix40.jpg,mix60.jpg,high,option2;option1
1687287657,99dc6cf0910e617274859fae09a95f3b,PennController,16,0,experiment,NULL,PennController,15,_Trial_,End,1687287520759,613a74c8402a5fc10a269abc,613a74c8402a5fc10a269abc,13,mix,critical,E,50,mix40.jpg,mix60.jpg,high,NULL
1687287657,99dc6cf0910e617274859fae09a95f3b,PennController,27,0,experiment,NULL,PennController,26,_Trial_,Start,1687287520762,613a74c8402a5fc10a269abc,613a74c8402a5fc10a269abc,24,match,filler,E,25,match15.jpg,match35.jpg,GoalA,NULL
1687287657,99dc6cf0910e617274859fae09a95f3b,PennController,27,0,experiment,NULL,PennController,26,_Header_,Start,1687287520762,613a74c8402a5fc10a269abc,613a74c8402a5fc10a269abc,24,match,filler,E,25,match15.jpg,match35.jpg,GoalA,NULL
1687287657,99dc6cf0910e617274859fae09a95f3b,PennController,27,0,experiment,NULL,PennController,26,_Header_,End,1687287520762,613a74c8402a5fc10a269abc,613a74c8402a5fc10a269abc,24,match,filler,E,25,match15.jpg,match35.jpg,GoalA,NULL
1687287657,99dc6cf0910e617274859fae09a95f3b,PennController,27,0,experiment,NULL,Canvas,canvas6,Print,NA,1687287526450,613a74c8402a5fc10a269abc,613a74c8402a5fc10a269abc,24,match,filler,E,25,match15.jpg,match35.jpg,GoalA,NULL
1687287657,99dc6cf0910e617274859fae09a95f3b,PennController,27,0,experiment,NULL,Video,progression,buffer,0.004375,1687287524286,613a74c8402a5fc10a269abc,613a74c8402a5fc10a269abc,24,match,filler,E,25,match15.jpg,match35.jpg,GoalA,NULL
1687287657,99dc6cf0910e617274859fae09a95f3b,PennController,27,0,experiment,NULL,Selector,choice,Selection,option2,1687287531542,613a74c8402a5fc10a269abc,613a74c8402a5fc10a269abc,24,match,filler,E,25,match15.jpg,match35.jpg,GoalA,option1;option2
1687287657,99dc6cf0910e617274859fae09a95f3b,PennController,27,0,experiment,NULL,PennController,26,_Trial_,End,1687287531544,613a74c8402a5fc10a269abc,613a74c8402a5fc10a269abc,24,match,filler,E,25,match15.jpg,match35.jpg,GoalA,NULL
1687287657,99dc6cf0910e617274859fae09a95f3b,PennController,11,0,experiment,NULL,PennController,10,_Trial_,Start,1687287531546,613a74c8402a5fc10a269abc,613a74c8402a5fc10a269abc,8,cucumber,critical,E,75,cucumber66.jpg,cucumber84.jpg,high,NULL
1687287657,99dc6cf0910e617274859fae09a95f3b,PennController,11,0,experiment,NULL,PennController,10,_Header_,Start,1687287531546,613a74c8402a5fc10a269abc,613a74c8402a5fc10a269abc,8,cucumber,critical,E,75,cucumber66.jpg,cucumber84.jpg,high,NULL
1687287657,99dc6cf0910e617274859fae09a95f3b,PennController,11,0,experiment,NULL,PennController,10,_Header_,End,1687287531546,613a74c8402a5fc10a269abc,613a74c8402a5fc10a269abc,8,cucumber,critical,E,75,cucumber66.jpg,cucumber84.jpg,high,NULL
1687287657,99dc6cf0910e617274859fae09a95f3b,PennController,11,0,experiment,NULL,Canvas,canvas6,Print,NA,1687287541281,613a74c8402a5fc10a269abc,613a74c8402a5fc10a269abc,8,cucumber,critical,E,75,cucumber66.jpg,cucumber84.jpg,high,NULL
1687287657,99dc6cf0910e617274859fae09a95f3b,PennController,11,0,experiment,NULL,Video,progression,buffer,0,1687287535069,613a74c8402a5fc10a269abc,613a74c8402a5fc10a269abc,8,cucumber,critical,E,75,cucumber66.jpg,cucumber84.jpg,high,NULL
1687287657,99dc6cf0910e617274859fae09a95f3b,PennController,11,0,experiment,NULL,Selector,choice,Selection,option2,1687287546768,613a74c8402a5fc10a269abc,613a74c8402a5fc10a269abc,8,cucumber,critical,E,75,cucumber66.jpg,cucumber84.jpg,high,option2;option1
1687287657,99dc6cf0910e617274859fae09a95f3b,PennController,11,0,experiment,NULL,PennController,10,_Trial_,End,1687287546770,613a74c8402a5fc10a269abc,613a74c8402a5fc10a269abc,8,cucumber,critical,E,75,cucumber66.jpg,cucumber84.jpg,high,NULL
1687287657,99dc6cf0910e617274859fae09a95f3b,PennController,20,0,experiment,NULL,PennController,19,_Trial_,Start,1687287546775,613a74c8402a5fc10a269abc,613a74c8402a5fc10a269abc,17,roll,critical,E,75,roll65.jpg,roll85.jpg,high,NULL
1687287657,99dc6cf0910e617274859fae09a95f3b,PennController,20,0,experiment,NULL,PennController,19,_Header_,Start,1687287546775,613a74c8402a5fc10a269abc,613a74c8402a5fc10a269abc,17,roll,critical,E,75,roll65.jpg,roll85.jpg,high,NULL
1687287657,99dc6cf0910e617274859fae09a95f3b,PennController,20,0,experiment,NULL,PennController,19,_Header_,End,1687287546775,613a74c8402a5fc10a269abc,613a74c8402a5fc10a269abc,17,roll,critical,E,75,roll65.jpg,roll85.jpg,high,NULL
1687287657,99dc6cf0910e617274859fae09a95f3b,PennController,20,0,experiment,NULL,Canvas,canvas6,Print,NA,1687287554481,613a74c8402a5fc10a269abc,613a74c8402a5fc10a269abc,17,roll,critical,E,75,roll65.jpg,roll85.jpg,high,NULL
1687287657,99dc6cf0910e617274859fae09a95f3b,PennController,20,0,experiment,NULL,Video,progression,buffer,0.005243,1687287550312,613a74c8402a5fc10a269abc,613a74c8402a5fc10a269abc,17,roll,critical,E,75,roll65.jpg,roll85.jpg,high,NULL
1687287657,99dc6cf0910e617274859fae09a95f3b,PennController,20,0,experiment,NULL,Selector,choice,Selection,option2,1687287556970,613a74c8402a5fc10a269abc,613a74c8402a5fc10a269abc,17,roll,critical,E,75,roll65.jpg,roll85.jpg,high,option2;option1
1687287657,99dc6cf0910e617274859fae09a95f3b,PennController,20,0,experiment,NULL,PennController,19,_Trial_,End,1687287556973,613a74c8402a5fc10a269abc,613a74c8402a5fc10a269abc,17,roll,critical,E,75,roll65.jpg,roll85.jpg,high,NULL
1687287657,99dc6cf0910e617274859fae09a95f3b,PennController,9,0,experiment,NULL,PennController,8,_Trial_,Start,1687287556977,613a74c8402a5fc10a269abc,613a74c8402a5fc10a269abc,6,flower,critical,E,25,flower15.jpg,flower35.jpg,high,NULL
1687287657,99dc6cf0910e617274859fae09a95f3b,PennController,9,0,experiment,NULL,PennController,8,_Header_,Start,1687287556977,613a74c8402a5fc10a269abc,613a74c8402a5fc10a269abc,6,flower,critical,E,25,flower15.jpg,flower35.jpg,high,NULL
1687287657,99dc6cf0910e617274859fae09a95f3b,PennController,9,0,experiment,NULL,PennController,8,_Header_,End,1687287556977,613a74c8402a5fc10a269abc,613a74c8402a5fc10a269abc,6,flower,critical,E,25,flower15.jpg,flower35.jpg,high,NULL
1687287657,99dc6cf0910e617274859fae09a95f3b,PennController,9,0,experiment,NULL,Canvas,canvas6,Print,NA,1687287562686,613a74c8402a5fc10a269abc,613a74c8402a5fc10a269abc,6,flower,critical,E,25,flower15.jpg,flower35.jpg,high,NULL
1687287657,99dc6cf0910e617274859fae09a95f3b,PennController,9,0,experiment,NULL,Video,progression,buffer,0.004573,1687287560509,613a74c8402a5fc10a269abc,613a74c8402a5fc10a269abc,6,flower,critical,E,25,flower15.jpg,flower35.jpg,high,NULL
1687287657,99dc6cf0910e617274859fae09a95f3b,PennController,9,0,experiment,NULL,Selector,choice,Selection,option1,1687287566103,613a74c8402a5fc10a269abc,613a74c8402a5fc10a269abc,6,flower,critical,E,25,flower15.jpg,flower35.jpg,high,option1;option2
1687287657,99dc6cf0910e617274859fae09a95f3b,PennController,9,0,experiment,NULL,PennController,8,_Trial_,End,1687287566106,613a74c8402a5fc10a269abc,613a74c8402a5fc10a269abc,6,flower,critical,E,25,flower15.jpg,flower35.jpg,high,NULL
1687287657,99dc6cf0910e617274859fae09a95f3b,PennController,24,0,experiment,NULL,PennController,23,_Trial_,Start,1687287566111,613a74c8402a5fc10a269abc,613a74c8402a5fc10a269abc,21,visit,filler,E,25,visit15.jpg,visit35.jpg,GoalB,NULL
1687287657,99dc6cf0910e617274859fae09a95f3b,PennController,24,0,experiment,NULL,PennController,23,_Header_,Start,1687287566111,613a74c8402a5fc10a269abc,613a74c8402a5fc10a269abc,21,visit,filler,E,25,visit15.jpg,visit35.jpg,GoalB,NULL
1687287657,99dc6cf0910e617274859fae09a95f3b,PennController,24,0,experiment,NULL,PennController,23,_Header_,End,1687287566111,613a74c8402a5fc10a269abc,613a74c8402a5fc10a269abc,21,visit,filler,E,25,visit15.jpg,visit35.jpg,GoalB,NULL
1687287657,99dc6cf0910e617274859fae09a95f3b,PennController,24,0,experiment,NULL,Canvas,canvas6,Print,NA,1687287571804,613a74c8402a5fc10a269abc,613a74c8402a5fc10a269abc,21,visit,filler,E,25,visit15.jpg,visit35.jpg,GoalB,NULL
1687287657,99dc6cf0910e617274859fae09a95f3b,PennController,24,0,experiment,NULL,Video,progression,buffer,0.004747,1687287569639,613a74c8402a5fc10a269abc,613a74c8402a5fc10a269abc,21,visit,filler,E,25,visit15.jpg,visit35.jpg,GoalB,NULL
1687287657,99dc6cf0910e617274859fae09a95f3b,PennController,24,0,experiment,NULL,Selector,choice,Selection,option2,1687287574617,613a74c8402a5fc10a269abc,613a74c8402a5fc10a269abc,21,visit,filler,E,25,visit15.jpg,visit35.jpg,GoalB,option2;option1
1687287657,99dc6cf0910e617274859fae09a95f3b,PennController,24,0,experiment,NULL,PennController,23,_Trial_,End,1687287574619,613a74c8402a5fc10a269abc,613a74c8402a5fc10a269abc,21,visit,filler,E,25,visit15.jpg,visit35.jpg,GoalB,NULL
1687287657,99dc6cf0910e617274859fae09a95f3b,PennController,28,0,experiment,NULL,PennController,27,_Trial_,Start,1687287574621,613a74c8402a5fc10a269abc,613a74c8402a5fc10a269abc,25,house,filler,E,50,house40.jpg,house60.jpg,GoalB,NULL
1687287657,99dc6cf0910e617274859fae09a95f3b,PennController,28,0,experiment,NULL,PennController,27,_Header_,Start,1687287574621,613a74c8402a5fc10a269abc,613a74c8402a5fc10a269abc,25,house,filler,E,50,house40.jpg,house60.jpg,GoalB,NULL
1687287657,99dc6cf0910e617274859fae09a95f3b,PennController,28,0,experiment,NULL,PennController,27,_Header_,End,1687287574621,613a74c8402a5fc10a269abc,613a74c8402a5fc10a269abc,25,house,filler,E,50,house40.jpg,house60.jpg,GoalB,NULL
1687287657,99dc6cf0910e617274859fae09a95f3b,PennController,28,0,experiment,NULL,Canvas,canvas6,Print,NA,1687287581322,613a74c8402a5fc10a269abc,613a74c8402a5fc10a269abc,25,house,filler,E,50,house40.jpg,house60.jpg,GoalB,NULL
1687287657,99dc6cf0910e617274859fae09a95f3b,PennController,28,0,experiment,NULL,Video,progression,buffer,0.006068,1687287578149,613a74c8402a5fc10a269abc,613a74c8402a5fc10a269abc,25,house,filler,E,50,house40.jpg,house60.jpg,GoalB,NULL
1687287657,99dc6cf0910e617274859fae09a95f3b,PennController,28,0,experiment,NULL,Selector,choice,Selection,option2,1687287584094,613a74c8402a5fc10a269abc,613a74c8402a5fc10a269abc,25,house,filler,E,50,house40.jpg,house60.jpg,GoalB,option1;option2
1687287657,99dc6cf0910e617274859fae09a95f3b,PennController,28,0,experiment,NULL,PennController,27,_Trial_,End,1687287584097,613a74c8402a5fc10a269abc,613a74c8402a5fc10a269abc,25,house,filler,E,50,house40.jpg,house60.jpg,GoalB,NULL
1687287657,99dc6cf0910e617274859fae09a95f3b,PennController,25,0,experiment,NULL,PennController,24,_Trial_,Start,1687287584099,613a74c8402a5fc10a269abc,613a74c8402a5fc10a269abc,22,wall,filler,E,50,wall40.jpg,wall60.jpg,GoalA,NULL
1687287657,99dc6cf0910e617274859fae09a95f3b,PennController,25,0,experiment,NULL,PennController,24,_Header_,Start,1687287584099,613a74c8402a5fc10a269abc,613a74c8402a5fc10a269abc,22,wall,filler,E,50,wall40.jpg,wall60.jpg,GoalA,NULL
1687287657,99dc6cf0910e617274859fae09a95f3b,PennController,25,0,experiment,NULL,PennController,24,_Header_,End,1687287584099,613a74c8402a5fc10a269abc,613a74c8402a5fc10a269abc,22,wall,filler,E,50,wall40.jpg,wall60.jpg,GoalA,NULL
1687287657,99dc6cf0910e617274859fae09a95f3b,PennController,25,0,experiment,NULL,Canvas,canvas6,Print,NA,1687287590790,613a74c8402a5fc10a269abc,613a74c8402a5fc10a269abc,22,wall,filler,E,50,wall40.jpg,wall60.jpg,GoalA,NULL
1687287657,99dc6cf0910e617274859fae09a95f3b,PennController,25,0,experiment,NULL,Video,progression,buffer,0.003721,1687287587623,613a74c8402a5fc10a269abc,613a74c8402a5fc10a269abc,22,wall,filler,E,50,wall40.jpg,wall60.jpg,GoalA,NULL
1687287657,99dc6cf0910e617274859fae09a95f3b,PennController,25,0,experiment,NULL,Selector,choice,Selection,option1,1687287595196,613a74c8402a5fc10a269abc,613a74c8402a5fc10a269abc,22,wall,filler,E,50,wall40.jpg,wall60.jpg,GoalA,option1;option2
1687287657,99dc6cf0910e617274859fae09a95f3b,PennController,25,0,experiment,NULL,PennController,24,_Trial_,End,1687287595198,613a74c8402a5fc10a269abc,613a74c8402a5fc10a269abc,22,wall,filler,E,50,wall40.jpg,wall60.jpg,GoalA,NULL
1687287657,99dc6cf0910e617274859fae09a95f3b,PennController,12,0,experiment,NULL,PennController,11,_Trial_,Start,1687287595200,613a74c8402a5fc10a269abc,613a74c8402a5fc10a269abc,9,cake,critical,E,25,cake15.jpg,cake33.jpg,high,NULL
1687287657,99dc6cf0910e617274859fae09a95f3b,PennController,12,0,experiment,NULL,PennController,11,_Header_,Start,1687287595200,613a74c8402a5fc10a269abc,613a74c8402a5fc10a269abc,9,cake,critical,E,25,cake15.jpg,cake33.jpg,high,NULL
1687287657,99dc6cf0910e617274859fae09a95f3b,PennController,12,0,experiment,NULL,PennController,11,_Header_,End,1687287595200,613a74c8402a5fc10a269abc,613a74c8402a5fc10a269abc,9,cake,critical,E,25,cake15.jpg,cake33.jpg,high,NULL
1687287657,99dc6cf0910e617274859fae09a95f3b,PennController,12,0,experiment,NULL,Canvas,canvas6,Print,NA,1687287601506,613a74c8402a5fc10a269abc,613a74c8402a5fc10a269abc,9,cake,critical,E,25,cake15.jpg,cake33.jpg,high,NULL
1687287657,99dc6cf0910e617274859fae09a95f3b,PennController,12,0,experiment,NULL,Video,progression,buffer,0.005426,1687287598733,613a74c8402a5fc10a269abc,613a74c8402a5fc10a269abc,9,cake,critical,E,25,cake15.jpg,cake33.jpg,high,NULL
1687287657,99dc6cf0910e617274859fae09a95f3b,PennController,12,0,experiment,NULL,Selector,choice,Selection,option1,1687287604006,613a74c8402a5fc10a269abc,613a74c8402a5fc10a269abc,9,cake,critical,E,25,cake15.jpg,cake33.jpg,high,option1;option2
1687287657,99dc6cf0910e617274859fae09a95f3b,PennController,12,0,experiment,NULL,PennController,11,_Trial_,End,1687287604008,613a74c8402a5fc10a269abc,613a74c8402a5fc10a269abc,9,cake,critical,E,25,cake15.jpg,cake33.jpg,high,NULL
1687287657,99dc6cf0910e617274859fae09a95f3b,PennController,30,0,experiment,NULL,PennController,29,_Trial_,Start,1687287604013,613a74c8402a5fc10a269abc,613a74c8402a5fc10a269abc,27,square,filler,E,25,square15.jpg,square35.jpg,GoalB,NULL
1687287657,99dc6cf0910e617274859fae09a95f3b,PennController,30,0,experiment,NULL,PennController,29,_Header_,Start,1687287604013,613a74c8402a5fc10a269abc,613a74c8402a5fc10a269abc,27,square,filler,E,25,square15.jpg,square35.jpg,GoalB,NULL
1687287657,99dc6cf0910e617274859fae09a95f3b,PennController,30,0,experiment,NULL,PennController,29,_Header_,End,1687287604013,613a74c8402a5fc10a269abc,613a74c8402a5fc10a269abc,27,square,filler,E,25,square15.jpg,square35.jpg,GoalB,NULL
1687287657,99dc6cf0910e617274859fae09a95f3b,PennController,30,0,experiment,NULL,Canvas,canvas6,Print,NA,1687287609707,613a74c8402a5fc10a269abc,613a74c8402a5fc10a269abc,27,square,filler,E,25,square15.jpg,square35.jpg,GoalB,NULL
1687287657,99dc6cf0910e617274859fae09a95f3b,PennController,30,0,experiment,NULL,Video,progression,buffer,0.005465,1687287607544,613a74c8402a5fc10a269abc,613a74c8402a5fc10a269abc,27,square,filler,E,25,square15.jpg,square35.jpg,GoalB,NULL
1687287657,99dc6cf0910e617274859fae09a95f3b,PennController,30,0,experiment,NULL,Selector,choice,Selection,option2,1687287611631,613a74c8402a5fc10a269abc,613a74c8402a5fc10a269abc,27,square,filler,E,25,square15.jpg,square35.jpg,GoalB,option1;option2
1687287657,99dc6cf0910e617274859fae09a95f3b,PennController,30,0,experiment,NULL,PennController,29,_Trial_,End,1687287611633,613a74c8402a5fc10a269abc,613a74c8402a5fc10a269abc,27,square,filler,E,25,square15.jpg,square35.jpg,GoalB,NULL
1687287657,99dc6cf0910e617274859fae09a95f3b,PennController,31,0,experiment,NULL,PennController,30,_Trial_,Start,1687287611636,613a74c8402a5fc10a269abc,613a74c8402a5fc10a269abc,28,sort,filler,E,50,sort40.jpg,sort60.jpg,GoalA,NULL
1687287657,99dc6cf0910e617274859fae09a95f3b,PennController,31,0,experiment,NULL,PennController,30,_Header_,Start,1687287611636,613a74c8402a5fc10a269abc,613a74c8402a5fc10a269abc,28,sort,filler,E,50,sort40.jpg,sort60.jpg,GoalA,NULL
1687287657,99dc6cf0910e617274859fae09a95f3b,PennController,31,0,experiment,NULL,PennController,30,_Header_,End,1687287611636,613a74c8402a5fc10a269abc,613a74c8402a5fc10a269abc,28,sort,filler,E,50,sort40.jpg,sort60.jpg,GoalA,NULL
1687287657,99dc6cf0910e617274859fae09a95f3b,PennController,31,0,experiment,NULL,Canvas,canvas6,Print,NA,1687287618326,613a74c8402a5fc10a269abc,613a74c8402a5fc10a269abc,28,sort,filler,E,50,sort40.jpg,sort60.jpg,GoalA,NULL
1687287657,99dc6cf0910e617274859fae09a95f3b,PennController,31,0,experiment,NULL,Video,progression,buffer,0.00632,1687287615158,613a74c8402a5fc10a269abc,613a74c8402a5fc10a269abc,28,sort,filler,E,50,sort40.jpg,sort60.jpg,GoalA,NULL
1687287657,99dc6cf0910e617274859fae09a95f3b,PennController,31,0,experiment,NULL,Selector,choice,Selection,option1,1687287620321,613a74c8402a5fc10a269abc,613a74c8402a5fc10a269abc,28,sort,filler,E,50,sort40.jpg,sort60.jpg,GoalA,option2;option1
1687287657,99dc6cf0910e617274859fae09a95f3b,PennController,31,0,experiment,NULL,PennController,30,_Trial_,End,1687287620323,613a74c8402a5fc10a269abc,613a74c8402a5fc10a269abc,28,sort,filler,E,50,sort40.jpg,sort60.jpg,GoalA,NULL
1687287657,99dc6cf0910e617274859fae09a95f3b,PennController,21,0,experiment,NULL,PennController,20,_Trial_,Start,1687287620324,613a74c8402a5fc10a269abc,613a74c8402a5fc10a269abc,18,ball,critical,E,25,ball15.jpg,ball35.jpg,high,NULL
1687287657,99dc6cf0910e617274859fae09a95f3b,PennController,21,0,experiment,NULL,PennController,20,_Header_,Start,1687287620324,613a74c8402a5fc10a269abc,613a74c8402a5fc10a269abc,18,ball,critical,E,25,ball15.jpg,ball35.jpg,high,NULL
1687287657,99dc6cf0910e617274859fae09a95f3b,PennController,21,0,experiment,NULL,PennController,20,_Header_,End,1687287620324,613a74c8402a5fc10a269abc,613a74c8402a5fc10a269abc,18,ball,critical,E,25,ball15.jpg,ball35.jpg,high,NULL
1687287657,99dc6cf0910e617274859fae09a95f3b,PennController,21,0,experiment,NULL,Canvas,canvas6,Print,NA,1687287626022,613a74c8402a5fc10a269abc,613a74c8402a5fc10a269abc,18,ball,critical,E,25,ball15.jpg,ball35.jpg,high,NULL
1687287657,99dc6cf0910e617274859fae09a95f3b,PennController,21,0,experiment,NULL,Video,progression,buffer,0.006168,1687287623857,613a74c8402a5fc10a269abc,613a74c8402a5fc10a269abc,18,ball,critical,E,25,ball15.jpg,ball35.jpg,high,NULL
1687287657,99dc6cf0910e617274859fae09a95f3b,PennController,21,0,experiment,NULL,Selector,choice,Selection,option2,1687287628292,613a74c8402a5fc10a269abc,613a74c8402a5fc10a269abc,18,ball,critical,E,25,ball15.jpg,ball35.jpg,high,option2;option1
1687287657,99dc6cf0910e617274859fae09a95f3b,PennController,21,0,experiment,NULL,PennController,20,_Trial_,End,1687287628293,613a74c8402a5fc10a269abc,613a74c8402a5fc10a269abc,18,ball,critical,E,25,ball15.jpg,ball35.jpg,high,NULL
1687287657,99dc6cf0910e617274859fae09a95f3b,PennController,13,0,experiment,NULL,PennController,12,_Trial_,Start,1687287628294,613a74c8402a5fc10a269abc,613a74c8402a5fc10a269abc,10,train,critical,E,50,train40.jpg,train60.jpg,high,NULL
1687287657,99dc6cf0910e617274859fae09a95f3b,PennController,13,0,experiment,NULL,PennController,12,_Header_,Start,1687287628294,613a74c8402a5fc10a269abc,613a74c8402a5fc10a269abc,10,train,critical,E,50,train40.jpg,train60.jpg,high,NULL
1687287657,99dc6cf0910e617274859fae09a95f3b,PennController,13,0,experiment,NULL,PennController,12,_Header_,End,1687287628294,613a74c8402a5fc10a269abc,613a74c8402a5fc10a269abc,10,train,critical,E,50,train40.jpg,train60.jpg,high,NULL
1687287657,99dc6cf0910e617274859fae09a95f3b,PennController,13,0,experiment,NULL,Canvas,canvas6,Print,NA,1687287634992,613a74c8402a5fc10a269abc,613a74c8402a5fc10a269abc,10,train,critical,E,50,train40.jpg,train60.jpg,high,NULL
1687287657,99dc6cf0910e617274859fae09a95f3b,PennController,13,0,experiment,NULL,Video,progression,buffer,0.006859,1687287631826,613a74c8402a5fc10a269abc,613a74c8402a5fc10a269abc,10,train,critical,E,50,train40.jpg,train60.jpg,high,NULL
1687287657,99dc6cf0910e617274859fae09a95f3b,PennController,13,0,experiment,NULL,Selector,choice,Selection,option1,1687287636383,613a74c8402a5fc10a269abc,613a74c8402a5fc10a269abc,10,train,critical,E,50,train40.jpg,train60.jpg,high,option1;option2
1687287657,99dc6cf0910e617274859fae09a95f3b,PennController,13,0,experiment,NULL,PennController,12,_Trial_,End,1687287636385,613a74c8402a5fc10a269abc,613a74c8402a5fc10a269abc,10,train,critical,E,50,train40.jpg,train60.jpg,high,NULL
1687287657,99dc6cf0910e617274859fae09a95f3b,PennController,29,0,experiment,NULL,PennController,28,_Trial_,Start,1687287636388,613a74c8402a5fc10a269abc,613a74c8402a5fc10a269abc,26,sandwich,filler,E,75,sandwich65.jpg,sandwich85.jpg,GoalA,NULL
1687287657,99dc6cf0910e617274859fae09a95f3b,PennController,29,0,experiment,NULL,PennController,28,_Header_,Start,1687287636389,613a74c8402a5fc10a269abc,613a74c8402a5fc10a269abc,26,sandwich,filler,E,75,sandwich65.jpg,sandwich85.jpg,GoalA,NULL
1687287657,99dc6cf0910e617274859fae09a95f3b,PennController,29,0,experiment,NULL,PennController,28,_Header_,End,1687287636389,613a74c8402a5fc10a269abc,613a74c8402a5fc10a269abc,26,sandwich,filler,E,75,sandwich65.jpg,sandwich85.jpg,GoalA,NULL
1687287657,99dc6cf0910e617274859fae09a95f3b,PennController,29,0,experiment,NULL,Canvas,canvas6,Print,NA,1687287644095,613a74c8402a5fc10a269abc,613a74c8402a5fc10a269abc,26,sandwich,filler,E,75,sandwich65.jpg,sandwich85.jpg,GoalA,NULL
1687287657,99dc6cf0910e617274859fae09a95f3b,PennController,29,0,experiment,NULL,Video,progression,buffer,0.006088,1687287639922,613a74c8402a5fc10a269abc,613a74c8402a5fc10a269abc,26,sandwich,filler,E,75,sandwich65.jpg,sandwich85.jpg,GoalA,NULL
1687287657,99dc6cf0910e617274859fae09a95f3b,PennController,29,0,experiment,NULL,Selector,choice,Selection,option2,1687287645654,613a74c8402a5fc10a269abc,613a74c8402a5fc10a269abc,26,sandwich,filler,E,75,sandwich65.jpg,sandwich85.jpg,GoalA,option2;option1
1687287657,99dc6cf0910e617274859fae09a95f3b,PennController,29,0,experiment,NULL,PennController,28,_Trial_,End,1687287645656,613a74c8402a5fc10a269abc,613a74c8402a5fc10a269abc,26,sandwich,filler,E,75,sandwich65.jpg,sandwich85.jpg,GoalA,NULL
1687287657,99dc6cf0910e617274859fae09a95f3b,PennController,8,0,experiment,NULL,PennController,7,_Trial_,Start,1687287645658,613a74c8402a5fc10a269abc,613a74c8402a5fc10a269abc,5,book,critical,E,75,book65.jpg,book85.jpg,high,NULL
1687287657,99dc6cf0910e617274859fae09a95f3b,PennController,8,0,experiment,NULL,PennController,7,_Header_,Start,1687287645658,613a74c8402a5fc10a269abc,613a74c8402a5fc10a269abc,5,book,critical,E,75,book65.jpg,book85.jpg,high,NULL
1687287657,99dc6cf0910e617274859fae09a95f3b,PennController,8,0,experiment,NULL,PennController,7,_Header_,End,1687287645658,613a74c8402a5fc10a269abc,613a74c8402a5fc10a269abc,5,book,critical,E,75,book65.jpg,book85.jpg,high,NULL
1687287657,99dc6cf0910e617274859fae09a95f3b,PennController,8,0,experiment,NULL,Canvas,canvas6,Print,NA,1687287653364,613a74c8402a5fc10a269abc,613a74c8402a5fc10a269abc,5,book,critical,E,75,book65.jpg,book85.jpg,high,NULL
1687287657,99dc6cf0910e617274859fae09a95f3b,PennController,8,0,experiment,NULL,Video,progression,buffer,0.00478,1687287649185,613a74c8402a5fc10a269abc,613a74c8402a5fc10a269abc,5,book,critical,E,75,book65.jpg,book85.jpg,high,NULL
1687287657,99dc6cf0910e617274859fae09a95f3b,PennController,8,0,experiment,NULL,Selector,choice,Selection,option1,1687287656615,613a74c8402a5fc10a269abc,613a74c8402a5fc10a269abc,5,book,critical,E,75,book65.jpg,book85.jpg,high,option2;option1
1687287657,99dc6cf0910e617274859fae09a95f3b,PennController,8,0,experiment,NULL,PennController,7,_Trial_,End,1687287656618,613a74c8402a5fc10a269abc,613a74c8402a5fc10a269abc,5,book,critical,E,75,book65.jpg,book85.jpg,high,NULL
