#
# Results on Thursday June 22 2023 05:56:03 UTC
# USER AGENT: Mozilla/5.0 (Windows NT 10.0; Win64; x64) AppleWebKit/537.36 (KHTML, like Gecko) Chrome/113.0.0.0 Safari/537.36 OPR/99.0.0.0
# Design number was non-random = 87
#
# Columns below this comment are as follows:
# 1. Results reception time.
# 2. MD5 hash of participant's IP address.
# 3. Controller name.
# 4. Order number of item.
# 5. Inner element number.
# 6. Label.
# 7. Latin Square Group.
# 8. PennElementType.
# 9. PennElementName.
# 10. Parameter.
# 11. Value.
# 12. EventTime.
# 13. PROLIFIC_ID.
# 14. Comments.
1687413363,a86f346f22010ec15c62b432a2f36c29,PennController,3,0,consent,NULL,PennController,0,_Trial_,Start,1687412733303,610365491336a1f2766ae033,NULL
1687413363,a86f346f22010ec15c62b432a2f36c29,PennController,3,0,consent,NULL,PennController,0,_Header_,Start,1687412733303,610365491336a1f2766ae033,NULL
1687413363,a86f346f22010ec15c62b432a2f36c29,PennController,3,0,consent,NULL,PennController,0,_Header_,End,1687412733303,610365491336a1f2766ae033,NULL
1687413363,a86f346f22010ec15c62b432a2f36c29,PennController,3,0,consent,NULL,PennController,0,_Trial_,End,1687412740490,610365491336a1f2766ae033,NULL
# Columns below this comment are as follows:
# 14. ID.
# 15. Comments.
1687413363,a86f346f22010ec15c62b432a2f36c29,PennController,4,0,intro,NULL,PennController,1,_Trial_,Start,1687412740492,610365491336a1f2766ae033,610365491336a1f2766ae033,NULL
1687413363,a86f346f22010ec15c62b432a2f36c29,PennController,4,0,intro,NULL,PennController,1,_Header_,Start,1687412740492,610365491336a1f2766ae033,610365491336a1f2766ae033,NULL
1687413363,a86f346f22010ec15c62b432a2f36c29,PennController,4,0,intro,NULL,PennController,1,_Header_,End,1687412740492,610365491336a1f2766ae033,610365491336a1f2766ae033,NULL
1687413363,a86f346f22010ec15c62b432a2f36c29,PennController,4,0,intro,NULL,PennController,1,_Trial_,End,1687412753140,610365491336a1f2766ae033,610365491336a1f2766ae033,NULL
# Columns below this comment are as follows:
# 15. item_number.
# 16. item.
# 17. type.
# 18. Group.
# 19. prog.
# 20. prev_image.
# 21. next_image.
# 22. height.
# 23. Comments.
1687413363,a86f346f22010ec15c62b432a2f36c29,PennController,25,0,experiment,NULL,PennController,23,_Trial_,Start,1687412753142,610365491336a1f2766ae033,610365491336a1f2766ae033,21,visit,filler,B,25,visit15.jpg,visit35.jpg,GoalA,NULL
1687413363,a86f346f22010ec15c62b432a2f36c29,PennController,25,0,experiment,NULL,PennController,23,_Header_,Start,1687412753142,610365491336a1f2766ae033,610365491336a1f2766ae033,21,visit,filler,B,25,visit15.jpg,visit35.jpg,GoalA,NULL
1687413363,a86f346f22010ec15c62b432a2f36c29,PennController,25,0,experiment,NULL,PennController,23,_Header_,End,1687412753142,610365491336a1f2766ae033,610365491336a1f2766ae033,21,visit,filler,B,25,visit15.jpg,visit35.jpg,GoalA,NULL
1687413363,a86f346f22010ec15c62b432a2f36c29,PennController,25,0,experiment,NULL,Canvas,canvas6,Print,NA,1687412758873,610365491336a1f2766ae033,610365491336a1f2766ae033,21,visit,filler,B,25,visit15.jpg,visit35.jpg,GoalA,NULL
1687413363,a86f346f22010ec15c62b432a2f36c29,PennController,25,0,experiment,NULL,Video,progression,buffer,0.006775,1687412756675,610365491336a1f2766ae033,610365491336a1f2766ae033,21,visit,filler,B,25,visit15.jpg,visit35.jpg,GoalA,NULL
1687413363,a86f346f22010ec15c62b432a2f36c29,PennController,25,0,experiment,NULL,Selector,choice,Selection,option2,1687412762012,610365491336a1f2766ae033,610365491336a1f2766ae033,21,visit,filler,B,25,visit15.jpg,visit35.jpg,GoalA,option1;option2
1687413363,a86f346f22010ec15c62b432a2f36c29,PennController,25,0,experiment,NULL,PennController,23,_Trial_,End,1687412762014,610365491336a1f2766ae033,610365491336a1f2766ae033,21,visit,filler,B,25,visit15.jpg,visit35.jpg,GoalA,NULL
1687413363,a86f346f22010ec15c62b432a2f36c29,PennController,14,0,experiment,NULL,PennController,12,_Trial_,Start,1687412762015,610365491336a1f2766ae033,610365491336a1f2766ae033,10,train,critical,B,50,train40.jpg,train60.jpg,low,NULL
1687413363,a86f346f22010ec15c62b432a2f36c29,PennController,14,0,experiment,NULL,PennController,12,_Header_,Start,1687412762015,610365491336a1f2766ae033,610365491336a1f2766ae033,10,train,critical,B,50,train40.jpg,train60.jpg,low,NULL
1687413363,a86f346f22010ec15c62b432a2f36c29,PennController,14,0,experiment,NULL,PennController,12,_Header_,End,1687412762015,610365491336a1f2766ae033,610365491336a1f2766ae033,10,train,critical,B,50,train40.jpg,train60.jpg,low,NULL
1687413363,a86f346f22010ec15c62b432a2f36c29,PennController,14,0,experiment,NULL,Canvas,canvas6,Print,NA,1687412768730,610365491336a1f2766ae033,610365491336a1f2766ae033,10,train,critical,B,50,train40.jpg,train60.jpg,low,NULL
1687413363,a86f346f22010ec15c62b432a2f36c29,PennController,14,0,experiment,NULL,Video,progression,buffer,0.003273,1687412765535,610365491336a1f2766ae033,610365491336a1f2766ae033,10,train,critical,B,50,train40.jpg,train60.jpg,low,NULL
1687413363,a86f346f22010ec15c62b432a2f36c29,PennController,14,0,experiment,NULL,Selector,choice,Selection,option2,1687412770280,610365491336a1f2766ae033,610365491336a1f2766ae033,10,train,critical,B,50,train40.jpg,train60.jpg,low,option2;option1
1687413363,a86f346f22010ec15c62b432a2f36c29,PennController,14,0,experiment,NULL,PennController,12,_Trial_,End,1687412770281,610365491336a1f2766ae033,610365491336a1f2766ae033,10,train,critical,B,50,train40.jpg,train60.jpg,low,NULL
1687413363,a86f346f22010ec15c62b432a2f36c29,PennController,33,0,experiment,NULL,PennController,31,_Trial_,Start,1687412770283,610365491336a1f2766ae033,610365491336a1f2766ae033,29,frog,filler,B,75,frog65.jpg,frog85.jpg,GoalA,NULL
1687413363,a86f346f22010ec15c62b432a2f36c29,PennController,33,0,experiment,NULL,PennController,31,_Header_,Start,1687412770283,610365491336a1f2766ae033,610365491336a1f2766ae033,29,frog,filler,B,75,frog65.jpg,frog85.jpg,GoalA,NULL
1687413363,a86f346f22010ec15c62b432a2f36c29,PennController,33,0,experiment,NULL,PennController,31,_Header_,End,1687412770283,610365491336a1f2766ae033,610365491336a1f2766ae033,29,frog,filler,B,75,frog65.jpg,frog85.jpg,GoalA,NULL
1687413363,a86f346f22010ec15c62b432a2f36c29,PennController,33,0,experiment,NULL,Canvas,canvas6,Print,NA,1687412777995,610365491336a1f2766ae033,610365491336a1f2766ae033,29,frog,filler,B,75,frog65.jpg,frog85.jpg,GoalA,NULL
1687413363,a86f346f22010ec15c62b432a2f36c29,PennController,33,0,experiment,NULL,Video,progression,buffer,0.003978,1687412773807,610365491336a1f2766ae033,610365491336a1f2766ae033,29,frog,filler,B,75,frog65.jpg,frog85.jpg,GoalA,NULL
1687413363,a86f346f22010ec15c62b432a2f36c29,PennController,33,0,experiment,NULL,Selector,choice,Selection,option1,1687412780254,610365491336a1f2766ae033,610365491336a1f2766ae033,29,frog,filler,B,75,frog65.jpg,frog85.jpg,GoalA,option2;option1
1687413363,a86f346f22010ec15c62b432a2f36c29,PennController,33,0,experiment,NULL,PennController,31,_Trial_,End,1687412780256,610365491336a1f2766ae033,610365491336a1f2766ae033,29,frog,filler,B,75,frog65.jpg,frog85.jpg,GoalA,NULL
1687413363,a86f346f22010ec15c62b432a2f36c29,PennController,7,0,experiment,NULL,PennController,5,_Trial_,Start,1687412780258,610365491336a1f2766ae033,610365491336a1f2766ae033,3,clean,critical,B,25,clean15.jpg,clean35.jpg,low,NULL
1687413363,a86f346f22010ec15c62b432a2f36c29,PennController,7,0,experiment,NULL,PennController,5,_Header_,Start,1687412780258,610365491336a1f2766ae033,610365491336a1f2766ae033,3,clean,critical,B,25,clean15.jpg,clean35.jpg,low,NULL
1687413363,a86f346f22010ec15c62b432a2f36c29,PennController,7,0,experiment,NULL,PennController,5,_Header_,End,1687412780258,610365491336a1f2766ae033,610365491336a1f2766ae033,3,clean,critical,B,25,clean15.jpg,clean35.jpg,low,NULL
1687413363,a86f346f22010ec15c62b432a2f36c29,PennController,7,0,experiment,NULL,Canvas,canvas6,Print,NA,1687412785969,610365491336a1f2766ae033,610365491336a1f2766ae033,3,clean,critical,B,25,clean15.jpg,clean35.jpg,low,NULL
1687413363,a86f346f22010ec15c62b432a2f36c29,PennController,7,0,experiment,NULL,Video,progression,buffer,0.003222,1687412783777,610365491336a1f2766ae033,610365491336a1f2766ae033,3,clean,critical,B,25,clean15.jpg,clean35.jpg,low,NULL
1687413363,a86f346f22010ec15c62b432a2f36c29,PennController,7,0,experiment,NULL,Selector,choice,Selection,option1,1687412789593,610365491336a1f2766ae033,610365491336a1f2766ae033,3,clean,critical,B,25,clean15.jpg,clean35.jpg,low,option2;option1
1687413363,a86f346f22010ec15c62b432a2f36c29,PennController,7,0,experiment,NULL,PennController,5,_Trial_,End,1687412789594,610365491336a1f2766ae033,610365491336a1f2766ae033,3,clean,critical,B,25,clean15.jpg,clean35.jpg,low,NULL
1687413363,a86f346f22010ec15c62b432a2f36c29,PennController,12,0,experiment,NULL,PennController,10,_Trial_,Start,1687412789596,610365491336a1f2766ae033,610365491336a1f2766ae033,8,cucumber,critical,B,75,cucumber66.jpg,cucumber84.jpg,low,NULL
1687413363,a86f346f22010ec15c62b432a2f36c29,PennController,12,0,experiment,NULL,PennController,10,_Header_,Start,1687412789596,610365491336a1f2766ae033,610365491336a1f2766ae033,8,cucumber,critical,B,75,cucumber66.jpg,cucumber84.jpg,low,NULL
1687413363,a86f346f22010ec15c62b432a2f36c29,PennController,12,0,experiment,NULL,PennController,10,_Header_,End,1687412789596,610365491336a1f2766ae033,610365491336a1f2766ae033,8,cucumber,critical,B,75,cucumber66.jpg,cucumber84.jpg,low,NULL
1687413363,a86f346f22010ec15c62b432a2f36c29,PennController,12,0,experiment,NULL,Canvas,canvas6,Print,NA,1687412799312,610365491336a1f2766ae033,610365491336a1f2766ae033,8,cucumber,critical,B,75,cucumber66.jpg,cucumber84.jpg,low,NULL
1687413363,a86f346f22010ec15c62b432a2f36c29,PennController,12,0,experiment,NULL,Video,progression,buffer,0.00418,1687412793119,610365491336a1f2766ae033,610365491336a1f2766ae033,8,cucumber,critical,B,75,cucumber66.jpg,cucumber84.jpg,low,NULL
1687413363,a86f346f22010ec15c62b432a2f36c29,PennController,12,0,experiment,NULL,Selector,choice,Selection,option2,1687412801017,610365491336a1f2766ae033,610365491336a1f2766ae033,8,cucumber,critical,B,75,cucumber66.jpg,cucumber84.jpg,low,option1;option2
1687413363,a86f346f22010ec15c62b432a2f36c29,PennController,12,0,experiment,NULL,PennController,10,_Trial_,End,1687412801019,610365491336a1f2766ae033,610365491336a1f2766ae033,8,cucumber,critical,B,75,cucumber66.jpg,cucumber84.jpg,low,NULL
1687413363,a86f346f22010ec15c62b432a2f36c29,PennController,15,0,experiment,NULL,PennController,13,_Trial_,Start,1687412801021,610365491336a1f2766ae033,610365491336a1f2766ae033,11,beads,critical,B,75,beads65.jpg,beads85.jpg,low,NULL
1687413363,a86f346f22010ec15c62b432a2f36c29,PennController,15,0,experiment,NULL,PennController,13,_Header_,Start,1687412801021,610365491336a1f2766ae033,610365491336a1f2766ae033,11,beads,critical,B,75,beads65.jpg,beads85.jpg,low,NULL
1687413363,a86f346f22010ec15c62b432a2f36c29,PennController,15,0,experiment,NULL,PennController,13,_Header_,End,1687412801021,610365491336a1f2766ae033,610365491336a1f2766ae033,11,beads,critical,B,75,beads65.jpg,beads85.jpg,low,NULL
1687413363,a86f346f22010ec15c62b432a2f36c29,PennController,15,0,experiment,NULL,Canvas,canvas6,Print,NA,1687412808740,610365491336a1f2766ae033,610365491336a1f2766ae033,11,beads,critical,B,75,beads65.jpg,beads85.jpg,low,NULL
1687413363,a86f346f22010ec15c62b432a2f36c29,PennController,15,0,experiment,NULL,Video,progression,buffer,0.002202,1687412804545,610365491336a1f2766ae033,610365491336a1f2766ae033,11,beads,critical,B,75,beads65.jpg,beads85.jpg,low,NULL
1687413363,a86f346f22010ec15c62b432a2f36c29,PennController,15,0,experiment,NULL,Selector,choice,Selection,option1,1687412810164,610365491336a1f2766ae033,610365491336a1f2766ae033,11,beads,critical,B,75,beads65.jpg,beads85.jpg,low,option1;option2
1687413363,a86f346f22010ec15c62b432a2f36c29,PennController,15,0,experiment,NULL,PennController,13,_Trial_,End,1687412810165,610365491336a1f2766ae033,610365491336a1f2766ae033,11,beads,critical,B,75,beads65.jpg,beads85.jpg,low,NULL
1687413363,a86f346f22010ec15c62b432a2f36c29,PennController,20,0,experiment,NULL,PennController,18,_Trial_,Start,1687412810166,610365491336a1f2766ae033,610365491336a1f2766ae033,16,blinds,critical,B,50,blinds42.jpg,blinds60.jpg,low,NULL
1687413363,a86f346f22010ec15c62b432a2f36c29,PennController,20,0,experiment,NULL,PennController,18,_Header_,Start,1687412810166,610365491336a1f2766ae033,610365491336a1f2766ae033,16,blinds,critical,B,50,blinds42.jpg,blinds60.jpg,low,NULL
1687413363,a86f346f22010ec15c62b432a2f36c29,PennController,20,0,experiment,NULL,PennController,18,_Header_,End,1687412810166,610365491336a1f2766ae033,610365491336a1f2766ae033,16,blinds,critical,B,50,blinds42.jpg,blinds60.jpg,low,NULL
1687413363,a86f346f22010ec15c62b432a2f36c29,PennController,20,0,experiment,NULL,Canvas,canvas6,Print,NA,1687412818269,610365491336a1f2766ae033,610365491336a1f2766ae033,16,blinds,critical,B,50,blinds42.jpg,blinds60.jpg,low,NULL
1687413363,a86f346f22010ec15c62b432a2f36c29,PennController,20,0,experiment,NULL,Video,progression,buffer,0.002809,1687412813681,610365491336a1f2766ae033,610365491336a1f2766ae033,16,blinds,critical,B,50,blinds42.jpg,blinds60.jpg,low,NULL
1687413363,a86f346f22010ec15c62b432a2f36c29,PennController,20,0,experiment,NULL,Selector,choice,Selection,option2,1687412820407,610365491336a1f2766ae033,610365491336a1f2766ae033,16,blinds,critical,B,50,blinds42.jpg,blinds60.jpg,low,option2;option1
1687413363,a86f346f22010ec15c62b432a2f36c29,PennController,20,0,experiment,NULL,PennController,18,_Trial_,End,1687412820408,610365491336a1f2766ae033,610365491336a1f2766ae033,16,blinds,critical,B,50,blinds42.jpg,blinds60.jpg,low,NULL
1687413363,a86f346f22010ec15c62b432a2f36c29,PennController,32,0,experiment,NULL,PennController,30,_Trial_,Start,1687412820409,610365491336a1f2766ae033,610365491336a1f2766ae033,28,sort,filler,B,50,sort40.jpg,sort60.jpg,GoalB,NULL
1687413363,a86f346f22010ec15c62b432a2f36c29,PennController,32,0,experiment,NULL,PennController,30,_Header_,Start,1687412820409,610365491336a1f2766ae033,610365491336a1f2766ae033,28,sort,filler,B,50,sort40.jpg,sort60.jpg,GoalB,NULL
1687413363,a86f346f22010ec15c62b432a2f36c29,PennController,32,0,experiment,NULL,PennController,30,_Header_,End,1687412820409,610365491336a1f2766ae033,610365491336a1f2766ae033,28,sort,filler,B,50,sort40.jpg,sort60.jpg,GoalB,NULL
1687413363,a86f346f22010ec15c62b432a2f36c29,PennController,32,0,experiment,NULL,Canvas,canvas6,Print,NA,1687412827121,610365491336a1f2766ae033,610365491336a1f2766ae033,28,sort,filler,B,50,sort40.jpg,sort60.jpg,GoalB,NULL
1687413363,a86f346f22010ec15c62b432a2f36c29,PennController,32,0,experiment,NULL,Video,progression,buffer,0.002133,1687412823929,610365491336a1f2766ae033,610365491336a1f2766ae033,28,sort,filler,B,50,sort40.jpg,sort60.jpg,GoalB,NULL
1687413363,a86f346f22010ec15c62b432a2f36c29,PennController,32,0,experiment,NULL,Selector,choice,Selection,option2,1687412828786,610365491336a1f2766ae033,610365491336a1f2766ae033,28,sort,filler,B,50,sort40.jpg,sort60.jpg,GoalB,option2;option1
1687413363,a86f346f22010ec15c62b432a2f36c29,PennController,32,0,experiment,NULL,PennController,30,_Trial_,End,1687412828788,610365491336a1f2766ae033,610365491336a1f2766ae033,28,sort,filler,B,50,sort40.jpg,sort60.jpg,GoalB,NULL
1687413363,a86f346f22010ec15c62b432a2f36c29,PennController,17,0,experiment,NULL,PennController,15,_Trial_,Start,1687412828788,610365491336a1f2766ae033,610365491336a1f2766ae033,13,mix,critical,B,50,mix40.jpg,mix60.jpg,low,NULL
1687413363,a86f346f22010ec15c62b432a2f36c29,PennController,17,0,experiment,NULL,PennController,15,_Header_,Start,1687412828788,610365491336a1f2766ae033,610365491336a1f2766ae033,13,mix,critical,B,50,mix40.jpg,mix60.jpg,low,NULL
1687413363,a86f346f22010ec15c62b432a2f36c29,PennController,17,0,experiment,NULL,PennController,15,_Header_,End,1687412828788,610365491336a1f2766ae033,610365491336a1f2766ae033,13,mix,critical,B,50,mix40.jpg,mix60.jpg,low,NULL
1687413363,a86f346f22010ec15c62b432a2f36c29,PennController,17,0,experiment,NULL,Canvas,canvas6,Print,NA,1687412835499,610365491336a1f2766ae033,610365491336a1f2766ae033,13,mix,critical,B,50,mix40.jpg,mix60.jpg,low,NULL
1687413363,a86f346f22010ec15c62b432a2f36c29,PennController,17,0,experiment,NULL,Video,progression,buffer,0.003029,1687412832307,610365491336a1f2766ae033,610365491336a1f2766ae033,13,mix,critical,B,50,mix40.jpg,mix60.jpg,low,NULL
1687413363,a86f346f22010ec15c62b432a2f36c29,PennController,17,0,experiment,NULL,Selector,choice,Selection,option1,1687412836788,610365491336a1f2766ae033,610365491336a1f2766ae033,13,mix,critical,B,50,mix40.jpg,mix60.jpg,low,option1;option2
1687413363,a86f346f22010ec15c62b432a2f36c29,PennController,17,0,experiment,NULL,PennController,15,_Trial_,End,1687412836789,610365491336a1f2766ae033,610365491336a1f2766ae033,13,mix,critical,B,50,mix40.jpg,mix60.jpg,low,NULL
1687413363,a86f346f22010ec15c62b432a2f36c29,PennController,23,0,experiment,NULL,PennController,21,_Trial_,Start,1687412836790,610365491336a1f2766ae033,610365491336a1f2766ae033,19,cup,filler,B,50,cup40.jpg,cup60.jpg,GoalA,NULL
1687413363,a86f346f22010ec15c62b432a2f36c29,PennController,23,0,experiment,NULL,PennController,21,_Header_,Start,1687412836790,610365491336a1f2766ae033,610365491336a1f2766ae033,19,cup,filler,B,50,cup40.jpg,cup60.jpg,GoalA,NULL
1687413363,a86f346f22010ec15c62b432a2f36c29,PennController,23,0,experiment,NULL,PennController,21,_Header_,End,1687412836790,610365491336a1f2766ae033,610365491336a1f2766ae033,19,cup,filler,B,50,cup40.jpg,cup60.jpg,GoalA,NULL
1687413363,a86f346f22010ec15c62b432a2f36c29,PennController,23,0,experiment,NULL,Canvas,canvas6,Print,NA,1687412843497,610365491336a1f2766ae033,610365491336a1f2766ae033,19,cup,filler,B,50,cup40.jpg,cup60.jpg,GoalA,NULL
1687413363,a86f346f22010ec15c62b432a2f36c29,PennController,23,0,experiment,NULL,Video,progression,buffer,0.002029,1687412840304,610365491336a1f2766ae033,610365491336a1f2766ae033,19,cup,filler,B,50,cup40.jpg,cup60.jpg,GoalA,NULL
1687413363,a86f346f22010ec15c62b432a2f36c29,PennController,23,0,experiment,NULL,Selector,choice,Selection,option1,1687412845559,610365491336a1f2766ae033,610365491336a1f2766ae033,19,cup,filler,B,50,cup40.jpg,cup60.jpg,GoalA,option1;option2
1687413363,a86f346f22010ec15c62b432a2f36c29,PennController,23,0,experiment,NULL,PennController,21,_Trial_,End,1687412845561,610365491336a1f2766ae033,610365491336a1f2766ae033,19,cup,filler,B,50,cup40.jpg,cup60.jpg,GoalA,NULL
1687413363,a86f346f22010ec15c62b432a2f36c29,PennController,19,0,experiment,NULL,PennController,17,_Trial_,Start,1687412845562,610365491336a1f2766ae033,610365491336a1f2766ae033,15,zip,critical,B,25,zip15.jpg,zip35.jpg,low,NULL
1687413363,a86f346f22010ec15c62b432a2f36c29,PennController,19,0,experiment,NULL,PennController,17,_Header_,Start,1687412845562,610365491336a1f2766ae033,610365491336a1f2766ae033,15,zip,critical,B,25,zip15.jpg,zip35.jpg,low,NULL
1687413363,a86f346f22010ec15c62b432a2f36c29,PennController,19,0,experiment,NULL,PennController,17,_Header_,End,1687412845562,610365491336a1f2766ae033,610365491336a1f2766ae033,15,zip,critical,B,25,zip15.jpg,zip35.jpg,low,NULL
1687413363,a86f346f22010ec15c62b432a2f36c29,PennController,19,0,experiment,NULL,Canvas,canvas6,Print,NA,1687412851275,610365491336a1f2766ae033,610365491336a1f2766ae033,15,zip,critical,B,25,zip15.jpg,zip35.jpg,low,NULL
1687413363,a86f346f22010ec15c62b432a2f36c29,PennController,19,0,experiment,NULL,Video,progression,buffer,0.003785,1687412849085,610365491336a1f2766ae033,610365491336a1f2766ae033,15,zip,critical,B,25,zip15.jpg,zip35.jpg,low,NULL
1687413363,a86f346f22010ec15c62b432a2f36c29,PennController,19,0,experiment,NULL,Selector,choice,Selection,option2,1687412852530,610365491336a1f2766ae033,610365491336a1f2766ae033,15,zip,critical,B,25,zip15.jpg,zip35.jpg,low,option1;option2
1687413363,a86f346f22010ec15c62b432a2f36c29,PennController,19,0,experiment,NULL,PennController,17,_Trial_,End,1687412852532,610365491336a1f2766ae033,610365491336a1f2766ae033,15,zip,critical,B,25,zip15.jpg,zip35.jpg,low,NULL
1687413363,a86f346f22010ec15c62b432a2f36c29,PennController,13,0,experiment,NULL,PennController,11,_Trial_,Start,1687412852533,610365491336a1f2766ae033,610365491336a1f2766ae033,9,cake,critical,B,25,cake15.jpg,cake33.jpg,low,NULL
1687413363,a86f346f22010ec15c62b432a2f36c29,PennController,13,0,experiment,NULL,PennController,11,_Header_,Start,1687412852533,610365491336a1f2766ae033,610365491336a1f2766ae033,9,cake,critical,B,25,cake15.jpg,cake33.jpg,low,NULL
1687413363,a86f346f22010ec15c62b432a2f36c29,PennController,13,0,experiment,NULL,PennController,11,_Header_,End,1687412852533,610365491336a1f2766ae033,610365491336a1f2766ae033,9,cake,critical,B,25,cake15.jpg,cake33.jpg,low,NULL
1687413363,a86f346f22010ec15c62b432a2f36c29,PennController,13,0,experiment,NULL,Canvas,canvas6,Print,NA,1687412858843,610365491336a1f2766ae033,610365491336a1f2766ae033,9,cake,critical,B,25,cake15.jpg,cake33.jpg,low,NULL
1687413363,a86f346f22010ec15c62b432a2f36c29,PennController,13,0,experiment,NULL,Video,progression,buffer,0.002887,1687412856052,610365491336a1f2766ae033,610365491336a1f2766ae033,9,cake,critical,B,25,cake15.jpg,cake33.jpg,low,NULL
1687413363,a86f346f22010ec15c62b432a2f36c29,PennController,13,0,experiment,NULL,Selector,choice,Selection,option1,1687412860318,610365491336a1f2766ae033,610365491336a1f2766ae033,9,cake,critical,B,25,cake15.jpg,cake33.jpg,low,option1;option2
1687413363,a86f346f22010ec15c62b432a2f36c29,PennController,13,0,experiment,NULL,PennController,11,_Trial_,End,1687412860319,610365491336a1f2766ae033,610365491336a1f2766ae033,9,cake,critical,B,25,cake15.jpg,cake33.jpg,low,NULL
1687413363,a86f346f22010ec15c62b432a2f36c29,PennController,18,0,experiment,NULL,PennController,16,_Trial_,Start,1687412860320,610365491336a1f2766ae033,610365491336a1f2766ae033,14,cover,critical,B,75,cover66.jpg,cover84.jpg,low,NULL
1687413363,a86f346f22010ec15c62b432a2f36c29,PennController,18,0,experiment,NULL,PennController,16,_Header_,Start,1687412860320,610365491336a1f2766ae033,610365491336a1f2766ae033,14,cover,critical,B,75,cover66.jpg,cover84.jpg,low,NULL
1687413363,a86f346f22010ec15c62b432a2f36c29,PennController,18,0,experiment,NULL,PennController,16,_Header_,End,1687412860320,610365491336a1f2766ae033,610365491336a1f2766ae033,14,cover,critical,B,75,cover66.jpg,cover84.jpg,low,NULL
1687413363,a86f346f22010ec15c62b432a2f36c29,PennController,18,0,experiment,NULL,Canvas,canvas6,Print,NA,1687412870034,610365491336a1f2766ae033,610365491336a1f2766ae033,14,cover,critical,B,75,cover66.jpg,cover84.jpg,low,NULL
1687413363,a86f346f22010ec15c62b432a2f36c29,PennController,18,0,experiment,NULL,Video,progression,buffer,0.003039,1687412863837,610365491336a1f2766ae033,610365491336a1f2766ae033,14,cover,critical,B,75,cover66.jpg,cover84.jpg,low,NULL
1687413363,a86f346f22010ec15c62b432a2f36c29,PennController,18,0,experiment,NULL,Selector,choice,Selection,option2,1687412871502,610365491336a1f2766ae033,610365491336a1f2766ae033,14,cover,critical,B,75,cover66.jpg,cover84.jpg,low,option1;option2
1687413363,a86f346f22010ec15c62b432a2f36c29,PennController,18,0,experiment,NULL,PennController,16,_Trial_,End,1687412871503,610365491336a1f2766ae033,610365491336a1f2766ae033,14,cover,critical,B,75,cover66.jpg,cover84.jpg,low,NULL
1687413363,a86f346f22010ec15c62b432a2f36c29,PennController,26,0,experiment,NULL,PennController,24,_Trial_,Start,1687412871504,610365491336a1f2766ae033,610365491336a1f2766ae033,22,wall,filler,B,50,wall40.jpg,wall60.jpg,GoalB,NULL
1687413363,a86f346f22010ec15c62b432a2f36c29,PennController,26,0,experiment,NULL,PennController,24,_Header_,Start,1687412871504,610365491336a1f2766ae033,610365491336a1f2766ae033,22,wall,filler,B,50,wall40.jpg,wall60.jpg,GoalB,NULL
1687413363,a86f346f22010ec15c62b432a2f36c29,PennController,26,0,experiment,NULL,PennController,24,_Header_,End,1687412871505,610365491336a1f2766ae033,610365491336a1f2766ae033,22,wall,filler,B,50,wall40.jpg,wall60.jpg,GoalB,NULL
1687413363,a86f346f22010ec15c62b432a2f36c29,PennController,26,0,experiment,NULL,Canvas,canvas6,Print,NA,1687412878212,610365491336a1f2766ae033,610365491336a1f2766ae033,22,wall,filler,B,50,wall40.jpg,wall60.jpg,GoalB,NULL
1687413363,a86f346f22010ec15c62b432a2f36c29,PennController,26,0,experiment,NULL,Video,progression,buffer,0.003472,1687412875021,610365491336a1f2766ae033,610365491336a1f2766ae033,22,wall,filler,B,50,wall40.jpg,wall60.jpg,GoalB,NULL
1687413363,a86f346f22010ec15c62b432a2f36c29,PennController,26,0,experiment,NULL,Selector,choice,Selection,option2,1687412881537,610365491336a1f2766ae033,610365491336a1f2766ae033,22,wall,filler,B,50,wall40.jpg,wall60.jpg,GoalB,option1;option2
1687413363,a86f346f22010ec15c62b432a2f36c29,PennController,26,0,experiment,NULL,PennController,24,_Trial_,End,1687412881538,610365491336a1f2766ae033,610365491336a1f2766ae033,22,wall,filler,B,50,wall40.jpg,wall60.jpg,GoalB,NULL
1687413363,a86f346f22010ec15c62b432a2f36c29,PennController,9,0,experiment,NULL,PennController,7,_Trial_,Start,1687412881539,610365491336a1f2766ae033,610365491336a1f2766ae033,5,book,critical,B,75,book65.jpg,book85.jpg,low,NULL
1687413363,a86f346f22010ec15c62b432a2f36c29,PennController,9,0,experiment,NULL,PennController,7,_Header_,Start,1687412881539,610365491336a1f2766ae033,610365491336a1f2766ae033,5,book,critical,B,75,book65.jpg,book85.jpg,low,NULL
1687413363,a86f346f22010ec15c62b432a2f36c29,PennController,9,0,experiment,NULL,PennController,7,_Header_,End,1687412881539,610365491336a1f2766ae033,610365491336a1f2766ae033,5,book,critical,B,75,book65.jpg,book85.jpg,low,NULL
1687413363,a86f346f22010ec15c62b432a2f36c29,PennController,9,0,experiment,NULL,Canvas,canvas6,Print,NA,1687412907281,610365491336a1f2766ae033,610365491336a1f2766ae033,5,book,critical,B,75,book65.jpg,book85.jpg,low,NULL
1687413363,a86f346f22010ec15c62b432a2f36c29,PennController,9,0,experiment,NULL,Video,progression,buffer,0.004733,1687412885059,610365491336a1f2766ae033,610365491336a1f2766ae033,5,book,critical,B,75,book65.jpg,book85.jpg,low,NULL
1687413363,a86f346f22010ec15c62b432a2f36c29,PennController,9,0,experiment,NULL,Selector,choice,Selection,option1,1687412908610,610365491336a1f2766ae033,610365491336a1f2766ae033,5,book,critical,B,75,book65.jpg,book85.jpg,low,option2;option1
1687413363,a86f346f22010ec15c62b432a2f36c29,PennController,9,0,experiment,NULL,PennController,7,_Trial_,End,1687412908612,610365491336a1f2766ae033,610365491336a1f2766ae033,5,book,critical,B,75,book65.jpg,book85.jpg,low,NULL
1687413363,a86f346f22010ec15c62b432a2f36c29,PennController,22,0,experiment,NULL,PennController,20,_Trial_,Start,1687412908613,610365491336a1f2766ae033,610365491336a1f2766ae033,18,ball,critical,B,25,ball15.jpg,ball35.jpg,low,NULL
1687413363,a86f346f22010ec15c62b432a2f36c29,PennController,22,0,experiment,NULL,PennController,20,_Header_,Start,1687412908613,610365491336a1f2766ae033,610365491336a1f2766ae033,18,ball,critical,B,25,ball15.jpg,ball35.jpg,low,NULL
1687413363,a86f346f22010ec15c62b432a2f36c29,PennController,22,0,experiment,NULL,PennController,20,_Header_,End,1687412908613,610365491336a1f2766ae033,610365491336a1f2766ae033,18,ball,critical,B,25,ball15.jpg,ball35.jpg,low,NULL
1687413363,a86f346f22010ec15c62b432a2f36c29,PennController,22,0,experiment,NULL,Canvas,canvas6,Print,NA,1687412914327,610365491336a1f2766ae033,610365491336a1f2766ae033,18,ball,critical,B,25,ball15.jpg,ball35.jpg,low,NULL
1687413363,a86f346f22010ec15c62b432a2f36c29,PennController,22,0,experiment,NULL,Video,progression,buffer,0.003204,1687412912135,610365491336a1f2766ae033,610365491336a1f2766ae033,18,ball,critical,B,25,ball15.jpg,ball35.jpg,low,NULL
1687413363,a86f346f22010ec15c62b432a2f36c29,PennController,22,0,experiment,NULL,Selector,choice,Selection,option2,1687412915357,610365491336a1f2766ae033,610365491336a1f2766ae033,18,ball,critical,B,25,ball15.jpg,ball35.jpg,low,option2;option1
1687413363,a86f346f22010ec15c62b432a2f36c29,PennController,22,0,experiment,NULL,PennController,20,_Trial_,End,1687412915358,610365491336a1f2766ae033,610365491336a1f2766ae033,18,ball,critical,B,25,ball15.jpg,ball35.jpg,low,NULL
1687413363,a86f346f22010ec15c62b432a2f36c29,PennController,10,0,experiment,NULL,PennController,8,_Trial_,Start,1687412915359,610365491336a1f2766ae033,610365491336a1f2766ae033,6,flower,critical,B,25,flower15.jpg,flower35.jpg,low,NULL
1687413363,a86f346f22010ec15c62b432a2f36c29,PennController,10,0,experiment,NULL,PennController,8,_Header_,Start,1687412915359,610365491336a1f2766ae033,610365491336a1f2766ae033,6,flower,critical,B,25,flower15.jpg,flower35.jpg,low,NULL
1687413363,a86f346f22010ec15c62b432a2f36c29,PennController,10,0,experiment,NULL,PennController,8,_Header_,End,1687412915359,610365491336a1f2766ae033,610365491336a1f2766ae033,6,flower,critical,B,25,flower15.jpg,flower35.jpg,low,NULL
1687413363,a86f346f22010ec15c62b432a2f36c29,PennController,10,0,experiment,NULL,Canvas,canvas6,Print,NA,1687412921073,610365491336a1f2766ae033,610365491336a1f2766ae033,6,flower,critical,B,25,flower15.jpg,flower35.jpg,low,NULL
1687413363,a86f346f22010ec15c62b432a2f36c29,PennController,10,0,experiment,NULL,Video,progression,buffer,0.004258,1687412918883,610365491336a1f2766ae033,610365491336a1f2766ae033,6,flower,critical,B,25,flower15.jpg,flower35.jpg,low,NULL
1687413363,a86f346f22010ec15c62b432a2f36c29,PennController,10,0,experiment,NULL,Selector,choice,Selection,option2,1687412921847,610365491336a1f2766ae033,610365491336a1f2766ae033,6,flower,critical,B,25,flower15.jpg,flower35.jpg,low,option2;option1
1687413363,a86f346f22010ec15c62b432a2f36c29,PennController,10,0,experiment,NULL,PennController,8,_Trial_,End,1687412921848,610365491336a1f2766ae033,610365491336a1f2766ae033,6,flower,critical,B,25,flower15.jpg,flower35.jpg,low,NULL
1687413363,a86f346f22010ec15c62b432a2f36c29,PennController,8,0,experiment,NULL,PennController,6,_Trial_,Start,1687412921849,610365491336a1f2766ae033,610365491336a1f2766ae033,4,candy,critical,B,50,candy40.jpg,candy60.jpg,low,NULL
1687413363,a86f346f22010ec15c62b432a2f36c29,PennController,8,0,experiment,NULL,PennController,6,_Header_,Start,1687412921849,610365491336a1f2766ae033,610365491336a1f2766ae033,4,candy,critical,B,50,candy40.jpg,candy60.jpg,low,NULL
1687413363,a86f346f22010ec15c62b432a2f36c29,PennController,8,0,experiment,NULL,PennController,6,_Header_,End,1687412921849,610365491336a1f2766ae033,610365491336a1f2766ae033,4,candy,critical,B,50,candy40.jpg,candy60.jpg,low,NULL
1687413363,a86f346f22010ec15c62b432a2f36c29,PennController,8,0,experiment,NULL,Canvas,canvas6,Print,NA,1687412928562,610365491336a1f2766ae033,610365491336a1f2766ae033,4,candy,critical,B,50,candy40.jpg,candy60.jpg,low,NULL
1687413363,a86f346f22010ec15c62b432a2f36c29,PennController,8,0,experiment,NULL,Video,progression,buffer,0.002414,1687412925366,610365491336a1f2766ae033,610365491336a1f2766ae033,4,candy,critical,B,50,candy40.jpg,candy60.jpg,low,NULL
1687413363,a86f346f22010ec15c62b432a2f36c29,PennController,8,0,experiment,NULL,Selector,choice,Selection,option2,1687412929616,610365491336a1f2766ae033,610365491336a1f2766ae033,4,candy,critical,B,50,candy40.jpg,candy60.jpg,low,option1;option2
1687413363,a86f346f22010ec15c62b432a2f36c29,PennController,8,0,experiment,NULL,PennController,6,_Trial_,End,1687412929617,610365491336a1f2766ae033,610365491336a1f2766ae033,4,candy,critical,B,50,candy40.jpg,candy60.jpg,low,NULL
1687413363,a86f346f22010ec15c62b432a2f36c29,PennController,21,0,experiment,NULL,PennController,19,_Trial_,Start,1687412929619,610365491336a1f2766ae033,610365491336a1f2766ae033,17,roll,critical,B,75,roll65.jpg,roll85.jpg,low,NULL
1687413363,a86f346f22010ec15c62b432a2f36c29,PennController,21,0,experiment,NULL,PennController,19,_Header_,Start,1687412929619,610365491336a1f2766ae033,610365491336a1f2766ae033,17,roll,critical,B,75,roll65.jpg,roll85.jpg,low,NULL
1687413363,a86f346f22010ec15c62b432a2f36c29,PennController,21,0,experiment,NULL,PennController,19,_Header_,End,1687412929619,610365491336a1f2766ae033,610365491336a1f2766ae033,17,roll,critical,B,75,roll65.jpg,roll85.jpg,low,NULL
1687413363,a86f346f22010ec15c62b432a2f36c29,PennController,21,0,experiment,NULL,Canvas,canvas6,Print,NA,1687413254325,610365491336a1f2766ae033,610365491336a1f2766ae033,17,roll,critical,B,75,roll65.jpg,roll85.jpg,low,NULL
1687413363,a86f346f22010ec15c62b432a2f36c29,PennController,21,0,experiment,NULL,Video,progression,buffer,0.003904,1687412933137,610365491336a1f2766ae033,610365491336a1f2766ae033,17,roll,critical,B,75,roll65.jpg,roll85.jpg,low,NULL
1687413363,a86f346f22010ec15c62b432a2f36c29,PennController,21,0,experiment,NULL,Selector,choice,Selection,option2,1687413255332,610365491336a1f2766ae033,610365491336a1f2766ae033,17,roll,critical,B,75,roll65.jpg,roll85.jpg,low,option2;option1
1687413363,a86f346f22010ec15c62b432a2f36c29,PennController,21,0,experiment,NULL,PennController,19,_Trial_,End,1687413255333,610365491336a1f2766ae033,610365491336a1f2766ae033,17,roll,critical,B,75,roll65.jpg,roll85.jpg,low,NULL
1687413363,a86f346f22010ec15c62b432a2f36c29,PennController,29,0,experiment,NULL,PennController,27,_Trial_,Start,1687413255334,610365491336a1f2766ae033,610365491336a1f2766ae033,25,house,filler,B,50,house40.jpg,house60.jpg,GoalA,NULL
1687413363,a86f346f22010ec15c62b432a2f36c29,PennController,29,0,experiment,NULL,PennController,27,_Header_,Start,1687413255334,610365491336a1f2766ae033,610365491336a1f2766ae033,25,house,filler,B,50,house40.jpg,house60.jpg,GoalA,NULL
1687413363,a86f346f22010ec15c62b432a2f36c29,PennController,29,0,experiment,NULL,PennController,27,_Header_,End,1687413255334,610365491336a1f2766ae033,610365491336a1f2766ae033,25,house,filler,B,50,house40.jpg,house60.jpg,GoalA,NULL
1687413363,a86f346f22010ec15c62b432a2f36c29,PennController,29,0,experiment,NULL,Canvas,canvas6,Print,NA,1687413262048,610365491336a1f2766ae033,610365491336a1f2766ae033,25,house,filler,B,50,house40.jpg,house60.jpg,GoalA,NULL
1687413363,a86f346f22010ec15c62b432a2f36c29,PennController,29,0,experiment,NULL,Video,progression,buffer,0.005213,1687413258857,610365491336a1f2766ae033,610365491336a1f2766ae033,25,house,filler,B,50,house40.jpg,house60.jpg,GoalA,NULL
1687413363,a86f346f22010ec15c62b432a2f36c29,PennController,29,0,experiment,NULL,Selector,choice,Selection,option1,1687413264195,610365491336a1f2766ae033,610365491336a1f2766ae033,25,house,filler,B,50,house40.jpg,house60.jpg,GoalA,option2;option1
1687413363,a86f346f22010ec15c62b432a2f36c29,PennController,29,0,experiment,NULL,PennController,27,_Trial_,End,1687413264196,610365491336a1f2766ae033,610365491336a1f2766ae033,25,house,filler,B,50,house40.jpg,house60.jpg,GoalA,NULL
1687413363,a86f346f22010ec15c62b432a2f36c29,PennController,11,0,experiment,NULL,PennController,9,_Trial_,Start,1687413264197,610365491336a1f2766ae033,610365491336a1f2766ae033,7,stack,critical,B,50,stack40.jpg,stack60.jpg,low,NULL
1687413363,a86f346f22010ec15c62b432a2f36c29,PennController,11,0,experiment,NULL,PennController,9,_Header_,Start,1687413264197,610365491336a1f2766ae033,610365491336a1f2766ae033,7,stack,critical,B,50,stack40.jpg,stack60.jpg,low,NULL
1687413363,a86f346f22010ec15c62b432a2f36c29,PennController,11,0,experiment,NULL,PennController,9,_Header_,End,1687413264197,610365491336a1f2766ae033,610365491336a1f2766ae033,7,stack,critical,B,50,stack40.jpg,stack60.jpg,low,NULL
1687413363,a86f346f22010ec15c62b432a2f36c29,PennController,11,0,experiment,NULL,Canvas,canvas6,Print,NA,1687413270908,610365491336a1f2766ae033,610365491336a1f2766ae033,7,stack,critical,B,50,stack40.jpg,stack60.jpg,low,NULL
1687413363,a86f346f22010ec15c62b432a2f36c29,PennController,11,0,experiment,NULL,Video,progression,buffer,0.002614,1687413267710,610365491336a1f2766ae033,610365491336a1f2766ae033,7,stack,critical,B,50,stack40.jpg,stack60.jpg,low,NULL
1687413363,a86f346f22010ec15c62b432a2f36c29,PennController,11,0,experiment,NULL,Selector,choice,Selection,option2,1687413271903,610365491336a1f2766ae033,610365491336a1f2766ae033,7,stack,critical,B,50,stack40.jpg,stack60.jpg,low,option2;option1
1687413363,a86f346f22010ec15c62b432a2f36c29,PennController,11,0,experiment,NULL,PennController,9,_Trial_,End,1687413271904,610365491336a1f2766ae033,610365491336a1f2766ae033,7,stack,critical,B,50,stack40.jpg,stack60.jpg,low,NULL
1687413363,a86f346f22010ec15c62b432a2f36c29,PennController,27,0,experiment,NULL,PennController,25,_Trial_,Start,1687413271906,610365491336a1f2766ae033,610365491336a1f2766ae033,23,color,filler,B,75,color65.jpg,color85.jpg,GoalA,NULL
1687413363,a86f346f22010ec15c62b432a2f36c29,PennController,27,0,experiment,NULL,PennController,25,_Header_,Start,1687413271906,610365491336a1f2766ae033,610365491336a1f2766ae033,23,color,filler,B,75,color65.jpg,color85.jpg,GoalA,NULL
1687413363,a86f346f22010ec15c62b432a2f36c29,PennController,27,0,experiment,NULL,PennController,25,_Header_,End,1687413271906,610365491336a1f2766ae033,610365491336a1f2766ae033,23,color,filler,B,75,color65.jpg,color85.jpg,GoalA,NULL
1687413363,a86f346f22010ec15c62b432a2f36c29,PennController,27,0,experiment,NULL,Canvas,canvas6,Print,NA,1687413280669,610365491336a1f2766ae033,610365491336a1f2766ae033,23,color,filler,B,75,color65.jpg,color85.jpg,GoalA,NULL
1687413363,a86f346f22010ec15c62b432a2f36c29,PennController,27,0,experiment,NULL,Video,progression,buffer,0.002827,1687413275671,610365491336a1f2766ae033,610365491336a1f2766ae033,23,color,filler,B,75,color65.jpg,color85.jpg,GoalA,NULL
1687413363,a86f346f22010ec15c62b432a2f36c29,PennController,27,0,experiment,NULL,Selector,choice,Selection,option2,1687413300951,610365491336a1f2766ae033,610365491336a1f2766ae033,23,color,filler,B,75,color65.jpg,color85.jpg,GoalA,option1;option2
1687413363,a86f346f22010ec15c62b432a2f36c29,PennController,27,0,experiment,NULL,PennController,25,_Trial_,End,1687413300952,610365491336a1f2766ae033,610365491336a1f2766ae033,23,color,filler,B,75,color65.jpg,color85.jpg,GoalA,NULL
1687413363,a86f346f22010ec15c62b432a2f36c29,PennController,30,0,experiment,NULL,PennController,28,_Trial_,Start,1687413300953,610365491336a1f2766ae033,610365491336a1f2766ae033,26,sandwich,filler,B,75,sandwich65.jpg,sandwich85.jpg,GoalB,NULL
1687413363,a86f346f22010ec15c62b432a2f36c29,PennController,30,0,experiment,NULL,PennController,28,_Header_,Start,1687413300953,610365491336a1f2766ae033,610365491336a1f2766ae033,26,sandwich,filler,B,75,sandwich65.jpg,sandwich85.jpg,GoalB,NULL
1687413363,a86f346f22010ec15c62b432a2f36c29,PennController,30,0,experiment,NULL,PennController,28,_Header_,End,1687413300953,610365491336a1f2766ae033,610365491336a1f2766ae033,26,sandwich,filler,B,75,sandwich65.jpg,sandwich85.jpg,GoalB,NULL
1687413363,a86f346f22010ec15c62b432a2f36c29,PennController,30,0,experiment,NULL,Canvas,canvas6,Print,NA,1687413308654,610365491336a1f2766ae033,610365491336a1f2766ae033,26,sandwich,filler,B,75,sandwich65.jpg,sandwich85.jpg,GoalB,NULL
1687413363,a86f346f22010ec15c62b432a2f36c29,PennController,30,0,experiment,NULL,Video,progression,buffer,0.003393,1687413304468,610365491336a1f2766ae033,610365491336a1f2766ae033,26,sandwich,filler,B,75,sandwich65.jpg,sandwich85.jpg,GoalB,NULL
1687413363,a86f346f22010ec15c62b432a2f36c29,PennController,30,0,experiment,NULL,Selector,choice,Selection,option1,1687413309506,610365491336a1f2766ae033,610365491336a1f2766ae033,26,sandwich,filler,B,75,sandwich65.jpg,sandwich85.jpg,GoalB,option2;option1
1687413363,a86f346f22010ec15c62b432a2f36c29,PennController,30,0,experiment,NULL,PennController,28,_Trial_,End,1687413309507,610365491336a1f2766ae033,610365491336a1f2766ae033,26,sandwich,filler,B,75,sandwich65.jpg,sandwich85.jpg,GoalB,NULL
1687413363,a86f346f22010ec15c62b432a2f36c29,PennController,28,0,experiment,NULL,PennController,26,_Trial_,Start,1687413309507,610365491336a1f2766ae033,610365491336a1f2766ae033,24,match,filler,B,25,match15.jpg,match35.jpg,GoalB,NULL
1687413363,a86f346f22010ec15c62b432a2f36c29,PennController,28,0,experiment,NULL,PennController,26,_Header_,Start,1687413309507,610365491336a1f2766ae033,610365491336a1f2766ae033,24,match,filler,B,25,match15.jpg,match35.jpg,GoalB,NULL
1687413363,a86f346f22010ec15c62b432a2f36c29,PennController,28,0,experiment,NULL,PennController,26,_Header_,End,1687413309507,610365491336a1f2766ae033,610365491336a1f2766ae033,24,match,filler,B,25,match15.jpg,match35.jpg,GoalB,NULL
1687413363,a86f346f22010ec15c62b432a2f36c29,PennController,28,0,experiment,NULL,Canvas,canvas6,Print,NA,1687413315219,610365491336a1f2766ae033,610365491336a1f2766ae033,24,match,filler,B,25,match15.jpg,match35.jpg,GoalB,NULL
1687413363,a86f346f22010ec15c62b432a2f36c29,PennController,28,0,experiment,NULL,Video,progression,buffer,0.004644,1687413313028,610365491336a1f2766ae033,610365491336a1f2766ae033,24,match,filler,B,25,match15.jpg,match35.jpg,GoalB,NULL
1687413363,a86f346f22010ec15c62b432a2f36c29,PennController,28,0,experiment,NULL,Selector,choice,Selection,option1,1687413316472,610365491336a1f2766ae033,610365491336a1f2766ae033,24,match,filler,B,25,match15.jpg,match35.jpg,GoalB,option2;option1
1687413363,a86f346f22010ec15c62b432a2f36c29,PennController,28,0,experiment,NULL,PennController,26,_Trial_,End,1687413316473,610365491336a1f2766ae033,610365491336a1f2766ae033,24,match,filler,B,25,match15.jpg,match35.jpg,GoalB,NULL
1687413363,a86f346f22010ec15c62b432a2f36c29,PennController,5,0,experiment,NULL,PennController,3,_Trial_,Start,1687413316474,610365491336a1f2766ae033,610365491336a1f2766ae033,1,vase,critical,B,50,vase40.jpg,vase60.jpg,low,NULL
1687413363,a86f346f22010ec15c62b432a2f36c29,PennController,5,0,experiment,NULL,PennController,3,_Header_,Start,1687413316474,610365491336a1f2766ae033,610365491336a1f2766ae033,1,vase,critical,B,50,vase40.jpg,vase60.jpg,low,NULL
1687413363,a86f346f22010ec15c62b432a2f36c29,PennController,5,0,experiment,NULL,PennController,3,_Header_,End,1687413316474,610365491336a1f2766ae033,610365491336a1f2766ae033,1,vase,critical,B,50,vase40.jpg,vase60.jpg,low,NULL
1687413363,a86f346f22010ec15c62b432a2f36c29,PennController,5,0,experiment,NULL,Canvas,canvas6,Print,NA,1687413323192,610365491336a1f2766ae033,610365491336a1f2766ae033,1,vase,critical,B,50,vase40.jpg,vase60.jpg,low,NULL
1687413363,a86f346f22010ec15c62b432a2f36c29,PennController,5,0,experiment,NULL,Video,progression,buffer,0.002907,1687413319997,610365491336a1f2766ae033,610365491336a1f2766ae033,1,vase,critical,B,50,vase40.jpg,vase60.jpg,low,NULL
1687413363,a86f346f22010ec15c62b432a2f36c29,PennController,5,0,experiment,NULL,Selector,choice,Selection,option2,1687413324813,610365491336a1f2766ae033,610365491336a1f2766ae033,1,vase,critical,B,50,vase40.jpg,vase60.jpg,low,option2;option1
1687413363,a86f346f22010ec15c62b432a2f36c29,PennController,5,0,experiment,NULL,PennController,3,_Trial_,End,1687413324814,610365491336a1f2766ae033,610365491336a1f2766ae033,1,vase,critical,B,50,vase40.jpg,vase60.jpg,low,NULL
1687413363,a86f346f22010ec15c62b432a2f36c29,PennController,6,0,experiment,NULL,PennController,4,_Trial_,Start,1687413324815,610365491336a1f2766ae033,610365491336a1f2766ae033,2,door,critical,B,75,door65.jpg,door85.jpg,low,NULL
1687413363,a86f346f22010ec15c62b432a2f36c29,PennController,6,0,experiment,NULL,PennController,4,_Header_,Start,1687413324815,610365491336a1f2766ae033,610365491336a1f2766ae033,2,door,critical,B,75,door65.jpg,door85.jpg,low,NULL
1687413363,a86f346f22010ec15c62b432a2f36c29,PennController,6,0,experiment,NULL,PennController,4,_Header_,End,1687413324815,610365491336a1f2766ae033,610365491336a1f2766ae033,2,door,critical,B,75,door65.jpg,door85.jpg,low,NULL
1687413363,a86f346f22010ec15c62b432a2f36c29,PennController,6,0,experiment,NULL,Canvas,canvas6,Print,NA,1687413332520,610365491336a1f2766ae033,610365491336a1f2766ae033,2,door,critical,B,75,door65.jpg,door85.jpg,low,NULL
1687413363,a86f346f22010ec15c62b432a2f36c29,PennController,6,0,experiment,NULL,Video,progression,buffer,0.003767,1687413328330,610365491336a1f2766ae033,610365491336a1f2766ae033,2,door,critical,B,75,door65.jpg,door85.jpg,low,NULL
1687413363,a86f346f22010ec15c62b432a2f36c29,PennController,6,0,experiment,NULL,Selector,choice,Selection,option1,1687413333631,610365491336a1f2766ae033,610365491336a1f2766ae033,2,door,critical,B,75,door65.jpg,door85.jpg,low,option2;option1
1687413363,a86f346f22010ec15c62b432a2f36c29,PennController,6,0,experiment,NULL,PennController,4,_Trial_,End,1687413333632,610365491336a1f2766ae033,610365491336a1f2766ae033,2,door,critical,B,75,door65.jpg,door85.jpg,low,NULL
1687413363,a86f346f22010ec15c62b432a2f36c29,PennController,24,0,experiment,NULL,PennController,22,_Trial_,Start,1687413333633,610365491336a1f2766ae033,610365491336a1f2766ae033,20,cat,filler,B,75,cat65.jpg,cat85.jpg,GoalB,NULL
1687413363,a86f346f22010ec15c62b432a2f36c29,PennController,24,0,experiment,NULL,PennController,22,_Header_,Start,1687413333633,610365491336a1f2766ae033,610365491336a1f2766ae033,20,cat,filler,B,75,cat65.jpg,cat85.jpg,GoalB,NULL
1687413363,a86f346f22010ec15c62b432a2f36c29,PennController,24,0,experiment,NULL,PennController,22,_Header_,End,1687413333633,610365491336a1f2766ae033,610365491336a1f2766ae033,20,cat,filler,B,75,cat65.jpg,cat85.jpg,GoalB,NULL
1687413363,a86f346f22010ec15c62b432a2f36c29,PennController,24,0,experiment,NULL,Canvas,canvas6,Print,NA,1687413341344,610365491336a1f2766ae033,610365491336a1f2766ae033,20,cat,filler,B,75,cat65.jpg,cat85.jpg,GoalB,NULL
1687413363,a86f346f22010ec15c62b432a2f36c29,PennController,24,0,experiment,NULL,Video,progression,buffer,0.003671,1687413337152,610365491336a1f2766ae033,610365491336a1f2766ae033,20,cat,filler,B,75,cat65.jpg,cat85.jpg,GoalB,NULL
1687413363,a86f346f22010ec15c62b432a2f36c29,PennController,24,0,experiment,NULL,Selector,choice,Selection,option1,1687413342447,610365491336a1f2766ae033,610365491336a1f2766ae033,20,cat,filler,B,75,cat65.jpg,cat85.jpg,GoalB,option2;option1
1687413363,a86f346f22010ec15c62b432a2f36c29,PennController,24,0,experiment,NULL,PennController,22,_Trial_,End,1687413342448,610365491336a1f2766ae033,610365491336a1f2766ae033,20,cat,filler,B,75,cat65.jpg,cat85.jpg,GoalB,NULL
1687413363,a86f346f22010ec15c62b432a2f36c29,PennController,16,0,experiment,NULL,PennController,14,_Trial_,Start,1687413342449,610365491336a1f2766ae033,610365491336a1f2766ae033,12,erase,critical,B,25,erase15.jpg,erase33.jpg,low,NULL
1687413363,a86f346f22010ec15c62b432a2f36c29,PennController,16,0,experiment,NULL,PennController,14,_Header_,Start,1687413342449,610365491336a1f2766ae033,610365491336a1f2766ae033,12,erase,critical,B,25,erase15.jpg,erase33.jpg,low,NULL
1687413363,a86f346f22010ec15c62b432a2f36c29,PennController,16,0,experiment,NULL,PennController,14,_Header_,End,1687413342449,610365491336a1f2766ae033,610365491336a1f2766ae033,12,erase,critical,B,25,erase15.jpg,erase33.jpg,low,NULL
1687413363,a86f346f22010ec15c62b432a2f36c29,PennController,16,0,experiment,NULL,Canvas,canvas6,Print,NA,1687413348756,610365491336a1f2766ae033,610365491336a1f2766ae033,12,erase,critical,B,25,erase15.jpg,erase33.jpg,low,NULL
1687413363,a86f346f22010ec15c62b432a2f36c29,PennController,16,0,experiment,NULL,Video,progression,buffer,0.004878,1687413345970,610365491336a1f2766ae033,610365491336a1f2766ae033,12,erase,critical,B,25,erase15.jpg,erase33.jpg,low,NULL
1687413363,a86f346f22010ec15c62b432a2f36c29,PennController,16,0,experiment,NULL,Selector,choice,Selection,option2,1687413350180,610365491336a1f2766ae033,610365491336a1f2766ae033,12,erase,critical,B,25,erase15.jpg,erase33.jpg,low,option1;option2
1687413363,a86f346f22010ec15c62b432a2f36c29,PennController,16,0,experiment,NULL,PennController,14,_Trial_,End,1687413350181,610365491336a1f2766ae033,610365491336a1f2766ae033,12,erase,critical,B,25,erase15.jpg,erase33.jpg,low,NULL
1687413363,a86f346f22010ec15c62b432a2f36c29,PennController,31,0,experiment,NULL,PennController,29,_Trial_,Start,1687413350182,610365491336a1f2766ae033,610365491336a1f2766ae033,27,square,filler,B,25,square15.jpg,square35.jpg,GoalA,NULL
1687413363,a86f346f22010ec15c62b432a2f36c29,PennController,31,0,experiment,NULL,PennController,29,_Header_,Start,1687413350182,610365491336a1f2766ae033,610365491336a1f2766ae033,27,square,filler,B,25,square15.jpg,square35.jpg,GoalA,NULL
1687413363,a86f346f22010ec15c62b432a2f36c29,PennController,31,0,experiment,NULL,PennController,29,_Header_,End,1687413350182,610365491336a1f2766ae033,610365491336a1f2766ae033,27,square,filler,B,25,square15.jpg,square35.jpg,GoalA,NULL
1687413363,a86f346f22010ec15c62b432a2f36c29,PennController,31,0,experiment,NULL,Canvas,canvas6,Print,NA,1687413355895,610365491336a1f2766ae033,610365491336a1f2766ae033,27,square,filler,B,25,square15.jpg,square35.jpg,GoalA,NULL
1687413363,a86f346f22010ec15c62b432a2f36c29,PennController,31,0,experiment,NULL,Video,progression,buffer,0.002129,1687413353700,610365491336a1f2766ae033,610365491336a1f2766ae033,27,square,filler,B,25,square15.jpg,square35.jpg,GoalA,NULL
1687413363,a86f346f22010ec15c62b432a2f36c29,PennController,31,0,experiment,NULL,Selector,choice,Selection,option2,1687413357606,610365491336a1f2766ae033,610365491336a1f2766ae033,27,square,filler,B,25,square15.jpg,square35.jpg,GoalA,option2;option1
1687413363,a86f346f22010ec15c62b432a2f36c29,PennController,31,0,experiment,NULL,PennController,29,_Trial_,End,1687413357607,610365491336a1f2766ae033,610365491336a1f2766ae033,27,square,filler,B,25,square15.jpg,square35.jpg,GoalA,NULL
