#
# Results on Tuesday June 20 2023 18:57:19 UTC
# USER AGENT: Mozilla/5.0 (Windows NT 10.0; Win64; x64) AppleWebKit/537.36 (KHTML, like Gecko) Chrome/114.0.0.0 Safari/537.36
# Design number was non-random = 3
#
# Columns below this comment are as follows:
# 1. Results reception time.
# 2. MD5 hash of participant's IP address.
# 3. Controller name.
# 4. Order number of item.
# 5. Inner element number.
# 6. Label.
# 7. Latin Square Group.
# 8. PennElementType.
# 9. PennElementName.
# 10. Parameter.
# 11. Value.
# 12. EventTime.
# 13. PROLIFIC_ID.
# 14. Comments.
1687287439,bf5768fed2034fd486010e6e65ba258b,PennController,2,0,consent,NULL,PennController,0,_Trial_,Start,1687286999691,5f26914cf3b6ba3eb2d8e906,NULL
1687287439,bf5768fed2034fd486010e6e65ba258b,PennController,2,0,consent,NULL,PennController,0,_Header_,Start,1687286999691,5f26914cf3b6ba3eb2d8e906,NULL
1687287439,bf5768fed2034fd486010e6e65ba258b,PennController,2,0,consent,NULL,PennController,0,_Header_,End,1687286999691,5f26914cf3b6ba3eb2d8e906,NULL
1687287439,bf5768fed2034fd486010e6e65ba258b,PennController,2,0,consent,NULL,PennController,0,_Trial_,End,1687287123027,5f26914cf3b6ba3eb2d8e906,NULL
# Columns below this comment are as follows:
# 14. ID.
# 15. Comments.
1687287439,bf5768fed2034fd486010e6e65ba258b,PennController,3,0,intro,NULL,PennController,1,_Trial_,Start,1687287123030,5f26914cf3b6ba3eb2d8e906,5f26914cf3b6ba3eb2d8e906,NULL
1687287439,bf5768fed2034fd486010e6e65ba258b,PennController,3,0,intro,NULL,PennController,1,_Header_,Start,1687287123030,5f26914cf3b6ba3eb2d8e906,5f26914cf3b6ba3eb2d8e906,NULL
1687287439,bf5768fed2034fd486010e6e65ba258b,PennController,3,0,intro,NULL,PennController,1,_Header_,End,1687287123030,5f26914cf3b6ba3eb2d8e906,5f26914cf3b6ba3eb2d8e906,NULL
1687287439,bf5768fed2034fd486010e6e65ba258b,PennController,3,0,intro,NULL,PennController,1,_Trial_,End,1687287147378,5f26914cf3b6ba3eb2d8e906,5f26914cf3b6ba3eb2d8e906,NULL
# Columns below this comment are as follows:
# 15. item_number.
# 16. item.
# 17. type.
# 18. Group.
# 19. prog.
# 20. prev_image.
# 21. next_image.
# 22. height.
# 23. Comments.
1687287439,bf5768fed2034fd486010e6e65ba258b,PennController,32,0,experiment,NULL,PennController,31,_Trial_,Start,1687287147379,5f26914cf3b6ba3eb2d8e906,5f26914cf3b6ba3eb2d8e906,29,frog,filler,D,50,frog40.jpg,frog60.jpg,GoalB,NULL
1687287439,bf5768fed2034fd486010e6e65ba258b,PennController,32,0,experiment,NULL,PennController,31,_Header_,Start,1687287147379,5f26914cf3b6ba3eb2d8e906,5f26914cf3b6ba3eb2d8e906,29,frog,filler,D,50,frog40.jpg,frog60.jpg,GoalB,NULL
1687287439,bf5768fed2034fd486010e6e65ba258b,PennController,32,0,experiment,NULL,PennController,31,_Header_,End,1687287147379,5f26914cf3b6ba3eb2d8e906,5f26914cf3b6ba3eb2d8e906,29,frog,filler,D,50,frog40.jpg,frog60.jpg,GoalB,NULL
1687287439,bf5768fed2034fd486010e6e65ba258b,PennController,32,0,experiment,NULL,Canvas,canvas6,Print,NA,1687287154100,5f26914cf3b6ba3eb2d8e906,5f26914cf3b6ba3eb2d8e906,29,frog,filler,D,50,frog40.jpg,frog60.jpg,GoalB,NULL
1687287439,bf5768fed2034fd486010e6e65ba258b,PennController,32,0,experiment,NULL,Video,progression,buffer,0.004342,1687287150931,5f26914cf3b6ba3eb2d8e906,5f26914cf3b6ba3eb2d8e906,29,frog,filler,D,50,frog40.jpg,frog60.jpg,GoalB,NULL
1687287439,bf5768fed2034fd486010e6e65ba258b,PennController,32,0,experiment,NULL,Selector,choice,Selection,option2,1687287156928,5f26914cf3b6ba3eb2d8e906,5f26914cf3b6ba3eb2d8e906,29,frog,filler,D,50,frog40.jpg,frog60.jpg,GoalB,option1;option2
1687287439,bf5768fed2034fd486010e6e65ba258b,PennController,32,0,experiment,NULL,PennController,31,_Trial_,End,1687287156929,5f26914cf3b6ba3eb2d8e906,5f26914cf3b6ba3eb2d8e906,29,frog,filler,D,50,frog40.jpg,frog60.jpg,GoalB,NULL
1687287439,bf5768fed2034fd486010e6e65ba258b,PennController,27,0,experiment,NULL,PennController,26,_Trial_,Start,1687287156930,5f26914cf3b6ba3eb2d8e906,5f26914cf3b6ba3eb2d8e906,24,match,filler,D,75,match65.jpg,match85.jpg,GoalA,NULL
1687287439,bf5768fed2034fd486010e6e65ba258b,PennController,27,0,experiment,NULL,PennController,26,_Header_,Start,1687287156930,5f26914cf3b6ba3eb2d8e906,5f26914cf3b6ba3eb2d8e906,24,match,filler,D,75,match65.jpg,match85.jpg,GoalA,NULL
1687287439,bf5768fed2034fd486010e6e65ba258b,PennController,27,0,experiment,NULL,PennController,26,_Header_,End,1687287156930,5f26914cf3b6ba3eb2d8e906,5f26914cf3b6ba3eb2d8e906,24,match,filler,D,75,match65.jpg,match85.jpg,GoalA,NULL
1687287439,bf5768fed2034fd486010e6e65ba258b,PennController,27,0,experiment,NULL,Canvas,canvas6,Print,NA,1687287164613,5f26914cf3b6ba3eb2d8e906,5f26914cf3b6ba3eb2d8e906,24,match,filler,D,75,match65.jpg,match85.jpg,GoalA,NULL
1687287439,bf5768fed2034fd486010e6e65ba258b,PennController,27,0,experiment,NULL,Video,progression,buffer,0.004107,1687287160451,5f26914cf3b6ba3eb2d8e906,5f26914cf3b6ba3eb2d8e906,24,match,filler,D,75,match65.jpg,match85.jpg,GoalA,NULL
1687287439,bf5768fed2034fd486010e6e65ba258b,PennController,27,0,experiment,NULL,Selector,choice,Selection,option1,1687287166426,5f26914cf3b6ba3eb2d8e906,5f26914cf3b6ba3eb2d8e906,24,match,filler,D,75,match65.jpg,match85.jpg,GoalA,option2;option1
1687287439,bf5768fed2034fd486010e6e65ba258b,PennController,27,0,experiment,NULL,PennController,26,_Trial_,End,1687287166427,5f26914cf3b6ba3eb2d8e906,5f26914cf3b6ba3eb2d8e906,24,match,filler,D,75,match65.jpg,match85.jpg,GoalA,NULL
1687287439,bf5768fed2034fd486010e6e65ba258b,PennController,30,0,experiment,NULL,PennController,29,_Trial_,Start,1687287166428,5f26914cf3b6ba3eb2d8e906,5f26914cf3b6ba3eb2d8e906,27,square,filler,D,75,square65.jpg,square85.jpg,GoalB,NULL
1687287439,bf5768fed2034fd486010e6e65ba258b,PennController,30,0,experiment,NULL,PennController,29,_Header_,Start,1687287166428,5f26914cf3b6ba3eb2d8e906,5f26914cf3b6ba3eb2d8e906,27,square,filler,D,75,square65.jpg,square85.jpg,GoalB,NULL
1687287439,bf5768fed2034fd486010e6e65ba258b,PennController,30,0,experiment,NULL,PennController,29,_Header_,End,1687287166428,5f26914cf3b6ba3eb2d8e906,5f26914cf3b6ba3eb2d8e906,27,square,filler,D,75,square65.jpg,square85.jpg,GoalB,NULL
1687287439,bf5768fed2034fd486010e6e65ba258b,PennController,30,0,experiment,NULL,Canvas,canvas6,Print,NA,1687287174127,5f26914cf3b6ba3eb2d8e906,5f26914cf3b6ba3eb2d8e906,27,square,filler,D,75,square65.jpg,square85.jpg,GoalB,NULL
1687287439,bf5768fed2034fd486010e6e65ba258b,PennController,30,0,experiment,NULL,Video,progression,buffer,0.005501,1687287169970,5f26914cf3b6ba3eb2d8e906,5f26914cf3b6ba3eb2d8e906,27,square,filler,D,75,square65.jpg,square85.jpg,GoalB,NULL
1687287439,bf5768fed2034fd486010e6e65ba258b,PennController,30,0,experiment,NULL,Selector,choice,Selection,option1,1687287175608,5f26914cf3b6ba3eb2d8e906,5f26914cf3b6ba3eb2d8e906,27,square,filler,D,75,square65.jpg,square85.jpg,GoalB,option2;option1
1687287439,bf5768fed2034fd486010e6e65ba258b,PennController,30,0,experiment,NULL,PennController,29,_Trial_,End,1687287175609,5f26914cf3b6ba3eb2d8e906,5f26914cf3b6ba3eb2d8e906,27,square,filler,D,75,square65.jpg,square85.jpg,GoalB,NULL
1687287439,bf5768fed2034fd486010e6e65ba258b,PennController,13,0,experiment,NULL,PennController,12,_Trial_,Start,1687287175610,5f26914cf3b6ba3eb2d8e906,5f26914cf3b6ba3eb2d8e906,10,train,critical,D,25,train15.jpg,train35.jpg,high,NULL
1687287439,bf5768fed2034fd486010e6e65ba258b,PennController,13,0,experiment,NULL,PennController,12,_Header_,Start,1687287175610,5f26914cf3b6ba3eb2d8e906,5f26914cf3b6ba3eb2d8e906,10,train,critical,D,25,train15.jpg,train35.jpg,high,NULL
1687287439,bf5768fed2034fd486010e6e65ba258b,PennController,13,0,experiment,NULL,PennController,12,_Header_,End,1687287175610,5f26914cf3b6ba3eb2d8e906,5f26914cf3b6ba3eb2d8e906,10,train,critical,D,25,train15.jpg,train35.jpg,high,NULL
1687287439,bf5768fed2034fd486010e6e65ba258b,PennController,13,0,experiment,NULL,Canvas,canvas6,Print,NA,1687287181307,5f26914cf3b6ba3eb2d8e906,5f26914cf3b6ba3eb2d8e906,10,train,critical,D,25,train15.jpg,train35.jpg,high,NULL
1687287439,bf5768fed2034fd486010e6e65ba258b,PennController,13,0,experiment,NULL,Video,progression,buffer,0.001293,1687287179128,5f26914cf3b6ba3eb2d8e906,5f26914cf3b6ba3eb2d8e906,10,train,critical,D,25,train15.jpg,train35.jpg,high,NULL
1687287439,bf5768fed2034fd486010e6e65ba258b,PennController,13,0,experiment,NULL,Selector,choice,Selection,option1,1687287187075,5f26914cf3b6ba3eb2d8e906,5f26914cf3b6ba3eb2d8e906,10,train,critical,D,25,train15.jpg,train35.jpg,high,option1;option2
1687287439,bf5768fed2034fd486010e6e65ba258b,PennController,13,0,experiment,NULL,PennController,12,_Trial_,End,1687287187076,5f26914cf3b6ba3eb2d8e906,5f26914cf3b6ba3eb2d8e906,10,train,critical,D,25,train15.jpg,train35.jpg,high,NULL
1687287439,bf5768fed2034fd486010e6e65ba258b,PennController,31,0,experiment,NULL,PennController,30,_Trial_,Start,1687287187077,5f26914cf3b6ba3eb2d8e906,5f26914cf3b6ba3eb2d8e906,28,sort,filler,D,25,sort15.jpg,sort35.jpg,GoalA,NULL
1687287439,bf5768fed2034fd486010e6e65ba258b,PennController,31,0,experiment,NULL,PennController,30,_Header_,Start,1687287187077,5f26914cf3b6ba3eb2d8e906,5f26914cf3b6ba3eb2d8e906,28,sort,filler,D,25,sort15.jpg,sort35.jpg,GoalA,NULL
1687287439,bf5768fed2034fd486010e6e65ba258b,PennController,31,0,experiment,NULL,PennController,30,_Header_,End,1687287187077,5f26914cf3b6ba3eb2d8e906,5f26914cf3b6ba3eb2d8e906,28,sort,filler,D,25,sort15.jpg,sort35.jpg,GoalA,NULL
1687287439,bf5768fed2034fd486010e6e65ba258b,PennController,31,0,experiment,NULL,Canvas,canvas6,Print,NA,1687287192764,5f26914cf3b6ba3eb2d8e906,5f26914cf3b6ba3eb2d8e906,28,sort,filler,D,25,sort15.jpg,sort35.jpg,GoalA,NULL
1687287439,bf5768fed2034fd486010e6e65ba258b,PennController,31,0,experiment,NULL,Video,progression,buffer,0.002689,1687287190603,5f26914cf3b6ba3eb2d8e906,5f26914cf3b6ba3eb2d8e906,28,sort,filler,D,25,sort15.jpg,sort35.jpg,GoalA,NULL
1687287439,bf5768fed2034fd486010e6e65ba258b,PennController,31,0,experiment,NULL,Selector,choice,Selection,option1,1687287198542,5f26914cf3b6ba3eb2d8e906,5f26914cf3b6ba3eb2d8e906,28,sort,filler,D,25,sort15.jpg,sort35.jpg,GoalA,option2;option1
1687287439,bf5768fed2034fd486010e6e65ba258b,PennController,31,0,experiment,NULL,PennController,30,_Trial_,End,1687287198543,5f26914cf3b6ba3eb2d8e906,5f26914cf3b6ba3eb2d8e906,28,sort,filler,D,25,sort15.jpg,sort35.jpg,GoalA,NULL
1687287439,bf5768fed2034fd486010e6e65ba258b,PennController,15,0,experiment,NULL,PennController,14,_Trial_,Start,1687287198544,5f26914cf3b6ba3eb2d8e906,5f26914cf3b6ba3eb2d8e906,12,erase,critical,D,75,erase66.jpg,erase84.jpg,high,NULL
1687287439,bf5768fed2034fd486010e6e65ba258b,PennController,15,0,experiment,NULL,PennController,14,_Header_,Start,1687287198544,5f26914cf3b6ba3eb2d8e906,5f26914cf3b6ba3eb2d8e906,12,erase,critical,D,75,erase66.jpg,erase84.jpg,high,NULL
1687287439,bf5768fed2034fd486010e6e65ba258b,PennController,15,0,experiment,NULL,PennController,14,_Header_,End,1687287198544,5f26914cf3b6ba3eb2d8e906,5f26914cf3b6ba3eb2d8e906,12,erase,critical,D,75,erase66.jpg,erase84.jpg,high,NULL
1687287439,bf5768fed2034fd486010e6e65ba258b,PennController,15,0,experiment,NULL,Canvas,canvas6,Print,NA,1687287208229,5f26914cf3b6ba3eb2d8e906,5f26914cf3b6ba3eb2d8e906,12,erase,critical,D,75,erase66.jpg,erase84.jpg,high,NULL
1687287439,bf5768fed2034fd486010e6e65ba258b,PennController,15,0,experiment,NULL,Video,progression,buffer,0.002668,1687287202060,5f26914cf3b6ba3eb2d8e906,5f26914cf3b6ba3eb2d8e906,12,erase,critical,D,75,erase66.jpg,erase84.jpg,high,NULL
1687287439,bf5768fed2034fd486010e6e65ba258b,PennController,15,0,experiment,NULL,Selector,choice,Selection,option2,1687287210923,5f26914cf3b6ba3eb2d8e906,5f26914cf3b6ba3eb2d8e906,12,erase,critical,D,75,erase66.jpg,erase84.jpg,high,option2;option1
1687287439,bf5768fed2034fd486010e6e65ba258b,PennController,15,0,experiment,NULL,PennController,14,_Trial_,End,1687287210924,5f26914cf3b6ba3eb2d8e906,5f26914cf3b6ba3eb2d8e906,12,erase,critical,D,75,erase66.jpg,erase84.jpg,high,NULL
1687287439,bf5768fed2034fd486010e6e65ba258b,PennController,10,0,experiment,NULL,PennController,9,_Trial_,Start,1687287210925,5f26914cf3b6ba3eb2d8e906,5f26914cf3b6ba3eb2d8e906,7,stack,critical,D,25,stack15.jpg,stack35.jpg,high,NULL
1687287439,bf5768fed2034fd486010e6e65ba258b,PennController,10,0,experiment,NULL,PennController,9,_Header_,Start,1687287210925,5f26914cf3b6ba3eb2d8e906,5f26914cf3b6ba3eb2d8e906,7,stack,critical,D,25,stack15.jpg,stack35.jpg,high,NULL
1687287439,bf5768fed2034fd486010e6e65ba258b,PennController,10,0,experiment,NULL,PennController,9,_Header_,End,1687287210925,5f26914cf3b6ba3eb2d8e906,5f26914cf3b6ba3eb2d8e906,7,stack,critical,D,25,stack15.jpg,stack35.jpg,high,NULL
1687287439,bf5768fed2034fd486010e6e65ba258b,PennController,10,0,experiment,NULL,Canvas,canvas6,Print,NA,1687287216610,5f26914cf3b6ba3eb2d8e906,5f26914cf3b6ba3eb2d8e906,7,stack,critical,D,25,stack15.jpg,stack35.jpg,high,NULL
1687287439,bf5768fed2034fd486010e6e65ba258b,PennController,10,0,experiment,NULL,Video,progression,buffer,0.001318,1687287214449,5f26914cf3b6ba3eb2d8e906,5f26914cf3b6ba3eb2d8e906,7,stack,critical,D,25,stack15.jpg,stack35.jpg,high,NULL
1687287439,bf5768fed2034fd486010e6e65ba258b,PennController,10,0,experiment,NULL,Selector,choice,Selection,option2,1687287219573,5f26914cf3b6ba3eb2d8e906,5f26914cf3b6ba3eb2d8e906,7,stack,critical,D,25,stack15.jpg,stack35.jpg,high,option1;option2
1687287439,bf5768fed2034fd486010e6e65ba258b,PennController,10,0,experiment,NULL,PennController,9,_Trial_,End,1687287219574,5f26914cf3b6ba3eb2d8e906,5f26914cf3b6ba3eb2d8e906,7,stack,critical,D,25,stack15.jpg,stack35.jpg,high,NULL
1687287439,bf5768fed2034fd486010e6e65ba258b,PennController,26,0,experiment,NULL,PennController,25,_Trial_,Start,1687287219575,5f26914cf3b6ba3eb2d8e906,5f26914cf3b6ba3eb2d8e906,23,color,filler,D,50,color40.jpg,color60.jpg,GoalB,NULL
1687287439,bf5768fed2034fd486010e6e65ba258b,PennController,26,0,experiment,NULL,PennController,25,_Header_,Start,1687287219575,5f26914cf3b6ba3eb2d8e906,5f26914cf3b6ba3eb2d8e906,23,color,filler,D,50,color40.jpg,color60.jpg,GoalB,NULL
1687287439,bf5768fed2034fd486010e6e65ba258b,PennController,26,0,experiment,NULL,PennController,25,_Header_,End,1687287219575,5f26914cf3b6ba3eb2d8e906,5f26914cf3b6ba3eb2d8e906,23,color,filler,D,50,color40.jpg,color60.jpg,GoalB,NULL
1687287439,bf5768fed2034fd486010e6e65ba258b,PennController,26,0,experiment,NULL,Canvas,canvas6,Print,NA,1687287226275,5f26914cf3b6ba3eb2d8e906,5f26914cf3b6ba3eb2d8e906,23,color,filler,D,50,color40.jpg,color60.jpg,GoalB,NULL
1687287439,bf5768fed2034fd486010e6e65ba258b,PennController,26,0,experiment,NULL,Video,progression,buffer,0.005046,1687287223109,5f26914cf3b6ba3eb2d8e906,5f26914cf3b6ba3eb2d8e906,23,color,filler,D,50,color40.jpg,color60.jpg,GoalB,NULL
1687287439,bf5768fed2034fd486010e6e65ba258b,PennController,26,0,experiment,NULL,Selector,choice,Selection,option1,1687287232843,5f26914cf3b6ba3eb2d8e906,5f26914cf3b6ba3eb2d8e906,23,color,filler,D,50,color40.jpg,color60.jpg,GoalB,option1;option2
1687287439,bf5768fed2034fd486010e6e65ba258b,PennController,26,0,experiment,NULL,PennController,25,_Trial_,End,1687287232843,5f26914cf3b6ba3eb2d8e906,5f26914cf3b6ba3eb2d8e906,23,color,filler,D,50,color40.jpg,color60.jpg,GoalB,NULL
1687287439,bf5768fed2034fd486010e6e65ba258b,PennController,12,0,experiment,NULL,PennController,11,_Trial_,Start,1687287232844,5f26914cf3b6ba3eb2d8e906,5f26914cf3b6ba3eb2d8e906,9,cake,critical,D,75,cake66.jpg,cake84.jpg,high,NULL
1687287439,bf5768fed2034fd486010e6e65ba258b,PennController,12,0,experiment,NULL,PennController,11,_Header_,Start,1687287232844,5f26914cf3b6ba3eb2d8e906,5f26914cf3b6ba3eb2d8e906,9,cake,critical,D,75,cake66.jpg,cake84.jpg,high,NULL
1687287439,bf5768fed2034fd486010e6e65ba258b,PennController,12,0,experiment,NULL,PennController,11,_Header_,End,1687287232844,5f26914cf3b6ba3eb2d8e906,5f26914cf3b6ba3eb2d8e906,9,cake,critical,D,75,cake66.jpg,cake84.jpg,high,NULL
1687287439,bf5768fed2034fd486010e6e65ba258b,PennController,12,0,experiment,NULL,Canvas,canvas6,Print,NA,1687287242532,5f26914cf3b6ba3eb2d8e906,5f26914cf3b6ba3eb2d8e906,9,cake,critical,D,75,cake66.jpg,cake84.jpg,high,NULL
1687287439,bf5768fed2034fd486010e6e65ba258b,PennController,12,0,experiment,NULL,Video,progression,buffer,0.004217,1687287236362,5f26914cf3b6ba3eb2d8e906,5f26914cf3b6ba3eb2d8e906,9,cake,critical,D,75,cake66.jpg,cake84.jpg,high,NULL
1687287439,bf5768fed2034fd486010e6e65ba258b,PennController,12,0,experiment,NULL,Selector,choice,Selection,option1,1687287244557,5f26914cf3b6ba3eb2d8e906,5f26914cf3b6ba3eb2d8e906,9,cake,critical,D,75,cake66.jpg,cake84.jpg,high,option2;option1
1687287439,bf5768fed2034fd486010e6e65ba258b,PennController,12,0,experiment,NULL,PennController,11,_Trial_,End,1687287244558,5f26914cf3b6ba3eb2d8e906,5f26914cf3b6ba3eb2d8e906,9,cake,critical,D,75,cake66.jpg,cake84.jpg,high,NULL
1687287439,bf5768fed2034fd486010e6e65ba258b,PennController,18,0,experiment,NULL,PennController,17,_Trial_,Start,1687287244559,5f26914cf3b6ba3eb2d8e906,5f26914cf3b6ba3eb2d8e906,15,zip,critical,D,75,zip65.jpg,zip85.jpg,high,NULL
1687287439,bf5768fed2034fd486010e6e65ba258b,PennController,18,0,experiment,NULL,PennController,17,_Header_,Start,1687287244559,5f26914cf3b6ba3eb2d8e906,5f26914cf3b6ba3eb2d8e906,15,zip,critical,D,75,zip65.jpg,zip85.jpg,high,NULL
1687287439,bf5768fed2034fd486010e6e65ba258b,PennController,18,0,experiment,NULL,PennController,17,_Header_,End,1687287244559,5f26914cf3b6ba3eb2d8e906,5f26914cf3b6ba3eb2d8e906,15,zip,critical,D,75,zip65.jpg,zip85.jpg,high,NULL
1687287439,bf5768fed2034fd486010e6e65ba258b,PennController,18,0,experiment,NULL,Canvas,canvas6,Print,NA,1687287251445,5f26914cf3b6ba3eb2d8e906,5f26914cf3b6ba3eb2d8e906,15,zip,critical,D,75,zip65.jpg,zip85.jpg,high,NULL
1687287439,bf5768fed2034fd486010e6e65ba258b,PennController,18,0,experiment,NULL,Video,progression,buffer,0.003368,1687287248075,5f26914cf3b6ba3eb2d8e906,5f26914cf3b6ba3eb2d8e906,15,zip,critical,D,75,zip65.jpg,zip85.jpg,high,NULL
1687287439,bf5768fed2034fd486010e6e65ba258b,PennController,18,0,experiment,NULL,Selector,choice,Selection,option1,1687287258456,5f26914cf3b6ba3eb2d8e906,5f26914cf3b6ba3eb2d8e906,15,zip,critical,D,75,zip65.jpg,zip85.jpg,high,option1;option2
1687287439,bf5768fed2034fd486010e6e65ba258b,PennController,18,0,experiment,NULL,PennController,17,_Trial_,End,1687287258457,5f26914cf3b6ba3eb2d8e906,5f26914cf3b6ba3eb2d8e906,15,zip,critical,D,75,zip65.jpg,zip85.jpg,high,NULL
1687287439,bf5768fed2034fd486010e6e65ba258b,PennController,8,0,experiment,NULL,PennController,7,_Trial_,Start,1687287258458,5f26914cf3b6ba3eb2d8e906,5f26914cf3b6ba3eb2d8e906,5,book,critical,D,50,book40.jpg,book60.jpg,high,NULL
1687287439,bf5768fed2034fd486010e6e65ba258b,PennController,8,0,experiment,NULL,PennController,7,_Header_,Start,1687287258458,5f26914cf3b6ba3eb2d8e906,5f26914cf3b6ba3eb2d8e906,5,book,critical,D,50,book40.jpg,book60.jpg,high,NULL
1687287439,bf5768fed2034fd486010e6e65ba258b,PennController,8,0,experiment,NULL,PennController,7,_Header_,End,1687287258458,5f26914cf3b6ba3eb2d8e906,5f26914cf3b6ba3eb2d8e906,5,book,critical,D,50,book40.jpg,book60.jpg,high,NULL
1687287439,bf5768fed2034fd486010e6e65ba258b,PennController,8,0,experiment,NULL,Canvas,canvas6,Print,NA,1687287265146,5f26914cf3b6ba3eb2d8e906,5f26914cf3b6ba3eb2d8e906,5,book,critical,D,50,book40.jpg,book60.jpg,high,NULL
1687287439,bf5768fed2034fd486010e6e65ba258b,PennController,8,0,experiment,NULL,Video,progression,buffer,0.00147,1687287261985,5f26914cf3b6ba3eb2d8e906,5f26914cf3b6ba3eb2d8e906,5,book,critical,D,50,book40.jpg,book60.jpg,high,NULL
1687287439,bf5768fed2034fd486010e6e65ba258b,PennController,8,0,experiment,NULL,Selector,choice,Selection,option2,1687287272715,5f26914cf3b6ba3eb2d8e906,5f26914cf3b6ba3eb2d8e906,5,book,critical,D,50,book40.jpg,book60.jpg,high,option1;option2
1687287439,bf5768fed2034fd486010e6e65ba258b,PennController,8,0,experiment,NULL,PennController,7,_Trial_,End,1687287272716,5f26914cf3b6ba3eb2d8e906,5f26914cf3b6ba3eb2d8e906,5,book,critical,D,50,book40.jpg,book60.jpg,high,NULL
1687287439,bf5768fed2034fd486010e6e65ba258b,PennController,20,0,experiment,NULL,PennController,19,_Trial_,Start,1687287272716,5f26914cf3b6ba3eb2d8e906,5f26914cf3b6ba3eb2d8e906,17,roll,critical,D,50,roll40.jpg,roll60.jpg,high,NULL
1687287439,bf5768fed2034fd486010e6e65ba258b,PennController,20,0,experiment,NULL,PennController,19,_Header_,Start,1687287272716,5f26914cf3b6ba3eb2d8e906,5f26914cf3b6ba3eb2d8e906,17,roll,critical,D,50,roll40.jpg,roll60.jpg,high,NULL
1687287439,bf5768fed2034fd486010e6e65ba258b,PennController,20,0,experiment,NULL,PennController,19,_Header_,End,1687287272717,5f26914cf3b6ba3eb2d8e906,5f26914cf3b6ba3eb2d8e906,17,roll,critical,D,50,roll40.jpg,roll60.jpg,high,NULL
1687287439,bf5768fed2034fd486010e6e65ba258b,PennController,20,0,experiment,NULL,Canvas,canvas6,Print,NA,1687287279397,5f26914cf3b6ba3eb2d8e906,5f26914cf3b6ba3eb2d8e906,17,roll,critical,D,50,roll40.jpg,roll60.jpg,high,NULL
1687287439,bf5768fed2034fd486010e6e65ba258b,PennController,20,0,experiment,NULL,Video,progression,buffer,0.001694,1687287276237,5f26914cf3b6ba3eb2d8e906,5f26914cf3b6ba3eb2d8e906,17,roll,critical,D,50,roll40.jpg,roll60.jpg,high,NULL
1687287439,bf5768fed2034fd486010e6e65ba258b,PennController,20,0,experiment,NULL,Selector,choice,Selection,option1,1687287282272,5f26914cf3b6ba3eb2d8e906,5f26914cf3b6ba3eb2d8e906,17,roll,critical,D,50,roll40.jpg,roll60.jpg,high,option2;option1
1687287439,bf5768fed2034fd486010e6e65ba258b,PennController,20,0,experiment,NULL,PennController,19,_Trial_,End,1687287282273,5f26914cf3b6ba3eb2d8e906,5f26914cf3b6ba3eb2d8e906,17,roll,critical,D,50,roll40.jpg,roll60.jpg,high,NULL
1687287439,bf5768fed2034fd486010e6e65ba258b,PennController,21,0,experiment,NULL,PennController,20,_Trial_,Start,1687287282274,5f26914cf3b6ba3eb2d8e906,5f26914cf3b6ba3eb2d8e906,18,ball,critical,D,75,ball65.jpg,ball85.jpg,high,NULL
1687287439,bf5768fed2034fd486010e6e65ba258b,PennController,21,0,experiment,NULL,PennController,20,_Header_,Start,1687287282274,5f26914cf3b6ba3eb2d8e906,5f26914cf3b6ba3eb2d8e906,18,ball,critical,D,75,ball65.jpg,ball85.jpg,high,NULL
1687287439,bf5768fed2034fd486010e6e65ba258b,PennController,21,0,experiment,NULL,PennController,20,_Header_,End,1687287282274,5f26914cf3b6ba3eb2d8e906,5f26914cf3b6ba3eb2d8e906,18,ball,critical,D,75,ball65.jpg,ball85.jpg,high,NULL
1687287439,bf5768fed2034fd486010e6e65ba258b,PennController,21,0,experiment,NULL,Canvas,canvas6,Print,NA,1687287289971,5f26914cf3b6ba3eb2d8e906,5f26914cf3b6ba3eb2d8e906,18,ball,critical,D,75,ball65.jpg,ball85.jpg,high,NULL
1687287439,bf5768fed2034fd486010e6e65ba258b,PennController,21,0,experiment,NULL,Video,progression,buffer,0.00466,1687287285801,5f26914cf3b6ba3eb2d8e906,5f26914cf3b6ba3eb2d8e906,18,ball,critical,D,75,ball65.jpg,ball85.jpg,high,NULL
1687287439,bf5768fed2034fd486010e6e65ba258b,PennController,21,0,experiment,NULL,Selector,choice,Selection,option1,1687287291575,5f26914cf3b6ba3eb2d8e906,5f26914cf3b6ba3eb2d8e906,18,ball,critical,D,75,ball65.jpg,ball85.jpg,high,option1;option2
1687287439,bf5768fed2034fd486010e6e65ba258b,PennController,21,0,experiment,NULL,PennController,20,_Trial_,End,1687287291576,5f26914cf3b6ba3eb2d8e906,5f26914cf3b6ba3eb2d8e906,18,ball,critical,D,75,ball65.jpg,ball85.jpg,high,NULL
1687287439,bf5768fed2034fd486010e6e65ba258b,PennController,17,0,experiment,NULL,PennController,16,_Trial_,Start,1687287291577,5f26914cf3b6ba3eb2d8e906,5f26914cf3b6ba3eb2d8e906,14,cover,critical,D,50,cover42.jpg,cover60.jpg,high,NULL
1687287439,bf5768fed2034fd486010e6e65ba258b,PennController,17,0,experiment,NULL,PennController,16,_Header_,Start,1687287291577,5f26914cf3b6ba3eb2d8e906,5f26914cf3b6ba3eb2d8e906,14,cover,critical,D,50,cover42.jpg,cover60.jpg,high,NULL
1687287439,bf5768fed2034fd486010e6e65ba258b,PennController,17,0,experiment,NULL,PennController,16,_Header_,End,1687287291577,5f26914cf3b6ba3eb2d8e906,5f26914cf3b6ba3eb2d8e906,14,cover,critical,D,50,cover42.jpg,cover60.jpg,high,NULL
1687287439,bf5768fed2034fd486010e6e65ba258b,PennController,17,0,experiment,NULL,Canvas,canvas6,Print,NA,1687287299665,5f26914cf3b6ba3eb2d8e906,5f26914cf3b6ba3eb2d8e906,14,cover,critical,D,50,cover42.jpg,cover60.jpg,high,NULL
1687287439,bf5768fed2034fd486010e6e65ba258b,PennController,17,0,experiment,NULL,Video,progression,buffer,0.001551,1687287295095,5f26914cf3b6ba3eb2d8e906,5f26914cf3b6ba3eb2d8e906,14,cover,critical,D,50,cover42.jpg,cover60.jpg,high,NULL
1687287439,bf5768fed2034fd486010e6e65ba258b,PennController,17,0,experiment,NULL,Selector,choice,Selection,option1,1687287300962,5f26914cf3b6ba3eb2d8e906,5f26914cf3b6ba3eb2d8e906,14,cover,critical,D,50,cover42.jpg,cover60.jpg,high,option2;option1
1687287439,bf5768fed2034fd486010e6e65ba258b,PennController,17,0,experiment,NULL,PennController,16,_Trial_,End,1687287300963,5f26914cf3b6ba3eb2d8e906,5f26914cf3b6ba3eb2d8e906,14,cover,critical,D,50,cover42.jpg,cover60.jpg,high,NULL
1687287439,bf5768fed2034fd486010e6e65ba258b,PennController,11,0,experiment,NULL,PennController,10,_Trial_,Start,1687287300963,5f26914cf3b6ba3eb2d8e906,5f26914cf3b6ba3eb2d8e906,8,cucumber,critical,D,50,cucumber42.jpg,cucumber60.jpg,high,NULL
1687287439,bf5768fed2034fd486010e6e65ba258b,PennController,11,0,experiment,NULL,PennController,10,_Header_,Start,1687287300963,5f26914cf3b6ba3eb2d8e906,5f26914cf3b6ba3eb2d8e906,8,cucumber,critical,D,50,cucumber42.jpg,cucumber60.jpg,high,NULL
1687287439,bf5768fed2034fd486010e6e65ba258b,PennController,11,0,experiment,NULL,PennController,10,_Header_,End,1687287300963,5f26914cf3b6ba3eb2d8e906,5f26914cf3b6ba3eb2d8e906,8,cucumber,critical,D,50,cucumber42.jpg,cucumber60.jpg,high,NULL
1687287439,bf5768fed2034fd486010e6e65ba258b,PennController,11,0,experiment,NULL,Canvas,canvas6,Print,NA,1687287309046,5f26914cf3b6ba3eb2d8e906,5f26914cf3b6ba3eb2d8e906,8,cucumber,critical,D,50,cucumber42.jpg,cucumber60.jpg,high,NULL
1687287439,bf5768fed2034fd486010e6e65ba258b,PennController,11,0,experiment,NULL,Video,progression,buffer,0.004805,1687287304490,5f26914cf3b6ba3eb2d8e906,5f26914cf3b6ba3eb2d8e906,8,cucumber,critical,D,50,cucumber42.jpg,cucumber60.jpg,high,NULL
1687287439,bf5768fed2034fd486010e6e65ba258b,PennController,11,0,experiment,NULL,Selector,choice,Selection,option1,1687287310789,5f26914cf3b6ba3eb2d8e906,5f26914cf3b6ba3eb2d8e906,8,cucumber,critical,D,50,cucumber42.jpg,cucumber60.jpg,high,option2;option1
1687287439,bf5768fed2034fd486010e6e65ba258b,PennController,11,0,experiment,NULL,PennController,10,_Trial_,End,1687287310789,5f26914cf3b6ba3eb2d8e906,5f26914cf3b6ba3eb2d8e906,8,cucumber,critical,D,50,cucumber42.jpg,cucumber60.jpg,high,NULL
1687287439,bf5768fed2034fd486010e6e65ba258b,PennController,28,0,experiment,NULL,PennController,27,_Trial_,Start,1687287310790,5f26914cf3b6ba3eb2d8e906,5f26914cf3b6ba3eb2d8e906,25,house,filler,D,25,house15.jpg,house35.jpg,GoalB,NULL
1687287439,bf5768fed2034fd486010e6e65ba258b,PennController,28,0,experiment,NULL,PennController,27,_Header_,Start,1687287310790,5f26914cf3b6ba3eb2d8e906,5f26914cf3b6ba3eb2d8e906,25,house,filler,D,25,house15.jpg,house35.jpg,GoalB,NULL
1687287439,bf5768fed2034fd486010e6e65ba258b,PennController,28,0,experiment,NULL,PennController,27,_Header_,End,1687287310790,5f26914cf3b6ba3eb2d8e906,5f26914cf3b6ba3eb2d8e906,25,house,filler,D,25,house15.jpg,house35.jpg,GoalB,NULL
1687287439,bf5768fed2034fd486010e6e65ba258b,PennController,28,0,experiment,NULL,Canvas,canvas6,Print,NA,1687287316483,5f26914cf3b6ba3eb2d8e906,5f26914cf3b6ba3eb2d8e906,25,house,filler,D,25,house15.jpg,house35.jpg,GoalB,NULL
1687287439,bf5768fed2034fd486010e6e65ba258b,PennController,28,0,experiment,NULL,Video,progression,buffer,0.003426,1687287314312,5f26914cf3b6ba3eb2d8e906,5f26914cf3b6ba3eb2d8e906,25,house,filler,D,25,house15.jpg,house35.jpg,GoalB,NULL
1687287439,bf5768fed2034fd486010e6e65ba258b,PennController,28,0,experiment,NULL,Selector,choice,Selection,option2,1687287317644,5f26914cf3b6ba3eb2d8e906,5f26914cf3b6ba3eb2d8e906,25,house,filler,D,25,house15.jpg,house35.jpg,GoalB,option1;option2
1687287439,bf5768fed2034fd486010e6e65ba258b,PennController,28,0,experiment,NULL,PennController,27,_Trial_,End,1687287317644,5f26914cf3b6ba3eb2d8e906,5f26914cf3b6ba3eb2d8e906,25,house,filler,D,25,house15.jpg,house35.jpg,GoalB,NULL
1687287439,bf5768fed2034fd486010e6e65ba258b,PennController,22,0,experiment,NULL,PennController,21,_Trial_,Start,1687287317645,5f26914cf3b6ba3eb2d8e906,5f26914cf3b6ba3eb2d8e906,19,cup,filler,D,25,cup15.jpg,cup35.jpg,GoalB,NULL
1687287439,bf5768fed2034fd486010e6e65ba258b,PennController,22,0,experiment,NULL,PennController,21,_Header_,Start,1687287317645,5f26914cf3b6ba3eb2d8e906,5f26914cf3b6ba3eb2d8e906,19,cup,filler,D,25,cup15.jpg,cup35.jpg,GoalB,NULL
1687287439,bf5768fed2034fd486010e6e65ba258b,PennController,22,0,experiment,NULL,PennController,21,_Header_,End,1687287317645,5f26914cf3b6ba3eb2d8e906,5f26914cf3b6ba3eb2d8e906,19,cup,filler,D,25,cup15.jpg,cup35.jpg,GoalB,NULL
1687287439,bf5768fed2034fd486010e6e65ba258b,PennController,22,0,experiment,NULL,Canvas,canvas6,Print,NA,1687287323326,5f26914cf3b6ba3eb2d8e906,5f26914cf3b6ba3eb2d8e906,19,cup,filler,D,25,cup15.jpg,cup35.jpg,GoalB,NULL
1687287439,bf5768fed2034fd486010e6e65ba258b,PennController,22,0,experiment,NULL,Video,progression,buffer,0.001573,1687287321162,5f26914cf3b6ba3eb2d8e906,5f26914cf3b6ba3eb2d8e906,19,cup,filler,D,25,cup15.jpg,cup35.jpg,GoalB,NULL
1687287439,bf5768fed2034fd486010e6e65ba258b,PennController,22,0,experiment,NULL,Selector,choice,Selection,option2,1687287325780,5f26914cf3b6ba3eb2d8e906,5f26914cf3b6ba3eb2d8e906,19,cup,filler,D,25,cup15.jpg,cup35.jpg,GoalB,option2;option1
1687287439,bf5768fed2034fd486010e6e65ba258b,PennController,22,0,experiment,NULL,PennController,21,_Trial_,End,1687287325781,5f26914cf3b6ba3eb2d8e906,5f26914cf3b6ba3eb2d8e906,19,cup,filler,D,25,cup15.jpg,cup35.jpg,GoalB,NULL
1687287439,bf5768fed2034fd486010e6e65ba258b,PennController,4,0,experiment,NULL,PennController,3,_Trial_,Start,1687287325782,5f26914cf3b6ba3eb2d8e906,5f26914cf3b6ba3eb2d8e906,1,vase,critical,D,25,vase15.jpg,vase35.jpg,high,NULL
1687287439,bf5768fed2034fd486010e6e65ba258b,PennController,4,0,experiment,NULL,PennController,3,_Header_,Start,1687287325782,5f26914cf3b6ba3eb2d8e906,5f26914cf3b6ba3eb2d8e906,1,vase,critical,D,25,vase15.jpg,vase35.jpg,high,NULL
1687287439,bf5768fed2034fd486010e6e65ba258b,PennController,4,0,experiment,NULL,PennController,3,_Header_,End,1687287325782,5f26914cf3b6ba3eb2d8e906,5f26914cf3b6ba3eb2d8e906,1,vase,critical,D,25,vase15.jpg,vase35.jpg,high,NULL
1687287439,bf5768fed2034fd486010e6e65ba258b,PennController,4,0,experiment,NULL,Canvas,canvas6,Print,NA,1687287331461,5f26914cf3b6ba3eb2d8e906,5f26914cf3b6ba3eb2d8e906,1,vase,critical,D,25,vase15.jpg,vase35.jpg,high,NULL
1687287439,bf5768fed2034fd486010e6e65ba258b,PennController,4,0,experiment,NULL,Video,progression,buffer,0.001544,1687287329303,5f26914cf3b6ba3eb2d8e906,5f26914cf3b6ba3eb2d8e906,1,vase,critical,D,25,vase15.jpg,vase35.jpg,high,NULL
1687287439,bf5768fed2034fd486010e6e65ba258b,PennController,4,0,experiment,NULL,Selector,choice,Selection,option2,1687287334034,5f26914cf3b6ba3eb2d8e906,5f26914cf3b6ba3eb2d8e906,1,vase,critical,D,25,vase15.jpg,vase35.jpg,high,option2;option1
1687287439,bf5768fed2034fd486010e6e65ba258b,PennController,4,0,experiment,NULL,PennController,3,_Trial_,End,1687287334034,5f26914cf3b6ba3eb2d8e906,5f26914cf3b6ba3eb2d8e906,1,vase,critical,D,25,vase15.jpg,vase35.jpg,high,NULL
1687287439,bf5768fed2034fd486010e6e65ba258b,PennController,29,0,experiment,NULL,PennController,28,_Trial_,Start,1687287334035,5f26914cf3b6ba3eb2d8e906,5f26914cf3b6ba3eb2d8e906,26,sandwich,filler,D,50,sandwich40.jpg,sandwich60.jpg,GoalA,NULL
1687287439,bf5768fed2034fd486010e6e65ba258b,PennController,29,0,experiment,NULL,PennController,28,_Header_,Start,1687287334035,5f26914cf3b6ba3eb2d8e906,5f26914cf3b6ba3eb2d8e906,26,sandwich,filler,D,50,sandwich40.jpg,sandwich60.jpg,GoalA,NULL
1687287439,bf5768fed2034fd486010e6e65ba258b,PennController,29,0,experiment,NULL,PennController,28,_Header_,End,1687287334035,5f26914cf3b6ba3eb2d8e906,5f26914cf3b6ba3eb2d8e906,26,sandwich,filler,D,50,sandwich40.jpg,sandwich60.jpg,GoalA,NULL
1687287439,bf5768fed2034fd486010e6e65ba258b,PennController,29,0,experiment,NULL,Canvas,canvas6,Print,NA,1687287340732,5f26914cf3b6ba3eb2d8e906,5f26914cf3b6ba3eb2d8e906,26,sandwich,filler,D,50,sandwich40.jpg,sandwich60.jpg,GoalA,NULL
1687287439,bf5768fed2034fd486010e6e65ba258b,PennController,29,0,experiment,NULL,Video,progression,buffer,0.001625,1687287337560,5f26914cf3b6ba3eb2d8e906,5f26914cf3b6ba3eb2d8e906,26,sandwich,filler,D,50,sandwich40.jpg,sandwich60.jpg,GoalA,NULL
1687287439,bf5768fed2034fd486010e6e65ba258b,PennController,29,0,experiment,NULL,Selector,choice,Selection,option1,1687287342274,5f26914cf3b6ba3eb2d8e906,5f26914cf3b6ba3eb2d8e906,26,sandwich,filler,D,50,sandwich40.jpg,sandwich60.jpg,GoalA,option1;option2
1687287439,bf5768fed2034fd486010e6e65ba258b,PennController,29,0,experiment,NULL,PennController,28,_Trial_,End,1687287342275,5f26914cf3b6ba3eb2d8e906,5f26914cf3b6ba3eb2d8e906,26,sandwich,filler,D,50,sandwich40.jpg,sandwich60.jpg,GoalA,NULL
1687287439,bf5768fed2034fd486010e6e65ba258b,PennController,14,0,experiment,NULL,PennController,13,_Trial_,Start,1687287342276,5f26914cf3b6ba3eb2d8e906,5f26914cf3b6ba3eb2d8e906,11,beads,critical,D,50,beads40.jpg,beads60.jpg,high,NULL
1687287439,bf5768fed2034fd486010e6e65ba258b,PennController,14,0,experiment,NULL,PennController,13,_Header_,Start,1687287342276,5f26914cf3b6ba3eb2d8e906,5f26914cf3b6ba3eb2d8e906,11,beads,critical,D,50,beads40.jpg,beads60.jpg,high,NULL
1687287439,bf5768fed2034fd486010e6e65ba258b,PennController,14,0,experiment,NULL,PennController,13,_Header_,End,1687287342276,5f26914cf3b6ba3eb2d8e906,5f26914cf3b6ba3eb2d8e906,11,beads,critical,D,50,beads40.jpg,beads60.jpg,high,NULL
1687287439,bf5768fed2034fd486010e6e65ba258b,PennController,14,0,experiment,NULL,Canvas,canvas6,Print,NA,1687287348987,5f26914cf3b6ba3eb2d8e906,5f26914cf3b6ba3eb2d8e906,11,beads,critical,D,50,beads40.jpg,beads60.jpg,high,NULL
1687287439,bf5768fed2034fd486010e6e65ba258b,PennController,14,0,experiment,NULL,Video,progression,buffer,0.006228,1687287345812,5f26914cf3b6ba3eb2d8e906,5f26914cf3b6ba3eb2d8e906,11,beads,critical,D,50,beads40.jpg,beads60.jpg,high,NULL
1687287439,bf5768fed2034fd486010e6e65ba258b,PennController,14,0,experiment,NULL,Selector,choice,Selection,option1,1687287352863,5f26914cf3b6ba3eb2d8e906,5f26914cf3b6ba3eb2d8e906,11,beads,critical,D,50,beads40.jpg,beads60.jpg,high,option1;option2
1687287439,bf5768fed2034fd486010e6e65ba258b,PennController,14,0,experiment,NULL,PennController,13,_Trial_,End,1687287352863,5f26914cf3b6ba3eb2d8e906,5f26914cf3b6ba3eb2d8e906,11,beads,critical,D,50,beads40.jpg,beads60.jpg,high,NULL
1687287439,bf5768fed2034fd486010e6e65ba258b,PennController,16,0,experiment,NULL,PennController,15,_Trial_,Start,1687287352864,5f26914cf3b6ba3eb2d8e906,5f26914cf3b6ba3eb2d8e906,13,mix,critical,D,25,mix15.jpg,mix35.jpg,high,NULL
1687287439,bf5768fed2034fd486010e6e65ba258b,PennController,16,0,experiment,NULL,PennController,15,_Header_,Start,1687287352864,5f26914cf3b6ba3eb2d8e906,5f26914cf3b6ba3eb2d8e906,13,mix,critical,D,25,mix15.jpg,mix35.jpg,high,NULL
1687287439,bf5768fed2034fd486010e6e65ba258b,PennController,16,0,experiment,NULL,PennController,15,_Header_,End,1687287352864,5f26914cf3b6ba3eb2d8e906,5f26914cf3b6ba3eb2d8e906,13,mix,critical,D,25,mix15.jpg,mix35.jpg,high,NULL
1687287439,bf5768fed2034fd486010e6e65ba258b,PennController,16,0,experiment,NULL,Canvas,canvas6,Print,NA,1687287358553,5f26914cf3b6ba3eb2d8e906,5f26914cf3b6ba3eb2d8e906,13,mix,critical,D,25,mix15.jpg,mix35.jpg,high,NULL
1687287439,bf5768fed2034fd486010e6e65ba258b,PennController,16,0,experiment,NULL,Video,progression,buffer,0.001492,1687287356380,5f26914cf3b6ba3eb2d8e906,5f26914cf3b6ba3eb2d8e906,13,mix,critical,D,25,mix15.jpg,mix35.jpg,high,NULL
1687287439,bf5768fed2034fd486010e6e65ba258b,PennController,16,0,experiment,NULL,Selector,choice,Selection,option1,1687287360151,5f26914cf3b6ba3eb2d8e906,5f26914cf3b6ba3eb2d8e906,13,mix,critical,D,25,mix15.jpg,mix35.jpg,high,option2;option1
1687287439,bf5768fed2034fd486010e6e65ba258b,PennController,16,0,experiment,NULL,PennController,15,_Trial_,End,1687287360152,5f26914cf3b6ba3eb2d8e906,5f26914cf3b6ba3eb2d8e906,13,mix,critical,D,25,mix15.jpg,mix35.jpg,high,NULL
1687287439,bf5768fed2034fd486010e6e65ba258b,PennController,7,0,experiment,NULL,PennController,6,_Trial_,Start,1687287360153,5f26914cf3b6ba3eb2d8e906,5f26914cf3b6ba3eb2d8e906,4,candy,critical,D,25,candy15.jpg,candy35.jpg,high,NULL
1687287439,bf5768fed2034fd486010e6e65ba258b,PennController,7,0,experiment,NULL,PennController,6,_Header_,Start,1687287360153,5f26914cf3b6ba3eb2d8e906,5f26914cf3b6ba3eb2d8e906,4,candy,critical,D,25,candy15.jpg,candy35.jpg,high,NULL
1687287439,bf5768fed2034fd486010e6e65ba258b,PennController,7,0,experiment,NULL,PennController,6,_Header_,End,1687287360153,5f26914cf3b6ba3eb2d8e906,5f26914cf3b6ba3eb2d8e906,4,candy,critical,D,25,candy15.jpg,candy35.jpg,high,NULL
1687287439,bf5768fed2034fd486010e6e65ba258b,PennController,7,0,experiment,NULL,Canvas,canvas6,Print,NA,1687287365850,5f26914cf3b6ba3eb2d8e906,5f26914cf3b6ba3eb2d8e906,4,candy,critical,D,25,candy15.jpg,candy35.jpg,high,NULL
1687287439,bf5768fed2034fd486010e6e65ba258b,PennController,7,0,experiment,NULL,Video,progression,buffer,0.005341,1687287363684,5f26914cf3b6ba3eb2d8e906,5f26914cf3b6ba3eb2d8e906,4,candy,critical,D,25,candy15.jpg,candy35.jpg,high,NULL
1687287439,bf5768fed2034fd486010e6e65ba258b,PennController,7,0,experiment,NULL,Selector,choice,Selection,option1,1687287367389,5f26914cf3b6ba3eb2d8e906,5f26914cf3b6ba3eb2d8e906,4,candy,critical,D,25,candy15.jpg,candy35.jpg,high,option1;option2
1687287439,bf5768fed2034fd486010e6e65ba258b,PennController,7,0,experiment,NULL,PennController,6,_Trial_,End,1687287367390,5f26914cf3b6ba3eb2d8e906,5f26914cf3b6ba3eb2d8e906,4,candy,critical,D,25,candy15.jpg,candy35.jpg,high,NULL
1687287439,bf5768fed2034fd486010e6e65ba258b,PennController,9,0,experiment,NULL,PennController,8,_Trial_,Start,1687287367391,5f26914cf3b6ba3eb2d8e906,5f26914cf3b6ba3eb2d8e906,6,flower,critical,D,75,flower65.jpg,flower85.jpg,high,NULL
1687287439,bf5768fed2034fd486010e6e65ba258b,PennController,9,0,experiment,NULL,PennController,8,_Header_,Start,1687287367391,5f26914cf3b6ba3eb2d8e906,5f26914cf3b6ba3eb2d8e906,6,flower,critical,D,75,flower65.jpg,flower85.jpg,high,NULL
1687287439,bf5768fed2034fd486010e6e65ba258b,PennController,9,0,experiment,NULL,PennController,8,_Header_,End,1687287367391,5f26914cf3b6ba3eb2d8e906,5f26914cf3b6ba3eb2d8e906,6,flower,critical,D,75,flower65.jpg,flower85.jpg,high,NULL
1687287439,bf5768fed2034fd486010e6e65ba258b,PennController,9,0,experiment,NULL,Canvas,canvas6,Print,NA,1687287375080,5f26914cf3b6ba3eb2d8e906,5f26914cf3b6ba3eb2d8e906,6,flower,critical,D,75,flower65.jpg,flower85.jpg,high,NULL
1687287439,bf5768fed2034fd486010e6e65ba258b,PennController,9,0,experiment,NULL,Video,progression,buffer,0.003182,1687287370909,5f26914cf3b6ba3eb2d8e906,5f26914cf3b6ba3eb2d8e906,6,flower,critical,D,75,flower65.jpg,flower85.jpg,high,NULL
1687287439,bf5768fed2034fd486010e6e65ba258b,PennController,9,0,experiment,NULL,Selector,choice,Selection,option2,1687287381204,5f26914cf3b6ba3eb2d8e906,5f26914cf3b6ba3eb2d8e906,6,flower,critical,D,75,flower65.jpg,flower85.jpg,high,option1;option2
1687287439,bf5768fed2034fd486010e6e65ba258b,PennController,9,0,experiment,NULL,PennController,8,_Trial_,End,1687287381205,5f26914cf3b6ba3eb2d8e906,5f26914cf3b6ba3eb2d8e906,6,flower,critical,D,75,flower65.jpg,flower85.jpg,high,NULL
1687287439,bf5768fed2034fd486010e6e65ba258b,PennController,19,0,experiment,NULL,PennController,18,_Trial_,Start,1687287381206,5f26914cf3b6ba3eb2d8e906,5f26914cf3b6ba3eb2d8e906,16,blinds,critical,D,25,blinds15.jpg,blinds33.jpg,high,NULL
1687287439,bf5768fed2034fd486010e6e65ba258b,PennController,19,0,experiment,NULL,PennController,18,_Header_,Start,1687287381206,5f26914cf3b6ba3eb2d8e906,5f26914cf3b6ba3eb2d8e906,16,blinds,critical,D,25,blinds15.jpg,blinds33.jpg,high,NULL
1687287439,bf5768fed2034fd486010e6e65ba258b,PennController,19,0,experiment,NULL,PennController,18,_Header_,End,1687287381206,5f26914cf3b6ba3eb2d8e906,5f26914cf3b6ba3eb2d8e906,16,blinds,critical,D,25,blinds15.jpg,blinds33.jpg,high,NULL
1687287439,bf5768fed2034fd486010e6e65ba258b,PennController,19,0,experiment,NULL,Canvas,canvas6,Print,NA,1687287387491,5f26914cf3b6ba3eb2d8e906,5f26914cf3b6ba3eb2d8e906,16,blinds,critical,D,25,blinds15.jpg,blinds33.jpg,high,NULL
1687287439,bf5768fed2034fd486010e6e65ba258b,PennController,19,0,experiment,NULL,Video,progression,buffer,0.001958,1687287384725,5f26914cf3b6ba3eb2d8e906,5f26914cf3b6ba3eb2d8e906,16,blinds,critical,D,25,blinds15.jpg,blinds33.jpg,high,NULL
1687287439,bf5768fed2034fd486010e6e65ba258b,PennController,19,0,experiment,NULL,Selector,choice,Selection,option2,1687287391745,5f26914cf3b6ba3eb2d8e906,5f26914cf3b6ba3eb2d8e906,16,blinds,critical,D,25,blinds15.jpg,blinds33.jpg,high,option2;option1
1687287439,bf5768fed2034fd486010e6e65ba258b,PennController,19,0,experiment,NULL,PennController,18,_Trial_,End,1687287391745,5f26914cf3b6ba3eb2d8e906,5f26914cf3b6ba3eb2d8e906,16,blinds,critical,D,25,blinds15.jpg,blinds33.jpg,high,NULL
1687287439,bf5768fed2034fd486010e6e65ba258b,PennController,5,0,experiment,NULL,PennController,4,_Trial_,Start,1687287391746,5f26914cf3b6ba3eb2d8e906,5f26914cf3b6ba3eb2d8e906,2,door,critical,D,50,door40.jpg,door60.jpg,high,NULL
1687287439,bf5768fed2034fd486010e6e65ba258b,PennController,5,0,experiment,NULL,PennController,4,_Header_,Start,1687287391746,5f26914cf3b6ba3eb2d8e906,5f26914cf3b6ba3eb2d8e906,2,door,critical,D,50,door40.jpg,door60.jpg,high,NULL
1687287439,bf5768fed2034fd486010e6e65ba258b,PennController,5,0,experiment,NULL,PennController,4,_Header_,End,1687287391746,5f26914cf3b6ba3eb2d8e906,5f26914cf3b6ba3eb2d8e906,2,door,critical,D,50,door40.jpg,door60.jpg,high,NULL
1687287439,bf5768fed2034fd486010e6e65ba258b,PennController,5,0,experiment,NULL,Canvas,canvas6,Print,NA,1687287398451,5f26914cf3b6ba3eb2d8e906,5f26914cf3b6ba3eb2d8e906,2,door,critical,D,50,door40.jpg,door60.jpg,high,NULL
1687287439,bf5768fed2034fd486010e6e65ba258b,PennController,5,0,experiment,NULL,Video,progression,buffer,0.006578,1687287395280,5f26914cf3b6ba3eb2d8e906,5f26914cf3b6ba3eb2d8e906,2,door,critical,D,50,door40.jpg,door60.jpg,high,NULL
1687287439,bf5768fed2034fd486010e6e65ba258b,PennController,5,0,experiment,NULL,Selector,choice,Selection,option2,1687287403164,5f26914cf3b6ba3eb2d8e906,5f26914cf3b6ba3eb2d8e906,2,door,critical,D,50,door40.jpg,door60.jpg,high,option2;option1
1687287439,bf5768fed2034fd486010e6e65ba258b,PennController,5,0,experiment,NULL,PennController,4,_Trial_,End,1687287403164,5f26914cf3b6ba3eb2d8e906,5f26914cf3b6ba3eb2d8e906,2,door,critical,D,50,door40.jpg,door60.jpg,high,NULL
1687287439,bf5768fed2034fd486010e6e65ba258b,PennController,6,0,experiment,NULL,PennController,5,_Trial_,Start,1687287403165,5f26914cf3b6ba3eb2d8e906,5f26914cf3b6ba3eb2d8e906,3,clean,critical,D,75,clean65.jpg,clean85.jpg,high,NULL
1687287439,bf5768fed2034fd486010e6e65ba258b,PennController,6,0,experiment,NULL,PennController,5,_Header_,Start,1687287403165,5f26914cf3b6ba3eb2d8e906,5f26914cf3b6ba3eb2d8e906,3,clean,critical,D,75,clean65.jpg,clean85.jpg,high,NULL
1687287439,bf5768fed2034fd486010e6e65ba258b,PennController,6,0,experiment,NULL,PennController,5,_Header_,End,1687287403165,5f26914cf3b6ba3eb2d8e906,5f26914cf3b6ba3eb2d8e906,3,clean,critical,D,75,clean65.jpg,clean85.jpg,high,NULL
1687287439,bf5768fed2034fd486010e6e65ba258b,PennController,6,0,experiment,NULL,Canvas,canvas6,Print,NA,1687287410843,5f26914cf3b6ba3eb2d8e906,5f26914cf3b6ba3eb2d8e906,3,clean,critical,D,75,clean65.jpg,clean85.jpg,high,NULL
1687287439,bf5768fed2034fd486010e6e65ba258b,PennController,6,0,experiment,NULL,Video,progression,buffer,0.001409,1687287406685,5f26914cf3b6ba3eb2d8e906,5f26914cf3b6ba3eb2d8e906,3,clean,critical,D,75,clean65.jpg,clean85.jpg,high,NULL
1687287439,bf5768fed2034fd486010e6e65ba258b,PennController,6,0,experiment,NULL,Selector,choice,Selection,option1,1687287413153,5f26914cf3b6ba3eb2d8e906,5f26914cf3b6ba3eb2d8e906,3,clean,critical,D,75,clean65.jpg,clean85.jpg,high,option1;option2
1687287439,bf5768fed2034fd486010e6e65ba258b,PennController,6,0,experiment,NULL,PennController,5,_Trial_,End,1687287413154,5f26914cf3b6ba3eb2d8e906,5f26914cf3b6ba3eb2d8e906,3,clean,critical,D,75,clean65.jpg,clean85.jpg,high,NULL
1687287439,bf5768fed2034fd486010e6e65ba258b,PennController,23,0,experiment,NULL,PennController,22,_Trial_,Start,1687287413155,5f26914cf3b6ba3eb2d8e906,5f26914cf3b6ba3eb2d8e906,20,cat,filler,D,50,cat40.jpg,cat60.jpg,GoalA,NULL
1687287439,bf5768fed2034fd486010e6e65ba258b,PennController,23,0,experiment,NULL,PennController,22,_Header_,Start,1687287413155,5f26914cf3b6ba3eb2d8e906,5f26914cf3b6ba3eb2d8e906,20,cat,filler,D,50,cat40.jpg,cat60.jpg,GoalA,NULL
1687287439,bf5768fed2034fd486010e6e65ba258b,PennController,23,0,experiment,NULL,PennController,22,_Header_,End,1687287413155,5f26914cf3b6ba3eb2d8e906,5f26914cf3b6ba3eb2d8e906,20,cat,filler,D,50,cat40.jpg,cat60.jpg,GoalA,NULL
1687287439,bf5768fed2034fd486010e6e65ba258b,PennController,23,0,experiment,NULL,Canvas,canvas6,Print,NA,1687287419850,5f26914cf3b6ba3eb2d8e906,5f26914cf3b6ba3eb2d8e906,20,cat,filler,D,50,cat40.jpg,cat60.jpg,GoalA,NULL
1687287439,bf5768fed2034fd486010e6e65ba258b,PennController,23,0,experiment,NULL,Video,progression,buffer,0.001599,1687287416684,5f26914cf3b6ba3eb2d8e906,5f26914cf3b6ba3eb2d8e906,20,cat,filler,D,50,cat40.jpg,cat60.jpg,GoalA,NULL
1687287439,bf5768fed2034fd486010e6e65ba258b,PennController,23,0,experiment,NULL,Selector,choice,Selection,option2,1687287422036,5f26914cf3b6ba3eb2d8e906,5f26914cf3b6ba3eb2d8e906,20,cat,filler,D,50,cat40.jpg,cat60.jpg,GoalA,option2;option1
1687287439,bf5768fed2034fd486010e6e65ba258b,PennController,23,0,experiment,NULL,PennController,22,_Trial_,End,1687287422037,5f26914cf3b6ba3eb2d8e906,5f26914cf3b6ba3eb2d8e906,20,cat,filler,D,50,cat40.jpg,cat60.jpg,GoalA,NULL
1687287439,bf5768fed2034fd486010e6e65ba258b,PennController,24,0,experiment,NULL,PennController,23,_Trial_,Start,1687287422038,5f26914cf3b6ba3eb2d8e906,5f26914cf3b6ba3eb2d8e906,21,visit,filler,D,75,visit65.jpg,visit85.jpg,GoalB,NULL
1687287439,bf5768fed2034fd486010e6e65ba258b,PennController,24,0,experiment,NULL,PennController,23,_Header_,Start,1687287422038,5f26914cf3b6ba3eb2d8e906,5f26914cf3b6ba3eb2d8e906,21,visit,filler,D,75,visit65.jpg,visit85.jpg,GoalB,NULL
1687287439,bf5768fed2034fd486010e6e65ba258b,PennController,24,0,experiment,NULL,PennController,23,_Header_,End,1687287422038,5f26914cf3b6ba3eb2d8e906,5f26914cf3b6ba3eb2d8e906,21,visit,filler,D,75,visit65.jpg,visit85.jpg,GoalB,NULL
1687287439,bf5768fed2034fd486010e6e65ba258b,PennController,24,0,experiment,NULL,Canvas,canvas6,Print,NA,1687287429728,5f26914cf3b6ba3eb2d8e906,5f26914cf3b6ba3eb2d8e906,21,visit,filler,D,75,visit65.jpg,visit85.jpg,GoalB,NULL
1687287439,bf5768fed2034fd486010e6e65ba258b,PennController,24,0,experiment,NULL,Video,progression,buffer,0.006417,1687287425562,5f26914cf3b6ba3eb2d8e906,5f26914cf3b6ba3eb2d8e906,21,visit,filler,D,75,visit65.jpg,visit85.jpg,GoalB,NULL
1687287439,bf5768fed2034fd486010e6e65ba258b,PennController,24,0,experiment,NULL,Selector,choice,Selection,option2,1687287431366,5f26914cf3b6ba3eb2d8e906,5f26914cf3b6ba3eb2d8e906,21,visit,filler,D,75,visit65.jpg,visit85.jpg,GoalB,option2;option1
1687287439,bf5768fed2034fd486010e6e65ba258b,PennController,24,0,experiment,NULL,PennController,23,_Trial_,End,1687287431367,5f26914cf3b6ba3eb2d8e906,5f26914cf3b6ba3eb2d8e906,21,visit,filler,D,75,visit65.jpg,visit85.jpg,GoalB,NULL
1687287439,bf5768fed2034fd486010e6e65ba258b,PennController,25,0,experiment,NULL,PennController,24,_Trial_,Start,1687287431368,5f26914cf3b6ba3eb2d8e906,5f26914cf3b6ba3eb2d8e906,22,wall,filler,D,25,wall15.jpg,wall35.jpg,GoalA,NULL
1687287439,bf5768fed2034fd486010e6e65ba258b,PennController,25,0,experiment,NULL,PennController,24,_Header_,Start,1687287431368,5f26914cf3b6ba3eb2d8e906,5f26914cf3b6ba3eb2d8e906,22,wall,filler,D,25,wall15.jpg,wall35.jpg,GoalA,NULL
1687287439,bf5768fed2034fd486010e6e65ba258b,PennController,25,0,experiment,NULL,PennController,24,_Header_,End,1687287431368,5f26914cf3b6ba3eb2d8e906,5f26914cf3b6ba3eb2d8e906,22,wall,filler,D,25,wall15.jpg,wall35.jpg,GoalA,NULL
1687287439,bf5768fed2034fd486010e6e65ba258b,PennController,25,0,experiment,NULL,Canvas,canvas6,Print,NA,1687287437061,5f26914cf3b6ba3eb2d8e906,5f26914cf3b6ba3eb2d8e906,22,wall,filler,D,25,wall15.jpg,wall35.jpg,GoalA,NULL
1687287439,bf5768fed2034fd486010e6e65ba258b,PennController,25,0,experiment,NULL,Video,progression,buffer,0.0088,1687287434903,5f26914cf3b6ba3eb2d8e906,5f26914cf3b6ba3eb2d8e906,22,wall,filler,D,25,wall15.jpg,wall35.jpg,GoalA,NULL
1687287439,bf5768fed2034fd486010e6e65ba258b,PennController,25,0,experiment,NULL,Selector,choice,Selection,option1,1687287438076,5f26914cf3b6ba3eb2d8e906,5f26914cf3b6ba3eb2d8e906,22,wall,filler,D,25,wall15.jpg,wall35.jpg,GoalA,option1;option2
1687287439,bf5768fed2034fd486010e6e65ba258b,PennController,25,0,experiment,NULL,PennController,24,_Trial_,End,1687287438076,5f26914cf3b6ba3eb2d8e906,5f26914cf3b6ba3eb2d8e906,22,wall,filler,D,25,wall15.jpg,wall35.jpg,GoalA,NULL
