#
# Results on Thursday June 22 2023 05:22:47 UTC
# USER AGENT: Mozilla/5.0 (Windows NT 10.0; Win64; x64) AppleWebKit/537.36 (KHTML, like Gecko) Chrome/114.0.0.0 Safari/537.36
# Design number was non-random = 80
#
# Columns below this comment are as follows:
# 1. Results reception time.
# 2. MD5 hash of participant's IP address.
# 3. Controller name.
# 4. Order number of item.
# 5. Inner element number.
# 6. Label.
# 7. Latin Square Group.
# 8. PennElementType.
# 9. PennElementName.
# 10. Parameter.
# 11. Value.
# 12. EventTime.
# 13. PROLIFIC_ID.
# 14. Comments.
1687411367,8da2c80c14ceb2b25da68a1ded69cf23,PennController,3,0,consent,NULL,PennController,0,_Trial_,Start,1687410851742,616b06e97addc4a9a638909e,NULL
1687411367,8da2c80c14ceb2b25da68a1ded69cf23,PennController,3,0,consent,NULL,PennController,0,_Header_,Start,1687410851742,616b06e97addc4a9a638909e,NULL
1687411367,8da2c80c14ceb2b25da68a1ded69cf23,PennController,3,0,consent,NULL,PennController,0,_Header_,End,1687410851749,616b06e97addc4a9a638909e,NULL
1687411367,8da2c80c14ceb2b25da68a1ded69cf23,PennController,3,0,consent,NULL,PennController,0,_Trial_,End,1687410872441,616b06e97addc4a9a638909e,NULL
# Columns below this comment are as follows:
# 14. ID.
# 15. Comments.
1687411367,8da2c80c14ceb2b25da68a1ded69cf23,PennController,4,0,intro,NULL,PennController,1,_Trial_,Start,1687410872447,616b06e97addc4a9a638909e,616b06e97addc4a9a638909e,NULL
1687411367,8da2c80c14ceb2b25da68a1ded69cf23,PennController,4,0,intro,NULL,PennController,1,_Header_,Start,1687410872447,616b06e97addc4a9a638909e,616b06e97addc4a9a638909e,NULL
1687411367,8da2c80c14ceb2b25da68a1ded69cf23,PennController,4,0,intro,NULL,PennController,1,_Header_,End,1687410872447,616b06e97addc4a9a638909e,616b06e97addc4a9a638909e,NULL
1687411367,8da2c80c14ceb2b25da68a1ded69cf23,PennController,4,0,intro,NULL,PennController,1,_Trial_,End,1687411046198,616b06e97addc4a9a638909e,616b06e97addc4a9a638909e,NULL
# Columns below this comment are as follows:
# 15. item_number.
# 16. item.
# 17. type.
# 18. Group.
# 19. prog.
# 20. prev_image.
# 21. next_image.
# 22. height.
# 23. Comments.
1687411367,8da2c80c14ceb2b25da68a1ded69cf23,PennController,15,0,experiment,NULL,PennController,13,_Trial_,Start,1687411046202,616b06e97addc4a9a638909e,616b06e97addc4a9a638909e,11,beads,critical,E,75,beads65.jpg,beads85.jpg,high,NULL
1687411367,8da2c80c14ceb2b25da68a1ded69cf23,PennController,15,0,experiment,NULL,PennController,13,_Header_,Start,1687411046202,616b06e97addc4a9a638909e,616b06e97addc4a9a638909e,11,beads,critical,E,75,beads65.jpg,beads85.jpg,high,NULL
1687411367,8da2c80c14ceb2b25da68a1ded69cf23,PennController,15,0,experiment,NULL,PennController,13,_Header_,End,1687411046203,616b06e97addc4a9a638909e,616b06e97addc4a9a638909e,11,beads,critical,E,75,beads65.jpg,beads85.jpg,high,NULL
1687411367,8da2c80c14ceb2b25da68a1ded69cf23,PennController,15,0,experiment,NULL,Canvas,canvas6,Print,NA,1687411053993,616b06e97addc4a9a638909e,616b06e97addc4a9a638909e,11,beads,critical,E,75,beads65.jpg,beads85.jpg,high,NULL
1687411367,8da2c80c14ceb2b25da68a1ded69cf23,PennController,15,0,experiment,NULL,Video,progression,buffer,0.01617,1687411049805,616b06e97addc4a9a638909e,616b06e97addc4a9a638909e,11,beads,critical,E,75,beads65.jpg,beads85.jpg,high,NULL
1687411367,8da2c80c14ceb2b25da68a1ded69cf23,PennController,15,0,experiment,NULL,Selector,choice,Selection,option1,1687411059424,616b06e97addc4a9a638909e,616b06e97addc4a9a638909e,11,beads,critical,E,75,beads65.jpg,beads85.jpg,high,option2;option1
1687411367,8da2c80c14ceb2b25da68a1ded69cf23,PennController,15,0,experiment,NULL,PennController,13,_Trial_,End,1687411059426,616b06e97addc4a9a638909e,616b06e97addc4a9a638909e,11,beads,critical,E,75,beads65.jpg,beads85.jpg,high,NULL
1687411367,8da2c80c14ceb2b25da68a1ded69cf23,PennController,19,0,experiment,NULL,PennController,17,_Trial_,Start,1687411059430,616b06e97addc4a9a638909e,616b06e97addc4a9a638909e,15,zip,critical,E,25,zip15.jpg,zip35.jpg,high,NULL
1687411367,8da2c80c14ceb2b25da68a1ded69cf23,PennController,19,0,experiment,NULL,PennController,17,_Header_,Start,1687411059430,616b06e97addc4a9a638909e,616b06e97addc4a9a638909e,15,zip,critical,E,25,zip15.jpg,zip35.jpg,high,NULL
1687411367,8da2c80c14ceb2b25da68a1ded69cf23,PennController,19,0,experiment,NULL,PennController,17,_Header_,End,1687411059430,616b06e97addc4a9a638909e,616b06e97addc4a9a638909e,15,zip,critical,E,25,zip15.jpg,zip35.jpg,high,NULL
1687411367,8da2c80c14ceb2b25da68a1ded69cf23,PennController,19,0,experiment,NULL,Canvas,canvas6,Print,NA,1687411065147,616b06e97addc4a9a638909e,616b06e97addc4a9a638909e,15,zip,critical,E,25,zip15.jpg,zip35.jpg,high,NULL
1687411367,8da2c80c14ceb2b25da68a1ded69cf23,PennController,19,0,experiment,NULL,Video,progression,buffer,0.014075,1687411062984,616b06e97addc4a9a638909e,616b06e97addc4a9a638909e,15,zip,critical,E,25,zip15.jpg,zip35.jpg,high,NULL
1687411367,8da2c80c14ceb2b25da68a1ded69cf23,PennController,19,0,experiment,NULL,Selector,choice,Selection,option1,1687411076286,616b06e97addc4a9a638909e,616b06e97addc4a9a638909e,15,zip,critical,E,25,zip15.jpg,zip35.jpg,high,option2;option1
1687411367,8da2c80c14ceb2b25da68a1ded69cf23,PennController,19,0,experiment,NULL,PennController,17,_Trial_,End,1687411076288,616b06e97addc4a9a638909e,616b06e97addc4a9a638909e,15,zip,critical,E,25,zip15.jpg,zip35.jpg,high,NULL
1687411367,8da2c80c14ceb2b25da68a1ded69cf23,PennController,26,0,experiment,NULL,PennController,24,_Trial_,Start,1687411076289,616b06e97addc4a9a638909e,616b06e97addc4a9a638909e,22,wall,filler,E,50,wall40.jpg,wall60.jpg,GoalA,NULL
1687411367,8da2c80c14ceb2b25da68a1ded69cf23,PennController,26,0,experiment,NULL,PennController,24,_Header_,Start,1687411076289,616b06e97addc4a9a638909e,616b06e97addc4a9a638909e,22,wall,filler,E,50,wall40.jpg,wall60.jpg,GoalA,NULL
1687411367,8da2c80c14ceb2b25da68a1ded69cf23,PennController,26,0,experiment,NULL,PennController,24,_Header_,End,1687411076289,616b06e97addc4a9a638909e,616b06e97addc4a9a638909e,22,wall,filler,E,50,wall40.jpg,wall60.jpg,GoalA,NULL
1687411367,8da2c80c14ceb2b25da68a1ded69cf23,PennController,26,0,experiment,NULL,Canvas,canvas6,Print,NA,1687411082996,616b06e97addc4a9a638909e,616b06e97addc4a9a638909e,22,wall,filler,E,50,wall40.jpg,wall60.jpg,GoalA,NULL
1687411367,8da2c80c14ceb2b25da68a1ded69cf23,PennController,26,0,experiment,NULL,Video,progression,buffer,0.009725,1687411079832,616b06e97addc4a9a638909e,616b06e97addc4a9a638909e,22,wall,filler,E,50,wall40.jpg,wall60.jpg,GoalA,NULL
1687411367,8da2c80c14ceb2b25da68a1ded69cf23,PennController,26,0,experiment,NULL,Selector,choice,Selection,option2,1687411087037,616b06e97addc4a9a638909e,616b06e97addc4a9a638909e,22,wall,filler,E,50,wall40.jpg,wall60.jpg,GoalA,option1;option2
1687411367,8da2c80c14ceb2b25da68a1ded69cf23,PennController,26,0,experiment,NULL,PennController,24,_Trial_,End,1687411087039,616b06e97addc4a9a638909e,616b06e97addc4a9a638909e,22,wall,filler,E,50,wall40.jpg,wall60.jpg,GoalA,NULL
1687411367,8da2c80c14ceb2b25da68a1ded69cf23,PennController,10,0,experiment,NULL,PennController,8,_Trial_,Start,1687411087042,616b06e97addc4a9a638909e,616b06e97addc4a9a638909e,6,flower,critical,E,25,flower15.jpg,flower35.jpg,high,NULL
1687411367,8da2c80c14ceb2b25da68a1ded69cf23,PennController,10,0,experiment,NULL,PennController,8,_Header_,Start,1687411087042,616b06e97addc4a9a638909e,616b06e97addc4a9a638909e,6,flower,critical,E,25,flower15.jpg,flower35.jpg,high,NULL
1687411367,8da2c80c14ceb2b25da68a1ded69cf23,PennController,10,0,experiment,NULL,PennController,8,_Header_,End,1687411087042,616b06e97addc4a9a638909e,616b06e97addc4a9a638909e,6,flower,critical,E,25,flower15.jpg,flower35.jpg,high,NULL
1687411367,8da2c80c14ceb2b25da68a1ded69cf23,PennController,10,0,experiment,NULL,Canvas,canvas6,Print,NA,1687411092769,616b06e97addc4a9a638909e,616b06e97addc4a9a638909e,6,flower,critical,E,25,flower15.jpg,flower35.jpg,high,NULL
1687411367,8da2c80c14ceb2b25da68a1ded69cf23,PennController,10,0,experiment,NULL,Video,progression,buffer,0.015675,1687411090600,616b06e97addc4a9a638909e,616b06e97addc4a9a638909e,6,flower,critical,E,25,flower15.jpg,flower35.jpg,high,NULL
1687411367,8da2c80c14ceb2b25da68a1ded69cf23,PennController,10,0,experiment,NULL,Selector,choice,Selection,option1,1687411094062,616b06e97addc4a9a638909e,616b06e97addc4a9a638909e,6,flower,critical,E,25,flower15.jpg,flower35.jpg,high,option1;option2
1687411367,8da2c80c14ceb2b25da68a1ded69cf23,PennController,10,0,experiment,NULL,PennController,8,_Trial_,End,1687411094063,616b06e97addc4a9a638909e,616b06e97addc4a9a638909e,6,flower,critical,E,25,flower15.jpg,flower35.jpg,high,NULL
1687411367,8da2c80c14ceb2b25da68a1ded69cf23,PennController,11,0,experiment,NULL,PennController,9,_Trial_,Start,1687411094064,616b06e97addc4a9a638909e,616b06e97addc4a9a638909e,7,stack,critical,E,50,stack40.jpg,stack60.jpg,high,NULL
1687411367,8da2c80c14ceb2b25da68a1ded69cf23,PennController,11,0,experiment,NULL,PennController,9,_Header_,Start,1687411094064,616b06e97addc4a9a638909e,616b06e97addc4a9a638909e,7,stack,critical,E,50,stack40.jpg,stack60.jpg,high,NULL
1687411367,8da2c80c14ceb2b25da68a1ded69cf23,PennController,11,0,experiment,NULL,PennController,9,_Header_,End,1687411094064,616b06e97addc4a9a638909e,616b06e97addc4a9a638909e,7,stack,critical,E,50,stack40.jpg,stack60.jpg,high,NULL
1687411367,8da2c80c14ceb2b25da68a1ded69cf23,PennController,11,0,experiment,NULL,Canvas,canvas6,Print,NA,1687411100791,616b06e97addc4a9a638909e,616b06e97addc4a9a638909e,7,stack,critical,E,50,stack40.jpg,stack60.jpg,high,NULL
1687411367,8da2c80c14ceb2b25da68a1ded69cf23,PennController,11,0,experiment,NULL,Video,progression,buffer,0.024612,1687411097629,616b06e97addc4a9a638909e,616b06e97addc4a9a638909e,7,stack,critical,E,50,stack40.jpg,stack60.jpg,high,NULL
1687411367,8da2c80c14ceb2b25da68a1ded69cf23,PennController,11,0,experiment,NULL,Selector,choice,Selection,option2,1687411104335,616b06e97addc4a9a638909e,616b06e97addc4a9a638909e,7,stack,critical,E,50,stack40.jpg,stack60.jpg,high,option2;option1
1687411367,8da2c80c14ceb2b25da68a1ded69cf23,PennController,11,0,experiment,NULL,PennController,9,_Trial_,End,1687411104336,616b06e97addc4a9a638909e,616b06e97addc4a9a638909e,7,stack,critical,E,50,stack40.jpg,stack60.jpg,high,NULL
1687411367,8da2c80c14ceb2b25da68a1ded69cf23,PennController,33,0,experiment,NULL,PennController,31,_Trial_,Start,1687411104338,616b06e97addc4a9a638909e,616b06e97addc4a9a638909e,29,frog,filler,E,75,frog65.jpg,frog85.jpg,GoalB,NULL
1687411367,8da2c80c14ceb2b25da68a1ded69cf23,PennController,33,0,experiment,NULL,PennController,31,_Header_,Start,1687411104338,616b06e97addc4a9a638909e,616b06e97addc4a9a638909e,29,frog,filler,E,75,frog65.jpg,frog85.jpg,GoalB,NULL
1687411367,8da2c80c14ceb2b25da68a1ded69cf23,PennController,33,0,experiment,NULL,PennController,31,_Header_,End,1687411104338,616b06e97addc4a9a638909e,616b06e97addc4a9a638909e,29,frog,filler,E,75,frog65.jpg,frog85.jpg,GoalB,NULL
1687411367,8da2c80c14ceb2b25da68a1ded69cf23,PennController,33,0,experiment,NULL,Canvas,canvas6,Print,NA,1687411112061,616b06e97addc4a9a638909e,616b06e97addc4a9a638909e,29,frog,filler,E,75,frog65.jpg,frog85.jpg,GoalB,NULL
1687411367,8da2c80c14ceb2b25da68a1ded69cf23,PennController,33,0,experiment,NULL,Video,progression,buffer,0.016422,1687411107893,616b06e97addc4a9a638909e,616b06e97addc4a9a638909e,29,frog,filler,E,75,frog65.jpg,frog85.jpg,GoalB,NULL
1687411367,8da2c80c14ceb2b25da68a1ded69cf23,PennController,33,0,experiment,NULL,Selector,choice,Selection,option1,1687411113642,616b06e97addc4a9a638909e,616b06e97addc4a9a638909e,29,frog,filler,E,75,frog65.jpg,frog85.jpg,GoalB,option2;option1
1687411367,8da2c80c14ceb2b25da68a1ded69cf23,PennController,33,0,experiment,NULL,PennController,31,_Trial_,End,1687411113646,616b06e97addc4a9a638909e,616b06e97addc4a9a638909e,29,frog,filler,E,75,frog65.jpg,frog85.jpg,GoalB,NULL
1687411367,8da2c80c14ceb2b25da68a1ded69cf23,PennController,29,0,experiment,NULL,PennController,27,_Trial_,Start,1687411113650,616b06e97addc4a9a638909e,616b06e97addc4a9a638909e,25,house,filler,E,50,house40.jpg,house60.jpg,GoalB,NULL
1687411367,8da2c80c14ceb2b25da68a1ded69cf23,PennController,29,0,experiment,NULL,PennController,27,_Header_,Start,1687411113650,616b06e97addc4a9a638909e,616b06e97addc4a9a638909e,25,house,filler,E,50,house40.jpg,house60.jpg,GoalB,NULL
1687411367,8da2c80c14ceb2b25da68a1ded69cf23,PennController,29,0,experiment,NULL,PennController,27,_Header_,End,1687411113651,616b06e97addc4a9a638909e,616b06e97addc4a9a638909e,25,house,filler,E,50,house40.jpg,house60.jpg,GoalB,NULL
1687411367,8da2c80c14ceb2b25da68a1ded69cf23,PennController,29,0,experiment,NULL,Canvas,canvas6,Print,NA,1687411120383,616b06e97addc4a9a638909e,616b06e97addc4a9a638909e,25,house,filler,E,50,house40.jpg,house60.jpg,GoalB,NULL
1687411367,8da2c80c14ceb2b25da68a1ded69cf23,PennController,29,0,experiment,NULL,Video,progression,buffer,0.01429,1687411117217,616b06e97addc4a9a638909e,616b06e97addc4a9a638909e,25,house,filler,E,50,house40.jpg,house60.jpg,GoalB,NULL
1687411367,8da2c80c14ceb2b25da68a1ded69cf23,PennController,29,0,experiment,NULL,Selector,choice,Selection,option2,1687411122829,616b06e97addc4a9a638909e,616b06e97addc4a9a638909e,25,house,filler,E,50,house40.jpg,house60.jpg,GoalB,option1;option2
1687411367,8da2c80c14ceb2b25da68a1ded69cf23,PennController,29,0,experiment,NULL,PennController,27,_Trial_,End,1687411122833,616b06e97addc4a9a638909e,616b06e97addc4a9a638909e,25,house,filler,E,50,house40.jpg,house60.jpg,GoalB,NULL
1687411367,8da2c80c14ceb2b25da68a1ded69cf23,PennController,6,0,experiment,NULL,PennController,4,_Trial_,Start,1687411122837,616b06e97addc4a9a638909e,616b06e97addc4a9a638909e,2,door,critical,E,75,door65.jpg,door85.jpg,high,NULL
1687411367,8da2c80c14ceb2b25da68a1ded69cf23,PennController,6,0,experiment,NULL,PennController,4,_Header_,Start,1687411122837,616b06e97addc4a9a638909e,616b06e97addc4a9a638909e,2,door,critical,E,75,door65.jpg,door85.jpg,high,NULL
1687411367,8da2c80c14ceb2b25da68a1ded69cf23,PennController,6,0,experiment,NULL,PennController,4,_Header_,End,1687411122837,616b06e97addc4a9a638909e,616b06e97addc4a9a638909e,2,door,critical,E,75,door65.jpg,door85.jpg,high,NULL
1687411367,8da2c80c14ceb2b25da68a1ded69cf23,PennController,6,0,experiment,NULL,Canvas,canvas6,Print,NA,1687411130625,616b06e97addc4a9a638909e,616b06e97addc4a9a638909e,2,door,critical,E,75,door65.jpg,door85.jpg,high,NULL
1687411367,8da2c80c14ceb2b25da68a1ded69cf23,PennController,6,0,experiment,NULL,Video,progression,buffer,0,1687411126402,616b06e97addc4a9a638909e,616b06e97addc4a9a638909e,2,door,critical,E,75,door65.jpg,door85.jpg,high,NULL
1687411367,8da2c80c14ceb2b25da68a1ded69cf23,PennController,6,0,experiment,NULL,Selector,choice,Selection,option1,1687411132832,616b06e97addc4a9a638909e,616b06e97addc4a9a638909e,2,door,critical,E,75,door65.jpg,door85.jpg,high,option2;option1
1687411367,8da2c80c14ceb2b25da68a1ded69cf23,PennController,6,0,experiment,NULL,PennController,4,_Trial_,End,1687411132837,616b06e97addc4a9a638909e,616b06e97addc4a9a638909e,2,door,critical,E,75,door65.jpg,door85.jpg,high,NULL
1687411367,8da2c80c14ceb2b25da68a1ded69cf23,PennController,23,0,experiment,NULL,PennController,21,_Trial_,Start,1687411132839,616b06e97addc4a9a638909e,616b06e97addc4a9a638909e,19,cup,filler,E,50,cup40.jpg,cup60.jpg,GoalB,NULL
1687411367,8da2c80c14ceb2b25da68a1ded69cf23,PennController,23,0,experiment,NULL,PennController,21,_Header_,Start,1687411132839,616b06e97addc4a9a638909e,616b06e97addc4a9a638909e,19,cup,filler,E,50,cup40.jpg,cup60.jpg,GoalB,NULL
1687411367,8da2c80c14ceb2b25da68a1ded69cf23,PennController,23,0,experiment,NULL,PennController,21,_Header_,End,1687411132840,616b06e97addc4a9a638909e,616b06e97addc4a9a638909e,19,cup,filler,E,50,cup40.jpg,cup60.jpg,GoalB,NULL
1687411367,8da2c80c14ceb2b25da68a1ded69cf23,PennController,23,0,experiment,NULL,Canvas,canvas6,Print,NA,1687411139550,616b06e97addc4a9a638909e,616b06e97addc4a9a638909e,19,cup,filler,E,50,cup40.jpg,cup60.jpg,GoalB,NULL
1687411367,8da2c80c14ceb2b25da68a1ded69cf23,PennController,23,0,experiment,NULL,Video,progression,buffer,0.011618,1687411136386,616b06e97addc4a9a638909e,616b06e97addc4a9a638909e,19,cup,filler,E,50,cup40.jpg,cup60.jpg,GoalB,NULL
1687411367,8da2c80c14ceb2b25da68a1ded69cf23,PennController,23,0,experiment,NULL,Selector,choice,Selection,option1,1687411141762,616b06e97addc4a9a638909e,616b06e97addc4a9a638909e,19,cup,filler,E,50,cup40.jpg,cup60.jpg,GoalB,option2;option1
1687411367,8da2c80c14ceb2b25da68a1ded69cf23,PennController,23,0,experiment,NULL,PennController,21,_Trial_,End,1687411141766,616b06e97addc4a9a638909e,616b06e97addc4a9a638909e,19,cup,filler,E,50,cup40.jpg,cup60.jpg,GoalB,NULL
1687411367,8da2c80c14ceb2b25da68a1ded69cf23,PennController,24,0,experiment,NULL,PennController,22,_Trial_,Start,1687411141768,616b06e97addc4a9a638909e,616b06e97addc4a9a638909e,20,cat,filler,E,75,cat65.jpg,cat85.jpg,GoalA,NULL
1687411367,8da2c80c14ceb2b25da68a1ded69cf23,PennController,24,0,experiment,NULL,PennController,22,_Header_,Start,1687411141768,616b06e97addc4a9a638909e,616b06e97addc4a9a638909e,20,cat,filler,E,75,cat65.jpg,cat85.jpg,GoalA,NULL
1687411367,8da2c80c14ceb2b25da68a1ded69cf23,PennController,24,0,experiment,NULL,PennController,22,_Header_,End,1687411141769,616b06e97addc4a9a638909e,616b06e97addc4a9a638909e,20,cat,filler,E,75,cat65.jpg,cat85.jpg,GoalA,NULL
1687411367,8da2c80c14ceb2b25da68a1ded69cf23,PennController,24,0,experiment,NULL,Canvas,canvas6,Print,NA,1687411149491,616b06e97addc4a9a638909e,616b06e97addc4a9a638909e,20,cat,filler,E,75,cat65.jpg,cat85.jpg,GoalA,NULL
1687411367,8da2c80c14ceb2b25da68a1ded69cf23,PennController,24,0,experiment,NULL,Video,progression,buffer,0.00942,1687411145328,616b06e97addc4a9a638909e,616b06e97addc4a9a638909e,20,cat,filler,E,75,cat65.jpg,cat85.jpg,GoalA,NULL
1687411367,8da2c80c14ceb2b25da68a1ded69cf23,PennController,24,0,experiment,NULL,Selector,choice,Selection,option2,1687411151153,616b06e97addc4a9a638909e,616b06e97addc4a9a638909e,20,cat,filler,E,75,cat65.jpg,cat85.jpg,GoalA,option1;option2
1687411367,8da2c80c14ceb2b25da68a1ded69cf23,PennController,24,0,experiment,NULL,PennController,22,_Trial_,End,1687411151158,616b06e97addc4a9a638909e,616b06e97addc4a9a638909e,20,cat,filler,E,75,cat65.jpg,cat85.jpg,GoalA,NULL
1687411367,8da2c80c14ceb2b25da68a1ded69cf23,PennController,32,0,experiment,NULL,PennController,30,_Trial_,Start,1687411151161,616b06e97addc4a9a638909e,616b06e97addc4a9a638909e,28,sort,filler,E,50,sort40.jpg,sort60.jpg,GoalA,NULL
1687411367,8da2c80c14ceb2b25da68a1ded69cf23,PennController,32,0,experiment,NULL,PennController,30,_Header_,Start,1687411151161,616b06e97addc4a9a638909e,616b06e97addc4a9a638909e,28,sort,filler,E,50,sort40.jpg,sort60.jpg,GoalA,NULL
1687411367,8da2c80c14ceb2b25da68a1ded69cf23,PennController,32,0,experiment,NULL,PennController,30,_Header_,End,1687411151162,616b06e97addc4a9a638909e,616b06e97addc4a9a638909e,28,sort,filler,E,50,sort40.jpg,sort60.jpg,GoalA,NULL
1687411367,8da2c80c14ceb2b25da68a1ded69cf23,PennController,32,0,experiment,NULL,Canvas,canvas6,Print,NA,1687411157888,616b06e97addc4a9a638909e,616b06e97addc4a9a638909e,28,sort,filler,E,50,sort40.jpg,sort60.jpg,GoalA,NULL
1687411367,8da2c80c14ceb2b25da68a1ded69cf23,PennController,32,0,experiment,NULL,Video,progression,buffer,0.013675,1687411154727,616b06e97addc4a9a638909e,616b06e97addc4a9a638909e,28,sort,filler,E,50,sort40.jpg,sort60.jpg,GoalA,NULL
1687411367,8da2c80c14ceb2b25da68a1ded69cf23,PennController,32,0,experiment,NULL,Selector,choice,Selection,option1,1687411162399,616b06e97addc4a9a638909e,616b06e97addc4a9a638909e,28,sort,filler,E,50,sort40.jpg,sort60.jpg,GoalA,option2;option1
1687411367,8da2c80c14ceb2b25da68a1ded69cf23,PennController,32,0,experiment,NULL,PennController,30,_Trial_,End,1687411162402,616b06e97addc4a9a638909e,616b06e97addc4a9a638909e,28,sort,filler,E,50,sort40.jpg,sort60.jpg,GoalA,NULL
1687411367,8da2c80c14ceb2b25da68a1ded69cf23,PennController,16,0,experiment,NULL,PennController,14,_Trial_,Start,1687411162405,616b06e97addc4a9a638909e,616b06e97addc4a9a638909e,12,erase,critical,E,25,erase15.jpg,erase33.jpg,high,NULL
1687411367,8da2c80c14ceb2b25da68a1ded69cf23,PennController,16,0,experiment,NULL,PennController,14,_Header_,Start,1687411162405,616b06e97addc4a9a638909e,616b06e97addc4a9a638909e,12,erase,critical,E,25,erase15.jpg,erase33.jpg,high,NULL
1687411367,8da2c80c14ceb2b25da68a1ded69cf23,PennController,16,0,experiment,NULL,PennController,14,_Header_,End,1687411162405,616b06e97addc4a9a638909e,616b06e97addc4a9a638909e,12,erase,critical,E,25,erase15.jpg,erase33.jpg,high,NULL
1687411367,8da2c80c14ceb2b25da68a1ded69cf23,PennController,16,0,experiment,NULL,Canvas,canvas6,Print,NA,1687411168728,616b06e97addc4a9a638909e,616b06e97addc4a9a638909e,12,erase,critical,E,25,erase15.jpg,erase33.jpg,high,NULL
1687411367,8da2c80c14ceb2b25da68a1ded69cf23,PennController,16,0,experiment,NULL,Video,progression,buffer,0.014369,1687411165960,616b06e97addc4a9a638909e,616b06e97addc4a9a638909e,12,erase,critical,E,25,erase15.jpg,erase33.jpg,high,NULL
1687411367,8da2c80c14ceb2b25da68a1ded69cf23,PennController,16,0,experiment,NULL,Selector,choice,Selection,option1,1687411170514,616b06e97addc4a9a638909e,616b06e97addc4a9a638909e,12,erase,critical,E,25,erase15.jpg,erase33.jpg,high,option2;option1
1687411367,8da2c80c14ceb2b25da68a1ded69cf23,PennController,16,0,experiment,NULL,PennController,14,_Trial_,End,1687411170518,616b06e97addc4a9a638909e,616b06e97addc4a9a638909e,12,erase,critical,E,25,erase15.jpg,erase33.jpg,high,NULL
1687411367,8da2c80c14ceb2b25da68a1ded69cf23,PennController,14,0,experiment,NULL,PennController,12,_Trial_,Start,1687411170522,616b06e97addc4a9a638909e,616b06e97addc4a9a638909e,10,train,critical,E,50,train40.jpg,train60.jpg,high,NULL
1687411367,8da2c80c14ceb2b25da68a1ded69cf23,PennController,14,0,experiment,NULL,PennController,12,_Header_,Start,1687411170522,616b06e97addc4a9a638909e,616b06e97addc4a9a638909e,10,train,critical,E,50,train40.jpg,train60.jpg,high,NULL
1687411367,8da2c80c14ceb2b25da68a1ded69cf23,PennController,14,0,experiment,NULL,PennController,12,_Header_,End,1687411170523,616b06e97addc4a9a638909e,616b06e97addc4a9a638909e,10,train,critical,E,50,train40.jpg,train60.jpg,high,NULL
1687411367,8da2c80c14ceb2b25da68a1ded69cf23,PennController,14,0,experiment,NULL,Canvas,canvas6,Print,NA,1687411177250,616b06e97addc4a9a638909e,616b06e97addc4a9a638909e,10,train,critical,E,50,train40.jpg,train60.jpg,high,NULL
1687411367,8da2c80c14ceb2b25da68a1ded69cf23,PennController,14,0,experiment,NULL,Video,progression,buffer,0.016626,1687411174089,616b06e97addc4a9a638909e,616b06e97addc4a9a638909e,10,train,critical,E,50,train40.jpg,train60.jpg,high,NULL
1687411367,8da2c80c14ceb2b25da68a1ded69cf23,PennController,14,0,experiment,NULL,Selector,choice,Selection,option2,1687411178855,616b06e97addc4a9a638909e,616b06e97addc4a9a638909e,10,train,critical,E,50,train40.jpg,train60.jpg,high,option2;option1
1687411367,8da2c80c14ceb2b25da68a1ded69cf23,PennController,14,0,experiment,NULL,PennController,12,_Trial_,End,1687411178858,616b06e97addc4a9a638909e,616b06e97addc4a9a638909e,10,train,critical,E,50,train40.jpg,train60.jpg,high,NULL
1687411367,8da2c80c14ceb2b25da68a1ded69cf23,PennController,27,0,experiment,NULL,PennController,25,_Trial_,Start,1687411178861,616b06e97addc4a9a638909e,616b06e97addc4a9a638909e,23,color,filler,E,75,color65.jpg,color85.jpg,GoalB,NULL
1687411367,8da2c80c14ceb2b25da68a1ded69cf23,PennController,27,0,experiment,NULL,PennController,25,_Header_,Start,1687411178861,616b06e97addc4a9a638909e,616b06e97addc4a9a638909e,23,color,filler,E,75,color65.jpg,color85.jpg,GoalB,NULL
1687411367,8da2c80c14ceb2b25da68a1ded69cf23,PennController,27,0,experiment,NULL,PennController,25,_Header_,End,1687411178861,616b06e97addc4a9a638909e,616b06e97addc4a9a638909e,23,color,filler,E,75,color65.jpg,color85.jpg,GoalB,NULL
1687411367,8da2c80c14ceb2b25da68a1ded69cf23,PennController,27,0,experiment,NULL,Canvas,canvas6,Print,NA,1687411186581,616b06e97addc4a9a638909e,616b06e97addc4a9a638909e,23,color,filler,E,75,color65.jpg,color85.jpg,GoalB,NULL
1687411367,8da2c80c14ceb2b25da68a1ded69cf23,PennController,27,0,experiment,NULL,Video,progression,buffer,0.008933,1687411182412,616b06e97addc4a9a638909e,616b06e97addc4a9a638909e,23,color,filler,E,75,color65.jpg,color85.jpg,GoalB,NULL
1687411367,8da2c80c14ceb2b25da68a1ded69cf23,PennController,27,0,experiment,NULL,Selector,choice,Selection,option2,1687411188142,616b06e97addc4a9a638909e,616b06e97addc4a9a638909e,23,color,filler,E,75,color65.jpg,color85.jpg,GoalB,option2;option1
1687411367,8da2c80c14ceb2b25da68a1ded69cf23,PennController,27,0,experiment,NULL,PennController,25,_Trial_,End,1687411188146,616b06e97addc4a9a638909e,616b06e97addc4a9a638909e,23,color,filler,E,75,color65.jpg,color85.jpg,GoalB,NULL
1687411367,8da2c80c14ceb2b25da68a1ded69cf23,PennController,22,0,experiment,NULL,PennController,20,_Trial_,Start,1687411188150,616b06e97addc4a9a638909e,616b06e97addc4a9a638909e,18,ball,critical,E,25,ball15.jpg,ball35.jpg,high,NULL
1687411367,8da2c80c14ceb2b25da68a1ded69cf23,PennController,22,0,experiment,NULL,PennController,20,_Header_,Start,1687411188150,616b06e97addc4a9a638909e,616b06e97addc4a9a638909e,18,ball,critical,E,25,ball15.jpg,ball35.jpg,high,NULL
1687411367,8da2c80c14ceb2b25da68a1ded69cf23,PennController,22,0,experiment,NULL,PennController,20,_Header_,End,1687411188151,616b06e97addc4a9a638909e,616b06e97addc4a9a638909e,18,ball,critical,E,25,ball15.jpg,ball35.jpg,high,NULL
1687411367,8da2c80c14ceb2b25da68a1ded69cf23,PennController,22,0,experiment,NULL,Canvas,canvas6,Print,NA,1687411193872,616b06e97addc4a9a638909e,616b06e97addc4a9a638909e,18,ball,critical,E,25,ball15.jpg,ball35.jpg,high,NULL
1687411367,8da2c80c14ceb2b25da68a1ded69cf23,PennController,22,0,experiment,NULL,Video,progression,buffer,0.015433,1687411191709,616b06e97addc4a9a638909e,616b06e97addc4a9a638909e,18,ball,critical,E,25,ball15.jpg,ball35.jpg,high,NULL
1687411367,8da2c80c14ceb2b25da68a1ded69cf23,PennController,22,0,experiment,NULL,Selector,choice,Selection,option2,1687411201534,616b06e97addc4a9a638909e,616b06e97addc4a9a638909e,18,ball,critical,E,25,ball15.jpg,ball35.jpg,high,option2;option1
1687411367,8da2c80c14ceb2b25da68a1ded69cf23,PennController,22,0,experiment,NULL,PennController,20,_Trial_,End,1687411201537,616b06e97addc4a9a638909e,616b06e97addc4a9a638909e,18,ball,critical,E,25,ball15.jpg,ball35.jpg,high,NULL
1687411367,8da2c80c14ceb2b25da68a1ded69cf23,PennController,9,0,experiment,NULL,PennController,7,_Trial_,Start,1687411201543,616b06e97addc4a9a638909e,616b06e97addc4a9a638909e,5,book,critical,E,75,book65.jpg,book85.jpg,high,NULL
1687411367,8da2c80c14ceb2b25da68a1ded69cf23,PennController,9,0,experiment,NULL,PennController,7,_Header_,Start,1687411201543,616b06e97addc4a9a638909e,616b06e97addc4a9a638909e,5,book,critical,E,75,book65.jpg,book85.jpg,high,NULL
1687411367,8da2c80c14ceb2b25da68a1ded69cf23,PennController,9,0,experiment,NULL,PennController,7,_Header_,End,1687411201543,616b06e97addc4a9a638909e,616b06e97addc4a9a638909e,5,book,critical,E,75,book65.jpg,book85.jpg,high,NULL
1687411367,8da2c80c14ceb2b25da68a1ded69cf23,PennController,9,0,experiment,NULL,Canvas,canvas6,Print,NA,1687411209272,616b06e97addc4a9a638909e,616b06e97addc4a9a638909e,5,book,critical,E,75,book65.jpg,book85.jpg,high,NULL
1687411367,8da2c80c14ceb2b25da68a1ded69cf23,PennController,9,0,experiment,NULL,Video,progression,buffer,0.008473,1687411205099,616b06e97addc4a9a638909e,616b06e97addc4a9a638909e,5,book,critical,E,75,book65.jpg,book85.jpg,high,NULL
1687411367,8da2c80c14ceb2b25da68a1ded69cf23,PennController,9,0,experiment,NULL,Selector,choice,Selection,option1,1687411210981,616b06e97addc4a9a638909e,616b06e97addc4a9a638909e,5,book,critical,E,75,book65.jpg,book85.jpg,high,option1;option2
1687411367,8da2c80c14ceb2b25da68a1ded69cf23,PennController,9,0,experiment,NULL,PennController,7,_Trial_,End,1687411210985,616b06e97addc4a9a638909e,616b06e97addc4a9a638909e,5,book,critical,E,75,book65.jpg,book85.jpg,high,NULL
1687411367,8da2c80c14ceb2b25da68a1ded69cf23,PennController,7,0,experiment,NULL,PennController,5,_Trial_,Start,1687411210987,616b06e97addc4a9a638909e,616b06e97addc4a9a638909e,3,clean,critical,E,25,clean15.jpg,clean35.jpg,high,NULL
1687411367,8da2c80c14ceb2b25da68a1ded69cf23,PennController,7,0,experiment,NULL,PennController,5,_Header_,Start,1687411210987,616b06e97addc4a9a638909e,616b06e97addc4a9a638909e,3,clean,critical,E,25,clean15.jpg,clean35.jpg,high,NULL
1687411367,8da2c80c14ceb2b25da68a1ded69cf23,PennController,7,0,experiment,NULL,PennController,5,_Header_,End,1687411210988,616b06e97addc4a9a638909e,616b06e97addc4a9a638909e,3,clean,critical,E,25,clean15.jpg,clean35.jpg,high,NULL
1687411367,8da2c80c14ceb2b25da68a1ded69cf23,PennController,7,0,experiment,NULL,Canvas,canvas6,Print,NA,1687411216712,616b06e97addc4a9a638909e,616b06e97addc4a9a638909e,3,clean,critical,E,25,clean15.jpg,clean35.jpg,high,NULL
1687411367,8da2c80c14ceb2b25da68a1ded69cf23,PennController,7,0,experiment,NULL,Video,progression,buffer,0.014909,1687411214552,616b06e97addc4a9a638909e,616b06e97addc4a9a638909e,3,clean,critical,E,25,clean15.jpg,clean35.jpg,high,NULL
1687411367,8da2c80c14ceb2b25da68a1ded69cf23,PennController,7,0,experiment,NULL,Selector,choice,Selection,option2,1687411218312,616b06e97addc4a9a638909e,616b06e97addc4a9a638909e,3,clean,critical,E,25,clean15.jpg,clean35.jpg,high,option1;option2
1687411367,8da2c80c14ceb2b25da68a1ded69cf23,PennController,7,0,experiment,NULL,PennController,5,_Trial_,End,1687411218316,616b06e97addc4a9a638909e,616b06e97addc4a9a638909e,3,clean,critical,E,25,clean15.jpg,clean35.jpg,high,NULL
1687411367,8da2c80c14ceb2b25da68a1ded69cf23,PennController,13,0,experiment,NULL,PennController,11,_Trial_,Start,1687411218320,616b06e97addc4a9a638909e,616b06e97addc4a9a638909e,9,cake,critical,E,25,cake15.jpg,cake33.jpg,high,NULL
1687411367,8da2c80c14ceb2b25da68a1ded69cf23,PennController,13,0,experiment,NULL,PennController,11,_Header_,Start,1687411218320,616b06e97addc4a9a638909e,616b06e97addc4a9a638909e,9,cake,critical,E,25,cake15.jpg,cake33.jpg,high,NULL
1687411367,8da2c80c14ceb2b25da68a1ded69cf23,PennController,13,0,experiment,NULL,PennController,11,_Header_,End,1687411218320,616b06e97addc4a9a638909e,616b06e97addc4a9a638909e,9,cake,critical,E,25,cake15.jpg,cake33.jpg,high,NULL
1687411367,8da2c80c14ceb2b25da68a1ded69cf23,PennController,13,0,experiment,NULL,Canvas,canvas6,Print,NA,1687411224654,616b06e97addc4a9a638909e,616b06e97addc4a9a638909e,9,cake,critical,E,25,cake15.jpg,cake33.jpg,high,NULL
1687411367,8da2c80c14ceb2b25da68a1ded69cf23,PennController,13,0,experiment,NULL,Video,progression,buffer,0.012941,1687411221892,616b06e97addc4a9a638909e,616b06e97addc4a9a638909e,9,cake,critical,E,25,cake15.jpg,cake33.jpg,high,NULL
1687411367,8da2c80c14ceb2b25da68a1ded69cf23,PennController,13,0,experiment,NULL,Selector,choice,Selection,option2,1687411228631,616b06e97addc4a9a638909e,616b06e97addc4a9a638909e,9,cake,critical,E,25,cake15.jpg,cake33.jpg,high,option1;option2
1687411367,8da2c80c14ceb2b25da68a1ded69cf23,PennController,13,0,experiment,NULL,PennController,11,_Trial_,End,1687411228637,616b06e97addc4a9a638909e,616b06e97addc4a9a638909e,9,cake,critical,E,25,cake15.jpg,cake33.jpg,high,NULL
1687411367,8da2c80c14ceb2b25da68a1ded69cf23,PennController,5,0,experiment,NULL,PennController,3,_Trial_,Start,1687411228640,616b06e97addc4a9a638909e,616b06e97addc4a9a638909e,1,vase,critical,E,50,vase40.jpg,vase60.jpg,high,NULL
1687411367,8da2c80c14ceb2b25da68a1ded69cf23,PennController,5,0,experiment,NULL,PennController,3,_Header_,Start,1687411228640,616b06e97addc4a9a638909e,616b06e97addc4a9a638909e,1,vase,critical,E,50,vase40.jpg,vase60.jpg,high,NULL
1687411367,8da2c80c14ceb2b25da68a1ded69cf23,PennController,5,0,experiment,NULL,PennController,3,_Header_,End,1687411228640,616b06e97addc4a9a638909e,616b06e97addc4a9a638909e,1,vase,critical,E,50,vase40.jpg,vase60.jpg,high,NULL
1687411367,8da2c80c14ceb2b25da68a1ded69cf23,PennController,5,0,experiment,NULL,Canvas,canvas6,Print,NA,1687411235373,616b06e97addc4a9a638909e,616b06e97addc4a9a638909e,1,vase,critical,E,50,vase40.jpg,vase60.jpg,high,NULL
1687411367,8da2c80c14ceb2b25da68a1ded69cf23,PennController,5,0,experiment,NULL,Video,progression,buffer,0.016826,1687411232215,616b06e97addc4a9a638909e,616b06e97addc4a9a638909e,1,vase,critical,E,50,vase40.jpg,vase60.jpg,high,NULL
1687411367,8da2c80c14ceb2b25da68a1ded69cf23,PennController,5,0,experiment,NULL,Selector,choice,Selection,option1,1687411237339,616b06e97addc4a9a638909e,616b06e97addc4a9a638909e,1,vase,critical,E,50,vase40.jpg,vase60.jpg,high,option1;option2
1687411367,8da2c80c14ceb2b25da68a1ded69cf23,PennController,5,0,experiment,NULL,PennController,3,_Trial_,End,1687411237342,616b06e97addc4a9a638909e,616b06e97addc4a9a638909e,1,vase,critical,E,50,vase40.jpg,vase60.jpg,high,NULL
1687411367,8da2c80c14ceb2b25da68a1ded69cf23,PennController,20,0,experiment,NULL,PennController,18,_Trial_,Start,1687411237346,616b06e97addc4a9a638909e,616b06e97addc4a9a638909e,16,blinds,critical,E,50,blinds42.jpg,blinds60.jpg,high,NULL
1687411367,8da2c80c14ceb2b25da68a1ded69cf23,PennController,20,0,experiment,NULL,PennController,18,_Header_,Start,1687411237346,616b06e97addc4a9a638909e,616b06e97addc4a9a638909e,16,blinds,critical,E,50,blinds42.jpg,blinds60.jpg,high,NULL
1687411367,8da2c80c14ceb2b25da68a1ded69cf23,PennController,20,0,experiment,NULL,PennController,18,_Header_,End,1687411237347,616b06e97addc4a9a638909e,616b06e97addc4a9a638909e,16,blinds,critical,E,50,blinds42.jpg,blinds60.jpg,high,NULL
1687411367,8da2c80c14ceb2b25da68a1ded69cf23,PennController,20,0,experiment,NULL,Canvas,canvas6,Print,NA,1687411245467,616b06e97addc4a9a638909e,616b06e97addc4a9a638909e,16,blinds,critical,E,50,blinds42.jpg,blinds60.jpg,high,NULL
1687411367,8da2c80c14ceb2b25da68a1ded69cf23,PennController,20,0,experiment,NULL,Video,progression,buffer,0.013399,1687411240910,616b06e97addc4a9a638909e,616b06e97addc4a9a638909e,16,blinds,critical,E,50,blinds42.jpg,blinds60.jpg,high,NULL
1687411367,8da2c80c14ceb2b25da68a1ded69cf23,PennController,20,0,experiment,NULL,Selector,choice,Selection,option1,1687411246760,616b06e97addc4a9a638909e,616b06e97addc4a9a638909e,16,blinds,critical,E,50,blinds42.jpg,blinds60.jpg,high,option1;option2
1687411367,8da2c80c14ceb2b25da68a1ded69cf23,PennController,20,0,experiment,NULL,PennController,18,_Trial_,End,1687411246764,616b06e97addc4a9a638909e,616b06e97addc4a9a638909e,16,blinds,critical,E,50,blinds42.jpg,blinds60.jpg,high,NULL
1687411367,8da2c80c14ceb2b25da68a1ded69cf23,PennController,25,0,experiment,NULL,PennController,23,_Trial_,Start,1687411246767,616b06e97addc4a9a638909e,616b06e97addc4a9a638909e,21,visit,filler,E,25,visit15.jpg,visit35.jpg,GoalB,NULL
1687411367,8da2c80c14ceb2b25da68a1ded69cf23,PennController,25,0,experiment,NULL,PennController,23,_Header_,Start,1687411246767,616b06e97addc4a9a638909e,616b06e97addc4a9a638909e,21,visit,filler,E,25,visit15.jpg,visit35.jpg,GoalB,NULL
1687411367,8da2c80c14ceb2b25da68a1ded69cf23,PennController,25,0,experiment,NULL,PennController,23,_Header_,End,1687411246767,616b06e97addc4a9a638909e,616b06e97addc4a9a638909e,21,visit,filler,E,25,visit15.jpg,visit35.jpg,GoalB,NULL
1687411367,8da2c80c14ceb2b25da68a1ded69cf23,PennController,25,0,experiment,NULL,Canvas,canvas6,Print,NA,1687411252495,616b06e97addc4a9a638909e,616b06e97addc4a9a638909e,21,visit,filler,E,25,visit15.jpg,visit35.jpg,GoalB,NULL
1687411367,8da2c80c14ceb2b25da68a1ded69cf23,PennController,25,0,experiment,NULL,Video,progression,buffer,0.018674,1687411250327,616b06e97addc4a9a638909e,616b06e97addc4a9a638909e,21,visit,filler,E,25,visit15.jpg,visit35.jpg,GoalB,NULL
1687411367,8da2c80c14ceb2b25da68a1ded69cf23,PennController,25,0,experiment,NULL,Selector,choice,Selection,option2,1687411256116,616b06e97addc4a9a638909e,616b06e97addc4a9a638909e,21,visit,filler,E,25,visit15.jpg,visit35.jpg,GoalB,option1;option2
1687411367,8da2c80c14ceb2b25da68a1ded69cf23,PennController,25,0,experiment,NULL,PennController,23,_Trial_,End,1687411256120,616b06e97addc4a9a638909e,616b06e97addc4a9a638909e,21,visit,filler,E,25,visit15.jpg,visit35.jpg,GoalB,NULL
1687411367,8da2c80c14ceb2b25da68a1ded69cf23,PennController,30,0,experiment,NULL,PennController,28,_Trial_,Start,1687411256123,616b06e97addc4a9a638909e,616b06e97addc4a9a638909e,26,sandwich,filler,E,75,sandwich65.jpg,sandwich85.jpg,GoalA,NULL
1687411367,8da2c80c14ceb2b25da68a1ded69cf23,PennController,30,0,experiment,NULL,PennController,28,_Header_,Start,1687411256123,616b06e97addc4a9a638909e,616b06e97addc4a9a638909e,26,sandwich,filler,E,75,sandwich65.jpg,sandwich85.jpg,GoalA,NULL
1687411367,8da2c80c14ceb2b25da68a1ded69cf23,PennController,30,0,experiment,NULL,PennController,28,_Header_,End,1687411256123,616b06e97addc4a9a638909e,616b06e97addc4a9a638909e,26,sandwich,filler,E,75,sandwich65.jpg,sandwich85.jpg,GoalA,NULL
1687411367,8da2c80c14ceb2b25da68a1ded69cf23,PennController,30,0,experiment,NULL,Canvas,canvas6,Print,NA,1687411263850,616b06e97addc4a9a638909e,616b06e97addc4a9a638909e,26,sandwich,filler,E,75,sandwich65.jpg,sandwich85.jpg,GoalA,NULL
1687411367,8da2c80c14ceb2b25da68a1ded69cf23,PennController,30,0,experiment,NULL,Video,progression,buffer,0.020569,1687411259688,616b06e97addc4a9a638909e,616b06e97addc4a9a638909e,26,sandwich,filler,E,75,sandwich65.jpg,sandwich85.jpg,GoalA,NULL
1687411367,8da2c80c14ceb2b25da68a1ded69cf23,PennController,30,0,experiment,NULL,Selector,choice,Selection,option2,1687411265719,616b06e97addc4a9a638909e,616b06e97addc4a9a638909e,26,sandwich,filler,E,75,sandwich65.jpg,sandwich85.jpg,GoalA,option2;option1
1687411367,8da2c80c14ceb2b25da68a1ded69cf23,PennController,30,0,experiment,NULL,PennController,28,_Trial_,End,1687411265723,616b06e97addc4a9a638909e,616b06e97addc4a9a638909e,26,sandwich,filler,E,75,sandwich65.jpg,sandwich85.jpg,GoalA,NULL
1687411367,8da2c80c14ceb2b25da68a1ded69cf23,PennController,18,0,experiment,NULL,PennController,16,_Trial_,Start,1687411265727,616b06e97addc4a9a638909e,616b06e97addc4a9a638909e,14,cover,critical,E,75,cover66.jpg,cover84.jpg,high,NULL
1687411367,8da2c80c14ceb2b25da68a1ded69cf23,PennController,18,0,experiment,NULL,PennController,16,_Header_,Start,1687411265727,616b06e97addc4a9a638909e,616b06e97addc4a9a638909e,14,cover,critical,E,75,cover66.jpg,cover84.jpg,high,NULL
1687411367,8da2c80c14ceb2b25da68a1ded69cf23,PennController,18,0,experiment,NULL,PennController,16,_Header_,End,1687411265728,616b06e97addc4a9a638909e,616b06e97addc4a9a638909e,14,cover,critical,E,75,cover66.jpg,cover84.jpg,high,NULL
1687411367,8da2c80c14ceb2b25da68a1ded69cf23,PennController,18,0,experiment,NULL,Canvas,canvas6,Print,NA,1687411275458,616b06e97addc4a9a638909e,616b06e97addc4a9a638909e,14,cover,critical,E,75,cover66.jpg,cover84.jpg,high,NULL
1687411367,8da2c80c14ceb2b25da68a1ded69cf23,PennController,18,0,experiment,NULL,Video,progression,buffer,0.017005,1687411269300,616b06e97addc4a9a638909e,616b06e97addc4a9a638909e,14,cover,critical,E,75,cover66.jpg,cover84.jpg,high,NULL
1687411367,8da2c80c14ceb2b25da68a1ded69cf23,PennController,18,0,experiment,NULL,Selector,choice,Selection,option2,1687411277696,616b06e97addc4a9a638909e,616b06e97addc4a9a638909e,14,cover,critical,E,75,cover66.jpg,cover84.jpg,high,option1;option2
1687411367,8da2c80c14ceb2b25da68a1ded69cf23,PennController,18,0,experiment,NULL,PennController,16,_Trial_,End,1687411277700,616b06e97addc4a9a638909e,616b06e97addc4a9a638909e,14,cover,critical,E,75,cover66.jpg,cover84.jpg,high,NULL
1687411367,8da2c80c14ceb2b25da68a1ded69cf23,PennController,8,0,experiment,NULL,PennController,6,_Trial_,Start,1687411277703,616b06e97addc4a9a638909e,616b06e97addc4a9a638909e,4,candy,critical,E,50,candy40.jpg,candy60.jpg,high,NULL
1687411367,8da2c80c14ceb2b25da68a1ded69cf23,PennController,8,0,experiment,NULL,PennController,6,_Header_,Start,1687411277703,616b06e97addc4a9a638909e,616b06e97addc4a9a638909e,4,candy,critical,E,50,candy40.jpg,candy60.jpg,high,NULL
1687411367,8da2c80c14ceb2b25da68a1ded69cf23,PennController,8,0,experiment,NULL,PennController,6,_Header_,End,1687411277703,616b06e97addc4a9a638909e,616b06e97addc4a9a638909e,4,candy,critical,E,50,candy40.jpg,candy60.jpg,high,NULL
1687411367,8da2c80c14ceb2b25da68a1ded69cf23,PennController,8,0,experiment,NULL,Canvas,canvas6,Print,NA,1687411284435,616b06e97addc4a9a638909e,616b06e97addc4a9a638909e,4,candy,critical,E,50,candy40.jpg,candy60.jpg,high,NULL
1687411367,8da2c80c14ceb2b25da68a1ded69cf23,PennController,8,0,experiment,NULL,Video,progression,buffer,0.013371,1687411281261,616b06e97addc4a9a638909e,616b06e97addc4a9a638909e,4,candy,critical,E,50,candy40.jpg,candy60.jpg,high,NULL
1687411367,8da2c80c14ceb2b25da68a1ded69cf23,PennController,8,0,experiment,NULL,Selector,choice,Selection,option1,1687411287977,616b06e97addc4a9a638909e,616b06e97addc4a9a638909e,4,candy,critical,E,50,candy40.jpg,candy60.jpg,high,option2;option1
1687411367,8da2c80c14ceb2b25da68a1ded69cf23,PennController,8,0,experiment,NULL,PennController,6,_Trial_,End,1687411287981,616b06e97addc4a9a638909e,616b06e97addc4a9a638909e,4,candy,critical,E,50,candy40.jpg,candy60.jpg,high,NULL
1687411367,8da2c80c14ceb2b25da68a1ded69cf23,PennController,12,0,experiment,NULL,PennController,10,_Trial_,Start,1687411287984,616b06e97addc4a9a638909e,616b06e97addc4a9a638909e,8,cucumber,critical,E,75,cucumber66.jpg,cucumber84.jpg,high,NULL
1687411367,8da2c80c14ceb2b25da68a1ded69cf23,PennController,12,0,experiment,NULL,PennController,10,_Header_,Start,1687411287984,616b06e97addc4a9a638909e,616b06e97addc4a9a638909e,8,cucumber,critical,E,75,cucumber66.jpg,cucumber84.jpg,high,NULL
1687411367,8da2c80c14ceb2b25da68a1ded69cf23,PennController,12,0,experiment,NULL,PennController,10,_Header_,End,1687411287984,616b06e97addc4a9a638909e,616b06e97addc4a9a638909e,8,cucumber,critical,E,75,cucumber66.jpg,cucumber84.jpg,high,NULL
1687411367,8da2c80c14ceb2b25da68a1ded69cf23,PennController,12,0,experiment,NULL,Canvas,canvas6,Print,NA,1687411297717,616b06e97addc4a9a638909e,616b06e97addc4a9a638909e,8,cucumber,critical,E,75,cucumber66.jpg,cucumber84.jpg,high,NULL
1687411367,8da2c80c14ceb2b25da68a1ded69cf23,PennController,12,0,experiment,NULL,Video,progression,buffer,0.011556,1687411291541,616b06e97addc4a9a638909e,616b06e97addc4a9a638909e,8,cucumber,critical,E,75,cucumber66.jpg,cucumber84.jpg,high,NULL
1687411367,8da2c80c14ceb2b25da68a1ded69cf23,PennController,12,0,experiment,NULL,Selector,choice,Selection,option1,1687411299915,616b06e97addc4a9a638909e,616b06e97addc4a9a638909e,8,cucumber,critical,E,75,cucumber66.jpg,cucumber84.jpg,high,option2;option1
1687411367,8da2c80c14ceb2b25da68a1ded69cf23,PennController,12,0,experiment,NULL,PennController,10,_Trial_,End,1687411299917,616b06e97addc4a9a638909e,616b06e97addc4a9a638909e,8,cucumber,critical,E,75,cucumber66.jpg,cucumber84.jpg,high,NULL
1687411367,8da2c80c14ceb2b25da68a1ded69cf23,PennController,28,0,experiment,NULL,PennController,26,_Trial_,Start,1687411299920,616b06e97addc4a9a638909e,616b06e97addc4a9a638909e,24,match,filler,E,25,match15.jpg,match35.jpg,GoalA,NULL
1687411367,8da2c80c14ceb2b25da68a1ded69cf23,PennController,28,0,experiment,NULL,PennController,26,_Header_,Start,1687411299920,616b06e97addc4a9a638909e,616b06e97addc4a9a638909e,24,match,filler,E,25,match15.jpg,match35.jpg,GoalA,NULL
1687411367,8da2c80c14ceb2b25da68a1ded69cf23,PennController,28,0,experiment,NULL,PennController,26,_Header_,End,1687411299920,616b06e97addc4a9a638909e,616b06e97addc4a9a638909e,24,match,filler,E,25,match15.jpg,match35.jpg,GoalA,NULL
1687411367,8da2c80c14ceb2b25da68a1ded69cf23,PennController,28,0,experiment,NULL,Canvas,canvas6,Print,NA,1687411305644,616b06e97addc4a9a638909e,616b06e97addc4a9a638909e,24,match,filler,E,25,match15.jpg,match35.jpg,GoalA,NULL
1687411367,8da2c80c14ceb2b25da68a1ded69cf23,PennController,28,0,experiment,NULL,Video,progression,buffer,0.01445,1687411303474,616b06e97addc4a9a638909e,616b06e97addc4a9a638909e,24,match,filler,E,25,match15.jpg,match35.jpg,GoalA,NULL
1687411367,8da2c80c14ceb2b25da68a1ded69cf23,PennController,28,0,experiment,NULL,Selector,choice,Selection,option2,1687411312986,616b06e97addc4a9a638909e,616b06e97addc4a9a638909e,24,match,filler,E,25,match15.jpg,match35.jpg,GoalA,option1;option2
1687411367,8da2c80c14ceb2b25da68a1ded69cf23,PennController,28,0,experiment,NULL,PennController,26,_Trial_,End,1687411312990,616b06e97addc4a9a638909e,616b06e97addc4a9a638909e,24,match,filler,E,25,match15.jpg,match35.jpg,GoalA,NULL
1687411367,8da2c80c14ceb2b25da68a1ded69cf23,PennController,17,0,experiment,NULL,PennController,15,_Trial_,Start,1687411312993,616b06e97addc4a9a638909e,616b06e97addc4a9a638909e,13,mix,critical,E,50,mix40.jpg,mix60.jpg,high,NULL
1687411367,8da2c80c14ceb2b25da68a1ded69cf23,PennController,17,0,experiment,NULL,PennController,15,_Header_,Start,1687411312993,616b06e97addc4a9a638909e,616b06e97addc4a9a638909e,13,mix,critical,E,50,mix40.jpg,mix60.jpg,high,NULL
1687411367,8da2c80c14ceb2b25da68a1ded69cf23,PennController,17,0,experiment,NULL,PennController,15,_Header_,End,1687411312993,616b06e97addc4a9a638909e,616b06e97addc4a9a638909e,13,mix,critical,E,50,mix40.jpg,mix60.jpg,high,NULL
1687411367,8da2c80c14ceb2b25da68a1ded69cf23,PennController,17,0,experiment,NULL,Canvas,canvas6,Print,NA,1687411319713,616b06e97addc4a9a638909e,616b06e97addc4a9a638909e,13,mix,critical,E,50,mix40.jpg,mix60.jpg,high,NULL
1687411367,8da2c80c14ceb2b25da68a1ded69cf23,PennController,17,0,experiment,NULL,Video,progression,buffer,0.016662,1687411316554,616b06e97addc4a9a638909e,616b06e97addc4a9a638909e,13,mix,critical,E,50,mix40.jpg,mix60.jpg,high,NULL
1687411367,8da2c80c14ceb2b25da68a1ded69cf23,PennController,17,0,experiment,NULL,Selector,choice,Selection,option1,1687411347514,616b06e97addc4a9a638909e,616b06e97addc4a9a638909e,13,mix,critical,E,50,mix40.jpg,mix60.jpg,high,option1;option2
1687411367,8da2c80c14ceb2b25da68a1ded69cf23,PennController,17,0,experiment,NULL,PennController,15,_Trial_,End,1687411347517,616b06e97addc4a9a638909e,616b06e97addc4a9a638909e,13,mix,critical,E,50,mix40.jpg,mix60.jpg,high,NULL
1687411367,8da2c80c14ceb2b25da68a1ded69cf23,PennController,31,0,experiment,NULL,PennController,29,_Trial_,Start,1687411347521,616b06e97addc4a9a638909e,616b06e97addc4a9a638909e,27,square,filler,E,25,square15.jpg,square35.jpg,GoalB,NULL
1687411367,8da2c80c14ceb2b25da68a1ded69cf23,PennController,31,0,experiment,NULL,PennController,29,_Header_,Start,1687411347521,616b06e97addc4a9a638909e,616b06e97addc4a9a638909e,27,square,filler,E,25,square15.jpg,square35.jpg,GoalB,NULL
1687411367,8da2c80c14ceb2b25da68a1ded69cf23,PennController,31,0,experiment,NULL,PennController,29,_Header_,End,1687411347521,616b06e97addc4a9a638909e,616b06e97addc4a9a638909e,27,square,filler,E,25,square15.jpg,square35.jpg,GoalB,NULL
1687411367,8da2c80c14ceb2b25da68a1ded69cf23,PennController,31,0,experiment,NULL,Canvas,canvas6,Print,NA,1687411353250,616b06e97addc4a9a638909e,616b06e97addc4a9a638909e,27,square,filler,E,25,square15.jpg,square35.jpg,GoalB,NULL
1687411367,8da2c80c14ceb2b25da68a1ded69cf23,PennController,31,0,experiment,NULL,Video,progression,buffer,0.013429,1687411351084,616b06e97addc4a9a638909e,616b06e97addc4a9a638909e,27,square,filler,E,25,square15.jpg,square35.jpg,GoalB,NULL
1687411367,8da2c80c14ceb2b25da68a1ded69cf23,PennController,31,0,experiment,NULL,Selector,choice,Selection,option2,1687411355076,616b06e97addc4a9a638909e,616b06e97addc4a9a638909e,27,square,filler,E,25,square15.jpg,square35.jpg,GoalB,option2;option1
1687411367,8da2c80c14ceb2b25da68a1ded69cf23,PennController,31,0,experiment,NULL,PennController,29,_Trial_,End,1687411355079,616b06e97addc4a9a638909e,616b06e97addc4a9a638909e,27,square,filler,E,25,square15.jpg,square35.jpg,GoalB,NULL
1687411367,8da2c80c14ceb2b25da68a1ded69cf23,PennController,21,0,experiment,NULL,PennController,19,_Trial_,Start,1687411355082,616b06e97addc4a9a638909e,616b06e97addc4a9a638909e,17,roll,critical,E,75,roll65.jpg,roll85.jpg,high,NULL
1687411367,8da2c80c14ceb2b25da68a1ded69cf23,PennController,21,0,experiment,NULL,PennController,19,_Header_,Start,1687411355082,616b06e97addc4a9a638909e,616b06e97addc4a9a638909e,17,roll,critical,E,75,roll65.jpg,roll85.jpg,high,NULL
1687411367,8da2c80c14ceb2b25da68a1ded69cf23,PennController,21,0,experiment,NULL,PennController,19,_Header_,End,1687411355082,616b06e97addc4a9a638909e,616b06e97addc4a9a638909e,17,roll,critical,E,75,roll65.jpg,roll85.jpg,high,NULL
1687411367,8da2c80c14ceb2b25da68a1ded69cf23,PennController,21,0,experiment,NULL,Canvas,canvas6,Print,NA,1687411362838,616b06e97addc4a9a638909e,616b06e97addc4a9a638909e,17,roll,critical,E,75,roll65.jpg,roll85.jpg,high,NULL
1687411367,8da2c80c14ceb2b25da68a1ded69cf23,PennController,21,0,experiment,NULL,Video,progression,buffer,0,1687411358637,616b06e97addc4a9a638909e,616b06e97addc4a9a638909e,17,roll,critical,E,75,roll65.jpg,roll85.jpg,high,NULL
1687411367,8da2c80c14ceb2b25da68a1ded69cf23,PennController,21,0,experiment,NULL,Selector,choice,Selection,option1,1687411366966,616b06e97addc4a9a638909e,616b06e97addc4a9a638909e,17,roll,critical,E,75,roll65.jpg,roll85.jpg,high,option2;option1
1687411367,8da2c80c14ceb2b25da68a1ded69cf23,PennController,21,0,experiment,NULL,PennController,19,_Trial_,End,1687411366969,616b06e97addc4a9a638909e,616b06e97addc4a9a638909e,17,roll,critical,E,75,roll65.jpg,roll85.jpg,high,NULL
