#
# Results on Sunday April 30 2023 08:56:43 UTC
# USER AGENT: Mozilla/5.0 (Macintosh; Intel Mac OS X 10_15_7) AppleWebKit/537.36 (KHTML, like Gecko) Chrome/112.0.0.0 Safari/537.36
# Design number was non-random = 25
#
# Columns below this comment are as follows:
# 1. Results reception time.
# 2. MD5 hash of participant's IP address.
# 3. Controller name.
# 4. Order number of item.
# 5. Inner element number.
# 6. Label.
# 7. Latin Square Group.
# 8. PennElementType.
# 9. PennElementName.
# 10. Parameter.
# 11. Value.
# 12. EventTime.
# 13. sonaID.
# 14. Comments.
1682845003,530092e62160d3d78aff9924a9895049,PennController,2,0,consent,NULL,PennController,0,_Trial_,Start,1682844625638,sonaID,NULL
1682845003,530092e62160d3d78aff9924a9895049,PennController,2,0,consent,NULL,PennController,0,_Header_,Start,1682844625638,sonaID,NULL
1682845003,530092e62160d3d78aff9924a9895049,PennController,2,0,consent,NULL,PennController,0,_Header_,End,1682844625638,sonaID,NULL
1682845003,530092e62160d3d78aff9924a9895049,PennController,2,0,consent,NULL,PennController,0,_Trial_,End,1682844627780,sonaID,NULL
# Columns below this comment are as follows:
# 14. ID.
# 15. Comments.
1682845003,530092e62160d3d78aff9924a9895049,PennController,3,0,intro,NULL,PennController,1,_Trial_,Start,1682844627782,sonaID,undefined,NULL
1682845003,530092e62160d3d78aff9924a9895049,PennController,3,0,intro,NULL,PennController,1,_Header_,Start,1682844627782,sonaID,undefined,NULL
1682845003,530092e62160d3d78aff9924a9895049,PennController,3,0,intro,NULL,PennController,1,_Header_,End,1682844627782,sonaID,undefined,NULL
1682845003,530092e62160d3d78aff9924a9895049,PennController,3,0,intro,NULL,TextInput,inputID,EnterReturn,53907941,1682844666943,sonaID,undefined,NULL
1682845003,530092e62160d3d78aff9924a9895049,PennController,3,0,intro,NULL,TextInput,inputID,Final,53907941,1682844666964,sonaID,undefined,NULL
1682845003,530092e62160d3d78aff9924a9895049,PennController,3,0,intro,NULL,TextInput,inputID,First,,1682844650112,sonaID,undefined,5
1682845003,530092e62160d3d78aff9924a9895049,PennController,3,0,intro,NULL,PennController,1,_Trial_,End,1682844666964,sonaID,undefined,NULL
# Columns below this comment are as follows:
# 15. item_number.
# 16. item.
# 17. type.
# 18. Group.
# 19. prog.
# 20. prev_image.
# 21. next_image.
# 22. height.
# 23. memory-nogoals.
# 24. Comments.
1682845003,530092e62160d3d78aff9924a9895049,PennController,13,0,experiment,NULL,PennController,12,_Trial_,Start,1682844666970,sonaID,undefined,10,train,critical,B,50,train40.jpg,train60.jpg,high,memory-nogoals,NULL
1682845003,530092e62160d3d78aff9924a9895049,PennController,13,0,experiment,NULL,PennController,12,_Header_,Start,1682844666970,sonaID,undefined,10,train,critical,B,50,train40.jpg,train60.jpg,high,memory-nogoals,NULL
1682845003,530092e62160d3d78aff9924a9895049,PennController,13,0,experiment,NULL,PennController,12,_Header_,End,1682844666971,sonaID,undefined,10,train,critical,B,50,train40.jpg,train60.jpg,high,memory-nogoals,NULL
1682845003,530092e62160d3d78aff9924a9895049,PennController,13,0,experiment,NULL,Canvas,canvas6,Print,NA,1682844672677,sonaID,undefined,10,train,critical,B,50,train40.jpg,train60.jpg,high,memory-nogoals,NULL
1682845003,530092e62160d3d78aff9924a9895049,PennController,13,0,experiment,NULL,Video,progression,buffer,0.004244,1682844669506,sonaID,undefined,10,train,critical,B,50,train40.jpg,train60.jpg,high,memory-nogoals,NULL
1682845003,530092e62160d3d78aff9924a9895049,PennController,13,0,experiment,NULL,Selector,choice,Selection,option2,1682844675907,sonaID,undefined,10,train,critical,B,50,train40.jpg,train60.jpg,high,memory-nogoals,option1;option2
1682845003,530092e62160d3d78aff9924a9895049,PennController,13,0,experiment,NULL,PennController,12,_Trial_,End,1682844675911,sonaID,undefined,10,train,critical,B,50,train40.jpg,train60.jpg,high,memory-nogoals,NULL
1682845003,530092e62160d3d78aff9924a9895049,PennController,19,0,experiment,NULL,PennController,18,_Trial_,Start,1682844675919,sonaID,undefined,16,blinds,critical,B,50,blinds42.jpg,blinds60.jpg,high,memory-nogoals,NULL
1682845003,530092e62160d3d78aff9924a9895049,PennController,19,0,experiment,NULL,PennController,18,_Header_,Start,1682844675919,sonaID,undefined,16,blinds,critical,B,50,blinds42.jpg,blinds60.jpg,high,memory-nogoals,NULL
1682845003,530092e62160d3d78aff9924a9895049,PennController,19,0,experiment,NULL,PennController,18,_Header_,End,1682844675919,sonaID,undefined,16,blinds,critical,B,50,blinds42.jpg,blinds60.jpg,high,memory-nogoals,NULL
1682845003,530092e62160d3d78aff9924a9895049,PennController,19,0,experiment,NULL,Canvas,canvas6,Print,NA,1682844683016,sonaID,undefined,16,blinds,critical,B,50,blinds42.jpg,blinds60.jpg,high,memory-nogoals,NULL
1682845003,530092e62160d3d78aff9924a9895049,PennController,19,0,experiment,NULL,Video,progression,buffer,0.004214,1682844678442,sonaID,undefined,16,blinds,critical,B,50,blinds42.jpg,blinds60.jpg,high,memory-nogoals,NULL
1682845003,530092e62160d3d78aff9924a9895049,PennController,19,0,experiment,NULL,Selector,choice,Selection,option2,1682844684258,sonaID,undefined,16,blinds,critical,B,50,blinds42.jpg,blinds60.jpg,high,memory-nogoals,option1;option2
1682845003,530092e62160d3d78aff9924a9895049,PennController,19,0,experiment,NULL,PennController,18,_Trial_,End,1682844684260,sonaID,undefined,16,blinds,critical,B,50,blinds42.jpg,blinds60.jpg,high,memory-nogoals,NULL
1682845003,530092e62160d3d78aff9924a9895049,PennController,7,0,experiment,NULL,PennController,6,_Trial_,Start,1682844684267,sonaID,undefined,4,candy,critical,B,50,candy40.jpg,candy60.jpg,high,memory-nogoals,NULL
1682845003,530092e62160d3d78aff9924a9895049,PennController,7,0,experiment,NULL,PennController,6,_Header_,Start,1682844684267,sonaID,undefined,4,candy,critical,B,50,candy40.jpg,candy60.jpg,high,memory-nogoals,NULL
1682845003,530092e62160d3d78aff9924a9895049,PennController,7,0,experiment,NULL,PennController,6,_Header_,End,1682844684267,sonaID,undefined,4,candy,critical,B,50,candy40.jpg,candy60.jpg,high,memory-nogoals,NULL
1682845003,530092e62160d3d78aff9924a9895049,PennController,7,0,experiment,NULL,Canvas,canvas6,Print,NA,1682844689965,sonaID,undefined,4,candy,critical,B,50,candy40.jpg,candy60.jpg,high,memory-nogoals,NULL
1682845003,530092e62160d3d78aff9924a9895049,PennController,7,0,experiment,NULL,Video,progression,buffer,0.002699,1682844686788,sonaID,undefined,4,candy,critical,B,50,candy40.jpg,candy60.jpg,high,memory-nogoals,NULL
1682845003,530092e62160d3d78aff9924a9895049,PennController,7,0,experiment,NULL,Selector,choice,Selection,option1,1682844691551,sonaID,undefined,4,candy,critical,B,50,candy40.jpg,candy60.jpg,high,memory-nogoals,option2;option1
1682845003,530092e62160d3d78aff9924a9895049,PennController,7,0,experiment,NULL,PennController,6,_Trial_,End,1682844691553,sonaID,undefined,4,candy,critical,B,50,candy40.jpg,candy60.jpg,high,memory-nogoals,NULL
1682845003,530092e62160d3d78aff9924a9895049,PennController,10,0,experiment,NULL,PennController,9,_Trial_,Start,1682844691562,sonaID,undefined,7,stack,critical,B,50,stack40.jpg,stack60.jpg,low ,memory-nogoals,NULL
1682845003,530092e62160d3d78aff9924a9895049,PennController,10,0,experiment,NULL,PennController,9,_Header_,Start,1682844691562,sonaID,undefined,7,stack,critical,B,50,stack40.jpg,stack60.jpg,low ,memory-nogoals,NULL
1682845003,530092e62160d3d78aff9924a9895049,PennController,10,0,experiment,NULL,PennController,9,_Header_,End,1682844691562,sonaID,undefined,7,stack,critical,B,50,stack40.jpg,stack60.jpg,low ,memory-nogoals,NULL
1682845003,530092e62160d3d78aff9924a9895049,PennController,10,0,experiment,NULL,Canvas,canvas6,Print,NA,1682844697246,sonaID,undefined,7,stack,critical,B,50,stack40.jpg,stack60.jpg,low ,memory-nogoals,NULL
1682845003,530092e62160d3d78aff9924a9895049,PennController,10,0,experiment,NULL,Video,progression,buffer,0.004467,1682844694080,sonaID,undefined,7,stack,critical,B,50,stack40.jpg,stack60.jpg,low ,memory-nogoals,NULL
1682845003,530092e62160d3d78aff9924a9895049,PennController,10,0,experiment,NULL,Selector,choice,Selection,option2,1682844699162,sonaID,undefined,7,stack,critical,B,50,stack40.jpg,stack60.jpg,low ,memory-nogoals,option1;option2
1682845003,530092e62160d3d78aff9924a9895049,PennController,10,0,experiment,NULL,PennController,9,_Trial_,End,1682844699163,sonaID,undefined,7,stack,critical,B,50,stack40.jpg,stack60.jpg,low ,memory-nogoals,NULL
1682845003,530092e62160d3d78aff9924a9895049,PennController,20,0,experiment,NULL,PennController,19,_Trial_,Start,1682844699164,sonaID,undefined,17,roll,critical,B,75,roll65.jpg,roll85.jpg,low ,memory-nogoals,NULL
1682845003,530092e62160d3d78aff9924a9895049,PennController,20,0,experiment,NULL,PennController,19,_Header_,Start,1682844699164,sonaID,undefined,17,roll,critical,B,75,roll65.jpg,roll85.jpg,low ,memory-nogoals,NULL
1682845003,530092e62160d3d78aff9924a9895049,PennController,20,0,experiment,NULL,PennController,19,_Header_,End,1682844699164,sonaID,undefined,17,roll,critical,B,75,roll65.jpg,roll85.jpg,low ,memory-nogoals,NULL
1682845003,530092e62160d3d78aff9924a9895049,PennController,20,0,experiment,NULL,Canvas,canvas6,Print,NA,1682844705917,sonaID,undefined,17,roll,critical,B,75,roll65.jpg,roll85.jpg,low ,memory-nogoals,NULL
1682845003,530092e62160d3d78aff9924a9895049,PennController,20,0,experiment,NULL,Video,progression,buffer,0,1682844701681,sonaID,undefined,17,roll,critical,B,75,roll65.jpg,roll85.jpg,low ,memory-nogoals,NULL
1682845003,530092e62160d3d78aff9924a9895049,PennController,20,0,experiment,NULL,Selector,choice,Selection,option2,1682844706900,sonaID,undefined,17,roll,critical,B,75,roll65.jpg,roll85.jpg,low ,memory-nogoals,option1;option2
1682845003,530092e62160d3d78aff9924a9895049,PennController,20,0,experiment,NULL,PennController,19,_Trial_,End,1682844706902,sonaID,undefined,17,roll,critical,B,75,roll65.jpg,roll85.jpg,low ,memory-nogoals,NULL
1682845003,530092e62160d3d78aff9924a9895049,PennController,27,0,experiment,NULL,PennController,26,_Trial_,Start,1682844706905,sonaID,undefined,24,match,filler,B,25,match15.jpg,match35.jpg,GoalA,memory-nogoals,NULL
1682845003,530092e62160d3d78aff9924a9895049,PennController,27,0,experiment,NULL,PennController,26,_Header_,Start,1682844706905,sonaID,undefined,24,match,filler,B,25,match15.jpg,match35.jpg,GoalA,memory-nogoals,NULL
1682845003,530092e62160d3d78aff9924a9895049,PennController,27,0,experiment,NULL,PennController,26,_Header_,End,1682844706905,sonaID,undefined,24,match,filler,B,25,match15.jpg,match35.jpg,GoalA,memory-nogoals,NULL
1682845003,530092e62160d3d78aff9924a9895049,PennController,27,0,experiment,NULL,Canvas,canvas6,Print,NA,1682844711595,sonaID,undefined,24,match,filler,B,25,match15.jpg,match35.jpg,GoalA,memory-nogoals,NULL
1682845003,530092e62160d3d78aff9924a9895049,PennController,27,0,experiment,NULL,Video,progression,buffer,0.003911,1682844709428,sonaID,undefined,24,match,filler,B,25,match15.jpg,match35.jpg,GoalA,memory-nogoals,NULL
1682845003,530092e62160d3d78aff9924a9895049,PennController,27,0,experiment,NULL,Selector,choice,Selection,option2,1682844713493,sonaID,undefined,24,match,filler,B,25,match15.jpg,match35.jpg,GoalA,memory-nogoals,option2;option1
1682845003,530092e62160d3d78aff9924a9895049,PennController,27,0,experiment,NULL,PennController,26,_Trial_,End,1682844713495,sonaID,undefined,24,match,filler,B,25,match15.jpg,match35.jpg,GoalA,memory-nogoals,NULL
1682845003,530092e62160d3d78aff9924a9895049,PennController,26,0,experiment,NULL,PennController,25,_Trial_,Start,1682844713500,sonaID,undefined,23,color,filler,B,75,color65.jpg,color85.jpg,GoalB,memory-nogoals,NULL
1682845003,530092e62160d3d78aff9924a9895049,PennController,26,0,experiment,NULL,PennController,25,_Header_,Start,1682844713500,sonaID,undefined,23,color,filler,B,75,color65.jpg,color85.jpg,GoalB,memory-nogoals,NULL
1682845003,530092e62160d3d78aff9924a9895049,PennController,26,0,experiment,NULL,PennController,25,_Header_,End,1682844713501,sonaID,undefined,23,color,filler,B,75,color65.jpg,color85.jpg,GoalB,memory-nogoals,NULL
1682845003,530092e62160d3d78aff9924a9895049,PennController,26,0,experiment,NULL,Canvas,canvas6,Print,NA,1682844720183,sonaID,undefined,23,color,filler,B,75,color65.jpg,color85.jpg,GoalB,memory-nogoals,NULL
1682845003,530092e62160d3d78aff9924a9895049,PennController,26,0,experiment,NULL,Video,progression,buffer,0.002729,1682844716017,sonaID,undefined,23,color,filler,B,75,color65.jpg,color85.jpg,GoalB,memory-nogoals,NULL
1682845003,530092e62160d3d78aff9924a9895049,PennController,26,0,experiment,NULL,Selector,choice,Selection,option2,1682844721495,sonaID,undefined,23,color,filler,B,75,color65.jpg,color85.jpg,GoalB,memory-nogoals,option1;option2
1682845003,530092e62160d3d78aff9924a9895049,PennController,26,0,experiment,NULL,PennController,25,_Trial_,End,1682844721496,sonaID,undefined,23,color,filler,B,75,color65.jpg,color85.jpg,GoalB,memory-nogoals,NULL
1682845003,530092e62160d3d78aff9924a9895049,PennController,4,0,experiment,NULL,PennController,3,_Trial_,Start,1682844721499,sonaID,undefined,1,vase,critical,B,50,vase40.jpg,vase60.jpg,low ,memory-nogoals,NULL
1682845003,530092e62160d3d78aff9924a9895049,PennController,4,0,experiment,NULL,PennController,3,_Header_,Start,1682844721499,sonaID,undefined,1,vase,critical,B,50,vase40.jpg,vase60.jpg,low ,memory-nogoals,NULL
1682845003,530092e62160d3d78aff9924a9895049,PennController,4,0,experiment,NULL,PennController,3,_Header_,End,1682844721500,sonaID,undefined,1,vase,critical,B,50,vase40.jpg,vase60.jpg,low ,memory-nogoals,NULL
1682845003,530092e62160d3d78aff9924a9895049,PennController,4,0,experiment,NULL,Canvas,canvas6,Print,NA,1682844727199,sonaID,undefined,1,vase,critical,B,50,vase40.jpg,vase60.jpg,low ,memory-nogoals,NULL
1682845003,530092e62160d3d78aff9924a9895049,PennController,4,0,experiment,NULL,Video,progression,buffer,0.004335,1682844724025,sonaID,undefined,1,vase,critical,B,50,vase40.jpg,vase60.jpg,low ,memory-nogoals,NULL
1682845003,530092e62160d3d78aff9924a9895049,PennController,4,0,experiment,NULL,Selector,choice,Selection,option2,1682844728447,sonaID,undefined,1,vase,critical,B,50,vase40.jpg,vase60.jpg,low ,memory-nogoals,option1;option2
1682845003,530092e62160d3d78aff9924a9895049,PennController,4,0,experiment,NULL,PennController,3,_Trial_,End,1682844728449,sonaID,undefined,1,vase,critical,B,50,vase40.jpg,vase60.jpg,low ,memory-nogoals,NULL
1682845003,530092e62160d3d78aff9924a9895049,PennController,32,0,experiment,NULL,PennController,31,_Trial_,Start,1682844728451,sonaID,undefined,29,frog,filler,B,75,frog65.jpg,frog85.jpg,GoalB,memory-nogoals,NULL
1682845003,530092e62160d3d78aff9924a9895049,PennController,32,0,experiment,NULL,PennController,31,_Header_,Start,1682844728451,sonaID,undefined,29,frog,filler,B,75,frog65.jpg,frog85.jpg,GoalB,memory-nogoals,NULL
1682845003,530092e62160d3d78aff9924a9895049,PennController,32,0,experiment,NULL,PennController,31,_Header_,End,1682844728451,sonaID,undefined,29,frog,filler,B,75,frog65.jpg,frog85.jpg,GoalB,memory-nogoals,NULL
1682845003,530092e62160d3d78aff9924a9895049,PennController,32,0,experiment,NULL,Canvas,canvas6,Print,NA,1682844735152,sonaID,undefined,29,frog,filler,B,75,frog65.jpg,frog85.jpg,GoalB,memory-nogoals,NULL
1682845003,530092e62160d3d78aff9924a9895049,PennController,32,0,experiment,NULL,Video,progression,buffer,0.002638,1682844730971,sonaID,undefined,29,frog,filler,B,75,frog65.jpg,frog85.jpg,GoalB,memory-nogoals,NULL
1682845003,530092e62160d3d78aff9924a9895049,PennController,32,0,experiment,NULL,Selector,choice,Selection,option1,1682844736273,sonaID,undefined,29,frog,filler,B,75,frog65.jpg,frog85.jpg,GoalB,memory-nogoals,option1;option2
1682845003,530092e62160d3d78aff9924a9895049,PennController,32,0,experiment,NULL,PennController,31,_Trial_,End,1682844736274,sonaID,undefined,29,frog,filler,B,75,frog65.jpg,frog85.jpg,GoalB,memory-nogoals,NULL
1682845003,530092e62160d3d78aff9924a9895049,PennController,14,0,experiment,NULL,PennController,13,_Trial_,Start,1682844736276,sonaID,undefined,11,beads,critical,B,75,beads65.jpg,beads85.jpg,low ,memory-nogoals,NULL
1682845003,530092e62160d3d78aff9924a9895049,PennController,14,0,experiment,NULL,PennController,13,_Header_,Start,1682844736276,sonaID,undefined,11,beads,critical,B,75,beads65.jpg,beads85.jpg,low ,memory-nogoals,NULL
1682845003,530092e62160d3d78aff9924a9895049,PennController,14,0,experiment,NULL,PennController,13,_Header_,End,1682844736276,sonaID,undefined,11,beads,critical,B,75,beads65.jpg,beads85.jpg,low ,memory-nogoals,NULL
1682845003,530092e62160d3d78aff9924a9895049,PennController,14,0,experiment,NULL,Canvas,canvas6,Print,NA,1682844742969,sonaID,undefined,11,beads,critical,B,75,beads65.jpg,beads85.jpg,low ,memory-nogoals,NULL
1682845003,530092e62160d3d78aff9924a9895049,PennController,14,0,experiment,NULL,Video,progression,buffer,0.004086,1682844738800,sonaID,undefined,11,beads,critical,B,75,beads65.jpg,beads85.jpg,low ,memory-nogoals,NULL
1682845003,530092e62160d3d78aff9924a9895049,PennController,14,0,experiment,NULL,Selector,choice,Selection,option2,1682844744242,sonaID,undefined,11,beads,critical,B,75,beads65.jpg,beads85.jpg,low ,memory-nogoals,option2;option1
1682845003,530092e62160d3d78aff9924a9895049,PennController,14,0,experiment,NULL,PennController,13,_Trial_,End,1682844744244,sonaID,undefined,11,beads,critical,B,75,beads65.jpg,beads85.jpg,low ,memory-nogoals,NULL
1682845003,530092e62160d3d78aff9924a9895049,PennController,30,0,experiment,NULL,PennController,29,_PreloadFailed_,fixation.png,1682844804799,sonaID,undefined,27,rice,filler,B,25,square15.jpg,square35.jpg,GoalB,memory-nogoals,NULL
1682845003,530092e62160d3d78aff9924a9895049,PennController,30,0,experiment,NULL,PennController,29,_PreloadFailed_,https://raw.githubusercontent.com/karenwli/rep-momentum/main/rice/rice00.jpg,1682844804799,sonaID,undefined,27,rice,filler,B,25,square15.jpg,square35.jpg,GoalB,memory-nogoals,NULL
1682845003,530092e62160d3d78aff9924a9895049,PennController,30,0,experiment,NULL,PennController,29,_PreloadFailed_,https://video.wixstatic.com/video/7cb05b_7d016bdcb2fc4c0e9f9b8199c36c44b8/144p/mp4/file.mp4,1682844804799,sonaID,undefined,27,rice,filler,B,25,square15.jpg,square35.jpg,GoalB,memory-nogoals,NULL
1682845003,530092e62160d3d78aff9924a9895049,PennController,30,0,experiment,NULL,PennController,29,_Trial_,Start,1682844804799,sonaID,undefined,27,rice,filler,B,25,square15.jpg,square35.jpg,GoalB,memory-nogoals,NULL
1682845003,530092e62160d3d78aff9924a9895049,PennController,30,0,experiment,NULL,PennController,29,_Header_,Start,1682844804799,sonaID,undefined,27,rice,filler,B,25,square15.jpg,square35.jpg,GoalB,memory-nogoals,NULL
1682845003,530092e62160d3d78aff9924a9895049,PennController,30,0,experiment,NULL,PennController,29,_Header_,End,1682844804799,sonaID,undefined,27,rice,filler,B,25,square15.jpg,square35.jpg,GoalB,memory-nogoals,NULL
1682845003,530092e62160d3d78aff9924a9895049,PennController,30,0,experiment,NULL,Canvas,canvas6,Print,NA,1682844811007,sonaID,undefined,27,rice,filler,B,25,square15.jpg,square35.jpg,GoalB,memory-nogoals,NULL
1682845003,530092e62160d3d78aff9924a9895049,PennController,30,0,experiment,NULL,Video,progression,buffer,0.002503,1682844808107,sonaID,undefined,27,rice,filler,B,25,square15.jpg,square35.jpg,GoalB,memory-nogoals,NULL
1682845003,530092e62160d3d78aff9924a9895049,PennController,30,0,experiment,NULL,Selector,choice,Selection,option2,1682844827617,sonaID,undefined,27,rice,filler,B,25,square15.jpg,square35.jpg,GoalB,memory-nogoals,option2;option1
1682845003,530092e62160d3d78aff9924a9895049,PennController,30,0,experiment,NULL,PennController,29,_Trial_,End,1682844827619,sonaID,undefined,27,rice,filler,B,25,square15.jpg,square35.jpg,GoalB,memory-nogoals,NULL
1682845003,530092e62160d3d78aff9924a9895049,PennController,18,0,experiment,NULL,PennController,17,_Trial_,Start,1682844827620,sonaID,undefined,15,zip,critical,B,25,zip15.jpg,zip35.jpg,low ,memory-nogoals,NULL
1682845003,530092e62160d3d78aff9924a9895049,PennController,18,0,experiment,NULL,PennController,17,_Header_,Start,1682844827620,sonaID,undefined,15,zip,critical,B,25,zip15.jpg,zip35.jpg,low ,memory-nogoals,NULL
1682845003,530092e62160d3d78aff9924a9895049,PennController,18,0,experiment,NULL,PennController,17,_Header_,End,1682844827620,sonaID,undefined,15,zip,critical,B,25,zip15.jpg,zip35.jpg,low ,memory-nogoals,NULL
1682845003,530092e62160d3d78aff9924a9895049,PennController,18,0,experiment,NULL,Canvas,canvas6,Print,NA,1682844832321,sonaID,undefined,15,zip,critical,B,25,zip15.jpg,zip35.jpg,low ,memory-nogoals,NULL
1682845003,530092e62160d3d78aff9924a9895049,PennController,18,0,experiment,NULL,Video,progression,buffer,0.004377,1682844830147,sonaID,undefined,15,zip,critical,B,25,zip15.jpg,zip35.jpg,low ,memory-nogoals,NULL
1682845003,530092e62160d3d78aff9924a9895049,PennController,18,0,experiment,NULL,Selector,choice,Selection,option1,1682844833153,sonaID,undefined,15,zip,critical,B,25,zip15.jpg,zip35.jpg,low ,memory-nogoals,option1;option2
1682845003,530092e62160d3d78aff9924a9895049,PennController,18,0,experiment,NULL,PennController,17,_Trial_,End,1682844833155,sonaID,undefined,15,zip,critical,B,25,zip15.jpg,zip35.jpg,low ,memory-nogoals,NULL
1682845003,530092e62160d3d78aff9924a9895049,PennController,31,0,experiment,NULL,PennController,30,_Trial_,Start,1682844833161,sonaID,undefined,28,sort,filler,B,50,sort40.jpg,sort60.jpg,GoalA,memory-nogoals,NULL
1682845003,530092e62160d3d78aff9924a9895049,PennController,31,0,experiment,NULL,PennController,30,_Header_,Start,1682844833161,sonaID,undefined,28,sort,filler,B,50,sort40.jpg,sort60.jpg,GoalA,memory-nogoals,NULL
1682845003,530092e62160d3d78aff9924a9895049,PennController,31,0,experiment,NULL,PennController,30,_Header_,End,1682844833161,sonaID,undefined,28,sort,filler,B,50,sort40.jpg,sort60.jpg,GoalA,memory-nogoals,NULL
1682845003,530092e62160d3d78aff9924a9895049,PennController,31,0,experiment,NULL,Canvas,canvas6,Print,NA,1682844838847,sonaID,undefined,28,sort,filler,B,50,sort40.jpg,sort60.jpg,GoalA,memory-nogoals,NULL
1682845003,530092e62160d3d78aff9924a9895049,PennController,31,0,experiment,NULL,Video,progression,buffer,0.004113,1682844835684,sonaID,undefined,28,sort,filler,B,50,sort40.jpg,sort60.jpg,GoalA,memory-nogoals,NULL
1682845003,530092e62160d3d78aff9924a9895049,PennController,31,0,experiment,NULL,Selector,choice,Selection,option2,1682844841901,sonaID,undefined,28,sort,filler,B,50,sort40.jpg,sort60.jpg,GoalA,memory-nogoals,option1;option2
1682845003,530092e62160d3d78aff9924a9895049,PennController,31,0,experiment,NULL,PennController,30,_Trial_,End,1682844841903,sonaID,undefined,28,sort,filler,B,50,sort40.jpg,sort60.jpg,GoalA,memory-nogoals,NULL
1682845003,530092e62160d3d78aff9924a9895049,PennController,17,0,experiment,NULL,PennController,16,_Trial_,Start,1682844841904,sonaID,undefined,14,cover,critical,B,75,cover66.jpg,cover84.jpg,high,memory-nogoals,NULL
1682845003,530092e62160d3d78aff9924a9895049,PennController,17,0,experiment,NULL,PennController,16,_Header_,Start,1682844841904,sonaID,undefined,14,cover,critical,B,75,cover66.jpg,cover84.jpg,high,memory-nogoals,NULL
1682845003,530092e62160d3d78aff9924a9895049,PennController,17,0,experiment,NULL,PennController,16,_Header_,End,1682844841904,sonaID,undefined,14,cover,critical,B,75,cover66.jpg,cover84.jpg,high,memory-nogoals,NULL
1682845003,530092e62160d3d78aff9924a9895049,PennController,17,0,experiment,NULL,Canvas,canvas6,Print,NA,1682844850593,sonaID,undefined,14,cover,critical,B,75,cover66.jpg,cover84.jpg,high,memory-nogoals,NULL
1682845003,530092e62160d3d78aff9924a9895049,PennController,17,0,experiment,NULL,Video,progression,buffer,0.004109,1682844844429,sonaID,undefined,14,cover,critical,B,75,cover66.jpg,cover84.jpg,high,memory-nogoals,NULL
1682845003,530092e62160d3d78aff9924a9895049,PennController,17,0,experiment,NULL,Selector,choice,Selection,option2,1682844855264,sonaID,undefined,14,cover,critical,B,75,cover66.jpg,cover84.jpg,high,memory-nogoals,option2;option1
1682845003,530092e62160d3d78aff9924a9895049,PennController,17,0,experiment,NULL,PennController,16,_Trial_,End,1682844855265,sonaID,undefined,14,cover,critical,B,75,cover66.jpg,cover84.jpg,high,memory-nogoals,NULL
1682845003,530092e62160d3d78aff9924a9895049,PennController,16,0,experiment,NULL,PennController,15,_Trial_,Start,1682844855266,sonaID,undefined,13,mix,critical,B,50,mix40.jpg,mix60.jpg,low ,memory-nogoals,NULL
1682845003,530092e62160d3d78aff9924a9895049,PennController,16,0,experiment,NULL,PennController,15,_Header_,Start,1682844855266,sonaID,undefined,13,mix,critical,B,50,mix40.jpg,mix60.jpg,low ,memory-nogoals,NULL
1682845003,530092e62160d3d78aff9924a9895049,PennController,16,0,experiment,NULL,PennController,15,_Header_,End,1682844855266,sonaID,undefined,13,mix,critical,B,50,mix40.jpg,mix60.jpg,low ,memory-nogoals,NULL
1682845003,530092e62160d3d78aff9924a9895049,PennController,16,0,experiment,NULL,Canvas,canvas6,Print,NA,1682844860956,sonaID,undefined,13,mix,critical,B,50,mix40.jpg,mix60.jpg,low ,memory-nogoals,NULL
1682845003,530092e62160d3d78aff9924a9895049,PennController,16,0,experiment,NULL,Video,progression,buffer,0.00213,1682844857789,sonaID,undefined,13,mix,critical,B,50,mix40.jpg,mix60.jpg,low ,memory-nogoals,NULL
1682845003,530092e62160d3d78aff9924a9895049,PennController,16,0,experiment,NULL,Selector,choice,Selection,option2,1682844864085,sonaID,undefined,13,mix,critical,B,50,mix40.jpg,mix60.jpg,low ,memory-nogoals,option1;option2
1682845003,530092e62160d3d78aff9924a9895049,PennController,16,0,experiment,NULL,PennController,15,_Trial_,End,1682844864087,sonaID,undefined,13,mix,critical,B,50,mix40.jpg,mix60.jpg,low ,memory-nogoals,NULL
1682845003,530092e62160d3d78aff9924a9895049,PennController,5,0,experiment,NULL,PennController,4,_Trial_,Start,1682844864093,sonaID,undefined,2,door,critical,B,75,door65.jpg,door85.jpg,high,memory-nogoals,NULL
1682845003,530092e62160d3d78aff9924a9895049,PennController,5,0,experiment,NULL,PennController,4,_Header_,Start,1682844864093,sonaID,undefined,2,door,critical,B,75,door65.jpg,door85.jpg,high,memory-nogoals,NULL
1682845003,530092e62160d3d78aff9924a9895049,PennController,5,0,experiment,NULL,PennController,4,_Header_,End,1682844864093,sonaID,undefined,2,door,critical,B,75,door65.jpg,door85.jpg,high,memory-nogoals,NULL
1682845003,530092e62160d3d78aff9924a9895049,PennController,5,0,experiment,NULL,Canvas,canvas6,Print,NA,1682844870788,sonaID,undefined,2,door,critical,B,75,door65.jpg,door85.jpg,high,memory-nogoals,NULL
1682845003,530092e62160d3d78aff9924a9895049,PennController,5,0,experiment,NULL,Video,progression,buffer,0.003573,1682844866612,sonaID,undefined,2,door,critical,B,75,door65.jpg,door85.jpg,high,memory-nogoals,NULL
1682845003,530092e62160d3d78aff9924a9895049,PennController,5,0,experiment,NULL,Selector,choice,Selection,option2,1682844873046,sonaID,undefined,2,door,critical,B,75,door65.jpg,door85.jpg,high,memory-nogoals,option1;option2
1682845003,530092e62160d3d78aff9924a9895049,PennController,5,0,experiment,NULL,PennController,4,_Trial_,End,1682844873047,sonaID,undefined,2,door,critical,B,75,door65.jpg,door85.jpg,high,memory-nogoals,NULL
1682845003,530092e62160d3d78aff9924a9895049,PennController,25,0,experiment,NULL,PennController,24,_Trial_,Start,1682844873048,sonaID,undefined,22,wall,filler,B,50,wall40.jpg,wall60.jpg,GoalA,memory-nogoals,NULL
1682845003,530092e62160d3d78aff9924a9895049,PennController,25,0,experiment,NULL,PennController,24,_Header_,Start,1682844873048,sonaID,undefined,22,wall,filler,B,50,wall40.jpg,wall60.jpg,GoalA,memory-nogoals,NULL
1682845003,530092e62160d3d78aff9924a9895049,PennController,25,0,experiment,NULL,PennController,24,_Header_,End,1682844873048,sonaID,undefined,22,wall,filler,B,50,wall40.jpg,wall60.jpg,GoalA,memory-nogoals,NULL
1682845003,530092e62160d3d78aff9924a9895049,PennController,25,0,experiment,NULL,Canvas,canvas6,Print,NA,1682844878737,sonaID,undefined,22,wall,filler,B,50,wall40.jpg,wall60.jpg,GoalA,memory-nogoals,NULL
1682845003,530092e62160d3d78aff9924a9895049,PennController,25,0,experiment,NULL,Video,progression,buffer,0.004238,1682844875570,sonaID,undefined,22,wall,filler,B,50,wall40.jpg,wall60.jpg,GoalA,memory-nogoals,NULL
1682845003,530092e62160d3d78aff9924a9895049,PennController,25,0,experiment,NULL,Selector,choice,Selection,option2,1682844880035,sonaID,undefined,22,wall,filler,B,50,wall40.jpg,wall60.jpg,GoalA,memory-nogoals,option2;option1
1682845003,530092e62160d3d78aff9924a9895049,PennController,25,0,experiment,NULL,PennController,24,_Trial_,End,1682844880037,sonaID,undefined,22,wall,filler,B,50,wall40.jpg,wall60.jpg,GoalA,memory-nogoals,NULL
1682845003,530092e62160d3d78aff9924a9895049,PennController,12,0,experiment,NULL,PennController,11,_Trial_,Start,1682844880039,sonaID,undefined,9,cake,critical,B,25,cake15.jpg,cake33.jpg,low ,memory-nogoals,NULL
1682845003,530092e62160d3d78aff9924a9895049,PennController,12,0,experiment,NULL,PennController,11,_Header_,Start,1682844880039,sonaID,undefined,9,cake,critical,B,25,cake15.jpg,cake33.jpg,low ,memory-nogoals,NULL
1682845003,530092e62160d3d78aff9924a9895049,PennController,12,0,experiment,NULL,PennController,11,_Header_,End,1682844880040,sonaID,undefined,9,cake,critical,B,25,cake15.jpg,cake33.jpg,low ,memory-nogoals,NULL
1682845003,530092e62160d3d78aff9924a9895049,PennController,12,0,experiment,NULL,Canvas,canvas6,Print,NA,1682844885325,sonaID,undefined,9,cake,critical,B,25,cake15.jpg,cake33.jpg,low ,memory-nogoals,NULL
1682845003,530092e62160d3d78aff9924a9895049,PennController,12,0,experiment,NULL,Video,progression,buffer,0.003953,1682844882558,sonaID,undefined,9,cake,critical,B,25,cake15.jpg,cake33.jpg,low ,memory-nogoals,NULL
1682845003,530092e62160d3d78aff9924a9895049,PennController,12,0,experiment,NULL,Selector,choice,Selection,option2,1682844886560,sonaID,undefined,9,cake,critical,B,25,cake15.jpg,cake33.jpg,low ,memory-nogoals,option2;option1
1682845003,530092e62160d3d78aff9924a9895049,PennController,12,0,experiment,NULL,PennController,11,_Trial_,End,1682844886561,sonaID,undefined,9,cake,critical,B,25,cake15.jpg,cake33.jpg,low ,memory-nogoals,NULL
1682845003,530092e62160d3d78aff9924a9895049,PennController,23,0,experiment,NULL,PennController,22,_Trial_,Start,1682844886562,sonaID,undefined,20,cat,filler,B,75,cat65.jpg,cat85.jpg,GoalA,memory-nogoals,NULL
1682845003,530092e62160d3d78aff9924a9895049,PennController,23,0,experiment,NULL,PennController,22,_Header_,Start,1682844886562,sonaID,undefined,20,cat,filler,B,75,cat65.jpg,cat85.jpg,GoalA,memory-nogoals,NULL
1682845003,530092e62160d3d78aff9924a9895049,PennController,23,0,experiment,NULL,PennController,22,_Header_,End,1682844886563,sonaID,undefined,20,cat,filler,B,75,cat65.jpg,cat85.jpg,GoalA,memory-nogoals,NULL
1682845003,530092e62160d3d78aff9924a9895049,PennController,23,0,experiment,NULL,Canvas,canvas6,Print,NA,1682844893264,sonaID,undefined,20,cat,filler,B,75,cat65.jpg,cat85.jpg,GoalA,memory-nogoals,NULL
1682845003,530092e62160d3d78aff9924a9895049,PennController,23,0,experiment,NULL,Video,progression,buffer,0.00319,1682844889083,sonaID,undefined,20,cat,filler,B,75,cat65.jpg,cat85.jpg,GoalA,memory-nogoals,NULL
1682845003,530092e62160d3d78aff9924a9895049,PennController,23,0,experiment,NULL,Selector,choice,Selection,option2,1682844897069,sonaID,undefined,20,cat,filler,B,75,cat65.jpg,cat85.jpg,GoalA,memory-nogoals,option2;option1
1682845003,530092e62160d3d78aff9924a9895049,PennController,23,0,experiment,NULL,PennController,22,_Trial_,End,1682844897071,sonaID,undefined,20,cat,filler,B,75,cat65.jpg,cat85.jpg,GoalA,memory-nogoals,NULL
1682845003,530092e62160d3d78aff9924a9895049,PennController,29,0,experiment,NULL,PennController,28,_Trial_,Start,1682844897073,sonaID,undefined,26,sandwich,filler,B,75,sandwich65.jpg,sandwich85.jpg,GoalA,memory-nogoals,NULL
1682845003,530092e62160d3d78aff9924a9895049,PennController,29,0,experiment,NULL,PennController,28,_Header_,Start,1682844897073,sonaID,undefined,26,sandwich,filler,B,75,sandwich65.jpg,sandwich85.jpg,GoalA,memory-nogoals,NULL
1682845003,530092e62160d3d78aff9924a9895049,PennController,29,0,experiment,NULL,PennController,28,_Header_,End,1682844897073,sonaID,undefined,26,sandwich,filler,B,75,sandwich65.jpg,sandwich85.jpg,GoalA,memory-nogoals,NULL
1682845003,530092e62160d3d78aff9924a9895049,PennController,29,0,experiment,NULL,Canvas,canvas6,Print,NA,1682844903765,sonaID,undefined,26,sandwich,filler,B,75,sandwich65.jpg,sandwich85.jpg,GoalA,memory-nogoals,NULL
1682845003,530092e62160d3d78aff9924a9895049,PennController,29,0,experiment,NULL,Video,progression,buffer,0.000879,1682844899591,sonaID,undefined,26,sandwich,filler,B,75,sandwich65.jpg,sandwich85.jpg,GoalA,memory-nogoals,NULL
1682845003,530092e62160d3d78aff9924a9895049,PennController,29,0,experiment,NULL,Selector,choice,Selection,option1,1682844905226,sonaID,undefined,26,sandwich,filler,B,75,sandwich65.jpg,sandwich85.jpg,GoalA,memory-nogoals,option2;option1
1682845003,530092e62160d3d78aff9924a9895049,PennController,29,0,experiment,NULL,PennController,28,_Trial_,End,1682844905227,sonaID,undefined,26,sandwich,filler,B,75,sandwich65.jpg,sandwich85.jpg,GoalA,memory-nogoals,NULL
1682845003,530092e62160d3d78aff9924a9895049,PennController,9,0,experiment,NULL,PennController,8,_Trial_,Start,1682844905228,sonaID,undefined,6,flower,critical,B,25,flower15.jpg,flower35.jpg,high,memory-nogoals,NULL
1682845003,530092e62160d3d78aff9924a9895049,PennController,9,0,experiment,NULL,PennController,8,_Header_,Start,1682844905228,sonaID,undefined,6,flower,critical,B,25,flower15.jpg,flower35.jpg,high,memory-nogoals,NULL
1682845003,530092e62160d3d78aff9924a9895049,PennController,9,0,experiment,NULL,PennController,8,_Header_,End,1682844905228,sonaID,undefined,6,flower,critical,B,25,flower15.jpg,flower35.jpg,high,memory-nogoals,NULL
1682845003,530092e62160d3d78aff9924a9895049,PennController,9,0,experiment,NULL,Canvas,canvas6,Print,NA,1682844909927,sonaID,undefined,6,flower,critical,B,25,flower15.jpg,flower35.jpg,high,memory-nogoals,NULL
1682845003,530092e62160d3d78aff9924a9895049,PennController,9,0,experiment,NULL,Video,progression,buffer,0.003559,1682844907749,sonaID,undefined,6,flower,critical,B,25,flower15.jpg,flower35.jpg,high,memory-nogoals,NULL
1682845003,530092e62160d3d78aff9924a9895049,PennController,9,0,experiment,NULL,Selector,choice,Selection,option2,1682844911641,sonaID,undefined,6,flower,critical,B,25,flower15.jpg,flower35.jpg,high,memory-nogoals,option2;option1
1682845003,530092e62160d3d78aff9924a9895049,PennController,9,0,experiment,NULL,PennController,8,_Trial_,End,1682844911643,sonaID,undefined,6,flower,critical,B,25,flower15.jpg,flower35.jpg,high,memory-nogoals,NULL
1682845003,530092e62160d3d78aff9924a9895049,PennController,21,0,experiment,NULL,PennController,20,_Trial_,Start,1682844911645,sonaID,undefined,18,ball,critical,B,25,ball15.jpg,ball35.jpg,high,memory-nogoals,NULL
1682845003,530092e62160d3d78aff9924a9895049,PennController,21,0,experiment,NULL,PennController,20,_Header_,Start,1682844911645,sonaID,undefined,18,ball,critical,B,25,ball15.jpg,ball35.jpg,high,memory-nogoals,NULL
1682845003,530092e62160d3d78aff9924a9895049,PennController,21,0,experiment,NULL,PennController,20,_Header_,End,1682844911645,sonaID,undefined,18,ball,critical,B,25,ball15.jpg,ball35.jpg,high,memory-nogoals,NULL
1682845003,530092e62160d3d78aff9924a9895049,PennController,21,0,experiment,NULL,Canvas,canvas6,Print,NA,1682844916347,sonaID,undefined,18,ball,critical,B,25,ball15.jpg,ball35.jpg,high,memory-nogoals,NULL
1682845003,530092e62160d3d78aff9924a9895049,PennController,21,0,experiment,NULL,Video,progression,buffer,0.004224,1682844914169,sonaID,undefined,18,ball,critical,B,25,ball15.jpg,ball35.jpg,high,memory-nogoals,NULL
1682845003,530092e62160d3d78aff9924a9895049,PennController,21,0,experiment,NULL,Selector,choice,Selection,option2,1682844917869,sonaID,undefined,18,ball,critical,B,25,ball15.jpg,ball35.jpg,high,memory-nogoals,option1;option2
1682845003,530092e62160d3d78aff9924a9895049,PennController,21,0,experiment,NULL,PennController,20,_Trial_,End,1682844917871,sonaID,undefined,18,ball,critical,B,25,ball15.jpg,ball35.jpg,high,memory-nogoals,NULL
1682845003,530092e62160d3d78aff9924a9895049,PennController,15,0,experiment,NULL,PennController,14,_Trial_,Start,1682844917876,sonaID,undefined,12,erase,critical,B,25,erase15.jpg,erase33.jpg,high,memory-nogoals,NULL
1682845003,530092e62160d3d78aff9924a9895049,PennController,15,0,experiment,NULL,PennController,14,_Header_,Start,1682844917876,sonaID,undefined,12,erase,critical,B,25,erase15.jpg,erase33.jpg,high,memory-nogoals,NULL
1682845003,530092e62160d3d78aff9924a9895049,PennController,15,0,experiment,NULL,PennController,14,_Header_,End,1682844917876,sonaID,undefined,12,erase,critical,B,25,erase15.jpg,erase33.jpg,high,memory-nogoals,NULL
1682845003,530092e62160d3d78aff9924a9895049,PennController,15,0,experiment,NULL,Canvas,canvas6,Print,NA,1682844923162,sonaID,undefined,12,erase,critical,B,25,erase15.jpg,erase33.jpg,high,memory-nogoals,NULL
1682845003,530092e62160d3d78aff9924a9895049,PennController,15,0,experiment,NULL,Video,progression,buffer,0.001597,1682844920392,sonaID,undefined,12,erase,critical,B,25,erase15.jpg,erase33.jpg,high,memory-nogoals,NULL
1682845003,530092e62160d3d78aff9924a9895049,PennController,15,0,experiment,NULL,Selector,choice,Selection,option2,1682844924658,sonaID,undefined,12,erase,critical,B,25,erase15.jpg,erase33.jpg,high,memory-nogoals,option1;option2
1682845003,530092e62160d3d78aff9924a9895049,PennController,15,0,experiment,NULL,PennController,14,_Trial_,End,1682844924659,sonaID,undefined,12,erase,critical,B,25,erase15.jpg,erase33.jpg,high,memory-nogoals,NULL
1682845003,530092e62160d3d78aff9924a9895049,PennController,11,0,experiment,NULL,PennController,10,_Trial_,Start,1682844924661,sonaID,undefined,8,cucumber,critical,B,75,cucumber66.jpg,cucumber84.jpg,high,memory-nogoals,NULL
1682845003,530092e62160d3d78aff9924a9895049,PennController,11,0,experiment,NULL,PennController,10,_Header_,Start,1682844924661,sonaID,undefined,8,cucumber,critical,B,75,cucumber66.jpg,cucumber84.jpg,high,memory-nogoals,NULL
1682845003,530092e62160d3d78aff9924a9895049,PennController,11,0,experiment,NULL,PennController,10,_Header_,End,1682844924661,sonaID,undefined,8,cucumber,critical,B,75,cucumber66.jpg,cucumber84.jpg,high,memory-nogoals,NULL
1682845003,530092e62160d3d78aff9924a9895049,PennController,11,0,experiment,NULL,Canvas,canvas6,Print,NA,1682844936943,sonaID,undefined,8,cucumber,critical,B,75,cucumber66.jpg,cucumber84.jpg,high,memory-nogoals,NULL
1682845003,530092e62160d3d78aff9924a9895049,PennController,11,0,experiment,NULL,Video,progression,buffer,0.001865,1682844927179,sonaID,undefined,8,cucumber,critical,B,75,cucumber66.jpg,cucumber84.jpg,high,memory-nogoals,NULL
1682845003,530092e62160d3d78aff9924a9895049,PennController,11,0,experiment,NULL,Selector,choice,Selection,option1,1682844938894,sonaID,undefined,8,cucumber,critical,B,75,cucumber66.jpg,cucumber84.jpg,high,memory-nogoals,option1;option2
1682845003,530092e62160d3d78aff9924a9895049,PennController,11,0,experiment,NULL,PennController,10,_Trial_,End,1682844938896,sonaID,undefined,8,cucumber,critical,B,75,cucumber66.jpg,cucumber84.jpg,high,memory-nogoals,NULL
1682845003,530092e62160d3d78aff9924a9895049,PennController,24,0,experiment,NULL,PennController,23,_Trial_,Start,1682844938901,sonaID,undefined,21,visit,filler,B,25,visit15.jpg,visit35.jpg,GoalB,memory-nogoals,NULL
1682845003,530092e62160d3d78aff9924a9895049,PennController,24,0,experiment,NULL,PennController,23,_Header_,Start,1682844938901,sonaID,undefined,21,visit,filler,B,25,visit15.jpg,visit35.jpg,GoalB,memory-nogoals,NULL
1682845003,530092e62160d3d78aff9924a9895049,PennController,24,0,experiment,NULL,PennController,23,_Header_,End,1682844938901,sonaID,undefined,21,visit,filler,B,25,visit15.jpg,visit35.jpg,GoalB,memory-nogoals,NULL
1682845003,530092e62160d3d78aff9924a9895049,PennController,24,0,experiment,NULL,Canvas,canvas6,Print,NA,1682844944876,sonaID,undefined,21,visit,filler,B,25,visit15.jpg,visit35.jpg,GoalB,memory-nogoals,NULL
1682845003,530092e62160d3d78aff9924a9895049,PennController,24,0,experiment,NULL,Video,progression,buffer,0.002199,1682844941793,sonaID,undefined,21,visit,filler,B,25,visit15.jpg,visit35.jpg,GoalB,memory-nogoals,NULL
1682845003,530092e62160d3d78aff9924a9895049,PennController,24,0,experiment,NULL,Selector,choice,Selection,option2,1682844965697,sonaID,undefined,21,visit,filler,B,25,visit15.jpg,visit35.jpg,GoalB,memory-nogoals,option1;option2
1682845003,530092e62160d3d78aff9924a9895049,PennController,24,0,experiment,NULL,PennController,23,_Trial_,End,1682844965698,sonaID,undefined,21,visit,filler,B,25,visit15.jpg,visit35.jpg,GoalB,memory-nogoals,NULL
1682845003,530092e62160d3d78aff9924a9895049,PennController,22,0,experiment,NULL,PennController,21,_Trial_,Start,1682844965702,sonaID,undefined,19,cup,filler,B,50,cup40.jpg,cup60.jpg,GoalB,memory-nogoals,NULL
1682845003,530092e62160d3d78aff9924a9895049,PennController,22,0,experiment,NULL,PennController,21,_Header_,Start,1682844965702,sonaID,undefined,19,cup,filler,B,50,cup40.jpg,cup60.jpg,GoalB,memory-nogoals,NULL
1682845003,530092e62160d3d78aff9924a9895049,PennController,22,0,experiment,NULL,PennController,21,_Header_,End,1682844965702,sonaID,undefined,19,cup,filler,B,50,cup40.jpg,cup60.jpg,GoalB,memory-nogoals,NULL
1682845003,530092e62160d3d78aff9924a9895049,PennController,22,0,experiment,NULL,Canvas,canvas6,Print,NA,1682844972041,sonaID,undefined,19,cup,filler,B,50,cup40.jpg,cup60.jpg,GoalB,memory-nogoals,NULL
1682845003,530092e62160d3d78aff9924a9895049,PennController,22,0,experiment,NULL,Video,progression,buffer,0.002728,1682844968795,sonaID,undefined,19,cup,filler,B,50,cup40.jpg,cup60.jpg,GoalB,memory-nogoals,NULL
1682845003,530092e62160d3d78aff9924a9895049,PennController,22,0,experiment,NULL,Selector,choice,Selection,option1,1682844979640,sonaID,undefined,19,cup,filler,B,50,cup40.jpg,cup60.jpg,GoalB,memory-nogoals,option2;option1
1682845003,530092e62160d3d78aff9924a9895049,PennController,22,0,experiment,NULL,PennController,21,_Trial_,End,1682844979642,sonaID,undefined,19,cup,filler,B,50,cup40.jpg,cup60.jpg,GoalB,memory-nogoals,NULL
1682845003,530092e62160d3d78aff9924a9895049,PennController,28,0,experiment,NULL,PennController,27,_Trial_,Start,1682844979643,sonaID,undefined,25,house,filler,B,50,house40.jpg,house60.jpg,GoalB,memory-nogoals,NULL
1682845003,530092e62160d3d78aff9924a9895049,PennController,28,0,experiment,NULL,PennController,27,_Header_,Start,1682844979643,sonaID,undefined,25,house,filler,B,50,house40.jpg,house60.jpg,GoalB,memory-nogoals,NULL
1682845003,530092e62160d3d78aff9924a9895049,PennController,28,0,experiment,NULL,PennController,27,_Header_,End,1682844979643,sonaID,undefined,25,house,filler,B,50,house40.jpg,house60.jpg,GoalB,memory-nogoals,NULL
1682845003,530092e62160d3d78aff9924a9895049,PennController,28,0,experiment,NULL,Canvas,canvas6,Print,NA,1682844985332,sonaID,undefined,25,house,filler,B,50,house40.jpg,house60.jpg,GoalB,memory-nogoals,NULL
1682845003,530092e62160d3d78aff9924a9895049,PennController,28,0,experiment,NULL,Video,progression,buffer,0.005834,1682844982160,sonaID,undefined,25,house,filler,B,50,house40.jpg,house60.jpg,GoalB,memory-nogoals,NULL
1682845003,530092e62160d3d78aff9924a9895049,PennController,28,0,experiment,NULL,Selector,choice,Selection,option2,1682844987133,sonaID,undefined,25,house,filler,B,50,house40.jpg,house60.jpg,GoalB,memory-nogoals,option1;option2
1682845003,530092e62160d3d78aff9924a9895049,PennController,28,0,experiment,NULL,PennController,27,_Trial_,End,1682844987134,sonaID,undefined,25,house,filler,B,50,house40.jpg,house60.jpg,GoalB,memory-nogoals,NULL
1682845003,530092e62160d3d78aff9924a9895049,PennController,8,0,experiment,NULL,PennController,7,_Trial_,Start,1682844987136,sonaID,undefined,5,book,critical,B,75,book65.jpg,book85.jpg,low ,memory-nogoals,NULL
1682845003,530092e62160d3d78aff9924a9895049,PennController,8,0,experiment,NULL,PennController,7,_Header_,Start,1682844987136,sonaID,undefined,5,book,critical,B,75,book65.jpg,book85.jpg,low ,memory-nogoals,NULL
1682845003,530092e62160d3d78aff9924a9895049,PennController,8,0,experiment,NULL,PennController,7,_Header_,End,1682844987136,sonaID,undefined,5,book,critical,B,75,book65.jpg,book85.jpg,low ,memory-nogoals,NULL
1682845003,530092e62160d3d78aff9924a9895049,PennController,8,0,experiment,NULL,Canvas,canvas6,Print,NA,1682844993838,sonaID,undefined,5,book,critical,B,75,book65.jpg,book85.jpg,low ,memory-nogoals,NULL
1682845003,530092e62160d3d78aff9924a9895049,PennController,8,0,experiment,NULL,Video,progression,buffer,0.00602,1682844989660,sonaID,undefined,5,book,critical,B,75,book65.jpg,book85.jpg,low ,memory-nogoals,NULL
1682845003,530092e62160d3d78aff9924a9895049,PennController,8,0,experiment,NULL,Selector,choice,Selection,option1,1682844996719,sonaID,undefined,5,book,critical,B,75,book65.jpg,book85.jpg,low ,memory-nogoals,option1;option2
1682845003,530092e62160d3d78aff9924a9895049,PennController,8,0,experiment,NULL,PennController,7,_Trial_,End,1682844996721,sonaID,undefined,5,book,critical,B,75,book65.jpg,book85.jpg,low ,memory-nogoals,NULL
1682845003,530092e62160d3d78aff9924a9895049,PennController,6,0,experiment,NULL,PennController,5,_Trial_,Start,1682844996725,sonaID,undefined,3,clean,critical,B,25,clean15.jpg,clean35.jpg,low ,memory-nogoals,NULL
1682845003,530092e62160d3d78aff9924a9895049,PennController,6,0,experiment,NULL,PennController,5,_Header_,Start,1682844996725,sonaID,undefined,3,clean,critical,B,25,clean15.jpg,clean35.jpg,low ,memory-nogoals,NULL
1682845003,530092e62160d3d78aff9924a9895049,PennController,6,0,experiment,NULL,PennController,5,_Header_,End,1682844996725,sonaID,undefined,3,clean,critical,B,25,clean15.jpg,clean35.jpg,low ,memory-nogoals,NULL
1682845003,530092e62160d3d78aff9924a9895049,PennController,6,0,experiment,NULL,Canvas,canvas6,Print,NA,1682845001423,sonaID,undefined,3,clean,critical,B,25,clean15.jpg,clean35.jpg,low ,memory-nogoals,NULL
1682845003,530092e62160d3d78aff9924a9895049,PennController,6,0,experiment,NULL,Video,progression,buffer,0.003576,1682844999249,sonaID,undefined,3,clean,critical,B,25,clean15.jpg,clean35.jpg,low ,memory-nogoals,NULL
1682845003,530092e62160d3d78aff9924a9895049,PennController,6,0,experiment,NULL,Selector,choice,Selection,option1,1682845003510,sonaID,undefined,3,clean,critical,B,25,clean15.jpg,clean35.jpg,low ,memory-nogoals,option2;option1
1682845003,530092e62160d3d78aff9924a9895049,PennController,6,0,experiment,NULL,PennController,5,_Trial_,End,1682845003512,sonaID,undefined,3,clean,critical,B,25,clean15.jpg,clean35.jpg,low ,memory-nogoals,NULL
