#
# Results on Sunday April 30 2023 03:32:24 UTC
# USER AGENT: Mozilla/5.0 (Macintosh; Intel Mac OS X 10_15_7) AppleWebKit/605.1.15 (KHTML, like Gecko) Version/15.6 Safari/605.1.15
# Design number was non-random = 24
#
# Columns below this comment are as follows:
# 1. Results reception time.
# 2. MD5 hash of participant's IP address.
# 3. Controller name.
# 4. Order number of item.
# 5. Inner element number.
# 6. Label.
# 7. Latin Square Group.
# 8. PennElementType.
# 9. PennElementName.
# 10. Parameter.
# 11. Value.
# 12. EventTime.
# 13. sonaID.
# 14. Comments.
1682825544,cbe1764b0f39484cad130e80226dbebf,PennController,2,0,consent,NULL,PennController,0,_Header_,End,1682825235469,sonaID,NULL
1682825544,cbe1764b0f39484cad130e80226dbebf,PennController,2,0,consent,NULL,PennController,0,_Header_,Start,1682825235469,sonaID,NULL
1682825544,cbe1764b0f39484cad130e80226dbebf,PennController,2,0,consent,NULL,PennController,0,_Trial_,Start,1682825235469,sonaID,NULL
1682825544,cbe1764b0f39484cad130e80226dbebf,PennController,2,0,consent,NULL,PennController,0,_Trial_,End,1682825247022,sonaID,NULL
# Columns below this comment are as follows:
# 14. ID.
# 15. Comments.
1682825544,cbe1764b0f39484cad130e80226dbebf,PennController,3,0,intro,NULL,PennController,1,_Header_,End,1682825247023,sonaID,undefined,NULL
1682825544,cbe1764b0f39484cad130e80226dbebf,PennController,3,0,intro,NULL,PennController,1,_Header_,Start,1682825247023,sonaID,undefined,NULL
1682825544,cbe1764b0f39484cad130e80226dbebf,PennController,3,0,intro,NULL,PennController,1,_Trial_,Start,1682825247023,sonaID,undefined,NULL
1682825544,cbe1764b0f39484cad130e80226dbebf,PennController,3,0,intro,NULL,TextInput,inputID,First,,1682825249438,sonaID,undefined,2
1682825544,cbe1764b0f39484cad130e80226dbebf,PennController,3,0,intro,NULL,TextInput,inputID,EnterReturn,27027965,1682825253738,sonaID,undefined,NULL
1682825544,cbe1764b0f39484cad130e80226dbebf,PennController,3,0,intro,NULL,TextInput,inputID,Final,27027965,1682825253741,sonaID,undefined,NULL
1682825544,cbe1764b0f39484cad130e80226dbebf,PennController,3,0,intro,NULL,PennController,1,_Trial_,End,1682825253742,sonaID,undefined,NULL
# Columns below this comment are as follows:
# 15. item_number.
# 16. item.
# 17. type.
# 18. Group.
# 19. prog.
# 20. prev_image.
# 21. next_image.
# 22. height.
# 23. memory-nogoals.
# 24. Comments.
1682825544,cbe1764b0f39484cad130e80226dbebf,PennController,32,0,experiment,NULL,PennController,31,_Header_,End,1682825253745,sonaID,undefined,29,frog,filler,A,50,frog40.jpg,frog60.jpg,GoalA,memory-nogoals,NULL
1682825544,cbe1764b0f39484cad130e80226dbebf,PennController,32,0,experiment,NULL,PennController,31,_Header_,Start,1682825253745,sonaID,undefined,29,frog,filler,A,50,frog40.jpg,frog60.jpg,GoalA,memory-nogoals,NULL
1682825544,cbe1764b0f39484cad130e80226dbebf,PennController,32,0,experiment,NULL,PennController,31,_Trial_,Start,1682825253745,sonaID,undefined,29,frog,filler,A,50,frog40.jpg,frog60.jpg,GoalA,memory-nogoals,NULL
1682825544,cbe1764b0f39484cad130e80226dbebf,PennController,32,0,experiment,NULL,Canvas,canvas6,Print,NA,1682825259494,sonaID,undefined,29,frog,filler,A,50,frog40.jpg,frog60.jpg,GoalA,memory-nogoals,NULL
1682825544,cbe1764b0f39484cad130e80226dbebf,PennController,32,0,experiment,NULL,Selector,choice,Selection,option2,1682825262820,sonaID,undefined,29,frog,filler,A,50,frog40.jpg,frog60.jpg,GoalA,memory-nogoals,option1;option2
1682825544,cbe1764b0f39484cad130e80226dbebf,PennController,32,0,experiment,NULL,PennController,31,_Trial_,End,1682825262825,sonaID,undefined,29,frog,filler,A,50,frog40.jpg,frog60.jpg,GoalA,memory-nogoals,NULL
1682825544,cbe1764b0f39484cad130e80226dbebf,PennController,14,0,experiment,NULL,PennController,13,_Header_,Start,1682825262827,sonaID,undefined,11,beads,critical,A,50,beads40.jpg,beads60.jpg,low ,memory-nogoals,NULL
1682825544,cbe1764b0f39484cad130e80226dbebf,PennController,14,0,experiment,NULL,PennController,13,_Trial_,Start,1682825262827,sonaID,undefined,11,beads,critical,A,50,beads40.jpg,beads60.jpg,low ,memory-nogoals,NULL
1682825544,cbe1764b0f39484cad130e80226dbebf,PennController,14,0,experiment,NULL,PennController,13,_Header_,End,1682825262828,sonaID,undefined,11,beads,critical,A,50,beads40.jpg,beads60.jpg,low ,memory-nogoals,NULL
1682825544,cbe1764b0f39484cad130e80226dbebf,PennController,14,0,experiment,NULL,Canvas,canvas6,Print,NA,1682825268569,sonaID,undefined,11,beads,critical,A,50,beads40.jpg,beads60.jpg,low ,memory-nogoals,NULL
1682825544,cbe1764b0f39484cad130e80226dbebf,PennController,14,0,experiment,NULL,Selector,choice,Selection,option2,1682825271169,sonaID,undefined,11,beads,critical,A,50,beads40.jpg,beads60.jpg,low ,memory-nogoals,option1;option2
1682825544,cbe1764b0f39484cad130e80226dbebf,PennController,14,0,experiment,NULL,PennController,13,_Trial_,End,1682825271172,sonaID,undefined,11,beads,critical,A,50,beads40.jpg,beads60.jpg,low ,memory-nogoals,NULL
1682825544,cbe1764b0f39484cad130e80226dbebf,PennController,20,0,experiment,NULL,PennController,19,_Header_,Start,1682825271175,sonaID,undefined,17,roll,critical,A,50,roll40.jpg,roll60.jpg,low ,memory-nogoals,NULL
1682825544,cbe1764b0f39484cad130e80226dbebf,PennController,20,0,experiment,NULL,PennController,19,_Trial_,Start,1682825271175,sonaID,undefined,17,roll,critical,A,50,roll40.jpg,roll60.jpg,low ,memory-nogoals,NULL
1682825544,cbe1764b0f39484cad130e80226dbebf,PennController,20,0,experiment,NULL,PennController,19,_Header_,End,1682825271176,sonaID,undefined,17,roll,critical,A,50,roll40.jpg,roll60.jpg,low ,memory-nogoals,NULL
1682825544,cbe1764b0f39484cad130e80226dbebf,PennController,20,0,experiment,NULL,Canvas,canvas6,Print,NA,1682825276924,sonaID,undefined,17,roll,critical,A,50,roll40.jpg,roll60.jpg,low ,memory-nogoals,NULL
1682825544,cbe1764b0f39484cad130e80226dbebf,PennController,20,0,experiment,NULL,Selector,choice,Selection,option2,1682825279586,sonaID,undefined,17,roll,critical,A,50,roll40.jpg,roll60.jpg,low ,memory-nogoals,option1;option2
1682825544,cbe1764b0f39484cad130e80226dbebf,PennController,20,0,experiment,NULL,PennController,19,_Trial_,End,1682825279590,sonaID,undefined,17,roll,critical,A,50,roll40.jpg,roll60.jpg,low ,memory-nogoals,NULL
1682825544,cbe1764b0f39484cad130e80226dbebf,PennController,8,0,experiment,NULL,PennController,7,_Header_,End,1682825279593,sonaID,undefined,5,book,critical,A,50,book40.jpg,book60.jpg,low ,memory-nogoals,NULL
1682825544,cbe1764b0f39484cad130e80226dbebf,PennController,8,0,experiment,NULL,PennController,7,_Header_,Start,1682825279593,sonaID,undefined,5,book,critical,A,50,book40.jpg,book60.jpg,low ,memory-nogoals,NULL
1682825544,cbe1764b0f39484cad130e80226dbebf,PennController,8,0,experiment,NULL,PennController,7,_Trial_,Start,1682825279593,sonaID,undefined,5,book,critical,A,50,book40.jpg,book60.jpg,low ,memory-nogoals,NULL
1682825544,cbe1764b0f39484cad130e80226dbebf,PennController,8,0,experiment,NULL,Canvas,canvas6,Print,NA,1682825285340,sonaID,undefined,5,book,critical,A,50,book40.jpg,book60.jpg,low ,memory-nogoals,NULL
1682825544,cbe1764b0f39484cad130e80226dbebf,PennController,8,0,experiment,NULL,Selector,choice,Selection,option2,1682825287786,sonaID,undefined,5,book,critical,A,50,book40.jpg,book60.jpg,low ,memory-nogoals,option1;option2
1682825544,cbe1764b0f39484cad130e80226dbebf,PennController,8,0,experiment,NULL,PennController,7,_Trial_,End,1682825287789,sonaID,undefined,5,book,critical,A,50,book40.jpg,book60.jpg,low ,memory-nogoals,NULL
1682825544,cbe1764b0f39484cad130e80226dbebf,PennController,17,0,experiment,NULL,PennController,16,_Header_,End,1682825287792,sonaID,undefined,14,cover,critical,A,50,cover42.jpg,cover60.jpg,high,memory-nogoals,NULL
1682825544,cbe1764b0f39484cad130e80226dbebf,PennController,17,0,experiment,NULL,PennController,16,_Header_,Start,1682825287792,sonaID,undefined,14,cover,critical,A,50,cover42.jpg,cover60.jpg,high,memory-nogoals,NULL
1682825544,cbe1764b0f39484cad130e80226dbebf,PennController,17,0,experiment,NULL,PennController,16,_Trial_,Start,1682825287792,sonaID,undefined,14,cover,critical,A,50,cover42.jpg,cover60.jpg,high,memory-nogoals,NULL
1682825544,cbe1764b0f39484cad130e80226dbebf,PennController,17,0,experiment,NULL,Canvas,canvas6,Print,NA,1682825294938,sonaID,undefined,14,cover,critical,A,50,cover42.jpg,cover60.jpg,high,memory-nogoals,NULL
1682825544,cbe1764b0f39484cad130e80226dbebf,PennController,17,0,experiment,NULL,Selector,choice,Selection,option1,1682825296902,sonaID,undefined,14,cover,critical,A,50,cover42.jpg,cover60.jpg,high,memory-nogoals,option1;option2
1682825544,cbe1764b0f39484cad130e80226dbebf,PennController,17,0,experiment,NULL,PennController,16,_Trial_,End,1682825296906,sonaID,undefined,14,cover,critical,A,50,cover42.jpg,cover60.jpg,high,memory-nogoals,NULL
1682825544,cbe1764b0f39484cad130e80226dbebf,PennController,9,0,experiment,NULL,PennController,8,_Header_,End,1682825296909,sonaID,undefined,6,flower,critical,A,75,flower65.jpg,flower85.jpg,high,memory-nogoals,NULL
1682825544,cbe1764b0f39484cad130e80226dbebf,PennController,9,0,experiment,NULL,PennController,8,_Header_,Start,1682825296909,sonaID,undefined,6,flower,critical,A,75,flower65.jpg,flower85.jpg,high,memory-nogoals,NULL
1682825544,cbe1764b0f39484cad130e80226dbebf,PennController,9,0,experiment,NULL,PennController,8,_Trial_,Start,1682825296909,sonaID,undefined,6,flower,critical,A,75,flower65.jpg,flower85.jpg,high,memory-nogoals,NULL
1682825544,cbe1764b0f39484cad130e80226dbebf,PennController,9,0,experiment,NULL,Canvas,canvas6,Print,NA,1682825303650,sonaID,undefined,6,flower,critical,A,75,flower65.jpg,flower85.jpg,high,memory-nogoals,NULL
1682825544,cbe1764b0f39484cad130e80226dbebf,PennController,9,0,experiment,NULL,Selector,choice,Selection,option1,1682825305719,sonaID,undefined,6,flower,critical,A,75,flower65.jpg,flower85.jpg,high,memory-nogoals,option1;option2
1682825544,cbe1764b0f39484cad130e80226dbebf,PennController,9,0,experiment,NULL,PennController,8,_Trial_,End,1682825305722,sonaID,undefined,6,flower,critical,A,75,flower65.jpg,flower85.jpg,high,memory-nogoals,NULL
1682825544,cbe1764b0f39484cad130e80226dbebf,PennController,30,0,experiment,NULL,PennController,29,_PreloadFailed_,https://video.wixstatic.com/video/7cb05b_41aae65ca27d43c3a89b5e46732d18ff/144p/mp4/file.mp4,1682825365725,sonaID,undefined,27,rice,filler,A,75,square65.jpg,square85.jpg,GoalA,memory-nogoals,NULL
1682825544,cbe1764b0f39484cad130e80226dbebf,PennController,30,0,experiment,NULL,PennController,29,_PreloadFailed_,https://raw.githubusercontent.com/karenwli/rep-momentum/main/rice/rice00.jpg,1682825365725,sonaID,undefined,27,rice,filler,A,75,square65.jpg,square85.jpg,GoalA,memory-nogoals,NULL
1682825544,cbe1764b0f39484cad130e80226dbebf,PennController,30,0,experiment,NULL,PennController,29,_PreloadFailed_,fixation.png,1682825365725,sonaID,undefined,27,rice,filler,A,75,square65.jpg,square85.jpg,GoalA,memory-nogoals,NULL
1682825544,cbe1764b0f39484cad130e80226dbebf,PennController,30,0,experiment,NULL,PennController,29,_Header_,End,1682825365726,sonaID,undefined,27,rice,filler,A,75,square65.jpg,square85.jpg,GoalA,memory-nogoals,NULL
1682825544,cbe1764b0f39484cad130e80226dbebf,PennController,30,0,experiment,NULL,PennController,29,_Header_,Start,1682825365726,sonaID,undefined,27,rice,filler,A,75,square65.jpg,square85.jpg,GoalA,memory-nogoals,NULL
1682825544,cbe1764b0f39484cad130e80226dbebf,PennController,30,0,experiment,NULL,PennController,29,_Trial_,Start,1682825365726,sonaID,undefined,27,rice,filler,A,75,square65.jpg,square85.jpg,GoalA,memory-nogoals,NULL
1682825544,cbe1764b0f39484cad130e80226dbebf,PennController,30,0,experiment,NULL,Canvas,canvas6,Print,NA,1682825372483,sonaID,undefined,27,rice,filler,A,75,square65.jpg,square85.jpg,GoalA,memory-nogoals,NULL
1682825544,cbe1764b0f39484cad130e80226dbebf,PennController,30,0,experiment,NULL,Selector,choice,Selection,option2,1682825374068,sonaID,undefined,27,rice,filler,A,75,square65.jpg,square85.jpg,GoalA,memory-nogoals,option1;option2
1682825544,cbe1764b0f39484cad130e80226dbebf,PennController,30,0,experiment,NULL,PennController,29,_Trial_,End,1682825374071,sonaID,undefined,27,rice,filler,A,75,square65.jpg,square85.jpg,GoalA,memory-nogoals,NULL
1682825544,cbe1764b0f39484cad130e80226dbebf,PennController,23,0,experiment,NULL,PennController,22,_Trial_,Start,1682825374075,sonaID,undefined,20,cat,filler,A,50,cat40.jpg,cat60.jpg,GoalB,memory-nogoals,NULL
1682825544,cbe1764b0f39484cad130e80226dbebf,PennController,23,0,experiment,NULL,PennController,22,_Header_,End,1682825374076,sonaID,undefined,20,cat,filler,A,50,cat40.jpg,cat60.jpg,GoalB,memory-nogoals,NULL
1682825544,cbe1764b0f39484cad130e80226dbebf,PennController,23,0,experiment,NULL,PennController,22,_Header_,Start,1682825374076,sonaID,undefined,20,cat,filler,A,50,cat40.jpg,cat60.jpg,GoalB,memory-nogoals,NULL
1682825544,cbe1764b0f39484cad130e80226dbebf,PennController,23,0,experiment,NULL,Canvas,canvas6,Print,NA,1682825379819,sonaID,undefined,20,cat,filler,A,50,cat40.jpg,cat60.jpg,GoalB,memory-nogoals,NULL
1682825544,cbe1764b0f39484cad130e80226dbebf,PennController,23,0,experiment,NULL,Selector,choice,Selection,option1,1682825381617,sonaID,undefined,20,cat,filler,A,50,cat40.jpg,cat60.jpg,GoalB,memory-nogoals,option1;option2
1682825544,cbe1764b0f39484cad130e80226dbebf,PennController,23,0,experiment,NULL,PennController,22,_Trial_,End,1682825381621,sonaID,undefined,20,cat,filler,A,50,cat40.jpg,cat60.jpg,GoalB,memory-nogoals,NULL
1682825544,cbe1764b0f39484cad130e80226dbebf,PennController,10,0,experiment,NULL,PennController,9,_Header_,End,1682825381624,sonaID,undefined,7,stack,critical,A,25,stack15.jpg,stack35.jpg,low ,memory-nogoals,NULL
1682825544,cbe1764b0f39484cad130e80226dbebf,PennController,10,0,experiment,NULL,PennController,9,_Header_,Start,1682825381624,sonaID,undefined,7,stack,critical,A,25,stack15.jpg,stack35.jpg,low ,memory-nogoals,NULL
1682825544,cbe1764b0f39484cad130e80226dbebf,PennController,10,0,experiment,NULL,PennController,9,_Trial_,Start,1682825381624,sonaID,undefined,7,stack,critical,A,25,stack15.jpg,stack35.jpg,low ,memory-nogoals,NULL
1682825544,cbe1764b0f39484cad130e80226dbebf,PennController,10,0,experiment,NULL,Canvas,canvas6,Print,NA,1682825386369,sonaID,undefined,7,stack,critical,A,25,stack15.jpg,stack35.jpg,low ,memory-nogoals,NULL
1682825544,cbe1764b0f39484cad130e80226dbebf,PennController,10,0,experiment,NULL,Selector,choice,Selection,option1,1682825388034,sonaID,undefined,7,stack,critical,A,25,stack15.jpg,stack35.jpg,low ,memory-nogoals,option1;option2
1682825544,cbe1764b0f39484cad130e80226dbebf,PennController,10,0,experiment,NULL,PennController,9,_Trial_,End,1682825388036,sonaID,undefined,7,stack,critical,A,25,stack15.jpg,stack35.jpg,low ,memory-nogoals,NULL
1682825544,cbe1764b0f39484cad130e80226dbebf,PennController,25,0,experiment,NULL,PennController,24,_Header_,End,1682825388039,sonaID,undefined,22,wall,filler,A,25,wall15.jpg,wall35.jpg,GoalB,memory-nogoals,NULL
1682825544,cbe1764b0f39484cad130e80226dbebf,PennController,25,0,experiment,NULL,PennController,24,_Header_,Start,1682825388039,sonaID,undefined,22,wall,filler,A,25,wall15.jpg,wall35.jpg,GoalB,memory-nogoals,NULL
1682825544,cbe1764b0f39484cad130e80226dbebf,PennController,25,0,experiment,NULL,PennController,24,_Trial_,Start,1682825388039,sonaID,undefined,22,wall,filler,A,25,wall15.jpg,wall35.jpg,GoalB,memory-nogoals,NULL
1682825544,cbe1764b0f39484cad130e80226dbebf,PennController,25,0,experiment,NULL,Canvas,canvas6,Print,NA,1682825392785,sonaID,undefined,22,wall,filler,A,25,wall15.jpg,wall35.jpg,GoalB,memory-nogoals,NULL
1682825544,cbe1764b0f39484cad130e80226dbebf,PennController,25,0,experiment,NULL,Selector,choice,Selection,option1,1682825394200,sonaID,undefined,22,wall,filler,A,25,wall15.jpg,wall35.jpg,GoalB,memory-nogoals,option2;option1
1682825544,cbe1764b0f39484cad130e80226dbebf,PennController,25,0,experiment,NULL,PennController,24,_Trial_,End,1682825394203,sonaID,undefined,22,wall,filler,A,25,wall15.jpg,wall35.jpg,GoalB,memory-nogoals,NULL
1682825544,cbe1764b0f39484cad130e80226dbebf,PennController,7,0,experiment,NULL,PennController,6,_Header_,End,1682825394206,sonaID,undefined,4,candy,critical,A,25,candy15.jpg,candy35.jpg,high,memory-nogoals,NULL
1682825544,cbe1764b0f39484cad130e80226dbebf,PennController,7,0,experiment,NULL,PennController,6,_Header_,Start,1682825394206,sonaID,undefined,4,candy,critical,A,25,candy15.jpg,candy35.jpg,high,memory-nogoals,NULL
1682825544,cbe1764b0f39484cad130e80226dbebf,PennController,7,0,experiment,NULL,PennController,6,_Trial_,Start,1682825394206,sonaID,undefined,4,candy,critical,A,25,candy15.jpg,candy35.jpg,high,memory-nogoals,NULL
1682825544,cbe1764b0f39484cad130e80226dbebf,PennController,7,0,experiment,NULL,Canvas,canvas6,Print,NA,1682825398957,sonaID,undefined,4,candy,critical,A,25,candy15.jpg,candy35.jpg,high,memory-nogoals,NULL
1682825544,cbe1764b0f39484cad130e80226dbebf,PennController,7,0,experiment,NULL,Selector,choice,Selection,option1,1682825400434,sonaID,undefined,4,candy,critical,A,25,candy15.jpg,candy35.jpg,high,memory-nogoals,option2;option1
1682825544,cbe1764b0f39484cad130e80226dbebf,PennController,7,0,experiment,NULL,PennController,6,_Trial_,End,1682825400437,sonaID,undefined,4,candy,critical,A,25,candy15.jpg,candy35.jpg,high,memory-nogoals,NULL
1682825544,cbe1764b0f39484cad130e80226dbebf,PennController,18,0,experiment,NULL,PennController,17,_Header_,End,1682825400439,sonaID,undefined,15,zip,critical,A,75,zip65.jpg,zip85.jpg,low ,memory-nogoals,NULL
1682825544,cbe1764b0f39484cad130e80226dbebf,PennController,18,0,experiment,NULL,PennController,17,_Header_,Start,1682825400439,sonaID,undefined,15,zip,critical,A,75,zip65.jpg,zip85.jpg,low ,memory-nogoals,NULL
1682825544,cbe1764b0f39484cad130e80226dbebf,PennController,18,0,experiment,NULL,PennController,17,_Trial_,Start,1682825400439,sonaID,undefined,15,zip,critical,A,75,zip65.jpg,zip85.jpg,low ,memory-nogoals,NULL
1682825544,cbe1764b0f39484cad130e80226dbebf,PennController,18,0,experiment,NULL,Canvas,canvas6,Print,NA,1682825407185,sonaID,undefined,15,zip,critical,A,75,zip65.jpg,zip85.jpg,low ,memory-nogoals,NULL
1682825544,cbe1764b0f39484cad130e80226dbebf,PennController,18,0,experiment,NULL,Selector,choice,Selection,option2,1682825408650,sonaID,undefined,15,zip,critical,A,75,zip65.jpg,zip85.jpg,low ,memory-nogoals,option2;option1
1682825544,cbe1764b0f39484cad130e80226dbebf,PennController,18,0,experiment,NULL,PennController,17,_Trial_,End,1682825408653,sonaID,undefined,15,zip,critical,A,75,zip65.jpg,zip85.jpg,low ,memory-nogoals,NULL
1682825544,cbe1764b0f39484cad130e80226dbebf,PennController,16,0,experiment,NULL,PennController,15,_Trial_,Start,1682825408655,sonaID,undefined,13,mix,critical,A,25,mix15.jpg,mix35.jpg,low ,memory-nogoals,NULL
1682825544,cbe1764b0f39484cad130e80226dbebf,PennController,16,0,experiment,NULL,PennController,15,_Header_,End,1682825408656,sonaID,undefined,13,mix,critical,A,25,mix15.jpg,mix35.jpg,low ,memory-nogoals,NULL
1682825544,cbe1764b0f39484cad130e80226dbebf,PennController,16,0,experiment,NULL,PennController,15,_Header_,Start,1682825408656,sonaID,undefined,13,mix,critical,A,25,mix15.jpg,mix35.jpg,low ,memory-nogoals,NULL
1682825544,cbe1764b0f39484cad130e80226dbebf,PennController,16,0,experiment,NULL,Canvas,canvas6,Print,NA,1682825413404,sonaID,undefined,13,mix,critical,A,25,mix15.jpg,mix35.jpg,low ,memory-nogoals,NULL
1682825544,cbe1764b0f39484cad130e80226dbebf,PennController,16,0,experiment,NULL,Selector,choice,Selection,option1,1682825416866,sonaID,undefined,13,mix,critical,A,25,mix15.jpg,mix35.jpg,low ,memory-nogoals,option1;option2
1682825544,cbe1764b0f39484cad130e80226dbebf,PennController,16,0,experiment,NULL,PennController,15,_Trial_,End,1682825416869,sonaID,undefined,13,mix,critical,A,25,mix15.jpg,mix35.jpg,low ,memory-nogoals,NULL
1682825544,cbe1764b0f39484cad130e80226dbebf,PennController,22,0,experiment,NULL,PennController,21,_Header_,End,1682825416871,sonaID,undefined,19,cup,filler,A,25,cup15.jpg,cup35.jpg,GoalA,memory-nogoals,NULL
1682825544,cbe1764b0f39484cad130e80226dbebf,PennController,22,0,experiment,NULL,PennController,21,_Header_,Start,1682825416871,sonaID,undefined,19,cup,filler,A,25,cup15.jpg,cup35.jpg,GoalA,memory-nogoals,NULL
1682825544,cbe1764b0f39484cad130e80226dbebf,PennController,22,0,experiment,NULL,PennController,21,_Trial_,Start,1682825416871,sonaID,undefined,19,cup,filler,A,25,cup15.jpg,cup35.jpg,GoalA,memory-nogoals,NULL
1682825544,cbe1764b0f39484cad130e80226dbebf,PennController,22,0,experiment,NULL,Canvas,canvas6,Print,NA,1682825421614,sonaID,undefined,19,cup,filler,A,25,cup15.jpg,cup35.jpg,GoalA,memory-nogoals,NULL
1682825544,cbe1764b0f39484cad130e80226dbebf,PennController,22,0,experiment,NULL,Selector,choice,Selection,option1,1682825423033,sonaID,undefined,19,cup,filler,A,25,cup15.jpg,cup35.jpg,GoalA,memory-nogoals,option2;option1
1682825544,cbe1764b0f39484cad130e80226dbebf,PennController,22,0,experiment,NULL,PennController,21,_Trial_,End,1682825423036,sonaID,undefined,19,cup,filler,A,25,cup15.jpg,cup35.jpg,GoalA,memory-nogoals,NULL
1682825544,cbe1764b0f39484cad130e80226dbebf,PennController,12,0,experiment,NULL,PennController,11,_Header_,End,1682825423039,sonaID,undefined,9,cake,critical,A,75,cake66.jpg,cake84.jpg,low ,memory-nogoals,NULL
1682825544,cbe1764b0f39484cad130e80226dbebf,PennController,12,0,experiment,NULL,PennController,11,_Header_,Start,1682825423039,sonaID,undefined,9,cake,critical,A,75,cake66.jpg,cake84.jpg,low ,memory-nogoals,NULL
1682825544,cbe1764b0f39484cad130e80226dbebf,PennController,12,0,experiment,NULL,PennController,11,_Trial_,Start,1682825423039,sonaID,undefined,9,cake,critical,A,75,cake66.jpg,cake84.jpg,low ,memory-nogoals,NULL
1682825544,cbe1764b0f39484cad130e80226dbebf,PennController,12,0,experiment,NULL,Canvas,canvas6,Print,NA,1682825431782,sonaID,undefined,9,cake,critical,A,75,cake66.jpg,cake84.jpg,low ,memory-nogoals,NULL
1682825544,cbe1764b0f39484cad130e80226dbebf,PennController,12,0,experiment,NULL,Selector,choice,Selection,option1,1682825433749,sonaID,undefined,9,cake,critical,A,75,cake66.jpg,cake84.jpg,low ,memory-nogoals,option1;option2
1682825544,cbe1764b0f39484cad130e80226dbebf,PennController,12,0,experiment,NULL,PennController,11,_Trial_,End,1682825433750,sonaID,undefined,9,cake,critical,A,75,cake66.jpg,cake84.jpg,low ,memory-nogoals,NULL
1682825544,cbe1764b0f39484cad130e80226dbebf,PennController,19,0,experiment,NULL,PennController,18,_Header_,End,1682825433752,sonaID,undefined,16,blinds,critical,A,25,blinds15.jpg,blinds33.jpg,high,memory-nogoals,NULL
1682825544,cbe1764b0f39484cad130e80226dbebf,PennController,19,0,experiment,NULL,PennController,18,_Header_,Start,1682825433752,sonaID,undefined,16,blinds,critical,A,25,blinds15.jpg,blinds33.jpg,high,memory-nogoals,NULL
1682825544,cbe1764b0f39484cad130e80226dbebf,PennController,19,0,experiment,NULL,PennController,18,_Trial_,Start,1682825433752,sonaID,undefined,16,blinds,critical,A,25,blinds15.jpg,blinds33.jpg,high,memory-nogoals,NULL
1682825544,cbe1764b0f39484cad130e80226dbebf,PennController,19,0,experiment,NULL,Canvas,canvas6,Print,NA,1682825439089,sonaID,undefined,16,blinds,critical,A,25,blinds15.jpg,blinds33.jpg,high,memory-nogoals,NULL
1682825544,cbe1764b0f39484cad130e80226dbebf,PennController,19,0,experiment,NULL,Selector,choice,Selection,option1,1682825440916,sonaID,undefined,16,blinds,critical,A,25,blinds15.jpg,blinds33.jpg,high,memory-nogoals,option1;option2
1682825544,cbe1764b0f39484cad130e80226dbebf,PennController,19,0,experiment,NULL,PennController,18,_Trial_,End,1682825440919,sonaID,undefined,16,blinds,critical,A,25,blinds15.jpg,blinds33.jpg,high,memory-nogoals,NULL
1682825544,cbe1764b0f39484cad130e80226dbebf,PennController,5,0,experiment,NULL,PennController,4,_Header_,End,1682825440922,sonaID,undefined,2,door,critical,A,50,door40.jpg,door60.jpg,high,memory-nogoals,NULL
1682825544,cbe1764b0f39484cad130e80226dbebf,PennController,5,0,experiment,NULL,PennController,4,_Header_,Start,1682825440922,sonaID,undefined,2,door,critical,A,50,door40.jpg,door60.jpg,high,memory-nogoals,NULL
1682825544,cbe1764b0f39484cad130e80226dbebf,PennController,5,0,experiment,NULL,PennController,4,_Trial_,Start,1682825440922,sonaID,undefined,2,door,critical,A,50,door40.jpg,door60.jpg,high,memory-nogoals,NULL
1682825544,cbe1764b0f39484cad130e80226dbebf,PennController,5,0,experiment,NULL,Canvas,canvas6,Print,NA,1682825446660,sonaID,undefined,2,door,critical,A,50,door40.jpg,door60.jpg,high,memory-nogoals,NULL
1682825544,cbe1764b0f39484cad130e80226dbebf,PennController,5,0,experiment,NULL,Selector,choice,Selection,option2,1682825449383,sonaID,undefined,2,door,critical,A,50,door40.jpg,door60.jpg,high,memory-nogoals,option1;option2
1682825544,cbe1764b0f39484cad130e80226dbebf,PennController,5,0,experiment,NULL,PennController,4,_Trial_,End,1682825449385,sonaID,undefined,2,door,critical,A,50,door40.jpg,door60.jpg,high,memory-nogoals,NULL
1682825544,cbe1764b0f39484cad130e80226dbebf,PennController,24,0,experiment,NULL,PennController,23,_Header_,Start,1682825449387,sonaID,undefined,21,visit,filler,A,75,visit65.jpg,visit85.jpg,GoalA,memory-nogoals,NULL
1682825544,cbe1764b0f39484cad130e80226dbebf,PennController,24,0,experiment,NULL,PennController,23,_Trial_,Start,1682825449387,sonaID,undefined,21,visit,filler,A,75,visit65.jpg,visit85.jpg,GoalA,memory-nogoals,NULL
1682825544,cbe1764b0f39484cad130e80226dbebf,PennController,24,0,experiment,NULL,PennController,23,_Header_,End,1682825449388,sonaID,undefined,21,visit,filler,A,75,visit65.jpg,visit85.jpg,GoalA,memory-nogoals,NULL
1682825544,cbe1764b0f39484cad130e80226dbebf,PennController,24,0,experiment,NULL,Canvas,canvas6,Print,NA,1682825456126,sonaID,undefined,21,visit,filler,A,75,visit65.jpg,visit85.jpg,GoalA,memory-nogoals,NULL
1682825544,cbe1764b0f39484cad130e80226dbebf,PennController,24,0,experiment,NULL,Selector,choice,Selection,option1,1682825457283,sonaID,undefined,21,visit,filler,A,75,visit65.jpg,visit85.jpg,GoalA,memory-nogoals,option1;option2
1682825544,cbe1764b0f39484cad130e80226dbebf,PennController,24,0,experiment,NULL,PennController,23,_Trial_,End,1682825457285,sonaID,undefined,21,visit,filler,A,75,visit65.jpg,visit85.jpg,GoalA,memory-nogoals,NULL
1682825544,cbe1764b0f39484cad130e80226dbebf,PennController,29,0,experiment,NULL,PennController,28,_Header_,End,1682825457287,sonaID,undefined,26,sandwich,filler,A,50,sandwich40.jpg,sandwich60.jpg,GoalB,memory-nogoals,NULL
1682825544,cbe1764b0f39484cad130e80226dbebf,PennController,29,0,experiment,NULL,PennController,28,_Header_,Start,1682825457287,sonaID,undefined,26,sandwich,filler,A,50,sandwich40.jpg,sandwich60.jpg,GoalB,memory-nogoals,NULL
1682825544,cbe1764b0f39484cad130e80226dbebf,PennController,29,0,experiment,NULL,PennController,28,_Trial_,Start,1682825457287,sonaID,undefined,26,sandwich,filler,A,50,sandwich40.jpg,sandwich60.jpg,GoalB,memory-nogoals,NULL
1682825544,cbe1764b0f39484cad130e80226dbebf,PennController,29,0,experiment,NULL,Canvas,canvas6,Print,NA,1682825463031,sonaID,undefined,26,sandwich,filler,A,50,sandwich40.jpg,sandwich60.jpg,GoalB,memory-nogoals,NULL
1682825544,cbe1764b0f39484cad130e80226dbebf,PennController,29,0,experiment,NULL,Selector,choice,Selection,option1,1682825464016,sonaID,undefined,26,sandwich,filler,A,50,sandwich40.jpg,sandwich60.jpg,GoalB,memory-nogoals,option2;option1
1682825544,cbe1764b0f39484cad130e80226dbebf,PennController,29,0,experiment,NULL,PennController,28,_Trial_,End,1682825464019,sonaID,undefined,26,sandwich,filler,A,50,sandwich40.jpg,sandwich60.jpg,GoalB,memory-nogoals,NULL
1682825544,cbe1764b0f39484cad130e80226dbebf,PennController,13,0,experiment,NULL,PennController,12,_Header_,End,1682825464020,sonaID,undefined,10,train,critical,A,25,train15.jpg,train35.jpg,high,memory-nogoals,NULL
1682825544,cbe1764b0f39484cad130e80226dbebf,PennController,13,0,experiment,NULL,PennController,12,_Header_,Start,1682825464020,sonaID,undefined,10,train,critical,A,25,train15.jpg,train35.jpg,high,memory-nogoals,NULL
1682825544,cbe1764b0f39484cad130e80226dbebf,PennController,13,0,experiment,NULL,PennController,12,_Trial_,Start,1682825464020,sonaID,undefined,10,train,critical,A,25,train15.jpg,train35.jpg,high,memory-nogoals,NULL
1682825544,cbe1764b0f39484cad130e80226dbebf,PennController,13,0,experiment,NULL,Canvas,canvas6,Print,NA,1682825468766,sonaID,undefined,10,train,critical,A,25,train15.jpg,train35.jpg,high,memory-nogoals,NULL
1682825544,cbe1764b0f39484cad130e80226dbebf,PennController,13,0,experiment,NULL,Selector,choice,Selection,option1,1682825470666,sonaID,undefined,10,train,critical,A,25,train15.jpg,train35.jpg,high,memory-nogoals,option2;option1
1682825544,cbe1764b0f39484cad130e80226dbebf,PennController,13,0,experiment,NULL,PennController,12,_Trial_,End,1682825470669,sonaID,undefined,10,train,critical,A,25,train15.jpg,train35.jpg,high,memory-nogoals,NULL
1682825544,cbe1764b0f39484cad130e80226dbebf,PennController,21,0,experiment,NULL,PennController,20,_Header_,End,1682825470672,sonaID,undefined,18,ball,critical,A,75,ball65.jpg,ball85.jpg,high,memory-nogoals,NULL
1682825544,cbe1764b0f39484cad130e80226dbebf,PennController,21,0,experiment,NULL,PennController,20,_Header_,Start,1682825470672,sonaID,undefined,18,ball,critical,A,75,ball65.jpg,ball85.jpg,high,memory-nogoals,NULL
1682825544,cbe1764b0f39484cad130e80226dbebf,PennController,21,0,experiment,NULL,PennController,20,_Trial_,Start,1682825470672,sonaID,undefined,18,ball,critical,A,75,ball65.jpg,ball85.jpg,high,memory-nogoals,NULL
1682825544,cbe1764b0f39484cad130e80226dbebf,PennController,21,0,experiment,NULL,Canvas,canvas6,Print,NA,1682825477415,sonaID,undefined,18,ball,critical,A,75,ball65.jpg,ball85.jpg,high,memory-nogoals,NULL
1682825544,cbe1764b0f39484cad130e80226dbebf,PennController,21,0,experiment,NULL,Selector,choice,Selection,option1,1682825479232,sonaID,undefined,18,ball,critical,A,75,ball65.jpg,ball85.jpg,high,memory-nogoals,option2;option1
1682825544,cbe1764b0f39484cad130e80226dbebf,PennController,21,0,experiment,NULL,PennController,20,_Trial_,End,1682825479235,sonaID,undefined,18,ball,critical,A,75,ball65.jpg,ball85.jpg,high,memory-nogoals,NULL
1682825544,cbe1764b0f39484cad130e80226dbebf,PennController,27,0,experiment,NULL,PennController,26,_Header_,End,1682825479237,sonaID,undefined,24,match,filler,A,75,match65.jpg,match85.jpg,GoalB,memory-nogoals,NULL
1682825544,cbe1764b0f39484cad130e80226dbebf,PennController,27,0,experiment,NULL,PennController,26,_Header_,Start,1682825479237,sonaID,undefined,24,match,filler,A,75,match65.jpg,match85.jpg,GoalB,memory-nogoals,NULL
1682825544,cbe1764b0f39484cad130e80226dbebf,PennController,27,0,experiment,NULL,PennController,26,_Trial_,Start,1682825479237,sonaID,undefined,24,match,filler,A,75,match65.jpg,match85.jpg,GoalB,memory-nogoals,NULL
1682825544,cbe1764b0f39484cad130e80226dbebf,PennController,27,0,experiment,NULL,Canvas,canvas6,Print,NA,1682825485978,sonaID,undefined,24,match,filler,A,75,match65.jpg,match85.jpg,GoalB,memory-nogoals,NULL
1682825544,cbe1764b0f39484cad130e80226dbebf,PennController,27,0,experiment,NULL,Selector,choice,Selection,option1,1682825487982,sonaID,undefined,24,match,filler,A,75,match65.jpg,match85.jpg,GoalB,memory-nogoals,option2;option1
1682825544,cbe1764b0f39484cad130e80226dbebf,PennController,27,0,experiment,NULL,PennController,26,_Trial_,End,1682825487984,sonaID,undefined,24,match,filler,A,75,match65.jpg,match85.jpg,GoalB,memory-nogoals,NULL
1682825544,cbe1764b0f39484cad130e80226dbebf,PennController,26,0,experiment,NULL,PennController,25,_Header_,End,1682825487986,sonaID,undefined,23,color,filler,A,50,color40.jpg,color60.jpg,GoalA,memory-nogoals,NULL
1682825544,cbe1764b0f39484cad130e80226dbebf,PennController,26,0,experiment,NULL,PennController,25,_Header_,Start,1682825487986,sonaID,undefined,23,color,filler,A,50,color40.jpg,color60.jpg,GoalA,memory-nogoals,NULL
1682825544,cbe1764b0f39484cad130e80226dbebf,PennController,26,0,experiment,NULL,PennController,25,_Trial_,Start,1682825487986,sonaID,undefined,23,color,filler,A,50,color40.jpg,color60.jpg,GoalA,memory-nogoals,NULL
1682825544,cbe1764b0f39484cad130e80226dbebf,PennController,26,0,experiment,NULL,Canvas,canvas6,Print,NA,1682825493723,sonaID,undefined,23,color,filler,A,50,color40.jpg,color60.jpg,GoalA,memory-nogoals,NULL
1682825544,cbe1764b0f39484cad130e80226dbebf,PennController,26,0,experiment,NULL,Selector,choice,Selection,option1,1682825498481,sonaID,undefined,23,color,filler,A,50,color40.jpg,color60.jpg,GoalA,memory-nogoals,option2;option1
1682825544,cbe1764b0f39484cad130e80226dbebf,PennController,26,0,experiment,NULL,PennController,25,_Trial_,End,1682825498484,sonaID,undefined,23,color,filler,A,50,color40.jpg,color60.jpg,GoalA,memory-nogoals,NULL
1682825544,cbe1764b0f39484cad130e80226dbebf,PennController,31,0,experiment,NULL,PennController,30,_Header_,End,1682825498486,sonaID,undefined,28,sort,filler,A,25,sort15.jpg,sort35.jpg,GoalB,memory-nogoals,NULL
1682825544,cbe1764b0f39484cad130e80226dbebf,PennController,31,0,experiment,NULL,PennController,30,_Header_,Start,1682825498486,sonaID,undefined,28,sort,filler,A,25,sort15.jpg,sort35.jpg,GoalB,memory-nogoals,NULL
1682825544,cbe1764b0f39484cad130e80226dbebf,PennController,31,0,experiment,NULL,PennController,30,_Trial_,Start,1682825498486,sonaID,undefined,28,sort,filler,A,25,sort15.jpg,sort35.jpg,GoalB,memory-nogoals,NULL
1682825544,cbe1764b0f39484cad130e80226dbebf,PennController,31,0,experiment,NULL,Canvas,canvas6,Print,NA,1682825503225,sonaID,undefined,28,sort,filler,A,25,sort15.jpg,sort35.jpg,GoalB,memory-nogoals,NULL
1682825544,cbe1764b0f39484cad130e80226dbebf,PennController,31,0,experiment,NULL,Selector,choice,Selection,option1,1682825504614,sonaID,undefined,28,sort,filler,A,25,sort15.jpg,sort35.jpg,GoalB,memory-nogoals,option2;option1
1682825544,cbe1764b0f39484cad130e80226dbebf,PennController,31,0,experiment,NULL,PennController,30,_Trial_,End,1682825504615,sonaID,undefined,28,sort,filler,A,25,sort15.jpg,sort35.jpg,GoalB,memory-nogoals,NULL
1682825544,cbe1764b0f39484cad130e80226dbebf,PennController,11,0,experiment,NULL,PennController,10,_Header_,End,1682825504616,sonaID,undefined,8,cucumber,critical,A,50,cucumber42.jpg,cucumber60.jpg,high,memory-nogoals,NULL
1682825544,cbe1764b0f39484cad130e80226dbebf,PennController,11,0,experiment,NULL,PennController,10,_Header_,Start,1682825504616,sonaID,undefined,8,cucumber,critical,A,50,cucumber42.jpg,cucumber60.jpg,high,memory-nogoals,NULL
1682825544,cbe1764b0f39484cad130e80226dbebf,PennController,11,0,experiment,NULL,PennController,10,_Trial_,Start,1682825504616,sonaID,undefined,8,cucumber,critical,A,50,cucumber42.jpg,cucumber60.jpg,high,memory-nogoals,NULL
1682825544,cbe1764b0f39484cad130e80226dbebf,PennController,11,0,experiment,NULL,Canvas,canvas6,Print,NA,1682825511756,sonaID,undefined,8,cucumber,critical,A,50,cucumber42.jpg,cucumber60.jpg,high,memory-nogoals,NULL
1682825544,cbe1764b0f39484cad130e80226dbebf,PennController,11,0,experiment,NULL,Selector,choice,Selection,option1,1682825513182,sonaID,undefined,8,cucumber,critical,A,50,cucumber42.jpg,cucumber60.jpg,high,memory-nogoals,option2;option1
1682825544,cbe1764b0f39484cad130e80226dbebf,PennController,11,0,experiment,NULL,PennController,10,_Trial_,End,1682825513184,sonaID,undefined,8,cucumber,critical,A,50,cucumber42.jpg,cucumber60.jpg,high,memory-nogoals,NULL
1682825544,cbe1764b0f39484cad130e80226dbebf,PennController,6,0,experiment,NULL,PennController,5,_Header_,End,1682825513186,sonaID,undefined,3,clean,critical,A,75,clean65.jpg,clean85.jpg,low ,memory-nogoals,NULL
1682825544,cbe1764b0f39484cad130e80226dbebf,PennController,6,0,experiment,NULL,PennController,5,_Header_,Start,1682825513186,sonaID,undefined,3,clean,critical,A,75,clean65.jpg,clean85.jpg,low ,memory-nogoals,NULL
1682825544,cbe1764b0f39484cad130e80226dbebf,PennController,6,0,experiment,NULL,PennController,5,_Trial_,Start,1682825513186,sonaID,undefined,3,clean,critical,A,75,clean65.jpg,clean85.jpg,low ,memory-nogoals,NULL
1682825544,cbe1764b0f39484cad130e80226dbebf,PennController,6,0,experiment,NULL,Canvas,canvas6,Print,NA,1682825519926,sonaID,undefined,3,clean,critical,A,75,clean65.jpg,clean85.jpg,low ,memory-nogoals,NULL
1682825544,cbe1764b0f39484cad130e80226dbebf,PennController,6,0,experiment,NULL,Selector,choice,Selection,option1,1682825521265,sonaID,undefined,3,clean,critical,A,75,clean65.jpg,clean85.jpg,low ,memory-nogoals,option2;option1
1682825544,cbe1764b0f39484cad130e80226dbebf,PennController,6,0,experiment,NULL,PennController,5,_Trial_,End,1682825521267,sonaID,undefined,3,clean,critical,A,75,clean65.jpg,clean85.jpg,low ,memory-nogoals,NULL
1682825544,cbe1764b0f39484cad130e80226dbebf,PennController,15,0,experiment,NULL,PennController,14,_Header_,End,1682825521269,sonaID,undefined,12,erase,critical,A,75,erase66.jpg,erase84.jpg,high,memory-nogoals,NULL
1682825544,cbe1764b0f39484cad130e80226dbebf,PennController,15,0,experiment,NULL,PennController,14,_Header_,Start,1682825521269,sonaID,undefined,12,erase,critical,A,75,erase66.jpg,erase84.jpg,high,memory-nogoals,NULL
1682825544,cbe1764b0f39484cad130e80226dbebf,PennController,15,0,experiment,NULL,PennController,14,_Trial_,Start,1682825521269,sonaID,undefined,12,erase,critical,A,75,erase66.jpg,erase84.jpg,high,memory-nogoals,NULL
1682825544,cbe1764b0f39484cad130e80226dbebf,PennController,15,0,experiment,NULL,Canvas,canvas6,Print,NA,1682825530010,sonaID,undefined,12,erase,critical,A,75,erase66.jpg,erase84.jpg,high,memory-nogoals,NULL
1682825544,cbe1764b0f39484cad130e80226dbebf,PennController,15,0,experiment,NULL,Selector,choice,Selection,option1,1682825531748,sonaID,undefined,12,erase,critical,A,75,erase66.jpg,erase84.jpg,high,memory-nogoals,option2;option1
1682825544,cbe1764b0f39484cad130e80226dbebf,PennController,15,0,experiment,NULL,PennController,14,_Trial_,End,1682825531750,sonaID,undefined,12,erase,critical,A,75,erase66.jpg,erase84.jpg,high,memory-nogoals,NULL
1682825544,cbe1764b0f39484cad130e80226dbebf,PennController,4,0,experiment,NULL,PennController,3,_Header_,End,1682825531752,sonaID,undefined,1,vase,critical,A,25,vase15.jpg,vase35.jpg,low ,memory-nogoals,NULL
1682825544,cbe1764b0f39484cad130e80226dbebf,PennController,4,0,experiment,NULL,PennController,3,_Header_,Start,1682825531752,sonaID,undefined,1,vase,critical,A,25,vase15.jpg,vase35.jpg,low ,memory-nogoals,NULL
1682825544,cbe1764b0f39484cad130e80226dbebf,PennController,4,0,experiment,NULL,PennController,3,_Trial_,Start,1682825531752,sonaID,undefined,1,vase,critical,A,25,vase15.jpg,vase35.jpg,low ,memory-nogoals,NULL
1682825544,cbe1764b0f39484cad130e80226dbebf,PennController,4,0,experiment,NULL,Canvas,canvas6,Print,NA,1682825536493,sonaID,undefined,1,vase,critical,A,25,vase15.jpg,vase35.jpg,low ,memory-nogoals,NULL
1682825544,cbe1764b0f39484cad130e80226dbebf,PennController,4,0,experiment,NULL,Selector,choice,Selection,option1,1682825537514,sonaID,undefined,1,vase,critical,A,25,vase15.jpg,vase35.jpg,low ,memory-nogoals,option2;option1
1682825544,cbe1764b0f39484cad130e80226dbebf,PennController,4,0,experiment,NULL,PennController,3,_Trial_,End,1682825537517,sonaID,undefined,1,vase,critical,A,25,vase15.jpg,vase35.jpg,low ,memory-nogoals,NULL
1682825544,cbe1764b0f39484cad130e80226dbebf,PennController,28,0,experiment,NULL,PennController,27,_Header_,End,1682825537519,sonaID,undefined,25,house,filler,A,25,house15.jpg,house35.jpg,GoalA,memory-nogoals,NULL
1682825544,cbe1764b0f39484cad130e80226dbebf,PennController,28,0,experiment,NULL,PennController,27,_Header_,Start,1682825537519,sonaID,undefined,25,house,filler,A,25,house15.jpg,house35.jpg,GoalA,memory-nogoals,NULL
1682825544,cbe1764b0f39484cad130e80226dbebf,PennController,28,0,experiment,NULL,PennController,27,_Trial_,Start,1682825537519,sonaID,undefined,25,house,filler,A,25,house15.jpg,house35.jpg,GoalA,memory-nogoals,NULL
1682825544,cbe1764b0f39484cad130e80226dbebf,PennController,28,0,experiment,NULL,Canvas,canvas6,Print,NA,1682825542264,sonaID,undefined,25,house,filler,A,25,house15.jpg,house35.jpg,GoalA,memory-nogoals,NULL
1682825544,cbe1764b0f39484cad130e80226dbebf,PennController,28,0,experiment,NULL,Selector,choice,Selection,option2,1682825543914,sonaID,undefined,25,house,filler,A,25,house15.jpg,house35.jpg,GoalA,memory-nogoals,option2;option1
1682825544,cbe1764b0f39484cad130e80226dbebf,PennController,28,0,experiment,NULL,PennController,27,_Trial_,End,1682825543916,sonaID,undefined,25,house,filler,A,25,house15.jpg,house35.jpg,GoalA,memory-nogoals,NULL
