#
# Results on Friday April 28 2023 18:26:27 UTC
# USER AGENT: Mozilla/5.0 (Macintosh; Intel Mac OS X 10_15_7) AppleWebKit/537.36 (KHTML, like Gecko) Chrome/111.0.0.0 Safari/537.36
# Design number was non-random = 18
#
# Columns below this comment are as follows:
# 1. Results reception time.
# 2. MD5 hash of participant's IP address.
# 3. Controller name.
# 4. Order number of item.
# 5. Inner element number.
# 6. Label.
# 7. Latin Square Group.
# 8. PennElementType.
# 9. PennElementName.
# 10. Parameter.
# 11. Value.
# 12. EventTime.
# 13. sonaID.
# 14. Comments.
1682706387,3fdf9302dc1114e0280fcb2e84d4d215,PennController,2,0,consent,NULL,PennController,0,_Trial_,Start,1682705965500,sonaID,NULL
1682706387,3fdf9302dc1114e0280fcb2e84d4d215,PennController,2,0,consent,NULL,PennController,0,_Header_,Start,1682705965500,sonaID,NULL
1682706387,3fdf9302dc1114e0280fcb2e84d4d215,PennController,2,0,consent,NULL,PennController,0,_Header_,End,1682705965500,sonaID,NULL
1682706387,3fdf9302dc1114e0280fcb2e84d4d215,PennController,2,0,consent,NULL,PennController,0,_Trial_,End,1682705999481,sonaID,NULL
# Columns below this comment are as follows:
# 14. ID.
# 15. Comments.
1682706387,3fdf9302dc1114e0280fcb2e84d4d215,PennController,3,0,intro,NULL,PennController,1,_Trial_,Start,1682705999484,sonaID,undefined,NULL
1682706387,3fdf9302dc1114e0280fcb2e84d4d215,PennController,3,0,intro,NULL,PennController,1,_Header_,Start,1682705999484,sonaID,undefined,NULL
1682706387,3fdf9302dc1114e0280fcb2e84d4d215,PennController,3,0,intro,NULL,PennController,1,_Header_,End,1682705999484,sonaID,undefined,NULL
1682706387,3fdf9302dc1114e0280fcb2e84d4d215,PennController,3,0,intro,NULL,TextInput,inputID,EnterReturn,71182894,1682706003537,sonaID,undefined,NULL
1682706387,3fdf9302dc1114e0280fcb2e84d4d215,PennController,3,0,intro,NULL,TextInput,inputID,Final,71182894,1682706003550,sonaID,undefined,NULL
1682706387,3fdf9302dc1114e0280fcb2e84d4d215,PennController,3,0,intro,NULL,TextInput,inputID,First,,1682706001594,sonaID,undefined,7
1682706387,3fdf9302dc1114e0280fcb2e84d4d215,PennController,3,0,intro,NULL,PennController,1,_Trial_,End,1682706003550,sonaID,undefined,NULL
# Columns below this comment are as follows:
# 15. item_number.
# 16. item.
# 17. type.
# 18. Group.
# 19. prog.
# 20. prev_image.
# 21. next_image.
# 22. height.
# 23. memory-nogoals.
# 24. Comments.
1682706387,3fdf9302dc1114e0280fcb2e84d4d215,PennController,28,0,experiment,NULL,PennController,27,_Trial_,Start,1682706003552,sonaID,undefined,25,house,filler,A,25,house15.jpg,house35.jpg,GoalA,memory-nogoals,NULL
1682706387,3fdf9302dc1114e0280fcb2e84d4d215,PennController,28,0,experiment,NULL,PennController,27,_Header_,Start,1682706003552,sonaID,undefined,25,house,filler,A,25,house15.jpg,house35.jpg,GoalA,memory-nogoals,NULL
1682706387,3fdf9302dc1114e0280fcb2e84d4d215,PennController,28,0,experiment,NULL,PennController,27,_Header_,End,1682706003552,sonaID,undefined,25,house,filler,A,25,house15.jpg,house35.jpg,GoalA,memory-nogoals,NULL
1682706387,3fdf9302dc1114e0280fcb2e84d4d215,PennController,28,0,experiment,NULL,Canvas,canvas6,Print,NA,1682706008258,sonaID,undefined,25,house,filler,A,25,house15.jpg,house35.jpg,GoalA,memory-nogoals,NULL
1682706387,3fdf9302dc1114e0280fcb2e84d4d215,PennController,28,0,experiment,NULL,Video,progression,buffer,0.003527,1682706006083,sonaID,undefined,25,house,filler,A,25,house15.jpg,house35.jpg,GoalA,memory-nogoals,NULL
1682706387,3fdf9302dc1114e0280fcb2e84d4d215,PennController,28,0,experiment,NULL,Selector,choice,Selection,option2,1682706010144,sonaID,undefined,25,house,filler,A,25,house15.jpg,house35.jpg,GoalA,memory-nogoals,option1;option2
1682706387,3fdf9302dc1114e0280fcb2e84d4d215,PennController,28,0,experiment,NULL,PennController,27,_Trial_,End,1682706010147,sonaID,undefined,25,house,filler,A,25,house15.jpg,house35.jpg,GoalA,memory-nogoals,NULL
1682706387,3fdf9302dc1114e0280fcb2e84d4d215,PennController,6,0,experiment,NULL,PennController,5,_Trial_,Start,1682706010149,sonaID,undefined,3,clean,critical,A,75,clean65.jpg,clean85.jpg,low ,memory-nogoals,NULL
1682706387,3fdf9302dc1114e0280fcb2e84d4d215,PennController,6,0,experiment,NULL,PennController,5,_Header_,Start,1682706010149,sonaID,undefined,3,clean,critical,A,75,clean65.jpg,clean85.jpg,low ,memory-nogoals,NULL
1682706387,3fdf9302dc1114e0280fcb2e84d4d215,PennController,6,0,experiment,NULL,PennController,5,_Header_,End,1682706010149,sonaID,undefined,3,clean,critical,A,75,clean65.jpg,clean85.jpg,low ,memory-nogoals,NULL
1682706387,3fdf9302dc1114e0280fcb2e84d4d215,PennController,6,0,experiment,NULL,Canvas,canvas6,Print,NA,1682706016841,sonaID,undefined,3,clean,critical,A,75,clean65.jpg,clean85.jpg,low ,memory-nogoals,NULL
1682706387,3fdf9302dc1114e0280fcb2e84d4d215,PennController,6,0,experiment,NULL,Video,progression,buffer,0.002268,1682706012660,sonaID,undefined,3,clean,critical,A,75,clean65.jpg,clean85.jpg,low ,memory-nogoals,NULL
1682706387,3fdf9302dc1114e0280fcb2e84d4d215,PennController,6,0,experiment,NULL,Selector,choice,Selection,option2,1682706022809,sonaID,undefined,3,clean,critical,A,75,clean65.jpg,clean85.jpg,low ,memory-nogoals,option1;option2
1682706387,3fdf9302dc1114e0280fcb2e84d4d215,PennController,6,0,experiment,NULL,PennController,5,_Trial_,End,1682706022811,sonaID,undefined,3,clean,critical,A,75,clean65.jpg,clean85.jpg,low ,memory-nogoals,NULL
1682706387,3fdf9302dc1114e0280fcb2e84d4d215,PennController,10,0,experiment,NULL,PennController,9,_Trial_,Start,1682706022813,sonaID,undefined,7,stack,critical,A,25,stack15.jpg,stack35.jpg,low ,memory-nogoals,NULL
1682706387,3fdf9302dc1114e0280fcb2e84d4d215,PennController,10,0,experiment,NULL,PennController,9,_Header_,Start,1682706022813,sonaID,undefined,7,stack,critical,A,25,stack15.jpg,stack35.jpg,low ,memory-nogoals,NULL
1682706387,3fdf9302dc1114e0280fcb2e84d4d215,PennController,10,0,experiment,NULL,PennController,9,_Header_,End,1682706022813,sonaID,undefined,7,stack,critical,A,25,stack15.jpg,stack35.jpg,low ,memory-nogoals,NULL
1682706387,3fdf9302dc1114e0280fcb2e84d4d215,PennController,10,0,experiment,NULL,Canvas,canvas6,Print,NA,1682706027504,sonaID,undefined,7,stack,critical,A,25,stack15.jpg,stack35.jpg,low ,memory-nogoals,NULL
1682706387,3fdf9302dc1114e0280fcb2e84d4d215,PennController,10,0,experiment,NULL,Video,progression,buffer,0.004696,1682706025337,sonaID,undefined,7,stack,critical,A,25,stack15.jpg,stack35.jpg,low ,memory-nogoals,NULL
1682706387,3fdf9302dc1114e0280fcb2e84d4d215,PennController,10,0,experiment,NULL,Selector,choice,Selection,option1,1682706029871,sonaID,undefined,7,stack,critical,A,25,stack15.jpg,stack35.jpg,low ,memory-nogoals,option2;option1
1682706387,3fdf9302dc1114e0280fcb2e84d4d215,PennController,10,0,experiment,NULL,PennController,9,_Trial_,End,1682706029872,sonaID,undefined,7,stack,critical,A,25,stack15.jpg,stack35.jpg,low ,memory-nogoals,NULL
1682706387,3fdf9302dc1114e0280fcb2e84d4d215,PennController,18,0,experiment,NULL,PennController,17,_Trial_,Start,1682706029874,sonaID,undefined,15,zip,critical,A,75,zip65.jpg,zip85.jpg,low ,memory-nogoals,NULL
1682706387,3fdf9302dc1114e0280fcb2e84d4d215,PennController,18,0,experiment,NULL,PennController,17,_Header_,Start,1682706029874,sonaID,undefined,15,zip,critical,A,75,zip65.jpg,zip85.jpg,low ,memory-nogoals,NULL
1682706387,3fdf9302dc1114e0280fcb2e84d4d215,PennController,18,0,experiment,NULL,PennController,17,_Header_,End,1682706029874,sonaID,undefined,15,zip,critical,A,75,zip65.jpg,zip85.jpg,low ,memory-nogoals,NULL
1682706387,3fdf9302dc1114e0280fcb2e84d4d215,PennController,18,0,experiment,NULL,Canvas,canvas6,Print,NA,1682706036570,sonaID,undefined,15,zip,critical,A,75,zip65.jpg,zip85.jpg,low ,memory-nogoals,NULL
1682706387,3fdf9302dc1114e0280fcb2e84d4d215,PennController,18,0,experiment,NULL,Video,progression,buffer,0.005294,1682706032396,sonaID,undefined,15,zip,critical,A,75,zip65.jpg,zip85.jpg,low ,memory-nogoals,NULL
1682706387,3fdf9302dc1114e0280fcb2e84d4d215,PennController,18,0,experiment,NULL,Selector,choice,Selection,option1,1682706039162,sonaID,undefined,15,zip,critical,A,75,zip65.jpg,zip85.jpg,low ,memory-nogoals,option2;option1
1682706387,3fdf9302dc1114e0280fcb2e84d4d215,PennController,18,0,experiment,NULL,PennController,17,_Trial_,End,1682706039164,sonaID,undefined,15,zip,critical,A,75,zip65.jpg,zip85.jpg,low ,memory-nogoals,NULL
1682706387,3fdf9302dc1114e0280fcb2e84d4d215,PennController,8,0,experiment,NULL,PennController,7,_Trial_,Start,1682706039165,sonaID,undefined,5,book,critical,A,50,book40.jpg,book60.jpg,low ,memory-nogoals,NULL
1682706387,3fdf9302dc1114e0280fcb2e84d4d215,PennController,8,0,experiment,NULL,PennController,7,_Header_,Start,1682706039165,sonaID,undefined,5,book,critical,A,50,book40.jpg,book60.jpg,low ,memory-nogoals,NULL
1682706387,3fdf9302dc1114e0280fcb2e84d4d215,PennController,8,0,experiment,NULL,PennController,7,_Header_,End,1682706039165,sonaID,undefined,5,book,critical,A,50,book40.jpg,book60.jpg,low ,memory-nogoals,NULL
1682706387,3fdf9302dc1114e0280fcb2e84d4d215,PennController,8,0,experiment,NULL,Canvas,canvas6,Print,NA,1682706044856,sonaID,undefined,5,book,critical,A,50,book40.jpg,book60.jpg,low ,memory-nogoals,NULL
1682706387,3fdf9302dc1114e0280fcb2e84d4d215,PennController,8,0,experiment,NULL,Video,progression,buffer,0.003698,1682706041684,sonaID,undefined,5,book,critical,A,50,book40.jpg,book60.jpg,low ,memory-nogoals,NULL
1682706387,3fdf9302dc1114e0280fcb2e84d4d215,PennController,8,0,experiment,NULL,Selector,choice,Selection,option2,1682706046848,sonaID,undefined,5,book,critical,A,50,book40.jpg,book60.jpg,low ,memory-nogoals,option1;option2
1682706387,3fdf9302dc1114e0280fcb2e84d4d215,PennController,8,0,experiment,NULL,PennController,7,_Trial_,End,1682706046851,sonaID,undefined,5,book,critical,A,50,book40.jpg,book60.jpg,low ,memory-nogoals,NULL
1682706387,3fdf9302dc1114e0280fcb2e84d4d215,PennController,20,0,experiment,NULL,PennController,19,_Trial_,Start,1682706046854,sonaID,undefined,17,roll,critical,A,50,roll40.jpg,roll60.jpg,low ,memory-nogoals,NULL
1682706387,3fdf9302dc1114e0280fcb2e84d4d215,PennController,20,0,experiment,NULL,PennController,19,_Header_,Start,1682706046854,sonaID,undefined,17,roll,critical,A,50,roll40.jpg,roll60.jpg,low ,memory-nogoals,NULL
1682706387,3fdf9302dc1114e0280fcb2e84d4d215,PennController,20,0,experiment,NULL,PennController,19,_Header_,End,1682706046854,sonaID,undefined,17,roll,critical,A,50,roll40.jpg,roll60.jpg,low ,memory-nogoals,NULL
1682706387,3fdf9302dc1114e0280fcb2e84d4d215,PennController,20,0,experiment,NULL,Canvas,canvas6,Print,NA,1682706052538,sonaID,undefined,17,roll,critical,A,50,roll40.jpg,roll60.jpg,low ,memory-nogoals,NULL
1682706387,3fdf9302dc1114e0280fcb2e84d4d215,PennController,20,0,experiment,NULL,Video,progression,buffer,0.003625,1682706049374,sonaID,undefined,17,roll,critical,A,50,roll40.jpg,roll60.jpg,low ,memory-nogoals,NULL
1682706387,3fdf9302dc1114e0280fcb2e84d4d215,PennController,20,0,experiment,NULL,Selector,choice,Selection,option2,1682706054750,sonaID,undefined,17,roll,critical,A,50,roll40.jpg,roll60.jpg,low ,memory-nogoals,option1;option2
1682706387,3fdf9302dc1114e0280fcb2e84d4d215,PennController,20,0,experiment,NULL,PennController,19,_Trial_,End,1682706054752,sonaID,undefined,17,roll,critical,A,50,roll40.jpg,roll60.jpg,low ,memory-nogoals,NULL
1682706387,3fdf9302dc1114e0280fcb2e84d4d215,PennController,11,0,experiment,NULL,PennController,10,_Trial_,Start,1682706054754,sonaID,undefined,8,cucumber,critical,A,50,cucumber42.jpg,cucumber60.jpg,high,memory-nogoals,NULL
1682706387,3fdf9302dc1114e0280fcb2e84d4d215,PennController,11,0,experiment,NULL,PennController,10,_Header_,Start,1682706054754,sonaID,undefined,8,cucumber,critical,A,50,cucumber42.jpg,cucumber60.jpg,high,memory-nogoals,NULL
1682706387,3fdf9302dc1114e0280fcb2e84d4d215,PennController,11,0,experiment,NULL,PennController,10,_Header_,End,1682706054754,sonaID,undefined,8,cucumber,critical,A,50,cucumber42.jpg,cucumber60.jpg,high,memory-nogoals,NULL
1682706387,3fdf9302dc1114e0280fcb2e84d4d215,PennController,11,0,experiment,NULL,Canvas,canvas6,Print,NA,1682706061853,sonaID,undefined,8,cucumber,critical,A,50,cucumber42.jpg,cucumber60.jpg,high,memory-nogoals,NULL
1682706387,3fdf9302dc1114e0280fcb2e84d4d215,PennController,11,0,experiment,NULL,Video,progression,buffer,0.003657,1682706057277,sonaID,undefined,8,cucumber,critical,A,50,cucumber42.jpg,cucumber60.jpg,high,memory-nogoals,NULL
1682706387,3fdf9302dc1114e0280fcb2e84d4d215,PennController,11,0,experiment,NULL,Selector,choice,Selection,option1,1682706063438,sonaID,undefined,8,cucumber,critical,A,50,cucumber42.jpg,cucumber60.jpg,high,memory-nogoals,option2;option1
1682706387,3fdf9302dc1114e0280fcb2e84d4d215,PennController,11,0,experiment,NULL,PennController,10,_Trial_,End,1682706063439,sonaID,undefined,8,cucumber,critical,A,50,cucumber42.jpg,cucumber60.jpg,high,memory-nogoals,NULL
1682706387,3fdf9302dc1114e0280fcb2e84d4d215,PennController,7,0,experiment,NULL,PennController,6,_Trial_,Start,1682706063441,sonaID,undefined,4,candy,critical,A,25,candy15.jpg,candy35.jpg,high,memory-nogoals,NULL
1682706387,3fdf9302dc1114e0280fcb2e84d4d215,PennController,7,0,experiment,NULL,PennController,6,_Header_,Start,1682706063441,sonaID,undefined,4,candy,critical,A,25,candy15.jpg,candy35.jpg,high,memory-nogoals,NULL
1682706387,3fdf9302dc1114e0280fcb2e84d4d215,PennController,7,0,experiment,NULL,PennController,6,_Header_,End,1682706063441,sonaID,undefined,4,candy,critical,A,25,candy15.jpg,candy35.jpg,high,memory-nogoals,NULL
1682706387,3fdf9302dc1114e0280fcb2e84d4d215,PennController,7,0,experiment,NULL,Canvas,canvas6,Print,NA,1682706068135,sonaID,undefined,4,candy,critical,A,25,candy15.jpg,candy35.jpg,high,memory-nogoals,NULL
1682706387,3fdf9302dc1114e0280fcb2e84d4d215,PennController,7,0,experiment,NULL,Video,progression,buffer,0.00341,1682706065963,sonaID,undefined,4,candy,critical,A,25,candy15.jpg,candy35.jpg,high,memory-nogoals,NULL
1682706387,3fdf9302dc1114e0280fcb2e84d4d215,PennController,7,0,experiment,NULL,Selector,choice,Selection,option1,1682706069066,sonaID,undefined,4,candy,critical,A,25,candy15.jpg,candy35.jpg,high,memory-nogoals,option2;option1
1682706387,3fdf9302dc1114e0280fcb2e84d4d215,PennController,7,0,experiment,NULL,PennController,6,_Trial_,End,1682706069068,sonaID,undefined,4,candy,critical,A,25,candy15.jpg,candy35.jpg,high,memory-nogoals,NULL
1682706387,3fdf9302dc1114e0280fcb2e84d4d215,PennController,22,0,experiment,NULL,PennController,21,_Trial_,Start,1682706069070,sonaID,undefined,19,cup,filler,A,25,cup15.jpg,cup35.jpg,GoalA,memory-nogoals,NULL
1682706387,3fdf9302dc1114e0280fcb2e84d4d215,PennController,22,0,experiment,NULL,PennController,21,_Header_,Start,1682706069070,sonaID,undefined,19,cup,filler,A,25,cup15.jpg,cup35.jpg,GoalA,memory-nogoals,NULL
1682706387,3fdf9302dc1114e0280fcb2e84d4d215,PennController,22,0,experiment,NULL,PennController,21,_Header_,End,1682706069070,sonaID,undefined,19,cup,filler,A,25,cup15.jpg,cup35.jpg,GoalA,memory-nogoals,NULL
1682706387,3fdf9302dc1114e0280fcb2e84d4d215,PennController,22,0,experiment,NULL,Canvas,canvas6,Print,NA,1682706073773,sonaID,undefined,19,cup,filler,A,25,cup15.jpg,cup35.jpg,GoalA,memory-nogoals,NULL
1682706387,3fdf9302dc1114e0280fcb2e84d4d215,PennController,22,0,experiment,NULL,Video,progression,buffer,0.003834,1682706071594,sonaID,undefined,19,cup,filler,A,25,cup15.jpg,cup35.jpg,GoalA,memory-nogoals,NULL
1682706387,3fdf9302dc1114e0280fcb2e84d4d215,PennController,22,0,experiment,NULL,Selector,choice,Selection,option2,1682706074672,sonaID,undefined,19,cup,filler,A,25,cup15.jpg,cup35.jpg,GoalA,memory-nogoals,option1;option2
1682706387,3fdf9302dc1114e0280fcb2e84d4d215,PennController,22,0,experiment,NULL,PennController,21,_Trial_,End,1682706074673,sonaID,undefined,19,cup,filler,A,25,cup15.jpg,cup35.jpg,GoalA,memory-nogoals,NULL
1682706387,3fdf9302dc1114e0280fcb2e84d4d215,PennController,4,0,experiment,NULL,PennController,3,_Trial_,Start,1682706074676,sonaID,undefined,1,vase,critical,A,25,vase15.jpg,vase35.jpg,low ,memory-nogoals,NULL
1682706387,3fdf9302dc1114e0280fcb2e84d4d215,PennController,4,0,experiment,NULL,PennController,3,_Header_,Start,1682706074676,sonaID,undefined,1,vase,critical,A,25,vase15.jpg,vase35.jpg,low ,memory-nogoals,NULL
1682706387,3fdf9302dc1114e0280fcb2e84d4d215,PennController,4,0,experiment,NULL,PennController,3,_Header_,End,1682706074676,sonaID,undefined,1,vase,critical,A,25,vase15.jpg,vase35.jpg,low ,memory-nogoals,NULL
1682706387,3fdf9302dc1114e0280fcb2e84d4d215,PennController,4,0,experiment,NULL,Canvas,canvas6,Print,NA,1682706079371,sonaID,undefined,1,vase,critical,A,25,vase15.jpg,vase35.jpg,low ,memory-nogoals,NULL
1682706387,3fdf9302dc1114e0280fcb2e84d4d215,PennController,4,0,experiment,NULL,Video,progression,buffer,0.003768,1682706077194,sonaID,undefined,1,vase,critical,A,25,vase15.jpg,vase35.jpg,low ,memory-nogoals,NULL
1682706387,3fdf9302dc1114e0280fcb2e84d4d215,PennController,4,0,experiment,NULL,Selector,choice,Selection,option2,1682706081201,sonaID,undefined,1,vase,critical,A,25,vase15.jpg,vase35.jpg,low ,memory-nogoals,option2;option1
1682706387,3fdf9302dc1114e0280fcb2e84d4d215,PennController,4,0,experiment,NULL,PennController,3,_Trial_,End,1682706081203,sonaID,undefined,1,vase,critical,A,25,vase15.jpg,vase35.jpg,low ,memory-nogoals,NULL
1682706387,3fdf9302dc1114e0280fcb2e84d4d215,PennController,17,0,experiment,NULL,PennController,16,_Trial_,Start,1682706081204,sonaID,undefined,14,cover,critical,A,50,cover42.jpg,cover60.jpg,high,memory-nogoals,NULL
1682706387,3fdf9302dc1114e0280fcb2e84d4d215,PennController,17,0,experiment,NULL,PennController,16,_Header_,Start,1682706081204,sonaID,undefined,14,cover,critical,A,50,cover42.jpg,cover60.jpg,high,memory-nogoals,NULL
1682706387,3fdf9302dc1114e0280fcb2e84d4d215,PennController,17,0,experiment,NULL,PennController,16,_Header_,End,1682706081204,sonaID,undefined,14,cover,critical,A,50,cover42.jpg,cover60.jpg,high,memory-nogoals,NULL
1682706387,3fdf9302dc1114e0280fcb2e84d4d215,PennController,17,0,experiment,NULL,Canvas,canvas6,Print,NA,1682706088290,sonaID,undefined,14,cover,critical,A,50,cover42.jpg,cover60.jpg,high,memory-nogoals,NULL
1682706387,3fdf9302dc1114e0280fcb2e84d4d215,PennController,17,0,experiment,NULL,Video,progression,buffer,0.003544,1682706083719,sonaID,undefined,14,cover,critical,A,50,cover42.jpg,cover60.jpg,high,memory-nogoals,NULL
1682706387,3fdf9302dc1114e0280fcb2e84d4d215,PennController,17,0,experiment,NULL,Selector,choice,Selection,option2,1682706091103,sonaID,undefined,14,cover,critical,A,50,cover42.jpg,cover60.jpg,high,memory-nogoals,option2;option1
1682706387,3fdf9302dc1114e0280fcb2e84d4d215,PennController,17,0,experiment,NULL,PennController,16,_Trial_,End,1682706091105,sonaID,undefined,14,cover,critical,A,50,cover42.jpg,cover60.jpg,high,memory-nogoals,NULL
1682706387,3fdf9302dc1114e0280fcb2e84d4d215,PennController,14,0,experiment,NULL,PennController,13,_Trial_,Start,1682706091107,sonaID,undefined,11,beads,critical,A,50,beads40.jpg,beads60.jpg,low ,memory-nogoals,NULL
1682706387,3fdf9302dc1114e0280fcb2e84d4d215,PennController,14,0,experiment,NULL,PennController,13,_Header_,Start,1682706091107,sonaID,undefined,11,beads,critical,A,50,beads40.jpg,beads60.jpg,low ,memory-nogoals,NULL
1682706387,3fdf9302dc1114e0280fcb2e84d4d215,PennController,14,0,experiment,NULL,PennController,13,_Header_,End,1682706091107,sonaID,undefined,11,beads,critical,A,50,beads40.jpg,beads60.jpg,low ,memory-nogoals,NULL
1682706387,3fdf9302dc1114e0280fcb2e84d4d215,PennController,14,0,experiment,NULL,Canvas,canvas6,Print,NA,1682706096805,sonaID,undefined,11,beads,critical,A,50,beads40.jpg,beads60.jpg,low ,memory-nogoals,NULL
1682706387,3fdf9302dc1114e0280fcb2e84d4d215,PennController,14,0,experiment,NULL,Video,progression,buffer,0.003985,1682706093630,sonaID,undefined,11,beads,critical,A,50,beads40.jpg,beads60.jpg,low ,memory-nogoals,NULL
1682706387,3fdf9302dc1114e0280fcb2e84d4d215,PennController,14,0,experiment,NULL,Selector,choice,Selection,option1,1682706098475,sonaID,undefined,11,beads,critical,A,50,beads40.jpg,beads60.jpg,low ,memory-nogoals,option2;option1
1682706387,3fdf9302dc1114e0280fcb2e84d4d215,PennController,14,0,experiment,NULL,PennController,13,_Trial_,End,1682706098477,sonaID,undefined,11,beads,critical,A,50,beads40.jpg,beads60.jpg,low ,memory-nogoals,NULL
1682706387,3fdf9302dc1114e0280fcb2e84d4d215,PennController,26,0,experiment,NULL,PennController,25,_Trial_,Start,1682706098478,sonaID,undefined,23,color,filler,A,50,color40.jpg,color60.jpg,GoalA,memory-nogoals,NULL
1682706387,3fdf9302dc1114e0280fcb2e84d4d215,PennController,26,0,experiment,NULL,PennController,25,_Header_,Start,1682706098478,sonaID,undefined,23,color,filler,A,50,color40.jpg,color60.jpg,GoalA,memory-nogoals,NULL
1682706387,3fdf9302dc1114e0280fcb2e84d4d215,PennController,26,0,experiment,NULL,PennController,25,_Header_,End,1682706098478,sonaID,undefined,23,color,filler,A,50,color40.jpg,color60.jpg,GoalA,memory-nogoals,NULL
1682706387,3fdf9302dc1114e0280fcb2e84d4d215,PennController,26,0,experiment,NULL,Canvas,canvas6,Print,NA,1682706104173,sonaID,undefined,23,color,filler,A,50,color40.jpg,color60.jpg,GoalA,memory-nogoals,NULL
1682706387,3fdf9302dc1114e0280fcb2e84d4d215,PennController,26,0,experiment,NULL,Video,progression,buffer,0.001678,1682706100994,sonaID,undefined,23,color,filler,A,50,color40.jpg,color60.jpg,GoalA,memory-nogoals,NULL
1682706387,3fdf9302dc1114e0280fcb2e84d4d215,PennController,26,0,experiment,NULL,Selector,choice,Selection,option1,1682706108736,sonaID,undefined,23,color,filler,A,50,color40.jpg,color60.jpg,GoalA,memory-nogoals,option2;option1
1682706387,3fdf9302dc1114e0280fcb2e84d4d215,PennController,26,0,experiment,NULL,PennController,25,_Trial_,End,1682706108737,sonaID,undefined,23,color,filler,A,50,color40.jpg,color60.jpg,GoalA,memory-nogoals,NULL
1682706387,3fdf9302dc1114e0280fcb2e84d4d215,PennController,12,0,experiment,NULL,PennController,11,_Trial_,Start,1682706108739,sonaID,undefined,9,cake,critical,A,75,cake66.jpg,cake84.jpg,low ,memory-nogoals,NULL
1682706387,3fdf9302dc1114e0280fcb2e84d4d215,PennController,12,0,experiment,NULL,PennController,11,_Header_,Start,1682706108739,sonaID,undefined,9,cake,critical,A,75,cake66.jpg,cake84.jpg,low ,memory-nogoals,NULL
1682706387,3fdf9302dc1114e0280fcb2e84d4d215,PennController,12,0,experiment,NULL,PennController,11,_Header_,End,1682706108739,sonaID,undefined,9,cake,critical,A,75,cake66.jpg,cake84.jpg,low ,memory-nogoals,NULL
1682706387,3fdf9302dc1114e0280fcb2e84d4d215,PennController,12,0,experiment,NULL,Canvas,canvas6,Print,NA,1682706117434,sonaID,undefined,9,cake,critical,A,75,cake66.jpg,cake84.jpg,low ,memory-nogoals,NULL
1682706387,3fdf9302dc1114e0280fcb2e84d4d215,PennController,12,0,experiment,NULL,Video,progression,buffer,0.003715,1682706111260,sonaID,undefined,9,cake,critical,A,75,cake66.jpg,cake84.jpg,low ,memory-nogoals,NULL
1682706387,3fdf9302dc1114e0280fcb2e84d4d215,PennController,12,0,experiment,NULL,Selector,choice,Selection,option2,1682706118775,sonaID,undefined,9,cake,critical,A,75,cake66.jpg,cake84.jpg,low ,memory-nogoals,option1;option2
1682706387,3fdf9302dc1114e0280fcb2e84d4d215,PennController,12,0,experiment,NULL,PennController,11,_Trial_,End,1682706118777,sonaID,undefined,9,cake,critical,A,75,cake66.jpg,cake84.jpg,low ,memory-nogoals,NULL
1682706387,3fdf9302dc1114e0280fcb2e84d4d215,PennController,9,0,experiment,NULL,PennController,8,_Trial_,Start,1682706118779,sonaID,undefined,6,flower,critical,A,75,flower65.jpg,flower85.jpg,high,memory-nogoals,NULL
1682706387,3fdf9302dc1114e0280fcb2e84d4d215,PennController,9,0,experiment,NULL,PennController,8,_Header_,Start,1682706118779,sonaID,undefined,6,flower,critical,A,75,flower65.jpg,flower85.jpg,high,memory-nogoals,NULL
1682706387,3fdf9302dc1114e0280fcb2e84d4d215,PennController,9,0,experiment,NULL,PennController,8,_Header_,End,1682706118779,sonaID,undefined,6,flower,critical,A,75,flower65.jpg,flower85.jpg,high,memory-nogoals,NULL
1682706387,3fdf9302dc1114e0280fcb2e84d4d215,PennController,9,0,experiment,NULL,Canvas,canvas6,Print,NA,1682706125470,sonaID,undefined,6,flower,critical,A,75,flower65.jpg,flower85.jpg,high,memory-nogoals,NULL
1682706387,3fdf9302dc1114e0280fcb2e84d4d215,PennController,9,0,experiment,NULL,Video,progression,buffer,0.003506,1682706121301,sonaID,undefined,6,flower,critical,A,75,flower65.jpg,flower85.jpg,high,memory-nogoals,NULL
1682706387,3fdf9302dc1114e0280fcb2e84d4d215,PennController,9,0,experiment,NULL,Selector,choice,Selection,option2,1682706126425,sonaID,undefined,6,flower,critical,A,75,flower65.jpg,flower85.jpg,high,memory-nogoals,option1;option2
1682706387,3fdf9302dc1114e0280fcb2e84d4d215,PennController,9,0,experiment,NULL,PennController,8,_Trial_,End,1682706126426,sonaID,undefined,6,flower,critical,A,75,flower65.jpg,flower85.jpg,high,memory-nogoals,NULL
1682706387,3fdf9302dc1114e0280fcb2e84d4d215,PennController,23,0,experiment,NULL,PennController,22,_Trial_,Start,1682706126428,sonaID,undefined,20,cat,filler,A,50,cat40.jpg,cat60.jpg,GoalB,memory-nogoals,NULL
1682706387,3fdf9302dc1114e0280fcb2e84d4d215,PennController,23,0,experiment,NULL,PennController,22,_Header_,Start,1682706126428,sonaID,undefined,20,cat,filler,A,50,cat40.jpg,cat60.jpg,GoalB,memory-nogoals,NULL
1682706387,3fdf9302dc1114e0280fcb2e84d4d215,PennController,23,0,experiment,NULL,PennController,22,_Header_,End,1682706126428,sonaID,undefined,20,cat,filler,A,50,cat40.jpg,cat60.jpg,GoalB,memory-nogoals,NULL
1682706387,3fdf9302dc1114e0280fcb2e84d4d215,PennController,23,0,experiment,NULL,Canvas,canvas6,Print,NA,1682706132122,sonaID,undefined,20,cat,filler,A,50,cat40.jpg,cat60.jpg,GoalB,memory-nogoals,NULL
1682706387,3fdf9302dc1114e0280fcb2e84d4d215,PennController,23,0,experiment,NULL,Video,progression,buffer,0.003434,1682706128951,sonaID,undefined,20,cat,filler,A,50,cat40.jpg,cat60.jpg,GoalB,memory-nogoals,NULL
1682706387,3fdf9302dc1114e0280fcb2e84d4d215,PennController,23,0,experiment,NULL,Selector,choice,Selection,option2,1682706133229,sonaID,undefined,20,cat,filler,A,50,cat40.jpg,cat60.jpg,GoalB,memory-nogoals,option2;option1
1682706387,3fdf9302dc1114e0280fcb2e84d4d215,PennController,23,0,experiment,NULL,PennController,22,_Trial_,End,1682706133231,sonaID,undefined,20,cat,filler,A,50,cat40.jpg,cat60.jpg,GoalB,memory-nogoals,NULL
1682706387,3fdf9302dc1114e0280fcb2e84d4d215,PennController,30,0,experiment,NULL,PennController,29,_PreloadFailed_,fixation.png,1682706193243,sonaID,undefined,27,rice,filler,A,75,square65.jpg,square85.jpg,GoalA,memory-nogoals,NULL
1682706387,3fdf9302dc1114e0280fcb2e84d4d215,PennController,30,0,experiment,NULL,PennController,29,_PreloadFailed_,https://raw.githubusercontent.com/karenwli/rep-momentum/main/rice/rice00.jpg,1682706193243,sonaID,undefined,27,rice,filler,A,75,square65.jpg,square85.jpg,GoalA,memory-nogoals,NULL
1682706387,3fdf9302dc1114e0280fcb2e84d4d215,PennController,30,0,experiment,NULL,PennController,29,_PreloadFailed_,https://video.wixstatic.com/video/7cb05b_41aae65ca27d43c3a89b5e46732d18ff/144p/mp4/file.mp4,1682706193243,sonaID,undefined,27,rice,filler,A,75,square65.jpg,square85.jpg,GoalA,memory-nogoals,NULL
1682706387,3fdf9302dc1114e0280fcb2e84d4d215,PennController,30,0,experiment,NULL,PennController,29,_Trial_,Start,1682706193243,sonaID,undefined,27,rice,filler,A,75,square65.jpg,square85.jpg,GoalA,memory-nogoals,NULL
1682706387,3fdf9302dc1114e0280fcb2e84d4d215,PennController,30,0,experiment,NULL,PennController,29,_Header_,Start,1682706193243,sonaID,undefined,27,rice,filler,A,75,square65.jpg,square85.jpg,GoalA,memory-nogoals,NULL
1682706387,3fdf9302dc1114e0280fcb2e84d4d215,PennController,30,0,experiment,NULL,PennController,29,_Header_,End,1682706193243,sonaID,undefined,27,rice,filler,A,75,square65.jpg,square85.jpg,GoalA,memory-nogoals,NULL
1682706387,3fdf9302dc1114e0280fcb2e84d4d215,PennController,30,0,experiment,NULL,Canvas,canvas6,Print,NA,1682706199938,sonaID,undefined,27,rice,filler,A,75,square65.jpg,square85.jpg,GoalA,memory-nogoals,NULL
1682706387,3fdf9302dc1114e0280fcb2e84d4d215,PennController,30,0,experiment,NULL,Video,progression,buffer,0.004341,1682706195765,sonaID,undefined,27,rice,filler,A,75,square65.jpg,square85.jpg,GoalA,memory-nogoals,NULL
1682706387,3fdf9302dc1114e0280fcb2e84d4d215,PennController,30,0,experiment,NULL,Selector,choice,Selection,option2,1682706294337,sonaID,undefined,27,rice,filler,A,75,square65.jpg,square85.jpg,GoalA,memory-nogoals,option1;option2
1682706387,3fdf9302dc1114e0280fcb2e84d4d215,PennController,30,0,experiment,NULL,PennController,29,_Trial_,End,1682706294339,sonaID,undefined,27,rice,filler,A,75,square65.jpg,square85.jpg,GoalA,memory-nogoals,NULL
1682706387,3fdf9302dc1114e0280fcb2e84d4d215,PennController,19,0,experiment,NULL,PennController,18,_Trial_,Start,1682706294342,sonaID,undefined,16,blinds,critical,A,25,blinds15.jpg,blinds33.jpg,high,memory-nogoals,NULL
1682706387,3fdf9302dc1114e0280fcb2e84d4d215,PennController,19,0,experiment,NULL,PennController,18,_Header_,Start,1682706294342,sonaID,undefined,16,blinds,critical,A,25,blinds15.jpg,blinds33.jpg,high,memory-nogoals,NULL
1682706387,3fdf9302dc1114e0280fcb2e84d4d215,PennController,19,0,experiment,NULL,PennController,18,_Header_,End,1682706294342,sonaID,undefined,16,blinds,critical,A,25,blinds15.jpg,blinds33.jpg,high,memory-nogoals,NULL
1682706387,3fdf9302dc1114e0280fcb2e84d4d215,PennController,19,0,experiment,NULL,Canvas,canvas6,Print,NA,1682706299634,sonaID,undefined,16,blinds,critical,A,25,blinds15.jpg,blinds33.jpg,high,memory-nogoals,NULL
1682706387,3fdf9302dc1114e0280fcb2e84d4d215,PennController,19,0,experiment,NULL,Video,progression,buffer,0.003675,1682706296861,sonaID,undefined,16,blinds,critical,A,25,blinds15.jpg,blinds33.jpg,high,memory-nogoals,NULL
1682706387,3fdf9302dc1114e0280fcb2e84d4d215,PennController,19,0,experiment,NULL,Selector,choice,Selection,option2,1682706302782,sonaID,undefined,16,blinds,critical,A,25,blinds15.jpg,blinds33.jpg,high,memory-nogoals,option1;option2
1682706387,3fdf9302dc1114e0280fcb2e84d4d215,PennController,19,0,experiment,NULL,PennController,18,_Trial_,End,1682706302784,sonaID,undefined,16,blinds,critical,A,25,blinds15.jpg,blinds33.jpg,high,memory-nogoals,NULL
1682706387,3fdf9302dc1114e0280fcb2e84d4d215,PennController,27,0,experiment,NULL,PennController,26,_Trial_,Start,1682706302785,sonaID,undefined,24,match,filler,A,75,match65.jpg,match85.jpg,GoalB,memory-nogoals,NULL
1682706387,3fdf9302dc1114e0280fcb2e84d4d215,PennController,27,0,experiment,NULL,PennController,26,_Header_,Start,1682706302785,sonaID,undefined,24,match,filler,A,75,match65.jpg,match85.jpg,GoalB,memory-nogoals,NULL
1682706387,3fdf9302dc1114e0280fcb2e84d4d215,PennController,27,0,experiment,NULL,PennController,26,_Header_,End,1682706302785,sonaID,undefined,24,match,filler,A,75,match65.jpg,match85.jpg,GoalB,memory-nogoals,NULL
1682706387,3fdf9302dc1114e0280fcb2e84d4d215,PennController,27,0,experiment,NULL,Canvas,canvas6,Print,NA,1682706309472,sonaID,undefined,24,match,filler,A,75,match65.jpg,match85.jpg,GoalB,memory-nogoals,NULL
1682706387,3fdf9302dc1114e0280fcb2e84d4d215,PennController,27,0,experiment,NULL,Video,progression,buffer,0.002404,1682706305301,sonaID,undefined,24,match,filler,A,75,match65.jpg,match85.jpg,GoalB,memory-nogoals,NULL
1682706387,3fdf9302dc1114e0280fcb2e84d4d215,PennController,27,0,experiment,NULL,Selector,choice,Selection,option1,1682706311561,sonaID,undefined,24,match,filler,A,75,match65.jpg,match85.jpg,GoalB,memory-nogoals,option1;option2
1682706387,3fdf9302dc1114e0280fcb2e84d4d215,PennController,27,0,experiment,NULL,PennController,26,_Trial_,End,1682706311562,sonaID,undefined,24,match,filler,A,75,match65.jpg,match85.jpg,GoalB,memory-nogoals,NULL
1682706387,3fdf9302dc1114e0280fcb2e84d4d215,PennController,24,0,experiment,NULL,PennController,23,_Trial_,Start,1682706311564,sonaID,undefined,21,visit,filler,A,75,visit65.jpg,visit85.jpg,GoalA,memory-nogoals,NULL
1682706387,3fdf9302dc1114e0280fcb2e84d4d215,PennController,24,0,experiment,NULL,PennController,23,_Header_,Start,1682706311564,sonaID,undefined,21,visit,filler,A,75,visit65.jpg,visit85.jpg,GoalA,memory-nogoals,NULL
1682706387,3fdf9302dc1114e0280fcb2e84d4d215,PennController,24,0,experiment,NULL,PennController,23,_Header_,End,1682706311564,sonaID,undefined,21,visit,filler,A,75,visit65.jpg,visit85.jpg,GoalA,memory-nogoals,NULL
1682706387,3fdf9302dc1114e0280fcb2e84d4d215,PennController,24,0,experiment,NULL,Canvas,canvas6,Print,NA,1682706318255,sonaID,undefined,21,visit,filler,A,75,visit65.jpg,visit85.jpg,GoalA,memory-nogoals,NULL
1682706387,3fdf9302dc1114e0280fcb2e84d4d215,PennController,24,0,experiment,NULL,Video,progression,buffer,0.002688,1682706314079,sonaID,undefined,21,visit,filler,A,75,visit65.jpg,visit85.jpg,GoalA,memory-nogoals,NULL
1682706387,3fdf9302dc1114e0280fcb2e84d4d215,PennController,24,0,experiment,NULL,Selector,choice,Selection,option2,1682706319623,sonaID,undefined,21,visit,filler,A,75,visit65.jpg,visit85.jpg,GoalA,memory-nogoals,option1;option2
1682706387,3fdf9302dc1114e0280fcb2e84d4d215,PennController,24,0,experiment,NULL,PennController,23,_Trial_,End,1682706319624,sonaID,undefined,21,visit,filler,A,75,visit65.jpg,visit85.jpg,GoalA,memory-nogoals,NULL
1682706387,3fdf9302dc1114e0280fcb2e84d4d215,PennController,31,0,experiment,NULL,PennController,30,_Trial_,Start,1682706319625,sonaID,undefined,28,sort,filler,A,25,sort15.jpg,sort35.jpg,GoalB,memory-nogoals,NULL
1682706387,3fdf9302dc1114e0280fcb2e84d4d215,PennController,31,0,experiment,NULL,PennController,30,_Header_,Start,1682706319625,sonaID,undefined,28,sort,filler,A,25,sort15.jpg,sort35.jpg,GoalB,memory-nogoals,NULL
1682706387,3fdf9302dc1114e0280fcb2e84d4d215,PennController,31,0,experiment,NULL,PennController,30,_Header_,End,1682706319625,sonaID,undefined,28,sort,filler,A,25,sort15.jpg,sort35.jpg,GoalB,memory-nogoals,NULL
1682706387,3fdf9302dc1114e0280fcb2e84d4d215,PennController,31,0,experiment,NULL,Canvas,canvas6,Print,NA,1682706324321,sonaID,undefined,28,sort,filler,A,25,sort15.jpg,sort35.jpg,GoalB,memory-nogoals,NULL
1682706387,3fdf9302dc1114e0280fcb2e84d4d215,PennController,31,0,experiment,NULL,Video,progression,buffer,0.003607,1682706322144,sonaID,undefined,28,sort,filler,A,25,sort15.jpg,sort35.jpg,GoalB,memory-nogoals,NULL
1682706387,3fdf9302dc1114e0280fcb2e84d4d215,PennController,31,0,experiment,NULL,Selector,choice,Selection,option2,1682706326403,sonaID,undefined,28,sort,filler,A,25,sort15.jpg,sort35.jpg,GoalB,memory-nogoals,option2;option1
1682706387,3fdf9302dc1114e0280fcb2e84d4d215,PennController,31,0,experiment,NULL,PennController,30,_Trial_,End,1682706326405,sonaID,undefined,28,sort,filler,A,25,sort15.jpg,sort35.jpg,GoalB,memory-nogoals,NULL
1682706387,3fdf9302dc1114e0280fcb2e84d4d215,PennController,21,0,experiment,NULL,PennController,20,_Trial_,Start,1682706326406,sonaID,undefined,18,ball,critical,A,75,ball65.jpg,ball85.jpg,high,memory-nogoals,NULL
1682706387,3fdf9302dc1114e0280fcb2e84d4d215,PennController,21,0,experiment,NULL,PennController,20,_Header_,Start,1682706326406,sonaID,undefined,18,ball,critical,A,75,ball65.jpg,ball85.jpg,high,memory-nogoals,NULL
1682706387,3fdf9302dc1114e0280fcb2e84d4d215,PennController,21,0,experiment,NULL,PennController,20,_Header_,End,1682706326406,sonaID,undefined,18,ball,critical,A,75,ball65.jpg,ball85.jpg,high,memory-nogoals,NULL
1682706387,3fdf9302dc1114e0280fcb2e84d4d215,PennController,21,0,experiment,NULL,Canvas,canvas6,Print,NA,1682706333101,sonaID,undefined,18,ball,critical,A,75,ball65.jpg,ball85.jpg,high,memory-nogoals,NULL
1682706387,3fdf9302dc1114e0280fcb2e84d4d215,PennController,21,0,experiment,NULL,Video,progression,buffer,0.003329,1682706328927,sonaID,undefined,18,ball,critical,A,75,ball65.jpg,ball85.jpg,high,memory-nogoals,NULL
1682706387,3fdf9302dc1114e0280fcb2e84d4d215,PennController,21,0,experiment,NULL,Selector,choice,Selection,option1,1682706334742,sonaID,undefined,18,ball,critical,A,75,ball65.jpg,ball85.jpg,high,memory-nogoals,option2;option1
1682706387,3fdf9302dc1114e0280fcb2e84d4d215,PennController,21,0,experiment,NULL,PennController,20,_Trial_,End,1682706334744,sonaID,undefined,18,ball,critical,A,75,ball65.jpg,ball85.jpg,high,memory-nogoals,NULL
1682706387,3fdf9302dc1114e0280fcb2e84d4d215,PennController,15,0,experiment,NULL,PennController,14,_Trial_,Start,1682706334745,sonaID,undefined,12,erase,critical,A,75,erase66.jpg,erase84.jpg,high,memory-nogoals,NULL
1682706387,3fdf9302dc1114e0280fcb2e84d4d215,PennController,15,0,experiment,NULL,PennController,14,_Header_,Start,1682706334745,sonaID,undefined,12,erase,critical,A,75,erase66.jpg,erase84.jpg,high,memory-nogoals,NULL
1682706387,3fdf9302dc1114e0280fcb2e84d4d215,PennController,15,0,experiment,NULL,PennController,14,_Header_,End,1682706334745,sonaID,undefined,12,erase,critical,A,75,erase66.jpg,erase84.jpg,high,memory-nogoals,NULL
1682706387,3fdf9302dc1114e0280fcb2e84d4d215,PennController,15,0,experiment,NULL,Canvas,canvas6,Print,NA,1682706343436,sonaID,undefined,12,erase,critical,A,75,erase66.jpg,erase84.jpg,high,memory-nogoals,NULL
1682706387,3fdf9302dc1114e0280fcb2e84d4d215,PennController,15,0,experiment,NULL,Video,progression,buffer,0.002583,1682706337269,sonaID,undefined,12,erase,critical,A,75,erase66.jpg,erase84.jpg,high,memory-nogoals,NULL
1682706387,3fdf9302dc1114e0280fcb2e84d4d215,PennController,15,0,experiment,NULL,Selector,choice,Selection,option1,1682706345740,sonaID,undefined,12,erase,critical,A,75,erase66.jpg,erase84.jpg,high,memory-nogoals,option1;option2
1682706387,3fdf9302dc1114e0280fcb2e84d4d215,PennController,15,0,experiment,NULL,PennController,14,_Trial_,End,1682706345741,sonaID,undefined,12,erase,critical,A,75,erase66.jpg,erase84.jpg,high,memory-nogoals,NULL
1682706387,3fdf9302dc1114e0280fcb2e84d4d215,PennController,5,0,experiment,NULL,PennController,4,_Trial_,Start,1682706345742,sonaID,undefined,2,door,critical,A,50,door40.jpg,door60.jpg,high,memory-nogoals,NULL
1682706387,3fdf9302dc1114e0280fcb2e84d4d215,PennController,5,0,experiment,NULL,PennController,4,_Header_,Start,1682706345742,sonaID,undefined,2,door,critical,A,50,door40.jpg,door60.jpg,high,memory-nogoals,NULL
1682706387,3fdf9302dc1114e0280fcb2e84d4d215,PennController,5,0,experiment,NULL,PennController,4,_Header_,End,1682706345742,sonaID,undefined,2,door,critical,A,50,door40.jpg,door60.jpg,high,memory-nogoals,NULL
1682706387,3fdf9302dc1114e0280fcb2e84d4d215,PennController,5,0,experiment,NULL,Canvas,canvas6,Print,NA,1682706351435,sonaID,undefined,2,door,critical,A,50,door40.jpg,door60.jpg,high,memory-nogoals,NULL
1682706387,3fdf9302dc1114e0280fcb2e84d4d215,PennController,5,0,experiment,NULL,Video,progression,buffer,0.003129,1682706348265,sonaID,undefined,2,door,critical,A,50,door40.jpg,door60.jpg,high,memory-nogoals,NULL
1682706387,3fdf9302dc1114e0280fcb2e84d4d215,PennController,5,0,experiment,NULL,Selector,choice,Selection,option2,1682706352658,sonaID,undefined,2,door,critical,A,50,door40.jpg,door60.jpg,high,memory-nogoals,option2;option1
1682706387,3fdf9302dc1114e0280fcb2e84d4d215,PennController,5,0,experiment,NULL,PennController,4,_Trial_,End,1682706352659,sonaID,undefined,2,door,critical,A,50,door40.jpg,door60.jpg,high,memory-nogoals,NULL
1682706387,3fdf9302dc1114e0280fcb2e84d4d215,PennController,32,0,experiment,NULL,PennController,31,_Trial_,Start,1682706352660,sonaID,undefined,29,frog,filler,A,50,frog40.jpg,frog60.jpg,GoalA,memory-nogoals,NULL
1682706387,3fdf9302dc1114e0280fcb2e84d4d215,PennController,32,0,experiment,NULL,PennController,31,_Header_,Start,1682706352660,sonaID,undefined,29,frog,filler,A,50,frog40.jpg,frog60.jpg,GoalA,memory-nogoals,NULL
1682706387,3fdf9302dc1114e0280fcb2e84d4d215,PennController,32,0,experiment,NULL,PennController,31,_Header_,End,1682706352660,sonaID,undefined,29,frog,filler,A,50,frog40.jpg,frog60.jpg,GoalA,memory-nogoals,NULL
1682706387,3fdf9302dc1114e0280fcb2e84d4d215,PennController,32,0,experiment,NULL,Canvas,canvas6,Print,NA,1682706358355,sonaID,undefined,29,frog,filler,A,50,frog40.jpg,frog60.jpg,GoalA,memory-nogoals,NULL
1682706387,3fdf9302dc1114e0280fcb2e84d4d215,PennController,32,0,experiment,NULL,Video,progression,buffer,0.002858,1682706355183,sonaID,undefined,29,frog,filler,A,50,frog40.jpg,frog60.jpg,GoalA,memory-nogoals,NULL
1682706387,3fdf9302dc1114e0280fcb2e84d4d215,PennController,32,0,experiment,NULL,Selector,choice,Selection,option2,1682706359812,sonaID,undefined,29,frog,filler,A,50,frog40.jpg,frog60.jpg,GoalA,memory-nogoals,option1;option2
1682706387,3fdf9302dc1114e0280fcb2e84d4d215,PennController,32,0,experiment,NULL,PennController,31,_Trial_,End,1682706359814,sonaID,undefined,29,frog,filler,A,50,frog40.jpg,frog60.jpg,GoalA,memory-nogoals,NULL
1682706387,3fdf9302dc1114e0280fcb2e84d4d215,PennController,29,0,experiment,NULL,PennController,28,_Trial_,Start,1682706359815,sonaID,undefined,26,sandwich,filler,A,50,sandwich40.jpg,sandwich60.jpg,GoalB,memory-nogoals,NULL
1682706387,3fdf9302dc1114e0280fcb2e84d4d215,PennController,29,0,experiment,NULL,PennController,28,_Header_,Start,1682706359815,sonaID,undefined,26,sandwich,filler,A,50,sandwich40.jpg,sandwich60.jpg,GoalB,memory-nogoals,NULL
1682706387,3fdf9302dc1114e0280fcb2e84d4d215,PennController,29,0,experiment,NULL,PennController,28,_Header_,End,1682706359815,sonaID,undefined,26,sandwich,filler,A,50,sandwich40.jpg,sandwich60.jpg,GoalB,memory-nogoals,NULL
1682706387,3fdf9302dc1114e0280fcb2e84d4d215,PennController,29,0,experiment,NULL,Canvas,canvas6,Print,NA,1682706365501,sonaID,undefined,26,sandwich,filler,A,50,sandwich40.jpg,sandwich60.jpg,GoalB,memory-nogoals,NULL
1682706387,3fdf9302dc1114e0280fcb2e84d4d215,PennController,29,0,experiment,NULL,Video,progression,buffer,0.002645,1682706362335,sonaID,undefined,26,sandwich,filler,A,50,sandwich40.jpg,sandwich60.jpg,GoalB,memory-nogoals,NULL
1682706387,3fdf9302dc1114e0280fcb2e84d4d215,PennController,29,0,experiment,NULL,Selector,choice,Selection,option1,1682706367966,sonaID,undefined,26,sandwich,filler,A,50,sandwich40.jpg,sandwich60.jpg,GoalB,memory-nogoals,option1;option2
1682706387,3fdf9302dc1114e0280fcb2e84d4d215,PennController,29,0,experiment,NULL,PennController,28,_Trial_,End,1682706367968,sonaID,undefined,26,sandwich,filler,A,50,sandwich40.jpg,sandwich60.jpg,GoalB,memory-nogoals,NULL
1682706387,3fdf9302dc1114e0280fcb2e84d4d215,PennController,16,0,experiment,NULL,PennController,15,_Trial_,Start,1682706367969,sonaID,undefined,13,mix,critical,A,25,mix15.jpg,mix35.jpg,low ,memory-nogoals,NULL
1682706387,3fdf9302dc1114e0280fcb2e84d4d215,PennController,16,0,experiment,NULL,PennController,15,_Header_,Start,1682706367969,sonaID,undefined,13,mix,critical,A,25,mix15.jpg,mix35.jpg,low ,memory-nogoals,NULL
1682706387,3fdf9302dc1114e0280fcb2e84d4d215,PennController,16,0,experiment,NULL,PennController,15,_Header_,End,1682706367969,sonaID,undefined,13,mix,critical,A,25,mix15.jpg,mix35.jpg,low ,memory-nogoals,NULL
1682706387,3fdf9302dc1114e0280fcb2e84d4d215,PennController,16,0,experiment,NULL,Canvas,canvas6,Print,NA,1682706372652,sonaID,undefined,13,mix,critical,A,25,mix15.jpg,mix35.jpg,low ,memory-nogoals,NULL
1682706387,3fdf9302dc1114e0280fcb2e84d4d215,PennController,16,0,experiment,NULL,Video,progression,buffer,0.002474,1682706370483,sonaID,undefined,13,mix,critical,A,25,mix15.jpg,mix35.jpg,low ,memory-nogoals,NULL
1682706387,3fdf9302dc1114e0280fcb2e84d4d215,PennController,16,0,experiment,NULL,Selector,choice,Selection,option2,1682706374171,sonaID,undefined,13,mix,critical,A,25,mix15.jpg,mix35.jpg,low ,memory-nogoals,option2;option1
1682706387,3fdf9302dc1114e0280fcb2e84d4d215,PennController,16,0,experiment,NULL,PennController,15,_Trial_,End,1682706374172,sonaID,undefined,13,mix,critical,A,25,mix15.jpg,mix35.jpg,low ,memory-nogoals,NULL
1682706387,3fdf9302dc1114e0280fcb2e84d4d215,PennController,25,0,experiment,NULL,PennController,24,_Trial_,Start,1682706374174,sonaID,undefined,22,wall,filler,A,25,wall15.jpg,wall35.jpg,GoalB,memory-nogoals,NULL
1682706387,3fdf9302dc1114e0280fcb2e84d4d215,PennController,25,0,experiment,NULL,PennController,24,_Header_,Start,1682706374174,sonaID,undefined,22,wall,filler,A,25,wall15.jpg,wall35.jpg,GoalB,memory-nogoals,NULL
1682706387,3fdf9302dc1114e0280fcb2e84d4d215,PennController,25,0,experiment,NULL,PennController,24,_Header_,End,1682706374174,sonaID,undefined,22,wall,filler,A,25,wall15.jpg,wall35.jpg,GoalB,memory-nogoals,NULL
1682706387,3fdf9302dc1114e0280fcb2e84d4d215,PennController,25,0,experiment,NULL,Canvas,canvas6,Print,NA,1682706378850,sonaID,undefined,22,wall,filler,A,25,wall15.jpg,wall35.jpg,GoalB,memory-nogoals,NULL
1682706387,3fdf9302dc1114e0280fcb2e84d4d215,PennController,25,0,experiment,NULL,Video,progression,buffer,0.002759,1682706376690,sonaID,undefined,22,wall,filler,A,25,wall15.jpg,wall35.jpg,GoalB,memory-nogoals,NULL
1682706387,3fdf9302dc1114e0280fcb2e84d4d215,PennController,25,0,experiment,NULL,Selector,choice,Selection,option1,1682706380725,sonaID,undefined,22,wall,filler,A,25,wall15.jpg,wall35.jpg,GoalB,memory-nogoals,option1;option2
1682706387,3fdf9302dc1114e0280fcb2e84d4d215,PennController,25,0,experiment,NULL,PennController,24,_Trial_,End,1682706380726,sonaID,undefined,22,wall,filler,A,25,wall15.jpg,wall35.jpg,GoalB,memory-nogoals,NULL
1682706387,3fdf9302dc1114e0280fcb2e84d4d215,PennController,13,0,experiment,NULL,PennController,12,_Trial_,Start,1682706380727,sonaID,undefined,10,train,critical,A,25,train15.jpg,train35.jpg,high,memory-nogoals,NULL
1682706387,3fdf9302dc1114e0280fcb2e84d4d215,PennController,13,0,experiment,NULL,PennController,12,_Header_,Start,1682706380727,sonaID,undefined,10,train,critical,A,25,train15.jpg,train35.jpg,high,memory-nogoals,NULL
1682706387,3fdf9302dc1114e0280fcb2e84d4d215,PennController,13,0,experiment,NULL,PennController,12,_Header_,End,1682706380727,sonaID,undefined,10,train,critical,A,25,train15.jpg,train35.jpg,high,memory-nogoals,NULL
1682706387,3fdf9302dc1114e0280fcb2e84d4d215,PennController,13,0,experiment,NULL,Canvas,canvas6,Print,NA,1682706385420,sonaID,undefined,10,train,critical,A,25,train15.jpg,train35.jpg,high,memory-nogoals,NULL
1682706387,3fdf9302dc1114e0280fcb2e84d4d215,PennController,13,0,experiment,NULL,Video,progression,buffer,0.003813,1682706383245,sonaID,undefined,10,train,critical,A,25,train15.jpg,train35.jpg,high,memory-nogoals,NULL
1682706387,3fdf9302dc1114e0280fcb2e84d4d215,PennController,13,0,experiment,NULL,Selector,choice,Selection,option2,1682706386970,sonaID,undefined,10,train,critical,A,25,train15.jpg,train35.jpg,high,memory-nogoals,option1;option2
1682706387,3fdf9302dc1114e0280fcb2e84d4d215,PennController,13,0,experiment,NULL,PennController,12,_Trial_,End,1682706386971,sonaID,undefined,10,train,critical,A,25,train15.jpg,train35.jpg,high,memory-nogoals,NULL
