#
# Results on Wednesday April 26 2023 19:39:30 UTC
# USER AGENT: Mozilla/5.0 (Macintosh; Intel Mac OS X 10_15_7) AppleWebKit/537.36 (KHTML, like Gecko) Chrome/112.0.0.0 Safari/537.36
# Design number was non-random = 15
#
# Columns below this comment are as follows:
# 1. Results reception time.
# 2. MD5 hash of participant's IP address.
# 3. Controller name.
# 4. Order number of item.
# 5. Inner element number.
# 6. Label.
# 7. Latin Square Group.
# 8. PennElementType.
# 9. PennElementName.
# 10. Parameter.
# 11. Value.
# 12. EventTime.
# 13. sonaID.
# 14. Comments.
1682537970,a37ec8794e2b58c161950c2f2b247a00,PennController,2,0,consent,NULL,PennController,0,_Trial_,Start,1682537333633,sonaID,NULL
1682537970,a37ec8794e2b58c161950c2f2b247a00,PennController,2,0,consent,NULL,PennController,0,_Header_,Start,1682537333633,sonaID,NULL
1682537970,a37ec8794e2b58c161950c2f2b247a00,PennController,2,0,consent,NULL,PennController,0,_Header_,End,1682537333633,sonaID,NULL
1682537970,a37ec8794e2b58c161950c2f2b247a00,PennController,2,0,consent,NULL,PennController,0,_Trial_,End,1682537349376,sonaID,NULL
# Columns below this comment are as follows:
# 14. ID.
# 15. Comments.
1682537970,a37ec8794e2b58c161950c2f2b247a00,PennController,3,0,intro,NULL,PennController,1,_Trial_,Start,1682537349380,sonaID,undefined,NULL
1682537970,a37ec8794e2b58c161950c2f2b247a00,PennController,3,0,intro,NULL,PennController,1,_Header_,Start,1682537349380,sonaID,undefined,NULL
1682537970,a37ec8794e2b58c161950c2f2b247a00,PennController,3,0,intro,NULL,PennController,1,_Header_,End,1682537349380,sonaID,undefined,NULL
1682537970,a37ec8794e2b58c161950c2f2b247a00,PennController,3,0,intro,NULL,TextInput,inputID,EnterReturn,76994395,1682537662514,sonaID,undefined,NULL
1682537970,a37ec8794e2b58c161950c2f2b247a00,PennController,3,0,intro,NULL,TextInput,inputID,Final,76994395,1682537662546,sonaID,undefined,NULL
1682537970,a37ec8794e2b58c161950c2f2b247a00,PennController,3,0,intro,NULL,TextInput,inputID,First,,1682537356684,sonaID,undefined,7
1682537970,a37ec8794e2b58c161950c2f2b247a00,PennController,3,0,intro,NULL,PennController,1,_Trial_,End,1682537662549,sonaID,undefined,NULL
# Columns below this comment are as follows:
# 15. item_number.
# 16. item.
# 17. type.
# 18. Group.
# 19. prog.
# 20. prev_image.
# 21. next_image.
# 22. height.
# 23. memory-nogoals.
# 24. Comments.
1682537970,a37ec8794e2b58c161950c2f2b247a00,PennController,19,0,experiment,NULL,PennController,18,_Trial_,Start,1682537662551,sonaID,undefined,16,blinds,critical,D,25,blinds15.jpg,blinds33.jpg,low ,memory-nogoals,NULL
1682537970,a37ec8794e2b58c161950c2f2b247a00,PennController,19,0,experiment,NULL,PennController,18,_Header_,Start,1682537662551,sonaID,undefined,16,blinds,critical,D,25,blinds15.jpg,blinds33.jpg,low ,memory-nogoals,NULL
1682537970,a37ec8794e2b58c161950c2f2b247a00,PennController,19,0,experiment,NULL,PennController,18,_Header_,End,1682537662552,sonaID,undefined,16,blinds,critical,D,25,blinds15.jpg,blinds33.jpg,low ,memory-nogoals,NULL
1682537970,a37ec8794e2b58c161950c2f2b247a00,PennController,19,0,experiment,NULL,Canvas,canvas6,Print,NA,1682537667866,sonaID,undefined,16,blinds,critical,D,25,blinds15.jpg,blinds33.jpg,low ,memory-nogoals,NULL
1682537970,a37ec8794e2b58c161950c2f2b247a00,PennController,19,0,experiment,NULL,Video,progression,buffer,0.007871,1682537665098,sonaID,undefined,16,blinds,critical,D,25,blinds15.jpg,blinds33.jpg,low ,memory-nogoals,NULL
1682537970,a37ec8794e2b58c161950c2f2b247a00,PennController,19,0,experiment,NULL,Selector,choice,Selection,option2,1682537674239,sonaID,undefined,16,blinds,critical,D,25,blinds15.jpg,blinds33.jpg,low ,memory-nogoals,option2;option1
1682537970,a37ec8794e2b58c161950c2f2b247a00,PennController,19,0,experiment,NULL,PennController,18,_Trial_,End,1682537674243,sonaID,undefined,16,blinds,critical,D,25,blinds15.jpg,blinds33.jpg,low ,memory-nogoals,NULL
1682537970,a37ec8794e2b58c161950c2f2b247a00,PennController,8,0,experiment,NULL,PennController,7,_Trial_,Start,1682537674245,sonaID,undefined,5,book,critical,D,50,book40.jpg,book60.jpg,high,memory-nogoals,NULL
1682537970,a37ec8794e2b58c161950c2f2b247a00,PennController,8,0,experiment,NULL,PennController,7,_Header_,Start,1682537674245,sonaID,undefined,5,book,critical,D,50,book40.jpg,book60.jpg,high,memory-nogoals,NULL
1682537970,a37ec8794e2b58c161950c2f2b247a00,PennController,8,0,experiment,NULL,PennController,7,_Header_,End,1682537674245,sonaID,undefined,5,book,critical,D,50,book40.jpg,book60.jpg,high,memory-nogoals,NULL
1682537970,a37ec8794e2b58c161950c2f2b247a00,PennController,8,0,experiment,NULL,Canvas,canvas6,Print,NA,1682537679927,sonaID,undefined,5,book,critical,D,50,book40.jpg,book60.jpg,high,memory-nogoals,NULL
1682537970,a37ec8794e2b58c161950c2f2b247a00,PennController,8,0,experiment,NULL,Video,progression,buffer,0.004227,1682537676766,sonaID,undefined,5,book,critical,D,50,book40.jpg,book60.jpg,high,memory-nogoals,NULL
1682537970,a37ec8794e2b58c161950c2f2b247a00,PennController,8,0,experiment,NULL,Selector,choice,Selection,option1,1682537683281,sonaID,undefined,5,book,critical,D,50,book40.jpg,book60.jpg,high,memory-nogoals,option1;option2
1682537970,a37ec8794e2b58c161950c2f2b247a00,PennController,8,0,experiment,NULL,PennController,7,_Trial_,End,1682537683283,sonaID,undefined,5,book,critical,D,50,book40.jpg,book60.jpg,high,memory-nogoals,NULL
1682537970,a37ec8794e2b58c161950c2f2b247a00,PennController,13,0,experiment,NULL,PennController,12,_Trial_,Start,1682537683284,sonaID,undefined,10,train,critical,D,25,train15.jpg,train35.jpg,low ,memory-nogoals,NULL
1682537970,a37ec8794e2b58c161950c2f2b247a00,PennController,13,0,experiment,NULL,PennController,12,_Header_,Start,1682537683284,sonaID,undefined,10,train,critical,D,25,train15.jpg,train35.jpg,low ,memory-nogoals,NULL
1682537970,a37ec8794e2b58c161950c2f2b247a00,PennController,13,0,experiment,NULL,PennController,12,_Header_,End,1682537683285,sonaID,undefined,10,train,critical,D,25,train15.jpg,train35.jpg,low ,memory-nogoals,NULL
1682537970,a37ec8794e2b58c161950c2f2b247a00,PennController,13,0,experiment,NULL,Canvas,canvas6,Print,NA,1682537687975,sonaID,undefined,10,train,critical,D,25,train15.jpg,train35.jpg,low ,memory-nogoals,NULL
1682537970,a37ec8794e2b58c161950c2f2b247a00,PennController,13,0,experiment,NULL,Video,progression,buffer,0.005574,1682537685804,sonaID,undefined,10,train,critical,D,25,train15.jpg,train35.jpg,low ,memory-nogoals,NULL
1682537970,a37ec8794e2b58c161950c2f2b247a00,PennController,13,0,experiment,NULL,Selector,choice,Selection,option1,1682537690285,sonaID,undefined,10,train,critical,D,25,train15.jpg,train35.jpg,low ,memory-nogoals,option2;option1
1682537970,a37ec8794e2b58c161950c2f2b247a00,PennController,13,0,experiment,NULL,PennController,12,_Trial_,End,1682537690287,sonaID,undefined,10,train,critical,D,25,train15.jpg,train35.jpg,low ,memory-nogoals,NULL
1682537970,a37ec8794e2b58c161950c2f2b247a00,PennController,7,0,experiment,NULL,PennController,6,_Trial_,Start,1682537690290,sonaID,undefined,4,candy,critical,D,25,candy15.jpg,candy35.jpg,low ,memory-nogoals,NULL
1682537970,a37ec8794e2b58c161950c2f2b247a00,PennController,7,0,experiment,NULL,PennController,6,_Header_,Start,1682537690290,sonaID,undefined,4,candy,critical,D,25,candy15.jpg,candy35.jpg,low ,memory-nogoals,NULL
1682537970,a37ec8794e2b58c161950c2f2b247a00,PennController,7,0,experiment,NULL,PennController,6,_Header_,End,1682537690290,sonaID,undefined,4,candy,critical,D,25,candy15.jpg,candy35.jpg,low ,memory-nogoals,NULL
1682537970,a37ec8794e2b58c161950c2f2b247a00,PennController,7,0,experiment,NULL,Canvas,canvas6,Print,NA,1682537694971,sonaID,undefined,4,candy,critical,D,25,candy15.jpg,candy35.jpg,low ,memory-nogoals,NULL
1682537970,a37ec8794e2b58c161950c2f2b247a00,PennController,7,0,experiment,NULL,Video,progression,buffer,0.003659,1682537692808,sonaID,undefined,4,candy,critical,D,25,candy15.jpg,candy35.jpg,low ,memory-nogoals,NULL
1682537970,a37ec8794e2b58c161950c2f2b247a00,PennController,7,0,experiment,NULL,Selector,choice,Selection,option2,1682537696893,sonaID,undefined,4,candy,critical,D,25,candy15.jpg,candy35.jpg,low ,memory-nogoals,option2;option1
1682537970,a37ec8794e2b58c161950c2f2b247a00,PennController,7,0,experiment,NULL,PennController,6,_Trial_,End,1682537696894,sonaID,undefined,4,candy,critical,D,25,candy15.jpg,candy35.jpg,low ,memory-nogoals,NULL
1682537970,a37ec8794e2b58c161950c2f2b247a00,PennController,22,0,experiment,NULL,PennController,21,_Trial_,Start,1682537696895,sonaID,undefined,19,cup,filler,D,25,cup15.jpg,cup35.jpg,GoalB,memory-nogoals,NULL
1682537970,a37ec8794e2b58c161950c2f2b247a00,PennController,22,0,experiment,NULL,PennController,21,_Header_,Start,1682537696895,sonaID,undefined,19,cup,filler,D,25,cup15.jpg,cup35.jpg,GoalB,memory-nogoals,NULL
1682537970,a37ec8794e2b58c161950c2f2b247a00,PennController,22,0,experiment,NULL,PennController,21,_Header_,End,1682537696896,sonaID,undefined,19,cup,filler,D,25,cup15.jpg,cup35.jpg,GoalB,memory-nogoals,NULL
1682537970,a37ec8794e2b58c161950c2f2b247a00,PennController,22,0,experiment,NULL,Canvas,canvas6,Print,NA,1682537701586,sonaID,undefined,19,cup,filler,D,25,cup15.jpg,cup35.jpg,GoalB,memory-nogoals,NULL
1682537970,a37ec8794e2b58c161950c2f2b247a00,PennController,22,0,experiment,NULL,Video,progression,buffer,0.003666,1682537699414,sonaID,undefined,19,cup,filler,D,25,cup15.jpg,cup35.jpg,GoalB,memory-nogoals,NULL
1682537970,a37ec8794e2b58c161950c2f2b247a00,PennController,22,0,experiment,NULL,Selector,choice,Selection,option1,1682537703572,sonaID,undefined,19,cup,filler,D,25,cup15.jpg,cup35.jpg,GoalB,memory-nogoals,option1;option2
1682537970,a37ec8794e2b58c161950c2f2b247a00,PennController,22,0,experiment,NULL,PennController,21,_Trial_,End,1682537703574,sonaID,undefined,19,cup,filler,D,25,cup15.jpg,cup35.jpg,GoalB,memory-nogoals,NULL
1682537970,a37ec8794e2b58c161950c2f2b247a00,PennController,12,0,experiment,NULL,PennController,11,_Trial_,Start,1682537703575,sonaID,undefined,9,cake,critical,D,75,cake66.jpg,cake84.jpg,high,memory-nogoals,NULL
1682537970,a37ec8794e2b58c161950c2f2b247a00,PennController,12,0,experiment,NULL,PennController,11,_Header_,Start,1682537703575,sonaID,undefined,9,cake,critical,D,75,cake66.jpg,cake84.jpg,high,memory-nogoals,NULL
1682537970,a37ec8794e2b58c161950c2f2b247a00,PennController,12,0,experiment,NULL,PennController,11,_Header_,End,1682537703576,sonaID,undefined,9,cake,critical,D,75,cake66.jpg,cake84.jpg,high,memory-nogoals,NULL
1682537970,a37ec8794e2b58c161950c2f2b247a00,PennController,12,0,experiment,NULL,Canvas,canvas6,Print,NA,1682537712265,sonaID,undefined,9,cake,critical,D,75,cake66.jpg,cake84.jpg,high,memory-nogoals,NULL
1682537970,a37ec8794e2b58c161950c2f2b247a00,PennController,12,0,experiment,NULL,Video,progression,buffer,0.00333,1682537706096,sonaID,undefined,9,cake,critical,D,75,cake66.jpg,cake84.jpg,high,memory-nogoals,NULL
1682537970,a37ec8794e2b58c161950c2f2b247a00,PennController,12,0,experiment,NULL,Selector,choice,Selection,option2,1682537717307,sonaID,undefined,9,cake,critical,D,75,cake66.jpg,cake84.jpg,high,memory-nogoals,option1;option2
1682537970,a37ec8794e2b58c161950c2f2b247a00,PennController,12,0,experiment,NULL,PennController,11,_Trial_,End,1682537717308,sonaID,undefined,9,cake,critical,D,75,cake66.jpg,cake84.jpg,high,memory-nogoals,NULL
1682537970,a37ec8794e2b58c161950c2f2b247a00,PennController,27,0,experiment,NULL,PennController,26,_Trial_,Start,1682537717309,sonaID,undefined,24,match,filler,D,75,match65.jpg,match85.jpg,GoalA,memory-nogoals,NULL
1682537970,a37ec8794e2b58c161950c2f2b247a00,PennController,27,0,experiment,NULL,PennController,26,_Header_,Start,1682537717309,sonaID,undefined,24,match,filler,D,75,match65.jpg,match85.jpg,GoalA,memory-nogoals,NULL
1682537970,a37ec8794e2b58c161950c2f2b247a00,PennController,27,0,experiment,NULL,PennController,26,_Header_,End,1682537717309,sonaID,undefined,24,match,filler,D,75,match65.jpg,match85.jpg,GoalA,memory-nogoals,NULL
1682537970,a37ec8794e2b58c161950c2f2b247a00,PennController,27,0,experiment,NULL,Canvas,canvas6,Print,NA,1682537723992,sonaID,undefined,24,match,filler,D,75,match65.jpg,match85.jpg,GoalA,memory-nogoals,NULL
1682537970,a37ec8794e2b58c161950c2f2b247a00,PennController,27,0,experiment,NULL,Video,progression,buffer,0.002219,1682537719822,sonaID,undefined,24,match,filler,D,75,match65.jpg,match85.jpg,GoalA,memory-nogoals,NULL
1682537970,a37ec8794e2b58c161950c2f2b247a00,PennController,27,0,experiment,NULL,Selector,choice,Selection,option1,1682537744092,sonaID,undefined,24,match,filler,D,75,match65.jpg,match85.jpg,GoalA,memory-nogoals,option2;option1
1682537970,a37ec8794e2b58c161950c2f2b247a00,PennController,27,0,experiment,NULL,PennController,26,_Trial_,End,1682537744093,sonaID,undefined,24,match,filler,D,75,match65.jpg,match85.jpg,GoalA,memory-nogoals,NULL
1682537970,a37ec8794e2b58c161950c2f2b247a00,PennController,5,0,experiment,NULL,PennController,4,_Trial_,Start,1682537744094,sonaID,undefined,2,door,critical,D,50,door40.jpg,door60.jpg,low ,memory-nogoals,NULL
1682537970,a37ec8794e2b58c161950c2f2b247a00,PennController,5,0,experiment,NULL,PennController,4,_Header_,Start,1682537744094,sonaID,undefined,2,door,critical,D,50,door40.jpg,door60.jpg,low ,memory-nogoals,NULL
1682537970,a37ec8794e2b58c161950c2f2b247a00,PennController,5,0,experiment,NULL,PennController,4,_Header_,End,1682537744094,sonaID,undefined,2,door,critical,D,50,door40.jpg,door60.jpg,low ,memory-nogoals,NULL
1682537970,a37ec8794e2b58c161950c2f2b247a00,PennController,5,0,experiment,NULL,Canvas,canvas6,Print,NA,1682537749775,sonaID,undefined,2,door,critical,D,50,door40.jpg,door60.jpg,low ,memory-nogoals,NULL
1682537970,a37ec8794e2b58c161950c2f2b247a00,PennController,5,0,experiment,NULL,Video,progression,buffer,0.003213,1682537746607,sonaID,undefined,2,door,critical,D,50,door40.jpg,door60.jpg,low ,memory-nogoals,NULL
1682537970,a37ec8794e2b58c161950c2f2b247a00,PennController,5,0,experiment,NULL,Selector,choice,Selection,option2,1682537751954,sonaID,undefined,2,door,critical,D,50,door40.jpg,door60.jpg,low ,memory-nogoals,option2;option1
1682537970,a37ec8794e2b58c161950c2f2b247a00,PennController,5,0,experiment,NULL,PennController,4,_Trial_,End,1682537751957,sonaID,undefined,2,door,critical,D,50,door40.jpg,door60.jpg,low ,memory-nogoals,NULL
1682537970,a37ec8794e2b58c161950c2f2b247a00,PennController,24,0,experiment,NULL,PennController,23,_Trial_,Start,1682537751959,sonaID,undefined,21,visit,filler,D,75,visit65.jpg,visit85.jpg,GoalB,memory-nogoals,NULL
1682537970,a37ec8794e2b58c161950c2f2b247a00,PennController,24,0,experiment,NULL,PennController,23,_Header_,Start,1682537751959,sonaID,undefined,21,visit,filler,D,75,visit65.jpg,visit85.jpg,GoalB,memory-nogoals,NULL
1682537970,a37ec8794e2b58c161950c2f2b247a00,PennController,24,0,experiment,NULL,PennController,23,_Header_,End,1682537751960,sonaID,undefined,21,visit,filler,D,75,visit65.jpg,visit85.jpg,GoalB,memory-nogoals,NULL
1682537970,a37ec8794e2b58c161950c2f2b247a00,PennController,24,0,experiment,NULL,Canvas,canvas6,Print,NA,1682537758649,sonaID,undefined,21,visit,filler,D,75,visit65.jpg,visit85.jpg,GoalB,memory-nogoals,NULL
1682537970,a37ec8794e2b58c161950c2f2b247a00,PennController,24,0,experiment,NULL,Video,progression,buffer,0.005733,1682537754486,sonaID,undefined,21,visit,filler,D,75,visit65.jpg,visit85.jpg,GoalB,memory-nogoals,NULL
1682537970,a37ec8794e2b58c161950c2f2b247a00,PennController,24,0,experiment,NULL,Selector,choice,Selection,option2,1682537761005,sonaID,undefined,21,visit,filler,D,75,visit65.jpg,visit85.jpg,GoalB,memory-nogoals,option1;option2
1682537970,a37ec8794e2b58c161950c2f2b247a00,PennController,24,0,experiment,NULL,PennController,23,_Trial_,End,1682537761008,sonaID,undefined,21,visit,filler,D,75,visit65.jpg,visit85.jpg,GoalB,memory-nogoals,NULL
1682537970,a37ec8794e2b58c161950c2f2b247a00,PennController,26,0,experiment,NULL,PennController,25,_Trial_,Start,1682537761011,sonaID,undefined,23,color,filler,D,50,color40.jpg,color60.jpg,GoalB,memory-nogoals,NULL
1682537970,a37ec8794e2b58c161950c2f2b247a00,PennController,26,0,experiment,NULL,PennController,25,_Header_,Start,1682537761011,sonaID,undefined,23,color,filler,D,50,color40.jpg,color60.jpg,GoalB,memory-nogoals,NULL
1682537970,a37ec8794e2b58c161950c2f2b247a00,PennController,26,0,experiment,NULL,PennController,25,_Header_,End,1682537761011,sonaID,undefined,23,color,filler,D,50,color40.jpg,color60.jpg,GoalB,memory-nogoals,NULL
1682537970,a37ec8794e2b58c161950c2f2b247a00,PennController,26,0,experiment,NULL,Canvas,canvas6,Print,NA,1682537766717,sonaID,undefined,23,color,filler,D,50,color40.jpg,color60.jpg,GoalB,memory-nogoals,NULL
1682537970,a37ec8794e2b58c161950c2f2b247a00,PennController,26,0,experiment,NULL,Video,progression,buffer,0.004233,1682537763534,sonaID,undefined,23,color,filler,D,50,color40.jpg,color60.jpg,GoalB,memory-nogoals,NULL
1682537970,a37ec8794e2b58c161950c2f2b247a00,PennController,26,0,experiment,NULL,Selector,choice,Selection,option2,1682537769262,sonaID,undefined,23,color,filler,D,50,color40.jpg,color60.jpg,GoalB,memory-nogoals,option1;option2
1682537970,a37ec8794e2b58c161950c2f2b247a00,PennController,26,0,experiment,NULL,PennController,25,_Trial_,End,1682537769264,sonaID,undefined,23,color,filler,D,50,color40.jpg,color60.jpg,GoalB,memory-nogoals,NULL
1682537970,a37ec8794e2b58c161950c2f2b247a00,PennController,9,0,experiment,NULL,PennController,8,_Trial_,Start,1682537769266,sonaID,undefined,6,flower,critical,D,75,flower65.jpg,flower85.jpg,low ,memory-nogoals,NULL
1682537970,a37ec8794e2b58c161950c2f2b247a00,PennController,9,0,experiment,NULL,PennController,8,_Header_,Start,1682537769266,sonaID,undefined,6,flower,critical,D,75,flower65.jpg,flower85.jpg,low ,memory-nogoals,NULL
1682537970,a37ec8794e2b58c161950c2f2b247a00,PennController,9,0,experiment,NULL,PennController,8,_Header_,End,1682537769266,sonaID,undefined,6,flower,critical,D,75,flower65.jpg,flower85.jpg,low ,memory-nogoals,NULL
1682537970,a37ec8794e2b58c161950c2f2b247a00,PennController,9,0,experiment,NULL,Canvas,canvas6,Print,NA,1682537775960,sonaID,undefined,6,flower,critical,D,75,flower65.jpg,flower85.jpg,low ,memory-nogoals,NULL
1682537970,a37ec8794e2b58c161950c2f2b247a00,PennController,9,0,experiment,NULL,Video,progression,buffer,0.004983,1682537771788,sonaID,undefined,6,flower,critical,D,75,flower65.jpg,flower85.jpg,low ,memory-nogoals,NULL
1682537970,a37ec8794e2b58c161950c2f2b247a00,PennController,9,0,experiment,NULL,Selector,choice,Selection,option1,1682537777427,sonaID,undefined,6,flower,critical,D,75,flower65.jpg,flower85.jpg,low ,memory-nogoals,option2;option1
1682537970,a37ec8794e2b58c161950c2f2b247a00,PennController,9,0,experiment,NULL,PennController,8,_Trial_,End,1682537777428,sonaID,undefined,6,flower,critical,D,75,flower65.jpg,flower85.jpg,low ,memory-nogoals,NULL
1682537970,a37ec8794e2b58c161950c2f2b247a00,PennController,28,0,experiment,NULL,PennController,27,_Trial_,Start,1682537777429,sonaID,undefined,25,house,filler,D,25,house15.jpg,house35.jpg,GoalB,memory-nogoals,NULL
1682537970,a37ec8794e2b58c161950c2f2b247a00,PennController,28,0,experiment,NULL,PennController,27,_Header_,Start,1682537777429,sonaID,undefined,25,house,filler,D,25,house15.jpg,house35.jpg,GoalB,memory-nogoals,NULL
1682537970,a37ec8794e2b58c161950c2f2b247a00,PennController,28,0,experiment,NULL,PennController,27,_Header_,End,1682537777430,sonaID,undefined,25,house,filler,D,25,house15.jpg,house35.jpg,GoalB,memory-nogoals,NULL
1682537970,a37ec8794e2b58c161950c2f2b247a00,PennController,28,0,experiment,NULL,Canvas,canvas6,Print,NA,1682537782109,sonaID,undefined,25,house,filler,D,25,house15.jpg,house35.jpg,GoalB,memory-nogoals,NULL
1682537970,a37ec8794e2b58c161950c2f2b247a00,PennController,28,0,experiment,NULL,Video,progression,buffer,0.003434,1682537779948,sonaID,undefined,25,house,filler,D,25,house15.jpg,house35.jpg,GoalB,memory-nogoals,NULL
1682537970,a37ec8794e2b58c161950c2f2b247a00,PennController,28,0,experiment,NULL,Selector,choice,Selection,option2,1682537783792,sonaID,undefined,25,house,filler,D,25,house15.jpg,house35.jpg,GoalB,memory-nogoals,option1;option2
1682537970,a37ec8794e2b58c161950c2f2b247a00,PennController,28,0,experiment,NULL,PennController,27,_Trial_,End,1682537783794,sonaID,undefined,25,house,filler,D,25,house15.jpg,house35.jpg,GoalB,memory-nogoals,NULL
1682537970,a37ec8794e2b58c161950c2f2b247a00,PennController,25,0,experiment,NULL,PennController,24,_Trial_,Start,1682537783795,sonaID,undefined,22,wall,filler,D,25,wall15.jpg,wall35.jpg,GoalA,memory-nogoals,NULL
1682537970,a37ec8794e2b58c161950c2f2b247a00,PennController,25,0,experiment,NULL,PennController,24,_Header_,Start,1682537783795,sonaID,undefined,22,wall,filler,D,25,wall15.jpg,wall35.jpg,GoalA,memory-nogoals,NULL
1682537970,a37ec8794e2b58c161950c2f2b247a00,PennController,25,0,experiment,NULL,PennController,24,_Header_,End,1682537783795,sonaID,undefined,22,wall,filler,D,25,wall15.jpg,wall35.jpg,GoalA,memory-nogoals,NULL
1682537970,a37ec8794e2b58c161950c2f2b247a00,PennController,25,0,experiment,NULL,Canvas,canvas6,Print,NA,1682537788474,sonaID,undefined,22,wall,filler,D,25,wall15.jpg,wall35.jpg,GoalA,memory-nogoals,NULL
1682537970,a37ec8794e2b58c161950c2f2b247a00,PennController,25,0,experiment,NULL,Video,progression,buffer,0.003454,1682537786312,sonaID,undefined,22,wall,filler,D,25,wall15.jpg,wall35.jpg,GoalA,memory-nogoals,NULL
1682537970,a37ec8794e2b58c161950c2f2b247a00,PennController,25,0,experiment,NULL,Selector,choice,Selection,option1,1682537789667,sonaID,undefined,22,wall,filler,D,25,wall15.jpg,wall35.jpg,GoalA,memory-nogoals,option2;option1
1682537970,a37ec8794e2b58c161950c2f2b247a00,PennController,25,0,experiment,NULL,PennController,24,_Trial_,End,1682537789669,sonaID,undefined,22,wall,filler,D,25,wall15.jpg,wall35.jpg,GoalA,memory-nogoals,NULL
1682537970,a37ec8794e2b58c161950c2f2b247a00,PennController,11,0,experiment,NULL,PennController,10,_Trial_,Start,1682537789671,sonaID,undefined,8,cucumber,critical,D,50,cucumber42.jpg,cucumber60.jpg,low ,memory-nogoals,NULL
1682537970,a37ec8794e2b58c161950c2f2b247a00,PennController,11,0,experiment,NULL,PennController,10,_Header_,Start,1682537789671,sonaID,undefined,8,cucumber,critical,D,50,cucumber42.jpg,cucumber60.jpg,low ,memory-nogoals,NULL
1682537970,a37ec8794e2b58c161950c2f2b247a00,PennController,11,0,experiment,NULL,PennController,10,_Header_,End,1682537789671,sonaID,undefined,8,cucumber,critical,D,50,cucumber42.jpg,cucumber60.jpg,low ,memory-nogoals,NULL
1682537970,a37ec8794e2b58c161950c2f2b247a00,PennController,11,0,experiment,NULL,Canvas,canvas6,Print,NA,1682537796757,sonaID,undefined,8,cucumber,critical,D,50,cucumber42.jpg,cucumber60.jpg,low ,memory-nogoals,NULL
1682537970,a37ec8794e2b58c161950c2f2b247a00,PennController,11,0,experiment,NULL,Video,progression,buffer,0.004318,1682537792189,sonaID,undefined,8,cucumber,critical,D,50,cucumber42.jpg,cucumber60.jpg,low ,memory-nogoals,NULL
1682537970,a37ec8794e2b58c161950c2f2b247a00,PennController,11,0,experiment,NULL,Selector,choice,Selection,option2,1682537798008,sonaID,undefined,8,cucumber,critical,D,50,cucumber42.jpg,cucumber60.jpg,low ,memory-nogoals,option2;option1
1682537970,a37ec8794e2b58c161950c2f2b247a00,PennController,11,0,experiment,NULL,PennController,10,_Trial_,End,1682537798009,sonaID,undefined,8,cucumber,critical,D,50,cucumber42.jpg,cucumber60.jpg,low ,memory-nogoals,NULL
1682537970,a37ec8794e2b58c161950c2f2b247a00,PennController,14,0,experiment,NULL,PennController,13,_Trial_,Start,1682537798011,sonaID,undefined,11,beads,critical,D,50,beads40.jpg,beads60.jpg,high,memory-nogoals,NULL
1682537970,a37ec8794e2b58c161950c2f2b247a00,PennController,14,0,experiment,NULL,PennController,13,_Header_,Start,1682537798011,sonaID,undefined,11,beads,critical,D,50,beads40.jpg,beads60.jpg,high,memory-nogoals,NULL
1682537970,a37ec8794e2b58c161950c2f2b247a00,PennController,14,0,experiment,NULL,PennController,13,_Header_,End,1682537798011,sonaID,undefined,11,beads,critical,D,50,beads40.jpg,beads60.jpg,high,memory-nogoals,NULL
1682537970,a37ec8794e2b58c161950c2f2b247a00,PennController,14,0,experiment,NULL,Canvas,canvas6,Print,NA,1682537803699,sonaID,undefined,11,beads,critical,D,50,beads40.jpg,beads60.jpg,high,memory-nogoals,NULL
1682537970,a37ec8794e2b58c161950c2f2b247a00,PennController,14,0,experiment,NULL,Video,progression,buffer,0.005409,1682537800530,sonaID,undefined,11,beads,critical,D,50,beads40.jpg,beads60.jpg,high,memory-nogoals,NULL
1682537970,a37ec8794e2b58c161950c2f2b247a00,PennController,14,0,experiment,NULL,Selector,choice,Selection,option2,1682537805061,sonaID,undefined,11,beads,critical,D,50,beads40.jpg,beads60.jpg,high,memory-nogoals,option1;option2
1682537970,a37ec8794e2b58c161950c2f2b247a00,PennController,14,0,experiment,NULL,PennController,13,_Trial_,End,1682537805062,sonaID,undefined,11,beads,critical,D,50,beads40.jpg,beads60.jpg,high,memory-nogoals,NULL
1682537970,a37ec8794e2b58c161950c2f2b247a00,PennController,17,0,experiment,NULL,PennController,16,_Trial_,Start,1682537805064,sonaID,undefined,14,cover,critical,D,50,cover42.jpg,cover60.jpg,low ,memory-nogoals,NULL
1682537970,a37ec8794e2b58c161950c2f2b247a00,PennController,17,0,experiment,NULL,PennController,16,_Header_,Start,1682537805064,sonaID,undefined,14,cover,critical,D,50,cover42.jpg,cover60.jpg,low ,memory-nogoals,NULL
1682537970,a37ec8794e2b58c161950c2f2b247a00,PennController,17,0,experiment,NULL,PennController,16,_Header_,End,1682537805064,sonaID,undefined,14,cover,critical,D,50,cover42.jpg,cover60.jpg,low ,memory-nogoals,NULL
1682537970,a37ec8794e2b58c161950c2f2b247a00,PennController,17,0,experiment,NULL,Canvas,canvas6,Print,NA,1682537812147,sonaID,undefined,14,cover,critical,D,50,cover42.jpg,cover60.jpg,low ,memory-nogoals,NULL
1682537970,a37ec8794e2b58c161950c2f2b247a00,PennController,17,0,experiment,NULL,Video,progression,buffer,0.004927,1682537807583,sonaID,undefined,14,cover,critical,D,50,cover42.jpg,cover60.jpg,low ,memory-nogoals,NULL
1682537970,a37ec8794e2b58c161950c2f2b247a00,PennController,17,0,experiment,NULL,Selector,choice,Selection,option2,1682537816120,sonaID,undefined,14,cover,critical,D,50,cover42.jpg,cover60.jpg,low ,memory-nogoals,option2;option1
1682537970,a37ec8794e2b58c161950c2f2b247a00,PennController,17,0,experiment,NULL,PennController,16,_Trial_,End,1682537816122,sonaID,undefined,14,cover,critical,D,50,cover42.jpg,cover60.jpg,low ,memory-nogoals,NULL
1682537970,a37ec8794e2b58c161950c2f2b247a00,PennController,30,0,experiment,NULL,PennController,29,_PreloadFailed_,fixation.png,1682537876128,sonaID,undefined,27,rice,filler,D,75,square65.jpg,square85.jpg,GoalB,memory-nogoals,NULL
1682537970,a37ec8794e2b58c161950c2f2b247a00,PennController,30,0,experiment,NULL,PennController,29,_PreloadFailed_,https://raw.githubusercontent.com/karenwli/rep-momentum/main/rice/rice00.jpg,1682537876128,sonaID,undefined,27,rice,filler,D,75,square65.jpg,square85.jpg,GoalB,memory-nogoals,NULL
1682537970,a37ec8794e2b58c161950c2f2b247a00,PennController,30,0,experiment,NULL,PennController,29,_PreloadFailed_,https://video.wixstatic.com/video/7cb05b_41aae65ca27d43c3a89b5e46732d18ff/144p/mp4/file.mp4,1682537876128,sonaID,undefined,27,rice,filler,D,75,square65.jpg,square85.jpg,GoalB,memory-nogoals,NULL
1682537970,a37ec8794e2b58c161950c2f2b247a00,PennController,30,0,experiment,NULL,PennController,29,_Trial_,Start,1682537876128,sonaID,undefined,27,rice,filler,D,75,square65.jpg,square85.jpg,GoalB,memory-nogoals,NULL
1682537970,a37ec8794e2b58c161950c2f2b247a00,PennController,30,0,experiment,NULL,PennController,29,_Header_,Start,1682537876128,sonaID,undefined,27,rice,filler,D,75,square65.jpg,square85.jpg,GoalB,memory-nogoals,NULL
1682537970,a37ec8794e2b58c161950c2f2b247a00,PennController,30,0,experiment,NULL,PennController,29,_Header_,End,1682537876128,sonaID,undefined,27,rice,filler,D,75,square65.jpg,square85.jpg,GoalB,memory-nogoals,NULL
1682537970,a37ec8794e2b58c161950c2f2b247a00,PennController,30,0,experiment,NULL,Canvas,canvas6,Print,NA,1682537882814,sonaID,undefined,27,rice,filler,D,75,square65.jpg,square85.jpg,GoalB,memory-nogoals,NULL
1682537970,a37ec8794e2b58c161950c2f2b247a00,PennController,30,0,experiment,NULL,Video,progression,buffer,0.002228,1682537878643,sonaID,undefined,27,rice,filler,D,75,square65.jpg,square85.jpg,GoalB,memory-nogoals,NULL
1682537970,a37ec8794e2b58c161950c2f2b247a00,PennController,30,0,experiment,NULL,Selector,choice,Selection,option1,1682537884028,sonaID,undefined,27,rice,filler,D,75,square65.jpg,square85.jpg,GoalB,memory-nogoals,option2;option1
1682537970,a37ec8794e2b58c161950c2f2b247a00,PennController,30,0,experiment,NULL,PennController,29,_Trial_,End,1682537884029,sonaID,undefined,27,rice,filler,D,75,square65.jpg,square85.jpg,GoalB,memory-nogoals,NULL
1682537970,a37ec8794e2b58c161950c2f2b247a00,PennController,6,0,experiment,NULL,PennController,5,_Trial_,Start,1682537884029,sonaID,undefined,3,clean,critical,D,75,clean65.jpg,clean85.jpg,high,memory-nogoals,NULL
1682537970,a37ec8794e2b58c161950c2f2b247a00,PennController,6,0,experiment,NULL,PennController,5,_Header_,Start,1682537884029,sonaID,undefined,3,clean,critical,D,75,clean65.jpg,clean85.jpg,high,memory-nogoals,NULL
1682537970,a37ec8794e2b58c161950c2f2b247a00,PennController,6,0,experiment,NULL,PennController,5,_Header_,End,1682537884030,sonaID,undefined,3,clean,critical,D,75,clean65.jpg,clean85.jpg,high,memory-nogoals,NULL
1682537970,a37ec8794e2b58c161950c2f2b247a00,PennController,6,0,experiment,NULL,Canvas,canvas6,Print,NA,1682537890702,sonaID,undefined,3,clean,critical,D,75,clean65.jpg,clean85.jpg,high,memory-nogoals,NULL
1682537970,a37ec8794e2b58c161950c2f2b247a00,PennController,6,0,experiment,NULL,Video,progression,buffer,0.002367,1682537886543,sonaID,undefined,3,clean,critical,D,75,clean65.jpg,clean85.jpg,high,memory-nogoals,NULL
1682537970,a37ec8794e2b58c161950c2f2b247a00,PennController,6,0,experiment,NULL,Selector,choice,Selection,option1,1682537892135,sonaID,undefined,3,clean,critical,D,75,clean65.jpg,clean85.jpg,high,memory-nogoals,option1;option2
1682537970,a37ec8794e2b58c161950c2f2b247a00,PennController,6,0,experiment,NULL,PennController,5,_Trial_,End,1682537892136,sonaID,undefined,3,clean,critical,D,75,clean65.jpg,clean85.jpg,high,memory-nogoals,NULL
1682537970,a37ec8794e2b58c161950c2f2b247a00,PennController,29,0,experiment,NULL,PennController,28,_Trial_,Start,1682537892137,sonaID,undefined,26,sandwich,filler,D,50,sandwich40.jpg,sandwich60.jpg,GoalA,memory-nogoals,NULL
1682537970,a37ec8794e2b58c161950c2f2b247a00,PennController,29,0,experiment,NULL,PennController,28,_Header_,Start,1682537892137,sonaID,undefined,26,sandwich,filler,D,50,sandwich40.jpg,sandwich60.jpg,GoalA,memory-nogoals,NULL
1682537970,a37ec8794e2b58c161950c2f2b247a00,PennController,29,0,experiment,NULL,PennController,28,_Header_,End,1682537892137,sonaID,undefined,26,sandwich,filler,D,50,sandwich40.jpg,sandwich60.jpg,GoalA,memory-nogoals,NULL
1682537970,a37ec8794e2b58c161950c2f2b247a00,PennController,29,0,experiment,NULL,Canvas,canvas6,Print,NA,1682537897823,sonaID,undefined,26,sandwich,filler,D,50,sandwich40.jpg,sandwich60.jpg,GoalA,memory-nogoals,NULL
1682537970,a37ec8794e2b58c161950c2f2b247a00,PennController,29,0,experiment,NULL,Video,progression,buffer,0.003152,1682537894648,sonaID,undefined,26,sandwich,filler,D,50,sandwich40.jpg,sandwich60.jpg,GoalA,memory-nogoals,NULL
1682537970,a37ec8794e2b58c161950c2f2b247a00,PennController,29,0,experiment,NULL,Selector,choice,Selection,option1,1682537898889,sonaID,undefined,26,sandwich,filler,D,50,sandwich40.jpg,sandwich60.jpg,GoalA,memory-nogoals,option2;option1
1682537970,a37ec8794e2b58c161950c2f2b247a00,PennController,29,0,experiment,NULL,PennController,28,_Trial_,End,1682537898890,sonaID,undefined,26,sandwich,filler,D,50,sandwich40.jpg,sandwich60.jpg,GoalA,memory-nogoals,NULL
1682537970,a37ec8794e2b58c161950c2f2b247a00,PennController,4,0,experiment,NULL,PennController,3,_Trial_,Start,1682537898890,sonaID,undefined,1,vase,critical,D,50,vase10.jpg,vase40.jpg,high,memory-nogoals,NULL
1682537970,a37ec8794e2b58c161950c2f2b247a00,PennController,4,0,experiment,NULL,PennController,3,_Header_,Start,1682537898890,sonaID,undefined,1,vase,critical,D,50,vase10.jpg,vase40.jpg,high,memory-nogoals,NULL
1682537970,a37ec8794e2b58c161950c2f2b247a00,PennController,4,0,experiment,NULL,PennController,3,_Header_,End,1682537898890,sonaID,undefined,1,vase,critical,D,50,vase10.jpg,vase40.jpg,high,memory-nogoals,NULL
1682537970,a37ec8794e2b58c161950c2f2b247a00,PennController,4,0,experiment,NULL,Canvas,canvas6,Print,NA,1682537904571,sonaID,undefined,1,vase,critical,D,50,vase10.jpg,vase40.jpg,high,memory-nogoals,NULL
1682537970,a37ec8794e2b58c161950c2f2b247a00,PennController,4,0,experiment,NULL,Video,progression,buffer,0.002031,1682537901406,sonaID,undefined,1,vase,critical,D,50,vase10.jpg,vase40.jpg,high,memory-nogoals,NULL
1682537970,a37ec8794e2b58c161950c2f2b247a00,PennController,4,0,experiment,NULL,Selector,choice,Selection,option2,1682537905634,sonaID,undefined,1,vase,critical,D,50,vase10.jpg,vase40.jpg,high,memory-nogoals,option1;option2
1682537970,a37ec8794e2b58c161950c2f2b247a00,PennController,4,0,experiment,NULL,PennController,3,_Trial_,End,1682537905635,sonaID,undefined,1,vase,critical,D,50,vase10.jpg,vase40.jpg,high,memory-nogoals,NULL
1682537970,a37ec8794e2b58c161950c2f2b247a00,PennController,15,0,experiment,NULL,PennController,14,_Trial_,Start,1682537905635,sonaID,undefined,12,erase,critical,D,75,erase66.jpg,erase84.jpg,low ,memory-nogoals,NULL
1682537970,a37ec8794e2b58c161950c2f2b247a00,PennController,15,0,experiment,NULL,PennController,14,_Header_,Start,1682537905635,sonaID,undefined,12,erase,critical,D,75,erase66.jpg,erase84.jpg,low ,memory-nogoals,NULL
1682537970,a37ec8794e2b58c161950c2f2b247a00,PennController,15,0,experiment,NULL,PennController,14,_Header_,End,1682537905635,sonaID,undefined,12,erase,critical,D,75,erase66.jpg,erase84.jpg,low ,memory-nogoals,NULL
1682537970,a37ec8794e2b58c161950c2f2b247a00,PennController,15,0,experiment,NULL,Canvas,canvas6,Print,NA,1682537914313,sonaID,undefined,12,erase,critical,D,75,erase66.jpg,erase84.jpg,low ,memory-nogoals,NULL
1682537970,a37ec8794e2b58c161950c2f2b247a00,PennController,15,0,experiment,NULL,Video,progression,buffer,0.00223,1682537908149,sonaID,undefined,12,erase,critical,D,75,erase66.jpg,erase84.jpg,low ,memory-nogoals,NULL
1682537970,a37ec8794e2b58c161950c2f2b247a00,PennController,15,0,experiment,NULL,Selector,choice,Selection,option2,1682537915377,sonaID,undefined,12,erase,critical,D,75,erase66.jpg,erase84.jpg,low ,memory-nogoals,option1;option2
1682537970,a37ec8794e2b58c161950c2f2b247a00,PennController,15,0,experiment,NULL,PennController,14,_Trial_,End,1682537915379,sonaID,undefined,12,erase,critical,D,75,erase66.jpg,erase84.jpg,low ,memory-nogoals,NULL
1682537970,a37ec8794e2b58c161950c2f2b247a00,PennController,16,0,experiment,NULL,PennController,15,_Trial_,Start,1682537915381,sonaID,undefined,13,mix,critical,D,25,mix15.jpg,mix35.jpg,high,memory-nogoals,NULL
1682537970,a37ec8794e2b58c161950c2f2b247a00,PennController,16,0,experiment,NULL,PennController,15,_Header_,Start,1682537915381,sonaID,undefined,13,mix,critical,D,25,mix15.jpg,mix35.jpg,high,memory-nogoals,NULL
1682537970,a37ec8794e2b58c161950c2f2b247a00,PennController,16,0,experiment,NULL,PennController,15,_Header_,End,1682537915381,sonaID,undefined,13,mix,critical,D,25,mix15.jpg,mix35.jpg,high,memory-nogoals,NULL
1682537970,a37ec8794e2b58c161950c2f2b247a00,PennController,16,0,experiment,NULL,Canvas,canvas6,Print,NA,1682537920075,sonaID,undefined,13,mix,critical,D,25,mix15.jpg,mix35.jpg,high,memory-nogoals,NULL
1682537970,a37ec8794e2b58c161950c2f2b247a00,PennController,16,0,experiment,NULL,Video,progression,buffer,0.005676,1682537917906,sonaID,undefined,13,mix,critical,D,25,mix15.jpg,mix35.jpg,high,memory-nogoals,NULL
1682537970,a37ec8794e2b58c161950c2f2b247a00,PennController,16,0,experiment,NULL,Selector,choice,Selection,option1,1682537921468,sonaID,undefined,13,mix,critical,D,25,mix15.jpg,mix35.jpg,high,memory-nogoals,option2;option1
1682537970,a37ec8794e2b58c161950c2f2b247a00,PennController,16,0,experiment,NULL,PennController,15,_Trial_,End,1682537921471,sonaID,undefined,13,mix,critical,D,25,mix15.jpg,mix35.jpg,high,memory-nogoals,NULL
1682537970,a37ec8794e2b58c161950c2f2b247a00,PennController,18,0,experiment,NULL,PennController,17,_Trial_,Start,1682537921475,sonaID,undefined,15,zip,critical,D,75,zip65.jpg,zip85.jpg,high,memory-nogoals,NULL
1682537970,a37ec8794e2b58c161950c2f2b247a00,PennController,18,0,experiment,NULL,PennController,17,_Header_,Start,1682537921475,sonaID,undefined,15,zip,critical,D,75,zip65.jpg,zip85.jpg,high,memory-nogoals,NULL
1682537970,a37ec8794e2b58c161950c2f2b247a00,PennController,18,0,experiment,NULL,PennController,17,_Header_,End,1682537921475,sonaID,undefined,15,zip,critical,D,75,zip65.jpg,zip85.jpg,high,memory-nogoals,NULL
1682537970,a37ec8794e2b58c161950c2f2b247a00,PennController,18,0,experiment,NULL,Canvas,canvas6,Print,NA,1682537928158,sonaID,undefined,15,zip,critical,D,75,zip65.jpg,zip85.jpg,high,memory-nogoals,NULL
1682537970,a37ec8794e2b58c161950c2f2b247a00,PennController,18,0,experiment,NULL,Video,progression,buffer,0.006461,1682537924004,sonaID,undefined,15,zip,critical,D,75,zip65.jpg,zip85.jpg,high,memory-nogoals,NULL
1682537970,a37ec8794e2b58c161950c2f2b247a00,PennController,18,0,experiment,NULL,Selector,choice,Selection,option2,1682537929171,sonaID,undefined,15,zip,critical,D,75,zip65.jpg,zip85.jpg,high,memory-nogoals,option1;option2
1682537970,a37ec8794e2b58c161950c2f2b247a00,PennController,18,0,experiment,NULL,PennController,17,_Trial_,End,1682537929174,sonaID,undefined,15,zip,critical,D,75,zip65.jpg,zip85.jpg,high,memory-nogoals,NULL
1682537970,a37ec8794e2b58c161950c2f2b247a00,PennController,31,0,experiment,NULL,PennController,30,_Trial_,Start,1682537929176,sonaID,undefined,28,sort,filler,D,25,sort15.jpg,sort35.jpg,GoalA,memory-nogoals,NULL
1682537970,a37ec8794e2b58c161950c2f2b247a00,PennController,31,0,experiment,NULL,PennController,30,_Header_,Start,1682537929176,sonaID,undefined,28,sort,filler,D,25,sort15.jpg,sort35.jpg,GoalA,memory-nogoals,NULL
1682537970,a37ec8794e2b58c161950c2f2b247a00,PennController,31,0,experiment,NULL,PennController,30,_Header_,End,1682537929176,sonaID,undefined,28,sort,filler,D,25,sort15.jpg,sort35.jpg,GoalA,memory-nogoals,NULL
1682537970,a37ec8794e2b58c161950c2f2b247a00,PennController,31,0,experiment,NULL,Canvas,canvas6,Print,NA,1682537933865,sonaID,undefined,28,sort,filler,D,25,sort15.jpg,sort35.jpg,GoalA,memory-nogoals,NULL
1682537970,a37ec8794e2b58c161950c2f2b247a00,PennController,31,0,experiment,NULL,Video,progression,buffer,0.004102,1682537931698,sonaID,undefined,28,sort,filler,D,25,sort15.jpg,sort35.jpg,GoalA,memory-nogoals,NULL
1682537970,a37ec8794e2b58c161950c2f2b247a00,PennController,31,0,experiment,NULL,Selector,choice,Selection,option2,1682537934751,sonaID,undefined,28,sort,filler,D,25,sort15.jpg,sort35.jpg,GoalA,memory-nogoals,option1;option2
1682537970,a37ec8794e2b58c161950c2f2b247a00,PennController,31,0,experiment,NULL,PennController,30,_Trial_,End,1682537934752,sonaID,undefined,28,sort,filler,D,25,sort15.jpg,sort35.jpg,GoalA,memory-nogoals,NULL
1682537970,a37ec8794e2b58c161950c2f2b247a00,PennController,32,0,experiment,NULL,PennController,31,_Trial_,Start,1682537934752,sonaID,undefined,29,frog,filler,D,50,frog40.jpg,frog60.jpg,GoalB,memory-nogoals,NULL
1682537970,a37ec8794e2b58c161950c2f2b247a00,PennController,32,0,experiment,NULL,PennController,31,_Header_,Start,1682537934752,sonaID,undefined,29,frog,filler,D,50,frog40.jpg,frog60.jpg,GoalB,memory-nogoals,NULL
1682537970,a37ec8794e2b58c161950c2f2b247a00,PennController,32,0,experiment,NULL,PennController,31,_Header_,End,1682537934752,sonaID,undefined,29,frog,filler,D,50,frog40.jpg,frog60.jpg,GoalB,memory-nogoals,NULL
1682537970,a37ec8794e2b58c161950c2f2b247a00,PennController,32,0,experiment,NULL,Canvas,canvas6,Print,NA,1682537940443,sonaID,undefined,29,frog,filler,D,50,frog40.jpg,frog60.jpg,GoalB,memory-nogoals,NULL
1682537970,a37ec8794e2b58c161950c2f2b247a00,PennController,32,0,experiment,NULL,Video,progression,buffer,0.003234,1682537937271,sonaID,undefined,29,frog,filler,D,50,frog40.jpg,frog60.jpg,GoalB,memory-nogoals,NULL
1682537970,a37ec8794e2b58c161950c2f2b247a00,PennController,32,0,experiment,NULL,Selector,choice,Selection,option2,1682537941689,sonaID,undefined,29,frog,filler,D,50,frog40.jpg,frog60.jpg,GoalB,memory-nogoals,option1;option2
1682537970,a37ec8794e2b58c161950c2f2b247a00,PennController,32,0,experiment,NULL,PennController,31,_Trial_,End,1682537941691,sonaID,undefined,29,frog,filler,D,50,frog40.jpg,frog60.jpg,GoalB,memory-nogoals,NULL
1682537970,a37ec8794e2b58c161950c2f2b247a00,PennController,23,0,experiment,NULL,PennController,22,_Trial_,Start,1682537941693,sonaID,undefined,20,cat,filler,D,50,cat40.jpg,cat60.jpg,GoalA,memory-nogoals,NULL
1682537970,a37ec8794e2b58c161950c2f2b247a00,PennController,23,0,experiment,NULL,PennController,22,_Header_,Start,1682537941693,sonaID,undefined,20,cat,filler,D,50,cat40.jpg,cat60.jpg,GoalA,memory-nogoals,NULL
1682537970,a37ec8794e2b58c161950c2f2b247a00,PennController,23,0,experiment,NULL,PennController,22,_Header_,End,1682537941693,sonaID,undefined,20,cat,filler,D,50,cat40.jpg,cat60.jpg,GoalA,memory-nogoals,NULL
1682537970,a37ec8794e2b58c161950c2f2b247a00,PennController,23,0,experiment,NULL,Canvas,canvas6,Print,NA,1682537947396,sonaID,undefined,20,cat,filler,D,50,cat40.jpg,cat60.jpg,GoalA,memory-nogoals,NULL
1682537970,a37ec8794e2b58c161950c2f2b247a00,PennController,23,0,experiment,NULL,Video,progression,buffer,0.00591,1682537944221,sonaID,undefined,20,cat,filler,D,50,cat40.jpg,cat60.jpg,GoalA,memory-nogoals,NULL
1682537970,a37ec8794e2b58c161950c2f2b247a00,PennController,23,0,experiment,NULL,Selector,choice,Selection,option2,1682537948501,sonaID,undefined,20,cat,filler,D,50,cat40.jpg,cat60.jpg,GoalA,memory-nogoals,option2;option1
1682537970,a37ec8794e2b58c161950c2f2b247a00,PennController,23,0,experiment,NULL,PennController,22,_Trial_,End,1682537948502,sonaID,undefined,20,cat,filler,D,50,cat40.jpg,cat60.jpg,GoalA,memory-nogoals,NULL
1682537970,a37ec8794e2b58c161950c2f2b247a00,PennController,21,0,experiment,NULL,PennController,20,_Trial_,Start,1682537948504,sonaID,undefined,18,ball,critical,D,75,ball65.jpg,ball85.jpg,low ,memory-nogoals,NULL
1682537970,a37ec8794e2b58c161950c2f2b247a00,PennController,21,0,experiment,NULL,PennController,20,_Header_,Start,1682537948504,sonaID,undefined,18,ball,critical,D,75,ball65.jpg,ball85.jpg,low ,memory-nogoals,NULL
1682537970,a37ec8794e2b58c161950c2f2b247a00,PennController,21,0,experiment,NULL,PennController,20,_Header_,End,1682537948504,sonaID,undefined,18,ball,critical,D,75,ball65.jpg,ball85.jpg,low ,memory-nogoals,NULL
1682537970,a37ec8794e2b58c161950c2f2b247a00,PennController,21,0,experiment,NULL,Canvas,canvas6,Print,NA,1682537955193,sonaID,undefined,18,ball,critical,D,75,ball65.jpg,ball85.jpg,low ,memory-nogoals,NULL
1682537970,a37ec8794e2b58c161950c2f2b247a00,PennController,21,0,experiment,NULL,Video,progression,buffer,0.004418,1682537951030,sonaID,undefined,18,ball,critical,D,75,ball65.jpg,ball85.jpg,low ,memory-nogoals,NULL
1682537970,a37ec8794e2b58c161950c2f2b247a00,PennController,21,0,experiment,NULL,Selector,choice,Selection,option2,1682537957023,sonaID,undefined,18,ball,critical,D,75,ball65.jpg,ball85.jpg,low ,memory-nogoals,option1;option2
1682537970,a37ec8794e2b58c161950c2f2b247a00,PennController,21,0,experiment,NULL,PennController,20,_Trial_,End,1682537957025,sonaID,undefined,18,ball,critical,D,75,ball65.jpg,ball85.jpg,low ,memory-nogoals,NULL
1682537970,a37ec8794e2b58c161950c2f2b247a00,PennController,10,0,experiment,NULL,PennController,9,_Trial_,Start,1682537957027,sonaID,undefined,7,stack,critical,D,25,stack15.jpg,stack35.jpg,high,memory-nogoals,NULL
1682537970,a37ec8794e2b58c161950c2f2b247a00,PennController,10,0,experiment,NULL,PennController,9,_Header_,Start,1682537957027,sonaID,undefined,7,stack,critical,D,25,stack15.jpg,stack35.jpg,high,memory-nogoals,NULL
1682537970,a37ec8794e2b58c161950c2f2b247a00,PennController,10,0,experiment,NULL,PennController,9,_Header_,End,1682537957027,sonaID,undefined,7,stack,critical,D,25,stack15.jpg,stack35.jpg,high,memory-nogoals,NULL
1682537970,a37ec8794e2b58c161950c2f2b247a00,PennController,10,0,experiment,NULL,Canvas,canvas6,Print,NA,1682537961709,sonaID,undefined,7,stack,critical,D,25,stack15.jpg,stack35.jpg,high,memory-nogoals,NULL
1682537970,a37ec8794e2b58c161950c2f2b247a00,PennController,10,0,experiment,NULL,Video,progression,buffer,0.002723,1682537959543,sonaID,undefined,7,stack,critical,D,25,stack15.jpg,stack35.jpg,high,memory-nogoals,NULL
1682537970,a37ec8794e2b58c161950c2f2b247a00,PennController,10,0,experiment,NULL,Selector,choice,Selection,option1,1682537962876,sonaID,undefined,7,stack,critical,D,25,stack15.jpg,stack35.jpg,high,memory-nogoals,option2;option1
1682537970,a37ec8794e2b58c161950c2f2b247a00,PennController,10,0,experiment,NULL,PennController,9,_Trial_,End,1682537962878,sonaID,undefined,7,stack,critical,D,25,stack15.jpg,stack35.jpg,high,memory-nogoals,NULL
1682537970,a37ec8794e2b58c161950c2f2b247a00,PennController,20,0,experiment,NULL,PennController,19,_Trial_,Start,1682537962878,sonaID,undefined,17,roll,critical,D,50,roll40.jpg,roll60.jpg,high,memory-nogoals,NULL
1682537970,a37ec8794e2b58c161950c2f2b247a00,PennController,20,0,experiment,NULL,PennController,19,_Header_,Start,1682537962878,sonaID,undefined,17,roll,critical,D,50,roll40.jpg,roll60.jpg,high,memory-nogoals,NULL
1682537970,a37ec8794e2b58c161950c2f2b247a00,PennController,20,0,experiment,NULL,PennController,19,_Header_,End,1682537962879,sonaID,undefined,17,roll,critical,D,50,roll40.jpg,roll60.jpg,high,memory-nogoals,NULL
1682537970,a37ec8794e2b58c161950c2f2b247a00,PennController,20,0,experiment,NULL,Canvas,canvas6,Print,NA,1682537968561,sonaID,undefined,17,roll,critical,D,50,roll40.jpg,roll60.jpg,high,memory-nogoals,NULL
1682537970,a37ec8794e2b58c161950c2f2b247a00,PennController,20,0,experiment,NULL,Video,progression,buffer,0.003934,1682537965396,sonaID,undefined,17,roll,critical,D,50,roll40.jpg,roll60.jpg,high,memory-nogoals,NULL
1682537970,a37ec8794e2b58c161950c2f2b247a00,PennController,20,0,experiment,NULL,Selector,choice,Selection,option1,1682537969922,sonaID,undefined,17,roll,critical,D,50,roll40.jpg,roll60.jpg,high,memory-nogoals,option1;option2
1682537970,a37ec8794e2b58c161950c2f2b247a00,PennController,20,0,experiment,NULL,PennController,19,_Trial_,End,1682537969923,sonaID,undefined,17,roll,critical,D,50,roll40.jpg,roll60.jpg,high,memory-nogoals,NULL
