#
# Results on Saturday April 29 2023 04:15:09 UTC
# USER AGENT: Mozilla/5.0 (Macintosh; Intel Mac OS X 10_15_7) AppleWebKit/537.36 (KHTML, like Gecko) Chrome/112.0.0.0 Safari/537.36
# Design number was non-random = 20
#
# Columns below this comment are as follows:
# 1. Results reception time.
# 2. MD5 hash of participant's IP address.
# 3. Controller name.
# 4. Order number of item.
# 5. Inner element number.
# 6. Label.
# 7. Latin Square Group.
# 8. PennElementType.
# 9. PennElementName.
# 10. Parameter.
# 11. Value.
# 12. EventTime.
# 13. sonaID.
# 14. Comments.
1682741709,6688cdb1ba17d5c932e1ca875fbfe727,PennController,2,0,consent,NULL,PennController,0,_Trial_,Start,1682741394719,sonaID,NULL
1682741709,6688cdb1ba17d5c932e1ca875fbfe727,PennController,2,0,consent,NULL,PennController,0,_Header_,Start,1682741394719,sonaID,NULL
1682741709,6688cdb1ba17d5c932e1ca875fbfe727,PennController,2,0,consent,NULL,PennController,0,_Header_,End,1682741394719,sonaID,NULL
1682741709,6688cdb1ba17d5c932e1ca875fbfe727,PennController,2,0,consent,NULL,PennController,0,_Trial_,End,1682741418180,sonaID,NULL
# Columns below this comment are as follows:
# 14. ID.
# 15. Comments.
1682741709,6688cdb1ba17d5c932e1ca875fbfe727,PennController,3,0,intro,NULL,PennController,1,_Trial_,Start,1682741418183,sonaID,undefined,NULL
1682741709,6688cdb1ba17d5c932e1ca875fbfe727,PennController,3,0,intro,NULL,PennController,1,_Header_,Start,1682741418183,sonaID,undefined,NULL
1682741709,6688cdb1ba17d5c932e1ca875fbfe727,PennController,3,0,intro,NULL,PennController,1,_Header_,End,1682741418183,sonaID,undefined,NULL
1682741709,6688cdb1ba17d5c932e1ca875fbfe727,PennController,3,0,intro,NULL,TextInput,inputID,EnterReturn,37543253,1682741425856,sonaID,undefined,NULL
1682741709,6688cdb1ba17d5c932e1ca875fbfe727,PennController,3,0,intro,NULL,TextInput,inputID,Final,37543253,1682741425862,sonaID,undefined,NULL
1682741709,6688cdb1ba17d5c932e1ca875fbfe727,PennController,3,0,intro,NULL,TextInput,inputID,First,,1682741420318,sonaID,undefined,3
1682741709,6688cdb1ba17d5c932e1ca875fbfe727,PennController,3,0,intro,NULL,PennController,1,_Trial_,End,1682741425862,sonaID,undefined,NULL
# Columns below this comment are as follows:
# 15. item_number.
# 16. item.
# 17. type.
# 18. Group.
# 19. prog.
# 20. prev_image.
# 21. next_image.
# 22. height.
# 23. memory-nogoals.
# 24. Comments.
1682741709,6688cdb1ba17d5c932e1ca875fbfe727,PennController,11,0,experiment,NULL,PennController,10,_Trial_,Start,1682741425864,sonaID,undefined,8,cucumber,critical,C,25,cucumber15.jpg,cucumber33.jpg,high,memory-nogoals,NULL
1682741709,6688cdb1ba17d5c932e1ca875fbfe727,PennController,11,0,experiment,NULL,PennController,10,_Header_,Start,1682741425864,sonaID,undefined,8,cucumber,critical,C,25,cucumber15.jpg,cucumber33.jpg,high,memory-nogoals,NULL
1682741709,6688cdb1ba17d5c932e1ca875fbfe727,PennController,11,0,experiment,NULL,PennController,10,_Header_,End,1682741425864,sonaID,undefined,8,cucumber,critical,C,25,cucumber15.jpg,cucumber33.jpg,high,memory-nogoals,NULL
1682741709,6688cdb1ba17d5c932e1ca875fbfe727,PennController,11,0,experiment,NULL,Canvas,canvas6,Print,NA,1682741431120,sonaID,undefined,8,cucumber,critical,C,25,cucumber15.jpg,cucumber33.jpg,high,memory-nogoals,NULL
1682741709,6688cdb1ba17d5c932e1ca875fbfe727,PennController,11,0,experiment,NULL,Video,progression,buffer,0.001985,1682741428394,sonaID,undefined,8,cucumber,critical,C,25,cucumber15.jpg,cucumber33.jpg,high,memory-nogoals,NULL
1682741709,6688cdb1ba17d5c932e1ca875fbfe727,PennController,11,0,experiment,NULL,Selector,choice,Selection,option2,1682741433109,sonaID,undefined,8,cucumber,critical,C,25,cucumber15.jpg,cucumber33.jpg,high,memory-nogoals,option2;option1
1682741709,6688cdb1ba17d5c932e1ca875fbfe727,PennController,11,0,experiment,NULL,PennController,10,_Trial_,End,1682741433111,sonaID,undefined,8,cucumber,critical,C,25,cucumber15.jpg,cucumber33.jpg,high,memory-nogoals,NULL
1682741709,6688cdb1ba17d5c932e1ca875fbfe727,PennController,18,0,experiment,NULL,PennController,17,_Trial_,Start,1682741433114,sonaID,undefined,15,zip,critical,C,50,zip40.jpg,zip60.jpg,low ,memory-nogoals,NULL
1682741709,6688cdb1ba17d5c932e1ca875fbfe727,PennController,18,0,experiment,NULL,PennController,17,_Header_,Start,1682741433114,sonaID,undefined,15,zip,critical,C,50,zip40.jpg,zip60.jpg,low ,memory-nogoals,NULL
1682741709,6688cdb1ba17d5c932e1ca875fbfe727,PennController,18,0,experiment,NULL,PennController,17,_Header_,End,1682741433114,sonaID,undefined,15,zip,critical,C,50,zip40.jpg,zip60.jpg,low ,memory-nogoals,NULL
1682741709,6688cdb1ba17d5c932e1ca875fbfe727,PennController,18,0,experiment,NULL,Canvas,canvas6,Print,NA,1682741438748,sonaID,undefined,15,zip,critical,C,50,zip40.jpg,zip60.jpg,low ,memory-nogoals,NULL
1682741709,6688cdb1ba17d5c932e1ca875fbfe727,PennController,18,0,experiment,NULL,Video,progression,buffer,0.002894,1682741435637,sonaID,undefined,15,zip,critical,C,50,zip40.jpg,zip60.jpg,low ,memory-nogoals,NULL
1682741709,6688cdb1ba17d5c932e1ca875fbfe727,PennController,18,0,experiment,NULL,Selector,choice,Selection,option2,1682741439887,sonaID,undefined,15,zip,critical,C,50,zip40.jpg,zip60.jpg,low ,memory-nogoals,option2;option1
1682741709,6688cdb1ba17d5c932e1ca875fbfe727,PennController,18,0,experiment,NULL,PennController,17,_Trial_,End,1682741439889,sonaID,undefined,15,zip,critical,C,50,zip40.jpg,zip60.jpg,low ,memory-nogoals,NULL
1682741709,6688cdb1ba17d5c932e1ca875fbfe727,PennController,20,0,experiment,NULL,PennController,19,_Trial_,Start,1682741439890,sonaID,undefined,17,roll,critical,C,25,roll15.jpg,roll35.jpg,low ,memory-nogoals,NULL
1682741709,6688cdb1ba17d5c932e1ca875fbfe727,PennController,20,0,experiment,NULL,PennController,19,_Header_,Start,1682741439890,sonaID,undefined,17,roll,critical,C,25,roll15.jpg,roll35.jpg,low ,memory-nogoals,NULL
1682741709,6688cdb1ba17d5c932e1ca875fbfe727,PennController,20,0,experiment,NULL,PennController,19,_Header_,End,1682741439890,sonaID,undefined,17,roll,critical,C,25,roll15.jpg,roll35.jpg,low ,memory-nogoals,NULL
1682741709,6688cdb1ba17d5c932e1ca875fbfe727,PennController,20,0,experiment,NULL,Canvas,canvas6,Print,NA,1682741444515,sonaID,undefined,17,roll,critical,C,25,roll15.jpg,roll35.jpg,low ,memory-nogoals,NULL
1682741709,6688cdb1ba17d5c932e1ca875fbfe727,PennController,20,0,experiment,NULL,Video,progression,buffer,0.003582,1682741442411,sonaID,undefined,17,roll,critical,C,25,roll15.jpg,roll35.jpg,low ,memory-nogoals,NULL
1682741709,6688cdb1ba17d5c932e1ca875fbfe727,PennController,20,0,experiment,NULL,Selector,choice,Selection,option2,1682741445467,sonaID,undefined,17,roll,critical,C,25,roll15.jpg,roll35.jpg,low ,memory-nogoals,option2;option1
1682741709,6688cdb1ba17d5c932e1ca875fbfe727,PennController,20,0,experiment,NULL,PennController,19,_Trial_,End,1682741445468,sonaID,undefined,17,roll,critical,C,25,roll15.jpg,roll35.jpg,low ,memory-nogoals,NULL
1682741709,6688cdb1ba17d5c932e1ca875fbfe727,PennController,5,0,experiment,NULL,PennController,4,_Trial_,Start,1682741445470,sonaID,undefined,2,door,critical,C,25,door15.jpg,door35.jpg,high,memory-nogoals,NULL
1682741709,6688cdb1ba17d5c932e1ca875fbfe727,PennController,5,0,experiment,NULL,PennController,4,_Header_,Start,1682741445470,sonaID,undefined,2,door,critical,C,25,door15.jpg,door35.jpg,high,memory-nogoals,NULL
1682741709,6688cdb1ba17d5c932e1ca875fbfe727,PennController,5,0,experiment,NULL,PennController,4,_Header_,End,1682741445470,sonaID,undefined,2,door,critical,C,25,door15.jpg,door35.jpg,high,memory-nogoals,NULL
1682741709,6688cdb1ba17d5c932e1ca875fbfe727,PennController,5,0,experiment,NULL,Canvas,canvas6,Print,NA,1682741450113,sonaID,undefined,2,door,critical,C,25,door15.jpg,door35.jpg,high,memory-nogoals,NULL
1682741709,6688cdb1ba17d5c932e1ca875fbfe727,PennController,5,0,experiment,NULL,Video,progression,buffer,0.002608,1682741447990,sonaID,undefined,2,door,critical,C,25,door15.jpg,door35.jpg,high,memory-nogoals,NULL
1682741709,6688cdb1ba17d5c932e1ca875fbfe727,PennController,5,0,experiment,NULL,Selector,choice,Selection,option2,1682741451878,sonaID,undefined,2,door,critical,C,25,door15.jpg,door35.jpg,high,memory-nogoals,option2;option1
1682741709,6688cdb1ba17d5c932e1ca875fbfe727,PennController,5,0,experiment,NULL,PennController,4,_Trial_,End,1682741451879,sonaID,undefined,2,door,critical,C,25,door15.jpg,door35.jpg,high,memory-nogoals,NULL
1682741709,6688cdb1ba17d5c932e1ca875fbfe727,PennController,4,0,experiment,NULL,PennController,3,_Trial_,Start,1682741451881,sonaID,undefined,1,vase,critical,C,75,vase60.jpg,vase90.jpg,low ,memory-nogoals,NULL
1682741709,6688cdb1ba17d5c932e1ca875fbfe727,PennController,4,0,experiment,NULL,PennController,3,_Header_,Start,1682741451881,sonaID,undefined,1,vase,critical,C,75,vase60.jpg,vase90.jpg,low ,memory-nogoals,NULL
1682741709,6688cdb1ba17d5c932e1ca875fbfe727,PennController,4,0,experiment,NULL,PennController,3,_Header_,End,1682741451881,sonaID,undefined,1,vase,critical,C,75,vase60.jpg,vase90.jpg,low ,memory-nogoals,NULL
1682741709,6688cdb1ba17d5c932e1ca875fbfe727,PennController,4,0,experiment,NULL,Canvas,canvas6,Print,NA,1682741458523,sonaID,undefined,1,vase,critical,C,75,vase60.jpg,vase90.jpg,low ,memory-nogoals,NULL
1682741709,6688cdb1ba17d5c932e1ca875fbfe727,PennController,4,0,experiment,NULL,Video,progression,buffer,0.00232,1682741454400,sonaID,undefined,1,vase,critical,C,75,vase60.jpg,vase90.jpg,low ,memory-nogoals,NULL
1682741709,6688cdb1ba17d5c932e1ca875fbfe727,PennController,4,0,experiment,NULL,Selector,choice,Selection,option2,1682741459382,sonaID,undefined,1,vase,critical,C,75,vase60.jpg,vase90.jpg,low ,memory-nogoals,option2;option1
1682741709,6688cdb1ba17d5c932e1ca875fbfe727,PennController,4,0,experiment,NULL,PennController,3,_Trial_,End,1682741459384,sonaID,undefined,1,vase,critical,C,75,vase60.jpg,vase90.jpg,low ,memory-nogoals,NULL
1682741709,6688cdb1ba17d5c932e1ca875fbfe727,PennController,30,0,experiment,NULL,PennController,29,_PreloadFailed_,fixation.png,1682741519395,sonaID,undefined,27,rice,filler,C,50,square40.jpg,square60.jpg,GoalA,memory-nogoals,NULL
1682741709,6688cdb1ba17d5c932e1ca875fbfe727,PennController,30,0,experiment,NULL,PennController,29,_PreloadFailed_,https://raw.githubusercontent.com/karenwli/rep-momentum/main/rice/rice00.jpg,1682741519395,sonaID,undefined,27,rice,filler,C,50,square40.jpg,square60.jpg,GoalA,memory-nogoals,NULL
1682741709,6688cdb1ba17d5c932e1ca875fbfe727,PennController,30,0,experiment,NULL,PennController,29,_PreloadFailed_,https://video.wixstatic.com/video/7cb05b_171840eb277a4ada98d979b740149974/144p/mp4/file.mp4,1682741519395,sonaID,undefined,27,rice,filler,C,50,square40.jpg,square60.jpg,GoalA,memory-nogoals,NULL
1682741709,6688cdb1ba17d5c932e1ca875fbfe727,PennController,30,0,experiment,NULL,PennController,29,_Trial_,Start,1682741519396,sonaID,undefined,27,rice,filler,C,50,square40.jpg,square60.jpg,GoalA,memory-nogoals,NULL
1682741709,6688cdb1ba17d5c932e1ca875fbfe727,PennController,30,0,experiment,NULL,PennController,29,_Header_,Start,1682741519396,sonaID,undefined,27,rice,filler,C,50,square40.jpg,square60.jpg,GoalA,memory-nogoals,NULL
1682741709,6688cdb1ba17d5c932e1ca875fbfe727,PennController,30,0,experiment,NULL,PennController,29,_Header_,End,1682741519396,sonaID,undefined,27,rice,filler,C,50,square40.jpg,square60.jpg,GoalA,memory-nogoals,NULL
1682741709,6688cdb1ba17d5c932e1ca875fbfe727,PennController,30,0,experiment,NULL,Canvas,canvas6,Print,NA,1682741525020,sonaID,undefined,27,rice,filler,C,50,square40.jpg,square60.jpg,GoalA,memory-nogoals,NULL
1682741709,6688cdb1ba17d5c932e1ca875fbfe727,PennController,30,0,experiment,NULL,Video,progression,buffer,0.002796,1682741521915,sonaID,undefined,27,rice,filler,C,50,square40.jpg,square60.jpg,GoalA,memory-nogoals,NULL
1682741709,6688cdb1ba17d5c932e1ca875fbfe727,PennController,30,0,experiment,NULL,Selector,choice,Selection,option1,1682741534354,sonaID,undefined,27,rice,filler,C,50,square40.jpg,square60.jpg,GoalA,memory-nogoals,option1;option2
1682741709,6688cdb1ba17d5c932e1ca875fbfe727,PennController,30,0,experiment,NULL,PennController,29,_Trial_,End,1682741534356,sonaID,undefined,27,rice,filler,C,50,square40.jpg,square60.jpg,GoalA,memory-nogoals,NULL
1682741709,6688cdb1ba17d5c932e1ca875fbfe727,PennController,26,0,experiment,NULL,PennController,25,_Trial_,Start,1682741534357,sonaID,undefined,23,color,filler,C,25,color15.jpg,color35.jpg,GoalA,memory-nogoals,NULL
1682741709,6688cdb1ba17d5c932e1ca875fbfe727,PennController,26,0,experiment,NULL,PennController,25,_Header_,Start,1682741534357,sonaID,undefined,23,color,filler,C,25,color15.jpg,color35.jpg,GoalA,memory-nogoals,NULL
1682741709,6688cdb1ba17d5c932e1ca875fbfe727,PennController,26,0,experiment,NULL,PennController,25,_Header_,End,1682741534357,sonaID,undefined,23,color,filler,C,25,color15.jpg,color35.jpg,GoalA,memory-nogoals,NULL
1682741709,6688cdb1ba17d5c932e1ca875fbfe727,PennController,26,0,experiment,NULL,Canvas,canvas6,Print,NA,1682741539011,sonaID,undefined,23,color,filler,C,25,color15.jpg,color35.jpg,GoalA,memory-nogoals,NULL
1682741709,6688cdb1ba17d5c932e1ca875fbfe727,PennController,26,0,experiment,NULL,Video,progression,buffer,0.002044,1682741536875,sonaID,undefined,23,color,filler,C,25,color15.jpg,color35.jpg,GoalA,memory-nogoals,NULL
1682741709,6688cdb1ba17d5c932e1ca875fbfe727,PennController,26,0,experiment,NULL,Selector,choice,Selection,option2,1682741540863,sonaID,undefined,23,color,filler,C,25,color15.jpg,color35.jpg,GoalA,memory-nogoals,option2;option1
1682741709,6688cdb1ba17d5c932e1ca875fbfe727,PennController,26,0,experiment,NULL,PennController,25,_Trial_,End,1682741540864,sonaID,undefined,23,color,filler,C,25,color15.jpg,color35.jpg,GoalA,memory-nogoals,NULL
1682741709,6688cdb1ba17d5c932e1ca875fbfe727,PennController,15,0,experiment,NULL,PennController,14,_Trial_,Start,1682741540866,sonaID,undefined,12,erase,critical,C,50,erase42.jpg,erase60.jpg,high,memory-nogoals,NULL
1682741709,6688cdb1ba17d5c932e1ca875fbfe727,PennController,15,0,experiment,NULL,PennController,14,_Header_,Start,1682741540866,sonaID,undefined,12,erase,critical,C,50,erase42.jpg,erase60.jpg,high,memory-nogoals,NULL
1682741709,6688cdb1ba17d5c932e1ca875fbfe727,PennController,15,0,experiment,NULL,PennController,14,_Header_,End,1682741540866,sonaID,undefined,12,erase,critical,C,50,erase42.jpg,erase60.jpg,high,memory-nogoals,NULL
1682741709,6688cdb1ba17d5c932e1ca875fbfe727,PennController,15,0,experiment,NULL,Canvas,canvas6,Print,NA,1682741547919,sonaID,undefined,12,erase,critical,C,50,erase42.jpg,erase60.jpg,high,memory-nogoals,NULL
1682741709,6688cdb1ba17d5c932e1ca875fbfe727,PennController,15,0,experiment,NULL,Video,progression,buffer,0.002006,1682741543385,sonaID,undefined,12,erase,critical,C,50,erase42.jpg,erase60.jpg,high,memory-nogoals,NULL
1682741709,6688cdb1ba17d5c932e1ca875fbfe727,PennController,15,0,experiment,NULL,Selector,choice,Selection,option2,1682741548944,sonaID,undefined,12,erase,critical,C,50,erase42.jpg,erase60.jpg,high,memory-nogoals,option2;option1
1682741709,6688cdb1ba17d5c932e1ca875fbfe727,PennController,15,0,experiment,NULL,PennController,14,_Trial_,End,1682741548946,sonaID,undefined,12,erase,critical,C,50,erase42.jpg,erase60.jpg,high,memory-nogoals,NULL
1682741709,6688cdb1ba17d5c932e1ca875fbfe727,PennController,9,0,experiment,NULL,PennController,8,_Trial_,Start,1682741548948,sonaID,undefined,6,flower,critical,C,50,flower40.jpg,flower60.jpg,high,memory-nogoals,NULL
1682741709,6688cdb1ba17d5c932e1ca875fbfe727,PennController,9,0,experiment,NULL,PennController,8,_Header_,Start,1682741548948,sonaID,undefined,6,flower,critical,C,50,flower40.jpg,flower60.jpg,high,memory-nogoals,NULL
1682741709,6688cdb1ba17d5c932e1ca875fbfe727,PennController,9,0,experiment,NULL,PennController,8,_Header_,End,1682741548948,sonaID,undefined,6,flower,critical,C,50,flower40.jpg,flower60.jpg,high,memory-nogoals,NULL
1682741709,6688cdb1ba17d5c932e1ca875fbfe727,PennController,9,0,experiment,NULL,Canvas,canvas6,Print,NA,1682741554585,sonaID,undefined,6,flower,critical,C,50,flower40.jpg,flower60.jpg,high,memory-nogoals,NULL
1682741709,6688cdb1ba17d5c932e1ca875fbfe727,PennController,9,0,experiment,NULL,Video,progression,buffer,0.002158,1682741551465,sonaID,undefined,6,flower,critical,C,50,flower40.jpg,flower60.jpg,high,memory-nogoals,NULL
1682741709,6688cdb1ba17d5c932e1ca875fbfe727,PennController,9,0,experiment,NULL,Selector,choice,Selection,option1,1682741556028,sonaID,undefined,6,flower,critical,C,50,flower40.jpg,flower60.jpg,high,memory-nogoals,option2;option1
1682741709,6688cdb1ba17d5c932e1ca875fbfe727,PennController,9,0,experiment,NULL,PennController,8,_Trial_,End,1682741556030,sonaID,undefined,6,flower,critical,C,50,flower40.jpg,flower60.jpg,high,memory-nogoals,NULL
1682741709,6688cdb1ba17d5c932e1ca875fbfe727,PennController,22,0,experiment,NULL,PennController,21,_Trial_,Start,1682741556032,sonaID,undefined,19,cup,filler,C,75,cup65.jpg,cup85.jpg,GoalA,memory-nogoals,NULL
1682741709,6688cdb1ba17d5c932e1ca875fbfe727,PennController,22,0,experiment,NULL,PennController,21,_Header_,Start,1682741556032,sonaID,undefined,19,cup,filler,C,75,cup65.jpg,cup85.jpg,GoalA,memory-nogoals,NULL
1682741709,6688cdb1ba17d5c932e1ca875fbfe727,PennController,22,0,experiment,NULL,PennController,21,_Header_,End,1682741556032,sonaID,undefined,19,cup,filler,C,75,cup65.jpg,cup85.jpg,GoalA,memory-nogoals,NULL
1682741709,6688cdb1ba17d5c932e1ca875fbfe727,PennController,22,0,experiment,NULL,Canvas,canvas6,Print,NA,1682741562683,sonaID,undefined,19,cup,filler,C,75,cup65.jpg,cup85.jpg,GoalA,memory-nogoals,NULL
1682741709,6688cdb1ba17d5c932e1ca875fbfe727,PennController,22,0,experiment,NULL,Video,progression,buffer,0.001903,1682741558552,sonaID,undefined,19,cup,filler,C,75,cup65.jpg,cup85.jpg,GoalA,memory-nogoals,NULL
1682741709,6688cdb1ba17d5c932e1ca875fbfe727,PennController,22,0,experiment,NULL,Selector,choice,Selection,option1,1682741564287,sonaID,undefined,19,cup,filler,C,75,cup65.jpg,cup85.jpg,GoalA,memory-nogoals,option1;option2
1682741709,6688cdb1ba17d5c932e1ca875fbfe727,PennController,22,0,experiment,NULL,PennController,21,_Trial_,End,1682741564289,sonaID,undefined,19,cup,filler,C,75,cup65.jpg,cup85.jpg,GoalA,memory-nogoals,NULL
1682741709,6688cdb1ba17d5c932e1ca875fbfe727,PennController,25,0,experiment,NULL,PennController,24,_Trial_,Start,1682741564291,sonaID,undefined,22,wall,filler,C,75,wall65.jpg,wall85.jpg,GoalB,memory-nogoals,NULL
1682741709,6688cdb1ba17d5c932e1ca875fbfe727,PennController,25,0,experiment,NULL,PennController,24,_Header_,Start,1682741564291,sonaID,undefined,22,wall,filler,C,75,wall65.jpg,wall85.jpg,GoalB,memory-nogoals,NULL
1682741709,6688cdb1ba17d5c932e1ca875fbfe727,PennController,25,0,experiment,NULL,PennController,24,_Header_,End,1682741564291,sonaID,undefined,22,wall,filler,C,75,wall65.jpg,wall85.jpg,GoalB,memory-nogoals,NULL
1682741709,6688cdb1ba17d5c932e1ca875fbfe727,PennController,25,0,experiment,NULL,Canvas,canvas6,Print,NA,1682741570943,sonaID,undefined,22,wall,filler,C,75,wall65.jpg,wall85.jpg,GoalB,memory-nogoals,NULL
1682741709,6688cdb1ba17d5c932e1ca875fbfe727,PennController,25,0,experiment,NULL,Video,progression,buffer,0.002155,1682741566809,sonaID,undefined,22,wall,filler,C,75,wall65.jpg,wall85.jpg,GoalB,memory-nogoals,NULL
1682741709,6688cdb1ba17d5c932e1ca875fbfe727,PennController,25,0,experiment,NULL,Selector,choice,Selection,option2,1682741572797,sonaID,undefined,22,wall,filler,C,75,wall65.jpg,wall85.jpg,GoalB,memory-nogoals,option1;option2
1682741709,6688cdb1ba17d5c932e1ca875fbfe727,PennController,25,0,experiment,NULL,PennController,24,_Trial_,End,1682741572799,sonaID,undefined,22,wall,filler,C,75,wall65.jpg,wall85.jpg,GoalB,memory-nogoals,NULL
1682741709,6688cdb1ba17d5c932e1ca875fbfe727,PennController,27,0,experiment,NULL,PennController,26,_Trial_,Start,1682741572800,sonaID,undefined,24,match,filler,C,50,match40.jpg,match60.jpg,GoalB,memory-nogoals,NULL
1682741709,6688cdb1ba17d5c932e1ca875fbfe727,PennController,27,0,experiment,NULL,PennController,26,_Header_,Start,1682741572800,sonaID,undefined,24,match,filler,C,50,match40.jpg,match60.jpg,GoalB,memory-nogoals,NULL
1682741709,6688cdb1ba17d5c932e1ca875fbfe727,PennController,27,0,experiment,NULL,PennController,26,_Header_,End,1682741572800,sonaID,undefined,24,match,filler,C,50,match40.jpg,match60.jpg,GoalB,memory-nogoals,NULL
1682741709,6688cdb1ba17d5c932e1ca875fbfe727,PennController,27,0,experiment,NULL,Canvas,canvas6,Print,NA,1682741578444,sonaID,undefined,24,match,filler,C,50,match40.jpg,match60.jpg,GoalB,memory-nogoals,NULL
1682741709,6688cdb1ba17d5c932e1ca875fbfe727,PennController,27,0,experiment,NULL,Video,progression,buffer,0.001867,1682741575315,sonaID,undefined,24,match,filler,C,50,match40.jpg,match60.jpg,GoalB,memory-nogoals,NULL
1682741709,6688cdb1ba17d5c932e1ca875fbfe727,PennController,27,0,experiment,NULL,Selector,choice,Selection,option2,1682741580124,sonaID,undefined,24,match,filler,C,50,match40.jpg,match60.jpg,GoalB,memory-nogoals,option1;option2
1682741709,6688cdb1ba17d5c932e1ca875fbfe727,PennController,27,0,experiment,NULL,PennController,26,_Trial_,End,1682741580127,sonaID,undefined,24,match,filler,C,50,match40.jpg,match60.jpg,GoalB,memory-nogoals,NULL
1682741709,6688cdb1ba17d5c932e1ca875fbfe727,PennController,6,0,experiment,NULL,PennController,5,_Trial_,Start,1682741580129,sonaID,undefined,3,clean,critical,C,50,clean40.jpg,clean60.jpg,low ,memory-nogoals,NULL
1682741709,6688cdb1ba17d5c932e1ca875fbfe727,PennController,6,0,experiment,NULL,PennController,5,_Header_,Start,1682741580129,sonaID,undefined,3,clean,critical,C,50,clean40.jpg,clean60.jpg,low ,memory-nogoals,NULL
1682741709,6688cdb1ba17d5c932e1ca875fbfe727,PennController,6,0,experiment,NULL,PennController,5,_Header_,End,1682741580129,sonaID,undefined,3,clean,critical,C,50,clean40.jpg,clean60.jpg,low ,memory-nogoals,NULL
1682741709,6688cdb1ba17d5c932e1ca875fbfe727,PennController,6,0,experiment,NULL,Canvas,canvas6,Print,NA,1682741585775,sonaID,undefined,3,clean,critical,C,50,clean40.jpg,clean60.jpg,low ,memory-nogoals,NULL
1682741709,6688cdb1ba17d5c932e1ca875fbfe727,PennController,6,0,experiment,NULL,Video,progression,buffer,0.001935,1682741582643,sonaID,undefined,3,clean,critical,C,50,clean40.jpg,clean60.jpg,low ,memory-nogoals,NULL
1682741709,6688cdb1ba17d5c932e1ca875fbfe727,PennController,6,0,experiment,NULL,Selector,choice,Selection,option2,1682741587347,sonaID,undefined,3,clean,critical,C,50,clean40.jpg,clean60.jpg,low ,memory-nogoals,option1;option2
1682741709,6688cdb1ba17d5c932e1ca875fbfe727,PennController,6,0,experiment,NULL,PennController,5,_Trial_,End,1682741587349,sonaID,undefined,3,clean,critical,C,50,clean40.jpg,clean60.jpg,low ,memory-nogoals,NULL
1682741709,6688cdb1ba17d5c932e1ca875fbfe727,PennController,19,0,experiment,NULL,PennController,18,_Trial_,Start,1682741587350,sonaID,undefined,16,blinds,critical,C,75,blinds66.jpg,blinds84.jpg,high,memory-nogoals,NULL
1682741709,6688cdb1ba17d5c932e1ca875fbfe727,PennController,19,0,experiment,NULL,PennController,18,_Header_,Start,1682741587350,sonaID,undefined,16,blinds,critical,C,75,blinds66.jpg,blinds84.jpg,high,memory-nogoals,NULL
1682741709,6688cdb1ba17d5c932e1ca875fbfe727,PennController,19,0,experiment,NULL,PennController,18,_Header_,End,1682741587350,sonaID,undefined,16,blinds,critical,C,75,blinds66.jpg,blinds84.jpg,high,memory-nogoals,NULL
1682741709,6688cdb1ba17d5c932e1ca875fbfe727,PennController,19,0,experiment,NULL,Canvas,canvas6,Print,NA,1682741595986,sonaID,undefined,16,blinds,critical,C,75,blinds66.jpg,blinds84.jpg,high,memory-nogoals,NULL
1682741709,6688cdb1ba17d5c932e1ca875fbfe727,PennController,19,0,experiment,NULL,Video,progression,buffer,0.001619,1682741589867,sonaID,undefined,16,blinds,critical,C,75,blinds66.jpg,blinds84.jpg,high,memory-nogoals,NULL
1682741709,6688cdb1ba17d5c932e1ca875fbfe727,PennController,19,0,experiment,NULL,Selector,choice,Selection,option2,1682741598570,sonaID,undefined,16,blinds,critical,C,75,blinds66.jpg,blinds84.jpg,high,memory-nogoals,option1;option2
1682741709,6688cdb1ba17d5c932e1ca875fbfe727,PennController,19,0,experiment,NULL,PennController,18,_Trial_,End,1682741598572,sonaID,undefined,16,blinds,critical,C,75,blinds66.jpg,blinds84.jpg,high,memory-nogoals,NULL
1682741709,6688cdb1ba17d5c932e1ca875fbfe727,PennController,23,0,experiment,NULL,PennController,22,_Trial_,Start,1682741598574,sonaID,undefined,20,cat,filler,C,25,cat15.jpg,cat35.jpg,GoalB,memory-nogoals,NULL
1682741709,6688cdb1ba17d5c932e1ca875fbfe727,PennController,23,0,experiment,NULL,PennController,22,_Header_,Start,1682741598574,sonaID,undefined,20,cat,filler,C,25,cat15.jpg,cat35.jpg,GoalB,memory-nogoals,NULL
1682741709,6688cdb1ba17d5c932e1ca875fbfe727,PennController,23,0,experiment,NULL,PennController,22,_Header_,End,1682741598574,sonaID,undefined,20,cat,filler,C,25,cat15.jpg,cat35.jpg,GoalB,memory-nogoals,NULL
1682741709,6688cdb1ba17d5c932e1ca875fbfe727,PennController,23,0,experiment,NULL,Canvas,canvas6,Print,NA,1682741603214,sonaID,undefined,20,cat,filler,C,25,cat15.jpg,cat35.jpg,GoalB,memory-nogoals,NULL
1682741709,6688cdb1ba17d5c932e1ca875fbfe727,PennController,23,0,experiment,NULL,Video,progression,buffer,0.001943,1682741601093,sonaID,undefined,20,cat,filler,C,25,cat15.jpg,cat35.jpg,GoalB,memory-nogoals,NULL
1682741709,6688cdb1ba17d5c932e1ca875fbfe727,PennController,23,0,experiment,NULL,Selector,choice,Selection,option2,1682741605477,sonaID,undefined,20,cat,filler,C,25,cat15.jpg,cat35.jpg,GoalB,memory-nogoals,option1;option2
1682741709,6688cdb1ba17d5c932e1ca875fbfe727,PennController,23,0,experiment,NULL,PennController,22,_Trial_,End,1682741605478,sonaID,undefined,20,cat,filler,C,25,cat15.jpg,cat35.jpg,GoalB,memory-nogoals,NULL
1682741709,6688cdb1ba17d5c932e1ca875fbfe727,PennController,29,0,experiment,NULL,PennController,28,_Trial_,Start,1682741605480,sonaID,undefined,26,sandwich,filler,C,25,sandwich15.jpg,sandwich35.jpg,GoalB,memory-nogoals,NULL
1682741709,6688cdb1ba17d5c932e1ca875fbfe727,PennController,29,0,experiment,NULL,PennController,28,_Header_,Start,1682741605480,sonaID,undefined,26,sandwich,filler,C,25,sandwich15.jpg,sandwich35.jpg,GoalB,memory-nogoals,NULL
1682741709,6688cdb1ba17d5c932e1ca875fbfe727,PennController,29,0,experiment,NULL,PennController,28,_Header_,End,1682741605480,sonaID,undefined,26,sandwich,filler,C,25,sandwich15.jpg,sandwich35.jpg,GoalB,memory-nogoals,NULL
1682741709,6688cdb1ba17d5c932e1ca875fbfe727,PennController,29,0,experiment,NULL,Canvas,canvas6,Print,NA,1682741610113,sonaID,undefined,26,sandwich,filler,C,25,sandwich15.jpg,sandwich35.jpg,GoalB,memory-nogoals,NULL
1682741709,6688cdb1ba17d5c932e1ca875fbfe727,PennController,29,0,experiment,NULL,Video,progression,buffer,0.001962,1682741607998,sonaID,undefined,26,sandwich,filler,C,25,sandwich15.jpg,sandwich35.jpg,GoalB,memory-nogoals,NULL
1682741709,6688cdb1ba17d5c932e1ca875fbfe727,PennController,29,0,experiment,NULL,Selector,choice,Selection,option1,1682741612230,sonaID,undefined,26,sandwich,filler,C,25,sandwich15.jpg,sandwich35.jpg,GoalB,memory-nogoals,option1;option2
1682741709,6688cdb1ba17d5c932e1ca875fbfe727,PennController,29,0,experiment,NULL,PennController,28,_Trial_,End,1682741612232,sonaID,undefined,26,sandwich,filler,C,25,sandwich15.jpg,sandwich35.jpg,GoalB,memory-nogoals,NULL
1682741709,6688cdb1ba17d5c932e1ca875fbfe727,PennController,7,0,experiment,NULL,PennController,6,_Trial_,Start,1682741612233,sonaID,undefined,4,candy,critical,C,75,candy65.jpg,candy85.jpg,high,memory-nogoals,NULL
1682741709,6688cdb1ba17d5c932e1ca875fbfe727,PennController,7,0,experiment,NULL,PennController,6,_Header_,Start,1682741612233,sonaID,undefined,4,candy,critical,C,75,candy65.jpg,candy85.jpg,high,memory-nogoals,NULL
1682741709,6688cdb1ba17d5c932e1ca875fbfe727,PennController,7,0,experiment,NULL,PennController,6,_Header_,End,1682741612234,sonaID,undefined,4,candy,critical,C,75,candy65.jpg,candy85.jpg,high,memory-nogoals,NULL
1682741709,6688cdb1ba17d5c932e1ca875fbfe727,PennController,7,0,experiment,NULL,Canvas,canvas6,Print,NA,1682741618881,sonaID,undefined,4,candy,critical,C,75,candy65.jpg,candy85.jpg,high,memory-nogoals,NULL
1682741709,6688cdb1ba17d5c932e1ca875fbfe727,PennController,7,0,experiment,NULL,Video,progression,buffer,0.002517,1682741614749,sonaID,undefined,4,candy,critical,C,75,candy65.jpg,candy85.jpg,high,memory-nogoals,NULL
1682741709,6688cdb1ba17d5c932e1ca875fbfe727,PennController,7,0,experiment,NULL,Selector,choice,Selection,option1,1682741619906,sonaID,undefined,4,candy,critical,C,75,candy65.jpg,candy85.jpg,high,memory-nogoals,option2;option1
1682741709,6688cdb1ba17d5c932e1ca875fbfe727,PennController,7,0,experiment,NULL,PennController,6,_Trial_,End,1682741619908,sonaID,undefined,4,candy,critical,C,75,candy65.jpg,candy85.jpg,high,memory-nogoals,NULL
1682741709,6688cdb1ba17d5c932e1ca875fbfe727,PennController,14,0,experiment,NULL,PennController,13,_Trial_,Start,1682741619909,sonaID,undefined,11,beads,critical,C,25,beads15.jpg,beads35.jpg,low ,memory-nogoals,NULL
1682741709,6688cdb1ba17d5c932e1ca875fbfe727,PennController,14,0,experiment,NULL,PennController,13,_Header_,Start,1682741619909,sonaID,undefined,11,beads,critical,C,25,beads15.jpg,beads35.jpg,low ,memory-nogoals,NULL
1682741709,6688cdb1ba17d5c932e1ca875fbfe727,PennController,14,0,experiment,NULL,PennController,13,_Header_,End,1682741619909,sonaID,undefined,11,beads,critical,C,25,beads15.jpg,beads35.jpg,low ,memory-nogoals,NULL
1682741709,6688cdb1ba17d5c932e1ca875fbfe727,PennController,14,0,experiment,NULL,Canvas,canvas6,Print,NA,1682741624544,sonaID,undefined,11,beads,critical,C,25,beads15.jpg,beads35.jpg,low ,memory-nogoals,NULL
1682741709,6688cdb1ba17d5c932e1ca875fbfe727,PennController,14,0,experiment,NULL,Video,progression,buffer,0.002183,1682741622430,sonaID,undefined,11,beads,critical,C,25,beads15.jpg,beads35.jpg,low ,memory-nogoals,NULL
1682741709,6688cdb1ba17d5c932e1ca875fbfe727,PennController,14,0,experiment,NULL,Selector,choice,Selection,option2,1682741625469,sonaID,undefined,11,beads,critical,C,25,beads15.jpg,beads35.jpg,low ,memory-nogoals,option2;option1
1682741709,6688cdb1ba17d5c932e1ca875fbfe727,PennController,14,0,experiment,NULL,PennController,13,_Trial_,End,1682741625471,sonaID,undefined,11,beads,critical,C,25,beads15.jpg,beads35.jpg,low ,memory-nogoals,NULL
1682741709,6688cdb1ba17d5c932e1ca875fbfe727,PennController,13,0,experiment,NULL,PennController,12,_Trial_,Start,1682741625472,sonaID,undefined,10,train,critical,C,75,train65.jpg,train85.jpg,high,memory-nogoals,NULL
1682741709,6688cdb1ba17d5c932e1ca875fbfe727,PennController,13,0,experiment,NULL,PennController,12,_Header_,Start,1682741625472,sonaID,undefined,10,train,critical,C,75,train65.jpg,train85.jpg,high,memory-nogoals,NULL
1682741709,6688cdb1ba17d5c932e1ca875fbfe727,PennController,13,0,experiment,NULL,PennController,12,_Header_,End,1682741625472,sonaID,undefined,10,train,critical,C,75,train65.jpg,train85.jpg,high,memory-nogoals,NULL
1682741709,6688cdb1ba17d5c932e1ca875fbfe727,PennController,13,0,experiment,NULL,Canvas,canvas6,Print,NA,1682741632115,sonaID,undefined,10,train,critical,C,75,train65.jpg,train85.jpg,high,memory-nogoals,NULL
1682741709,6688cdb1ba17d5c932e1ca875fbfe727,PennController,13,0,experiment,NULL,Video,progression,buffer,0.002269,1682741627995,sonaID,undefined,10,train,critical,C,75,train65.jpg,train85.jpg,high,memory-nogoals,NULL
1682741709,6688cdb1ba17d5c932e1ca875fbfe727,PennController,13,0,experiment,NULL,Selector,choice,Selection,option2,1682741634295,sonaID,undefined,10,train,critical,C,75,train65.jpg,train85.jpg,high,memory-nogoals,option2;option1
1682741709,6688cdb1ba17d5c932e1ca875fbfe727,PennController,13,0,experiment,NULL,PennController,12,_Trial_,End,1682741634297,sonaID,undefined,10,train,critical,C,75,train65.jpg,train85.jpg,high,memory-nogoals,NULL
1682741709,6688cdb1ba17d5c932e1ca875fbfe727,PennController,8,0,experiment,NULL,PennController,7,_Trial_,Start,1682741634299,sonaID,undefined,5,book,critical,C,25,book15.jpg,book35.jpg,low ,memory-nogoals,NULL
1682741709,6688cdb1ba17d5c932e1ca875fbfe727,PennController,8,0,experiment,NULL,PennController,7,_Header_,Start,1682741634299,sonaID,undefined,5,book,critical,C,25,book15.jpg,book35.jpg,low ,memory-nogoals,NULL
1682741709,6688cdb1ba17d5c932e1ca875fbfe727,PennController,8,0,experiment,NULL,PennController,7,_Header_,End,1682741634299,sonaID,undefined,5,book,critical,C,25,book15.jpg,book35.jpg,low ,memory-nogoals,NULL
1682741709,6688cdb1ba17d5c932e1ca875fbfe727,PennController,8,0,experiment,NULL,Canvas,canvas6,Print,NA,1682741638944,sonaID,undefined,5,book,critical,C,25,book15.jpg,book35.jpg,low ,memory-nogoals,NULL
1682741709,6688cdb1ba17d5c932e1ca875fbfe727,PennController,8,0,experiment,NULL,Video,progression,buffer,0.003404,1682741636815,sonaID,undefined,5,book,critical,C,25,book15.jpg,book35.jpg,low ,memory-nogoals,NULL
1682741709,6688cdb1ba17d5c932e1ca875fbfe727,PennController,8,0,experiment,NULL,Selector,choice,Selection,option1,1682741640458,sonaID,undefined,5,book,critical,C,25,book15.jpg,book35.jpg,low ,memory-nogoals,option1;option2
1682741709,6688cdb1ba17d5c932e1ca875fbfe727,PennController,8,0,experiment,NULL,PennController,7,_Trial_,End,1682741640460,sonaID,undefined,5,book,critical,C,25,book15.jpg,book35.jpg,low ,memory-nogoals,NULL
1682741709,6688cdb1ba17d5c932e1ca875fbfe727,PennController,12,0,experiment,NULL,PennController,11,_Trial_,Start,1682741640461,sonaID,undefined,9,cake,critical,C,50,cake42.jpg,cake60.jpg,low ,memory-nogoals,NULL
1682741709,6688cdb1ba17d5c932e1ca875fbfe727,PennController,12,0,experiment,NULL,PennController,11,_Header_,Start,1682741640461,sonaID,undefined,9,cake,critical,C,50,cake42.jpg,cake60.jpg,low ,memory-nogoals,NULL
1682741709,6688cdb1ba17d5c932e1ca875fbfe727,PennController,12,0,experiment,NULL,PennController,11,_Header_,End,1682741640462,sonaID,undefined,9,cake,critical,C,50,cake42.jpg,cake60.jpg,low ,memory-nogoals,NULL
1682741709,6688cdb1ba17d5c932e1ca875fbfe727,PennController,12,0,experiment,NULL,Canvas,canvas6,Print,NA,1682741647516,sonaID,undefined,9,cake,critical,C,50,cake42.jpg,cake60.jpg,low ,memory-nogoals,NULL
1682741709,6688cdb1ba17d5c932e1ca875fbfe727,PennController,12,0,experiment,NULL,Video,progression,buffer,0.001971,1682741642980,sonaID,undefined,9,cake,critical,C,50,cake42.jpg,cake60.jpg,low ,memory-nogoals,NULL
1682741709,6688cdb1ba17d5c932e1ca875fbfe727,PennController,12,0,experiment,NULL,Selector,choice,Selection,option2,1682741648360,sonaID,undefined,9,cake,critical,C,50,cake42.jpg,cake60.jpg,low ,memory-nogoals,option1;option2
1682741709,6688cdb1ba17d5c932e1ca875fbfe727,PennController,12,0,experiment,NULL,PennController,11,_Trial_,End,1682741648362,sonaID,undefined,9,cake,critical,C,50,cake42.jpg,cake60.jpg,low ,memory-nogoals,NULL
1682741709,6688cdb1ba17d5c932e1ca875fbfe727,PennController,17,0,experiment,NULL,PennController,16,_Trial_,Start,1682741648363,sonaID,undefined,14,cover,critical,C,25,cover15.jpg,cover33.jpg,high,memory-nogoals,NULL
1682741709,6688cdb1ba17d5c932e1ca875fbfe727,PennController,17,0,experiment,NULL,PennController,16,_Header_,Start,1682741648363,sonaID,undefined,14,cover,critical,C,25,cover15.jpg,cover33.jpg,high,memory-nogoals,NULL
1682741709,6688cdb1ba17d5c932e1ca875fbfe727,PennController,17,0,experiment,NULL,PennController,16,_Header_,End,1682741648363,sonaID,undefined,14,cover,critical,C,25,cover15.jpg,cover33.jpg,high,memory-nogoals,NULL
1682741709,6688cdb1ba17d5c932e1ca875fbfe727,PennController,17,0,experiment,NULL,Canvas,canvas6,Print,NA,1682741653614,sonaID,undefined,14,cover,critical,C,25,cover15.jpg,cover33.jpg,high,memory-nogoals,NULL
1682741709,6688cdb1ba17d5c932e1ca875fbfe727,PennController,17,0,experiment,NULL,Video,progression,buffer,0.001963,1682741650881,sonaID,undefined,14,cover,critical,C,25,cover15.jpg,cover33.jpg,high,memory-nogoals,NULL
1682741709,6688cdb1ba17d5c932e1ca875fbfe727,PennController,17,0,experiment,NULL,Selector,choice,Selection,option2,1682741656011,sonaID,undefined,14,cover,critical,C,25,cover15.jpg,cover33.jpg,high,memory-nogoals,option2;option1
1682741709,6688cdb1ba17d5c932e1ca875fbfe727,PennController,17,0,experiment,NULL,PennController,16,_Trial_,End,1682741656013,sonaID,undefined,14,cover,critical,C,25,cover15.jpg,cover33.jpg,high,memory-nogoals,NULL
1682741709,6688cdb1ba17d5c932e1ca875fbfe727,PennController,32,0,experiment,NULL,PennController,31,_Trial_,Start,1682741656015,sonaID,undefined,29,frog,filler,C,25,frog15.jpg,frog35.jpg,GoalA,memory-nogoals,NULL
1682741709,6688cdb1ba17d5c932e1ca875fbfe727,PennController,32,0,experiment,NULL,PennController,31,_Header_,Start,1682741656015,sonaID,undefined,29,frog,filler,C,25,frog15.jpg,frog35.jpg,GoalA,memory-nogoals,NULL
1682741709,6688cdb1ba17d5c932e1ca875fbfe727,PennController,32,0,experiment,NULL,PennController,31,_Header_,End,1682741656015,sonaID,undefined,29,frog,filler,C,25,frog15.jpg,frog35.jpg,GoalA,memory-nogoals,NULL
1682741709,6688cdb1ba17d5c932e1ca875fbfe727,PennController,32,0,experiment,NULL,Canvas,canvas6,Print,NA,1682741660643,sonaID,undefined,29,frog,filler,C,25,frog15.jpg,frog35.jpg,GoalA,memory-nogoals,NULL
1682741709,6688cdb1ba17d5c932e1ca875fbfe727,PennController,32,0,experiment,NULL,Video,progression,buffer,0.003318,1682741658537,sonaID,undefined,29,frog,filler,C,25,frog15.jpg,frog35.jpg,GoalA,memory-nogoals,NULL
1682741709,6688cdb1ba17d5c932e1ca875fbfe727,PennController,32,0,experiment,NULL,Selector,choice,Selection,option2,1682741661884,sonaID,undefined,29,frog,filler,C,25,frog15.jpg,frog35.jpg,GoalA,memory-nogoals,option2;option1
1682741709,6688cdb1ba17d5c932e1ca875fbfe727,PennController,32,0,experiment,NULL,PennController,31,_Trial_,End,1682741661885,sonaID,undefined,29,frog,filler,C,25,frog15.jpg,frog35.jpg,GoalA,memory-nogoals,NULL
1682741709,6688cdb1ba17d5c932e1ca875fbfe727,PennController,16,0,experiment,NULL,PennController,15,_Trial_,Start,1682741661887,sonaID,undefined,13,mix,critical,C,75,mix65.jpg,mix85.jpg,low ,memory-nogoals,NULL
1682741709,6688cdb1ba17d5c932e1ca875fbfe727,PennController,16,0,experiment,NULL,PennController,15,_Header_,Start,1682741661887,sonaID,undefined,13,mix,critical,C,75,mix65.jpg,mix85.jpg,low ,memory-nogoals,NULL
1682741709,6688cdb1ba17d5c932e1ca875fbfe727,PennController,16,0,experiment,NULL,PennController,15,_Header_,End,1682741661887,sonaID,undefined,13,mix,critical,C,75,mix65.jpg,mix85.jpg,low ,memory-nogoals,NULL
1682741709,6688cdb1ba17d5c932e1ca875fbfe727,PennController,16,0,experiment,NULL,Canvas,canvas6,Print,NA,1682741668543,sonaID,undefined,13,mix,critical,C,75,mix65.jpg,mix85.jpg,low ,memory-nogoals,NULL
1682741709,6688cdb1ba17d5c932e1ca875fbfe727,PennController,16,0,experiment,NULL,Video,progression,buffer,0.001683,1682741664402,sonaID,undefined,13,mix,critical,C,75,mix65.jpg,mix85.jpg,low ,memory-nogoals,NULL
1682741709,6688cdb1ba17d5c932e1ca875fbfe727,PennController,16,0,experiment,NULL,Selector,choice,Selection,option2,1682741669940,sonaID,undefined,13,mix,critical,C,75,mix65.jpg,mix85.jpg,low ,memory-nogoals,option2;option1
1682741709,6688cdb1ba17d5c932e1ca875fbfe727,PennController,16,0,experiment,NULL,PennController,15,_Trial_,End,1682741669942,sonaID,undefined,13,mix,critical,C,75,mix65.jpg,mix85.jpg,low ,memory-nogoals,NULL
1682741709,6688cdb1ba17d5c932e1ca875fbfe727,PennController,10,0,experiment,NULL,PennController,9,_Trial_,Start,1682741669944,sonaID,undefined,7,stack,critical,C,75,stack65.jpg,stack85.jpg,low ,memory-nogoals,NULL
1682741709,6688cdb1ba17d5c932e1ca875fbfe727,PennController,10,0,experiment,NULL,PennController,9,_Header_,Start,1682741669944,sonaID,undefined,7,stack,critical,C,75,stack65.jpg,stack85.jpg,low ,memory-nogoals,NULL
1682741709,6688cdb1ba17d5c932e1ca875fbfe727,PennController,10,0,experiment,NULL,PennController,9,_Header_,End,1682741669944,sonaID,undefined,7,stack,critical,C,75,stack65.jpg,stack85.jpg,low ,memory-nogoals,NULL
1682741709,6688cdb1ba17d5c932e1ca875fbfe727,PennController,10,0,experiment,NULL,Canvas,canvas6,Print,NA,1682741676581,sonaID,undefined,7,stack,critical,C,75,stack65.jpg,stack85.jpg,low ,memory-nogoals,NULL
1682741709,6688cdb1ba17d5c932e1ca875fbfe727,PennController,10,0,experiment,NULL,Video,progression,buffer,0.003223,1682741672461,sonaID,undefined,7,stack,critical,C,75,stack65.jpg,stack85.jpg,low ,memory-nogoals,NULL
1682741709,6688cdb1ba17d5c932e1ca875fbfe727,PennController,10,0,experiment,NULL,Selector,choice,Selection,option2,1682741677925,sonaID,undefined,7,stack,critical,C,75,stack65.jpg,stack85.jpg,low ,memory-nogoals,option1;option2
1682741709,6688cdb1ba17d5c932e1ca875fbfe727,PennController,10,0,experiment,NULL,PennController,9,_Trial_,End,1682741677927,sonaID,undefined,7,stack,critical,C,75,stack65.jpg,stack85.jpg,low ,memory-nogoals,NULL
1682741709,6688cdb1ba17d5c932e1ca875fbfe727,PennController,24,0,experiment,NULL,PennController,23,_Trial_,Start,1682741677929,sonaID,undefined,21,visit,filler,C,50,visit40.jpg,visit60.jpg,GoalA,memory-nogoals,NULL
1682741709,6688cdb1ba17d5c932e1ca875fbfe727,PennController,24,0,experiment,NULL,PennController,23,_Header_,Start,1682741677929,sonaID,undefined,21,visit,filler,C,50,visit40.jpg,visit60.jpg,GoalA,memory-nogoals,NULL
1682741709,6688cdb1ba17d5c932e1ca875fbfe727,PennController,24,0,experiment,NULL,PennController,23,_Header_,End,1682741677929,sonaID,undefined,21,visit,filler,C,50,visit40.jpg,visit60.jpg,GoalA,memory-nogoals,NULL
1682741709,6688cdb1ba17d5c932e1ca875fbfe727,PennController,24,0,experiment,NULL,Canvas,canvas6,Print,NA,1682741683580,sonaID,undefined,21,visit,filler,C,50,visit40.jpg,visit60.jpg,GoalA,memory-nogoals,NULL
1682741709,6688cdb1ba17d5c932e1ca875fbfe727,PennController,24,0,experiment,NULL,Video,progression,buffer,0.001975,1682741680446,sonaID,undefined,21,visit,filler,C,50,visit40.jpg,visit60.jpg,GoalA,memory-nogoals,NULL
1682741709,6688cdb1ba17d5c932e1ca875fbfe727,PennController,24,0,experiment,NULL,Selector,choice,Selection,option2,1682741684976,sonaID,undefined,21,visit,filler,C,50,visit40.jpg,visit60.jpg,GoalA,memory-nogoals,option1;option2
1682741709,6688cdb1ba17d5c932e1ca875fbfe727,PennController,24,0,experiment,NULL,PennController,23,_Trial_,End,1682741684978,sonaID,undefined,21,visit,filler,C,50,visit40.jpg,visit60.jpg,GoalA,memory-nogoals,NULL
1682741709,6688cdb1ba17d5c932e1ca875fbfe727,PennController,21,0,experiment,NULL,PennController,20,_Trial_,Start,1682741684979,sonaID,undefined,18,ball,critical,C,50,ball40.jpg,ball60.jpg,high,memory-nogoals,NULL
1682741709,6688cdb1ba17d5c932e1ca875fbfe727,PennController,21,0,experiment,NULL,PennController,20,_Header_,Start,1682741684979,sonaID,undefined,18,ball,critical,C,50,ball40.jpg,ball60.jpg,high,memory-nogoals,NULL
1682741709,6688cdb1ba17d5c932e1ca875fbfe727,PennController,21,0,experiment,NULL,PennController,20,_Header_,End,1682741684979,sonaID,undefined,18,ball,critical,C,50,ball40.jpg,ball60.jpg,high,memory-nogoals,NULL
1682741709,6688cdb1ba17d5c932e1ca875fbfe727,PennController,21,0,experiment,NULL,Canvas,canvas6,Print,NA,1682741690617,sonaID,undefined,18,ball,critical,C,50,ball40.jpg,ball60.jpg,high,memory-nogoals,NULL
1682741709,6688cdb1ba17d5c932e1ca875fbfe727,PennController,21,0,experiment,NULL,Video,progression,buffer,0.002063,1682741687495,sonaID,undefined,18,ball,critical,C,50,ball40.jpg,ball60.jpg,high,memory-nogoals,NULL
1682741709,6688cdb1ba17d5c932e1ca875fbfe727,PennController,21,0,experiment,NULL,Selector,choice,Selection,option2,1682741693024,sonaID,undefined,18,ball,critical,C,50,ball40.jpg,ball60.jpg,high,memory-nogoals,option1;option2
1682741709,6688cdb1ba17d5c932e1ca875fbfe727,PennController,21,0,experiment,NULL,PennController,20,_Trial_,End,1682741693026,sonaID,undefined,18,ball,critical,C,50,ball40.jpg,ball60.jpg,high,memory-nogoals,NULL
1682741709,6688cdb1ba17d5c932e1ca875fbfe727,PennController,28,0,experiment,NULL,PennController,27,_Trial_,Start,1682741693028,sonaID,undefined,25,house,filler,C,75,house65.jpg,house85.jpg,GoalA,memory-nogoals,NULL
1682741709,6688cdb1ba17d5c932e1ca875fbfe727,PennController,28,0,experiment,NULL,PennController,27,_Header_,Start,1682741693028,sonaID,undefined,25,house,filler,C,75,house65.jpg,house85.jpg,GoalA,memory-nogoals,NULL
1682741709,6688cdb1ba17d5c932e1ca875fbfe727,PennController,28,0,experiment,NULL,PennController,27,_Header_,End,1682741693028,sonaID,undefined,25,house,filler,C,75,house65.jpg,house85.jpg,GoalA,memory-nogoals,NULL
1682741709,6688cdb1ba17d5c932e1ca875fbfe727,PennController,28,0,experiment,NULL,Canvas,canvas6,Print,NA,1682741699671,sonaID,undefined,25,house,filler,C,75,house65.jpg,house85.jpg,GoalA,memory-nogoals,NULL
1682741709,6688cdb1ba17d5c932e1ca875fbfe727,PennController,28,0,experiment,NULL,Video,progression,buffer,0.002407,1682741695548,sonaID,undefined,25,house,filler,C,75,house65.jpg,house85.jpg,GoalA,memory-nogoals,NULL
1682741709,6688cdb1ba17d5c932e1ca875fbfe727,PennController,28,0,experiment,NULL,Selector,choice,Selection,option2,1682741701007,sonaID,undefined,25,house,filler,C,75,house65.jpg,house85.jpg,GoalA,memory-nogoals,option2;option1
1682741709,6688cdb1ba17d5c932e1ca875fbfe727,PennController,28,0,experiment,NULL,PennController,27,_Trial_,End,1682741701008,sonaID,undefined,25,house,filler,C,75,house65.jpg,house85.jpg,GoalA,memory-nogoals,NULL
1682741709,6688cdb1ba17d5c932e1ca875fbfe727,PennController,31,0,experiment,NULL,PennController,30,_Trial_,Start,1682741701009,sonaID,undefined,28,sort,filler,C,75,sort65.jpg,sort85.jpg,GoalB,memory-nogoals,NULL
1682741709,6688cdb1ba17d5c932e1ca875fbfe727,PennController,31,0,experiment,NULL,PennController,30,_Header_,Start,1682741701009,sonaID,undefined,28,sort,filler,C,75,sort65.jpg,sort85.jpg,GoalB,memory-nogoals,NULL
1682741709,6688cdb1ba17d5c932e1ca875fbfe727,PennController,31,0,experiment,NULL,PennController,30,_Header_,End,1682741701010,sonaID,undefined,28,sort,filler,C,75,sort65.jpg,sort85.jpg,GoalB,memory-nogoals,NULL
1682741709,6688cdb1ba17d5c932e1ca875fbfe727,PennController,31,0,experiment,NULL,Canvas,canvas6,Print,NA,1682741707637,sonaID,undefined,28,sort,filler,C,75,sort65.jpg,sort85.jpg,GoalB,memory-nogoals,NULL
1682741709,6688cdb1ba17d5c932e1ca875fbfe727,PennController,31,0,experiment,NULL,Video,progression,buffer,0.002999,1682741703525,sonaID,undefined,28,sort,filler,C,75,sort65.jpg,sort85.jpg,GoalB,memory-nogoals,NULL
1682741709,6688cdb1ba17d5c932e1ca875fbfe727,PennController,31,0,experiment,NULL,Selector,choice,Selection,option2,1682741709468,sonaID,undefined,28,sort,filler,C,75,sort65.jpg,sort85.jpg,GoalB,memory-nogoals,option2;option1
1682741709,6688cdb1ba17d5c932e1ca875fbfe727,PennController,31,0,experiment,NULL,PennController,30,_Trial_,End,1682741709470,sonaID,undefined,28,sort,filler,C,75,sort65.jpg,sort85.jpg,GoalB,memory-nogoals,NULL
