#
# Results on Saturday April 29 2023 19:31:54 UTC
# USER AGENT: Mozilla/5.0 (Windows NT 10.0; Win64; x64) AppleWebKit/537.36 (KHTML, like Gecko) Chrome/112.0.0.0 Safari/537.36 Edg/112.0.1722.58
# Design number was non-random = 22
#
# Columns below this comment are as follows:
# 1. Results reception time.
# 2. MD5 hash of participant's IP address.
# 3. Controller name.
# 4. Order number of item.
# 5. Inner element number.
# 6. Label.
# 7. Latin Square Group.
# 8. PennElementType.
# 9. PennElementName.
# 10. Parameter.
# 11. Value.
# 12. EventTime.
# 13. sonaID.
# 14. Comments.
1682796714,0313d6a545b7448594890eb446dd7eca,PennController,2,0,consent,NULL,PennController,0,_Trial_,Start,1682796371560,sonaID,NULL
1682796714,0313d6a545b7448594890eb446dd7eca,PennController,2,0,consent,NULL,PennController,0,_Header_,Start,1682796371560,sonaID,NULL
1682796714,0313d6a545b7448594890eb446dd7eca,PennController,2,0,consent,NULL,PennController,0,_Header_,End,1682796371560,sonaID,NULL
1682796714,0313d6a545b7448594890eb446dd7eca,PennController,2,0,consent,NULL,PennController,0,_Trial_,End,1682796376248,sonaID,NULL
# Columns below this comment are as follows:
# 14. ID.
# 15. Comments.
1682796714,0313d6a545b7448594890eb446dd7eca,PennController,3,0,intro,NULL,PennController,1,_Trial_,Start,1682796376249,sonaID,undefined,NULL
1682796714,0313d6a545b7448594890eb446dd7eca,PennController,3,0,intro,NULL,PennController,1,_Header_,Start,1682796376249,sonaID,undefined,NULL
1682796714,0313d6a545b7448594890eb446dd7eca,PennController,3,0,intro,NULL,PennController,1,_Header_,End,1682796376249,sonaID,undefined,NULL
1682796714,0313d6a545b7448594890eb446dd7eca,PennController,3,0,intro,NULL,TextInput,inputID,EnterReturn,76983109,1682796387942,sonaID,undefined,NULL
1682796714,0313d6a545b7448594890eb446dd7eca,PennController,3,0,intro,NULL,TextInput,inputID,Final,76983109,1682796387966,sonaID,undefined,NULL
1682796714,0313d6a545b7448594890eb446dd7eca,PennController,3,0,intro,NULL,TextInput,inputID,First,,1682796381401,sonaID,undefined,8
1682796714,0313d6a545b7448594890eb446dd7eca,PennController,3,0,intro,NULL,PennController,1,_Trial_,End,1682796387966,sonaID,undefined,NULL
# Columns below this comment are as follows:
# 15. item_number.
# 16. item.
# 17. type.
# 18. Group.
# 19. prog.
# 20. prev_image.
# 21. next_image.
# 22. height.
# 23. memory-nogoals.
# 24. Comments.
1682796714,0313d6a545b7448594890eb446dd7eca,PennController,28,0,experiment,NULL,PennController,27,_Trial_,Start,1682796387967,sonaID,undefined,25,house,filler,E,50,house40.jpg,house60.jpg,GoalA,memory-nogoals,NULL
1682796714,0313d6a545b7448594890eb446dd7eca,PennController,28,0,experiment,NULL,PennController,27,_Header_,Start,1682796387967,sonaID,undefined,25,house,filler,E,50,house40.jpg,house60.jpg,GoalA,memory-nogoals,NULL
1682796714,0313d6a545b7448594890eb446dd7eca,PennController,28,0,experiment,NULL,PennController,27,_Header_,End,1682796387967,sonaID,undefined,25,house,filler,E,50,house40.jpg,house60.jpg,GoalA,memory-nogoals,NULL
1682796714,0313d6a545b7448594890eb446dd7eca,PennController,28,0,experiment,NULL,Canvas,canvas6,Print,NA,1682796393712,sonaID,undefined,25,house,filler,E,50,house40.jpg,house60.jpg,GoalA,memory-nogoals,NULL
1682796714,0313d6a545b7448594890eb446dd7eca,PennController,28,0,experiment,NULL,Video,progression,buffer,0.006638,1682796390505,sonaID,undefined,25,house,filler,E,50,house40.jpg,house60.jpg,GoalA,memory-nogoals,NULL
1682796714,0313d6a545b7448594890eb446dd7eca,PennController,28,0,experiment,NULL,Selector,choice,Selection,option2,1682796396611,sonaID,undefined,25,house,filler,E,50,house40.jpg,house60.jpg,GoalA,memory-nogoals,option2;option1
1682796714,0313d6a545b7448594890eb446dd7eca,PennController,28,0,experiment,NULL,PennController,27,_Trial_,End,1682796396612,sonaID,undefined,25,house,filler,E,50,house40.jpg,house60.jpg,GoalA,memory-nogoals,NULL
1682796714,0313d6a545b7448594890eb446dd7eca,PennController,10,0,experiment,NULL,PennController,9,_Trial_,Start,1682796396613,sonaID,undefined,7,stack,critical,E,50,stack40.jpg,stack60.jpg,high,memory-nogoals,NULL
1682796714,0313d6a545b7448594890eb446dd7eca,PennController,10,0,experiment,NULL,PennController,9,_Header_,Start,1682796396613,sonaID,undefined,7,stack,critical,E,50,stack40.jpg,stack60.jpg,high,memory-nogoals,NULL
1682796714,0313d6a545b7448594890eb446dd7eca,PennController,10,0,experiment,NULL,PennController,9,_Header_,End,1682796396613,sonaID,undefined,7,stack,critical,E,50,stack40.jpg,stack60.jpg,high,memory-nogoals,NULL
1682796714,0313d6a545b7448594890eb446dd7eca,PennController,10,0,experiment,NULL,Canvas,canvas6,Print,NA,1682796402340,sonaID,undefined,7,stack,critical,E,50,stack40.jpg,stack60.jpg,high,memory-nogoals,NULL
1682796714,0313d6a545b7448594890eb446dd7eca,PennController,10,0,experiment,NULL,Video,progression,buffer,0.004664,1682796399132,sonaID,undefined,7,stack,critical,E,50,stack40.jpg,stack60.jpg,high,memory-nogoals,NULL
1682796714,0313d6a545b7448594890eb446dd7eca,PennController,10,0,experiment,NULL,Selector,choice,Selection,option2,1682796403553,sonaID,undefined,7,stack,critical,E,50,stack40.jpg,stack60.jpg,high,memory-nogoals,option1;option2
1682796714,0313d6a545b7448594890eb446dd7eca,PennController,10,0,experiment,NULL,PennController,9,_Trial_,End,1682796403554,sonaID,undefined,7,stack,critical,E,50,stack40.jpg,stack60.jpg,high,memory-nogoals,NULL
1682796714,0313d6a545b7448594890eb446dd7eca,PennController,32,0,experiment,NULL,PennController,31,_Trial_,Start,1682796403555,sonaID,undefined,29,frog,filler,E,75,frog65.jpg,frog85.jpg,GoalA,memory-nogoals,NULL
1682796714,0313d6a545b7448594890eb446dd7eca,PennController,32,0,experiment,NULL,PennController,31,_Header_,Start,1682796403555,sonaID,undefined,29,frog,filler,E,75,frog65.jpg,frog85.jpg,GoalA,memory-nogoals,NULL
1682796714,0313d6a545b7448594890eb446dd7eca,PennController,32,0,experiment,NULL,PennController,31,_Header_,End,1682796403555,sonaID,undefined,29,frog,filler,E,75,frog65.jpg,frog85.jpg,GoalA,memory-nogoals,NULL
1682796714,0313d6a545b7448594890eb446dd7eca,PennController,32,0,experiment,NULL,Canvas,canvas6,Print,NA,1682796410283,sonaID,undefined,29,frog,filler,E,75,frog65.jpg,frog85.jpg,GoalA,memory-nogoals,NULL
1682796714,0313d6a545b7448594890eb446dd7eca,PennController,32,0,experiment,NULL,Video,progression,buffer,0.004429,1682796406074,sonaID,undefined,29,frog,filler,E,75,frog65.jpg,frog85.jpg,GoalA,memory-nogoals,NULL
1682796714,0313d6a545b7448594890eb446dd7eca,PennController,32,0,experiment,NULL,Selector,choice,Selection,option2,1682796412463,sonaID,undefined,29,frog,filler,E,75,frog65.jpg,frog85.jpg,GoalA,memory-nogoals,option1;option2
1682796714,0313d6a545b7448594890eb446dd7eca,PennController,32,0,experiment,NULL,PennController,31,_Trial_,End,1682796412464,sonaID,undefined,29,frog,filler,E,75,frog65.jpg,frog85.jpg,GoalA,memory-nogoals,NULL
1682796714,0313d6a545b7448594890eb446dd7eca,PennController,9,0,experiment,NULL,PennController,8,_Trial_,Start,1682796412465,sonaID,undefined,6,flower,critical,E,25,flower15.jpg,flower35.jpg,low ,memory-nogoals,NULL
1682796714,0313d6a545b7448594890eb446dd7eca,PennController,9,0,experiment,NULL,PennController,8,_Header_,Start,1682796412465,sonaID,undefined,6,flower,critical,E,25,flower15.jpg,flower35.jpg,low ,memory-nogoals,NULL
1682796714,0313d6a545b7448594890eb446dd7eca,PennController,9,0,experiment,NULL,PennController,8,_Header_,End,1682796412465,sonaID,undefined,6,flower,critical,E,25,flower15.jpg,flower35.jpg,low ,memory-nogoals,NULL
1682796714,0313d6a545b7448594890eb446dd7eca,PennController,9,0,experiment,NULL,Canvas,canvas6,Print,NA,1682796417191,sonaID,undefined,6,flower,critical,E,25,flower15.jpg,flower35.jpg,low ,memory-nogoals,NULL
1682796714,0313d6a545b7448594890eb446dd7eca,PennController,9,0,experiment,NULL,Video,progression,buffer,0.006756,1682796414987,sonaID,undefined,6,flower,critical,E,25,flower15.jpg,flower35.jpg,low ,memory-nogoals,NULL
1682796714,0313d6a545b7448594890eb446dd7eca,PennController,9,0,experiment,NULL,Selector,choice,Selection,option2,1682796419208,sonaID,undefined,6,flower,critical,E,25,flower15.jpg,flower35.jpg,low ,memory-nogoals,option1;option2
1682796714,0313d6a545b7448594890eb446dd7eca,PennController,9,0,experiment,NULL,PennController,8,_Trial_,End,1682796419209,sonaID,undefined,6,flower,critical,E,25,flower15.jpg,flower35.jpg,low ,memory-nogoals,NULL
1682796714,0313d6a545b7448594890eb446dd7eca,PennController,12,0,experiment,NULL,PennController,11,_Trial_,Start,1682796419210,sonaID,undefined,9,cake,critical,E,25,cake15.jpg,cake33.jpg,high,memory-nogoals,NULL
1682796714,0313d6a545b7448594890eb446dd7eca,PennController,12,0,experiment,NULL,PennController,11,_Header_,Start,1682796419210,sonaID,undefined,9,cake,critical,E,25,cake15.jpg,cake33.jpg,high,memory-nogoals,NULL
1682796714,0313d6a545b7448594890eb446dd7eca,PennController,12,0,experiment,NULL,PennController,11,_Header_,End,1682796419210,sonaID,undefined,9,cake,critical,E,25,cake15.jpg,cake33.jpg,high,memory-nogoals,NULL
1682796714,0313d6a545b7448594890eb446dd7eca,PennController,12,0,experiment,NULL,Canvas,canvas6,Print,NA,1682796424545,sonaID,undefined,9,cake,critical,E,25,cake15.jpg,cake33.jpg,high,memory-nogoals,NULL
1682796714,0313d6a545b7448594890eb446dd7eca,PennController,12,0,experiment,NULL,Video,progression,buffer,0.004002,1682796421728,sonaID,undefined,9,cake,critical,E,25,cake15.jpg,cake33.jpg,high,memory-nogoals,NULL
1682796714,0313d6a545b7448594890eb446dd7eca,PennController,12,0,experiment,NULL,Selector,choice,Selection,option1,1682796425708,sonaID,undefined,9,cake,critical,E,25,cake15.jpg,cake33.jpg,high,memory-nogoals,option1;option2
1682796714,0313d6a545b7448594890eb446dd7eca,PennController,12,0,experiment,NULL,PennController,11,_Trial_,End,1682796425709,sonaID,undefined,9,cake,critical,E,25,cake15.jpg,cake33.jpg,high,memory-nogoals,NULL
1682796714,0313d6a545b7448594890eb446dd7eca,PennController,26,0,experiment,NULL,PennController,25,_Trial_,Start,1682796425710,sonaID,undefined,23,color,filler,E,75,color65.jpg,color85.jpg,GoalA,memory-nogoals,NULL
1682796714,0313d6a545b7448594890eb446dd7eca,PennController,26,0,experiment,NULL,PennController,25,_Header_,Start,1682796425710,sonaID,undefined,23,color,filler,E,75,color65.jpg,color85.jpg,GoalA,memory-nogoals,NULL
1682796714,0313d6a545b7448594890eb446dd7eca,PennController,26,0,experiment,NULL,PennController,25,_Header_,End,1682796425710,sonaID,undefined,23,color,filler,E,75,color65.jpg,color85.jpg,GoalA,memory-nogoals,NULL
1682796714,0313d6a545b7448594890eb446dd7eca,PennController,26,0,experiment,NULL,Canvas,canvas6,Print,NA,1682796432433,sonaID,undefined,23,color,filler,E,75,color65.jpg,color85.jpg,GoalA,memory-nogoals,NULL
1682796714,0313d6a545b7448594890eb446dd7eca,PennController,26,0,experiment,NULL,Video,progression,buffer,0.006515,1682796428231,sonaID,undefined,23,color,filler,E,75,color65.jpg,color85.jpg,GoalA,memory-nogoals,NULL
1682796714,0313d6a545b7448594890eb446dd7eca,PennController,26,0,experiment,NULL,Selector,choice,Selection,option2,1682796435280,sonaID,undefined,23,color,filler,E,75,color65.jpg,color85.jpg,GoalA,memory-nogoals,option1;option2
1682796714,0313d6a545b7448594890eb446dd7eca,PennController,26,0,experiment,NULL,PennController,25,_Trial_,End,1682796435281,sonaID,undefined,23,color,filler,E,75,color65.jpg,color85.jpg,GoalA,memory-nogoals,NULL
1682796714,0313d6a545b7448594890eb446dd7eca,PennController,27,0,experiment,NULL,PennController,26,_Trial_,Start,1682796435282,sonaID,undefined,24,match,filler,E,25,match15.jpg,match35.jpg,GoalB,memory-nogoals,NULL
1682796714,0313d6a545b7448594890eb446dd7eca,PennController,27,0,experiment,NULL,PennController,26,_Header_,Start,1682796435282,sonaID,undefined,24,match,filler,E,25,match15.jpg,match35.jpg,GoalB,memory-nogoals,NULL
1682796714,0313d6a545b7448594890eb446dd7eca,PennController,27,0,experiment,NULL,PennController,26,_Header_,End,1682796435282,sonaID,undefined,24,match,filler,E,25,match15.jpg,match35.jpg,GoalB,memory-nogoals,NULL
1682796714,0313d6a545b7448594890eb446dd7eca,PennController,27,0,experiment,NULL,Canvas,canvas6,Print,NA,1682796440011,sonaID,undefined,24,match,filler,E,25,match15.jpg,match35.jpg,GoalB,memory-nogoals,NULL
1682796714,0313d6a545b7448594890eb446dd7eca,PennController,27,0,experiment,NULL,Video,progression,buffer,0.008665,1682796437808,sonaID,undefined,24,match,filler,E,25,match15.jpg,match35.jpg,GoalB,memory-nogoals,NULL
1682796714,0313d6a545b7448594890eb446dd7eca,PennController,27,0,experiment,NULL,Selector,choice,Selection,option2,1682796441496,sonaID,undefined,24,match,filler,E,25,match15.jpg,match35.jpg,GoalB,memory-nogoals,option1;option2
1682796714,0313d6a545b7448594890eb446dd7eca,PennController,27,0,experiment,NULL,PennController,26,_Trial_,End,1682796441497,sonaID,undefined,24,match,filler,E,25,match15.jpg,match35.jpg,GoalB,memory-nogoals,NULL
1682796714,0313d6a545b7448594890eb446dd7eca,PennController,17,0,experiment,NULL,PennController,16,_Trial_,Start,1682796441498,sonaID,undefined,14,cover,critical,E,75,cover66.jpg,cover84.jpg,low ,memory-nogoals,NULL
1682796714,0313d6a545b7448594890eb446dd7eca,PennController,17,0,experiment,NULL,PennController,16,_Header_,Start,1682796441498,sonaID,undefined,14,cover,critical,E,75,cover66.jpg,cover84.jpg,low ,memory-nogoals,NULL
1682796714,0313d6a545b7448594890eb446dd7eca,PennController,17,0,experiment,NULL,PennController,16,_Header_,End,1682796441498,sonaID,undefined,14,cover,critical,E,75,cover66.jpg,cover84.jpg,low ,memory-nogoals,NULL
1682796714,0313d6a545b7448594890eb446dd7eca,PennController,17,0,experiment,NULL,Canvas,canvas6,Print,NA,1682796450224,sonaID,undefined,14,cover,critical,E,75,cover66.jpg,cover84.jpg,low ,memory-nogoals,NULL
1682796714,0313d6a545b7448594890eb446dd7eca,PennController,17,0,experiment,NULL,Video,progression,buffer,0.006361,1682796444016,sonaID,undefined,14,cover,critical,E,75,cover66.jpg,cover84.jpg,low ,memory-nogoals,NULL
1682796714,0313d6a545b7448594890eb446dd7eca,PennController,17,0,experiment,NULL,Selector,choice,Selection,option2,1682796453034,sonaID,undefined,14,cover,critical,E,75,cover66.jpg,cover84.jpg,low ,memory-nogoals,option2;option1
1682796714,0313d6a545b7448594890eb446dd7eca,PennController,17,0,experiment,NULL,PennController,16,_Trial_,End,1682796453035,sonaID,undefined,14,cover,critical,E,75,cover66.jpg,cover84.jpg,low ,memory-nogoals,NULL
1682796714,0313d6a545b7448594890eb446dd7eca,PennController,4,0,experiment,NULL,PennController,3,_Trial_,Start,1682796453036,sonaID,undefined,1,vase,critical,E,75,vase35.jpg,vase65.jpg,high,memory-nogoals,NULL
1682796714,0313d6a545b7448594890eb446dd7eca,PennController,4,0,experiment,NULL,PennController,3,_Header_,Start,1682796453036,sonaID,undefined,1,vase,critical,E,75,vase35.jpg,vase65.jpg,high,memory-nogoals,NULL
1682796714,0313d6a545b7448594890eb446dd7eca,PennController,4,0,experiment,NULL,PennController,3,_Header_,End,1682796453036,sonaID,undefined,1,vase,critical,E,75,vase35.jpg,vase65.jpg,high,memory-nogoals,NULL
1682796714,0313d6a545b7448594890eb446dd7eca,PennController,4,0,experiment,NULL,Canvas,canvas6,Print,NA,1682796459760,sonaID,undefined,1,vase,critical,E,75,vase35.jpg,vase65.jpg,high,memory-nogoals,NULL
1682796714,0313d6a545b7448594890eb446dd7eca,PennController,4,0,experiment,NULL,Video,progression,buffer,0.004663,1682796455552,sonaID,undefined,1,vase,critical,E,75,vase35.jpg,vase65.jpg,high,memory-nogoals,NULL
1682796714,0313d6a545b7448594890eb446dd7eca,PennController,4,0,experiment,NULL,Selector,choice,Selection,option2,1682796460756,sonaID,undefined,1,vase,critical,E,75,vase35.jpg,vase65.jpg,high,memory-nogoals,option2;option1
1682796714,0313d6a545b7448594890eb446dd7eca,PennController,4,0,experiment,NULL,PennController,3,_Trial_,End,1682796460757,sonaID,undefined,1,vase,critical,E,75,vase35.jpg,vase65.jpg,high,memory-nogoals,NULL
1682796714,0313d6a545b7448594890eb446dd7eca,PennController,25,0,experiment,NULL,PennController,24,_Trial_,Start,1682796460758,sonaID,undefined,22,wall,filler,E,50,wall40.jpg,wall60.jpg,GoalB,memory-nogoals,NULL
1682796714,0313d6a545b7448594890eb446dd7eca,PennController,25,0,experiment,NULL,PennController,24,_Header_,Start,1682796460758,sonaID,undefined,22,wall,filler,E,50,wall40.jpg,wall60.jpg,GoalB,memory-nogoals,NULL
1682796714,0313d6a545b7448594890eb446dd7eca,PennController,25,0,experiment,NULL,PennController,24,_Header_,End,1682796460758,sonaID,undefined,22,wall,filler,E,50,wall40.jpg,wall60.jpg,GoalB,memory-nogoals,NULL
1682796714,0313d6a545b7448594890eb446dd7eca,PennController,25,0,experiment,NULL,Canvas,canvas6,Print,NA,1682796466492,sonaID,undefined,22,wall,filler,E,50,wall40.jpg,wall60.jpg,GoalB,memory-nogoals,NULL
1682796714,0313d6a545b7448594890eb446dd7eca,PennController,25,0,experiment,NULL,Video,progression,buffer,0.003841,1682796463272,sonaID,undefined,22,wall,filler,E,50,wall40.jpg,wall60.jpg,GoalB,memory-nogoals,NULL
1682796714,0313d6a545b7448594890eb446dd7eca,PennController,25,0,experiment,NULL,Selector,choice,Selection,option2,1682796467355,sonaID,undefined,22,wall,filler,E,50,wall40.jpg,wall60.jpg,GoalB,memory-nogoals,option2;option1
1682796714,0313d6a545b7448594890eb446dd7eca,PennController,25,0,experiment,NULL,PennController,24,_Trial_,End,1682796467356,sonaID,undefined,22,wall,filler,E,50,wall40.jpg,wall60.jpg,GoalB,memory-nogoals,NULL
1682796714,0313d6a545b7448594890eb446dd7eca,PennController,18,0,experiment,NULL,PennController,17,_Trial_,Start,1682796467357,sonaID,undefined,15,zip,critical,E,25,zip15.jpg,zip35.jpg,high,memory-nogoals,NULL
1682796714,0313d6a545b7448594890eb446dd7eca,PennController,18,0,experiment,NULL,PennController,17,_Header_,Start,1682796467357,sonaID,undefined,15,zip,critical,E,25,zip15.jpg,zip35.jpg,high,memory-nogoals,NULL
1682796714,0313d6a545b7448594890eb446dd7eca,PennController,18,0,experiment,NULL,PennController,17,_Header_,End,1682796467357,sonaID,undefined,15,zip,critical,E,25,zip15.jpg,zip35.jpg,high,memory-nogoals,NULL
1682796714,0313d6a545b7448594890eb446dd7eca,PennController,18,0,experiment,NULL,Canvas,canvas6,Print,NA,1682796472078,sonaID,undefined,15,zip,critical,E,25,zip15.jpg,zip35.jpg,high,memory-nogoals,NULL
1682796714,0313d6a545b7448594890eb446dd7eca,PennController,18,0,experiment,NULL,Video,progression,buffer,0.003945,1682796469873,sonaID,undefined,15,zip,critical,E,25,zip15.jpg,zip35.jpg,high,memory-nogoals,NULL
1682796714,0313d6a545b7448594890eb446dd7eca,PennController,18,0,experiment,NULL,Selector,choice,Selection,option1,1682796475072,sonaID,undefined,15,zip,critical,E,25,zip15.jpg,zip35.jpg,high,memory-nogoals,option2;option1
1682796714,0313d6a545b7448594890eb446dd7eca,PennController,18,0,experiment,NULL,PennController,17,_Trial_,End,1682796475073,sonaID,undefined,15,zip,critical,E,25,zip15.jpg,zip35.jpg,high,memory-nogoals,NULL
1682796714,0313d6a545b7448594890eb446dd7eca,PennController,14,0,experiment,NULL,PennController,13,_Trial_,Start,1682796475074,sonaID,undefined,11,beads,critical,E,75,beads65.jpg,beads85.jpg,high,memory-nogoals,NULL
1682796714,0313d6a545b7448594890eb446dd7eca,PennController,14,0,experiment,NULL,PennController,13,_Header_,Start,1682796475074,sonaID,undefined,11,beads,critical,E,75,beads65.jpg,beads85.jpg,high,memory-nogoals,NULL
1682796714,0313d6a545b7448594890eb446dd7eca,PennController,14,0,experiment,NULL,PennController,13,_Header_,End,1682796475074,sonaID,undefined,11,beads,critical,E,75,beads65.jpg,beads85.jpg,high,memory-nogoals,NULL
1682796714,0313d6a545b7448594890eb446dd7eca,PennController,14,0,experiment,NULL,Canvas,canvas6,Print,NA,1682796481802,sonaID,undefined,11,beads,critical,E,75,beads65.jpg,beads85.jpg,high,memory-nogoals,NULL
1682796714,0313d6a545b7448594890eb446dd7eca,PennController,14,0,experiment,NULL,Video,progression,buffer,0.004779,1682796477594,sonaID,undefined,11,beads,critical,E,75,beads65.jpg,beads85.jpg,high,memory-nogoals,NULL
1682796714,0313d6a545b7448594890eb446dd7eca,PennController,14,0,experiment,NULL,Selector,choice,Selection,option2,1682796483126,sonaID,undefined,11,beads,critical,E,75,beads65.jpg,beads85.jpg,high,memory-nogoals,option2;option1
1682796714,0313d6a545b7448594890eb446dd7eca,PennController,14,0,experiment,NULL,PennController,13,_Trial_,End,1682796483127,sonaID,undefined,11,beads,critical,E,75,beads65.jpg,beads85.jpg,high,memory-nogoals,NULL
1682796714,0313d6a545b7448594890eb446dd7eca,PennController,22,0,experiment,NULL,PennController,21,_Trial_,Start,1682796483128,sonaID,undefined,19,cup,filler,E,50,cup40.jpg,cup60.jpg,GoalA,memory-nogoals,NULL
1682796714,0313d6a545b7448594890eb446dd7eca,PennController,22,0,experiment,NULL,PennController,21,_Header_,Start,1682796483128,sonaID,undefined,19,cup,filler,E,50,cup40.jpg,cup60.jpg,GoalA,memory-nogoals,NULL
1682796714,0313d6a545b7448594890eb446dd7eca,PennController,22,0,experiment,NULL,PennController,21,_Header_,End,1682796483128,sonaID,undefined,19,cup,filler,E,50,cup40.jpg,cup60.jpg,GoalA,memory-nogoals,NULL
1682796714,0313d6a545b7448594890eb446dd7eca,PennController,22,0,experiment,NULL,Canvas,canvas6,Print,NA,1682796488850,sonaID,undefined,19,cup,filler,E,50,cup40.jpg,cup60.jpg,GoalA,memory-nogoals,NULL
1682796714,0313d6a545b7448594890eb446dd7eca,PennController,22,0,experiment,NULL,Video,progression,buffer,0.00469,1682796485645,sonaID,undefined,19,cup,filler,E,50,cup40.jpg,cup60.jpg,GoalA,memory-nogoals,NULL
1682796714,0313d6a545b7448594890eb446dd7eca,PennController,22,0,experiment,NULL,Selector,choice,Selection,option1,1682796490233,sonaID,undefined,19,cup,filler,E,50,cup40.jpg,cup60.jpg,GoalA,memory-nogoals,option1;option2
1682796714,0313d6a545b7448594890eb446dd7eca,PennController,22,0,experiment,NULL,PennController,21,_Trial_,End,1682796490235,sonaID,undefined,19,cup,filler,E,50,cup40.jpg,cup60.jpg,GoalA,memory-nogoals,NULL
1682796714,0313d6a545b7448594890eb446dd7eca,PennController,29,0,experiment,NULL,PennController,28,_Trial_,Start,1682796490236,sonaID,undefined,26,sandwich,filler,E,75,sandwich65.jpg,sandwich85.jpg,GoalB,memory-nogoals,NULL
1682796714,0313d6a545b7448594890eb446dd7eca,PennController,29,0,experiment,NULL,PennController,28,_Header_,Start,1682796490236,sonaID,undefined,26,sandwich,filler,E,75,sandwich65.jpg,sandwich85.jpg,GoalB,memory-nogoals,NULL
1682796714,0313d6a545b7448594890eb446dd7eca,PennController,29,0,experiment,NULL,PennController,28,_Header_,End,1682796490236,sonaID,undefined,26,sandwich,filler,E,75,sandwich65.jpg,sandwich85.jpg,GoalB,memory-nogoals,NULL
1682796714,0313d6a545b7448594890eb446dd7eca,PennController,29,0,experiment,NULL,Canvas,canvas6,Print,NA,1682796496963,sonaID,undefined,26,sandwich,filler,E,75,sandwich65.jpg,sandwich85.jpg,GoalB,memory-nogoals,NULL
1682796714,0313d6a545b7448594890eb446dd7eca,PennController,29,0,experiment,NULL,Video,progression,buffer,0.004833,1682796492756,sonaID,undefined,26,sandwich,filler,E,75,sandwich65.jpg,sandwich85.jpg,GoalB,memory-nogoals,NULL
1682796714,0313d6a545b7448594890eb446dd7eca,PennController,29,0,experiment,NULL,Selector,choice,Selection,option2,1682796498036,sonaID,undefined,26,sandwich,filler,E,75,sandwich65.jpg,sandwich85.jpg,GoalB,memory-nogoals,option1;option2
1682796714,0313d6a545b7448594890eb446dd7eca,PennController,29,0,experiment,NULL,PennController,28,_Trial_,End,1682796498036,sonaID,undefined,26,sandwich,filler,E,75,sandwich65.jpg,sandwich85.jpg,GoalB,memory-nogoals,NULL
1682796714,0313d6a545b7448594890eb446dd7eca,PennController,21,0,experiment,NULL,PennController,20,_Trial_,Start,1682796498038,sonaID,undefined,18,ball,critical,E,25,ball15.jpg,ball35.jpg,low ,memory-nogoals,NULL
1682796714,0313d6a545b7448594890eb446dd7eca,PennController,21,0,experiment,NULL,PennController,20,_Header_,Start,1682796498038,sonaID,undefined,18,ball,critical,E,25,ball15.jpg,ball35.jpg,low ,memory-nogoals,NULL
1682796714,0313d6a545b7448594890eb446dd7eca,PennController,21,0,experiment,NULL,PennController,20,_Header_,End,1682796498038,sonaID,undefined,18,ball,critical,E,25,ball15.jpg,ball35.jpg,low ,memory-nogoals,NULL
1682796714,0313d6a545b7448594890eb446dd7eca,PennController,21,0,experiment,NULL,Canvas,canvas6,Print,NA,1682796502765,sonaID,undefined,18,ball,critical,E,25,ball15.jpg,ball35.jpg,low ,memory-nogoals,NULL
1682796714,0313d6a545b7448594890eb446dd7eca,PennController,21,0,experiment,NULL,Video,progression,buffer,0.004423,1682796500557,sonaID,undefined,18,ball,critical,E,25,ball15.jpg,ball35.jpg,low ,memory-nogoals,NULL
1682796714,0313d6a545b7448594890eb446dd7eca,PennController,21,0,experiment,NULL,Selector,choice,Selection,option2,1682796503538,sonaID,undefined,18,ball,critical,E,25,ball15.jpg,ball35.jpg,low ,memory-nogoals,option2;option1
1682796714,0313d6a545b7448594890eb446dd7eca,PennController,21,0,experiment,NULL,PennController,20,_Trial_,End,1682796503539,sonaID,undefined,18,ball,critical,E,25,ball15.jpg,ball35.jpg,low ,memory-nogoals,NULL
1682796714,0313d6a545b7448594890eb446dd7eca,PennController,16,0,experiment,NULL,PennController,15,_Trial_,Start,1682796503540,sonaID,undefined,13,mix,critical,E,50,mix40.jpg,mix60.jpg,high,memory-nogoals,NULL
1682796714,0313d6a545b7448594890eb446dd7eca,PennController,16,0,experiment,NULL,PennController,15,_Header_,Start,1682796503540,sonaID,undefined,13,mix,critical,E,50,mix40.jpg,mix60.jpg,high,memory-nogoals,NULL
1682796714,0313d6a545b7448594890eb446dd7eca,PennController,16,0,experiment,NULL,PennController,15,_Header_,End,1682796503540,sonaID,undefined,13,mix,critical,E,50,mix40.jpg,mix60.jpg,high,memory-nogoals,NULL
1682796714,0313d6a545b7448594890eb446dd7eca,PennController,16,0,experiment,NULL,Canvas,canvas6,Print,NA,1682796509266,sonaID,undefined,13,mix,critical,E,50,mix40.jpg,mix60.jpg,high,memory-nogoals,NULL
1682796714,0313d6a545b7448594890eb446dd7eca,PennController,16,0,experiment,NULL,Video,progression,buffer,0.003841,1682796506057,sonaID,undefined,13,mix,critical,E,50,mix40.jpg,mix60.jpg,high,memory-nogoals,NULL
1682796714,0313d6a545b7448594890eb446dd7eca,PennController,16,0,experiment,NULL,Selector,choice,Selection,option2,1682796510588,sonaID,undefined,13,mix,critical,E,50,mix40.jpg,mix60.jpg,high,memory-nogoals,option2;option1
1682796714,0313d6a545b7448594890eb446dd7eca,PennController,16,0,experiment,NULL,PennController,15,_Trial_,End,1682796510589,sonaID,undefined,13,mix,critical,E,50,mix40.jpg,mix60.jpg,high,memory-nogoals,NULL
1682796714,0313d6a545b7448594890eb446dd7eca,PennController,30,0,experiment,NULL,PennController,29,_PreloadFailed_,fixation.png,1682796570609,sonaID,undefined,27,rice,filler,E,25,square15.jpg,square35.jpg,GoalA,memory-nogoals,NULL
1682796714,0313d6a545b7448594890eb446dd7eca,PennController,30,0,experiment,NULL,PennController,29,_PreloadFailed_,https://raw.githubusercontent.com/karenwli/rep-momentum/main/rice/rice00.jpg,1682796570609,sonaID,undefined,27,rice,filler,E,25,square15.jpg,square35.jpg,GoalA,memory-nogoals,NULL
1682796714,0313d6a545b7448594890eb446dd7eca,PennController,30,0,experiment,NULL,PennController,29,_PreloadFailed_,https://video.wixstatic.com/video/7cb05b_7d016bdcb2fc4c0e9f9b8199c36c44b8/144p/mp4/file.mp4,1682796570609,sonaID,undefined,27,rice,filler,E,25,square15.jpg,square35.jpg,GoalA,memory-nogoals,NULL
1682796714,0313d6a545b7448594890eb446dd7eca,PennController,30,0,experiment,NULL,PennController,29,_Trial_,Start,1682796570609,sonaID,undefined,27,rice,filler,E,25,square15.jpg,square35.jpg,GoalA,memory-nogoals,NULL
1682796714,0313d6a545b7448594890eb446dd7eca,PennController,30,0,experiment,NULL,PennController,29,_Header_,Start,1682796570609,sonaID,undefined,27,rice,filler,E,25,square15.jpg,square35.jpg,GoalA,memory-nogoals,NULL
1682796714,0313d6a545b7448594890eb446dd7eca,PennController,30,0,experiment,NULL,PennController,29,_Header_,End,1682796570609,sonaID,undefined,27,rice,filler,E,25,square15.jpg,square35.jpg,GoalA,memory-nogoals,NULL
1682796714,0313d6a545b7448594890eb446dd7eca,PennController,30,0,experiment,NULL,Canvas,canvas6,Print,NA,1682796575338,sonaID,undefined,27,rice,filler,E,25,square15.jpg,square35.jpg,GoalA,memory-nogoals,NULL
1682796714,0313d6a545b7448594890eb446dd7eca,PennController,30,0,experiment,NULL,Video,progression,buffer,0.005562,1682796573133,sonaID,undefined,27,rice,filler,E,25,square15.jpg,square35.jpg,GoalA,memory-nogoals,NULL
1682796714,0313d6a545b7448594890eb446dd7eca,PennController,30,0,experiment,NULL,Selector,choice,Selection,option1,1682796625006,sonaID,undefined,27,rice,filler,E,25,square15.jpg,square35.jpg,GoalA,memory-nogoals,option1;option2
1682796714,0313d6a545b7448594890eb446dd7eca,PennController,30,0,experiment,NULL,PennController,29,_Trial_,End,1682796625007,sonaID,undefined,27,rice,filler,E,25,square15.jpg,square35.jpg,GoalA,memory-nogoals,NULL
1682796714,0313d6a545b7448594890eb446dd7eca,PennController,7,0,experiment,NULL,PennController,6,_Trial_,Start,1682796625008,sonaID,undefined,4,candy,critical,E,50,candy40.jpg,candy60.jpg,low ,memory-nogoals,NULL
1682796714,0313d6a545b7448594890eb446dd7eca,PennController,7,0,experiment,NULL,PennController,6,_Header_,Start,1682796625008,sonaID,undefined,4,candy,critical,E,50,candy40.jpg,candy60.jpg,low ,memory-nogoals,NULL
1682796714,0313d6a545b7448594890eb446dd7eca,PennController,7,0,experiment,NULL,PennController,6,_Header_,End,1682796625008,sonaID,undefined,4,candy,critical,E,50,candy40.jpg,candy60.jpg,low ,memory-nogoals,NULL
1682796714,0313d6a545b7448594890eb446dd7eca,PennController,7,0,experiment,NULL,Canvas,canvas6,Print,NA,1682796630727,sonaID,undefined,4,candy,critical,E,50,candy40.jpg,candy60.jpg,low ,memory-nogoals,NULL
1682796714,0313d6a545b7448594890eb446dd7eca,PennController,7,0,experiment,NULL,Video,progression,buffer,0.004123,1682796627523,sonaID,undefined,4,candy,critical,E,50,candy40.jpg,candy60.jpg,low ,memory-nogoals,NULL
1682796714,0313d6a545b7448594890eb446dd7eca,PennController,7,0,experiment,NULL,Selector,choice,Selection,option1,1682796632053,sonaID,undefined,4,candy,critical,E,50,candy40.jpg,candy60.jpg,low ,memory-nogoals,option2;option1
1682796714,0313d6a545b7448594890eb446dd7eca,PennController,7,0,experiment,NULL,PennController,6,_Trial_,End,1682796632054,sonaID,undefined,4,candy,critical,E,50,candy40.jpg,candy60.jpg,low ,memory-nogoals,NULL
1682796714,0313d6a545b7448594890eb446dd7eca,PennController,6,0,experiment,NULL,PennController,5,_Trial_,Start,1682796632054,sonaID,undefined,3,clean,critical,E,25,clean15.jpg,clean35.jpg,high,memory-nogoals,NULL
1682796714,0313d6a545b7448594890eb446dd7eca,PennController,6,0,experiment,NULL,PennController,5,_Header_,Start,1682796632054,sonaID,undefined,3,clean,critical,E,25,clean15.jpg,clean35.jpg,high,memory-nogoals,NULL
1682796714,0313d6a545b7448594890eb446dd7eca,PennController,6,0,experiment,NULL,PennController,5,_Header_,End,1682796632054,sonaID,undefined,3,clean,critical,E,25,clean15.jpg,clean35.jpg,high,memory-nogoals,NULL
1682796714,0313d6a545b7448594890eb446dd7eca,PennController,6,0,experiment,NULL,Canvas,canvas6,Print,NA,1682796636796,sonaID,undefined,3,clean,critical,E,25,clean15.jpg,clean35.jpg,high,memory-nogoals,NULL
1682796714,0313d6a545b7448594890eb446dd7eca,PennController,6,0,experiment,NULL,Video,progression,buffer,0.004403,1682796634572,sonaID,undefined,3,clean,critical,E,25,clean15.jpg,clean35.jpg,high,memory-nogoals,NULL
1682796714,0313d6a545b7448594890eb446dd7eca,PennController,6,0,experiment,NULL,Selector,choice,Selection,option2,1682796637928,sonaID,undefined,3,clean,critical,E,25,clean15.jpg,clean35.jpg,high,memory-nogoals,option2;option1
1682796714,0313d6a545b7448594890eb446dd7eca,PennController,6,0,experiment,NULL,PennController,5,_Trial_,End,1682796637929,sonaID,undefined,3,clean,critical,E,25,clean15.jpg,clean35.jpg,high,memory-nogoals,NULL
1682796714,0313d6a545b7448594890eb446dd7eca,PennController,8,0,experiment,NULL,PennController,7,_Trial_,Start,1682796637929,sonaID,undefined,5,book,critical,E,75,book65.jpg,book85.jpg,high,memory-nogoals,NULL
1682796714,0313d6a545b7448594890eb446dd7eca,PennController,8,0,experiment,NULL,PennController,7,_Header_,Start,1682796637929,sonaID,undefined,5,book,critical,E,75,book65.jpg,book85.jpg,high,memory-nogoals,NULL
1682796714,0313d6a545b7448594890eb446dd7eca,PennController,8,0,experiment,NULL,PennController,7,_Header_,End,1682796637929,sonaID,undefined,5,book,critical,E,75,book65.jpg,book85.jpg,high,memory-nogoals,NULL
1682796714,0313d6a545b7448594890eb446dd7eca,PennController,8,0,experiment,NULL,Canvas,canvas6,Print,NA,1682796644653,sonaID,undefined,5,book,critical,E,75,book65.jpg,book85.jpg,high,memory-nogoals,NULL
1682796714,0313d6a545b7448594890eb446dd7eca,PennController,8,0,experiment,NULL,Video,progression,buffer,0.004485,1682796640447,sonaID,undefined,5,book,critical,E,75,book65.jpg,book85.jpg,high,memory-nogoals,NULL
1682796714,0313d6a545b7448594890eb446dd7eca,PennController,8,0,experiment,NULL,Selector,choice,Selection,option1,1682796645703,sonaID,undefined,5,book,critical,E,75,book65.jpg,book85.jpg,high,memory-nogoals,option1;option2
1682796714,0313d6a545b7448594890eb446dd7eca,PennController,8,0,experiment,NULL,PennController,7,_Trial_,End,1682796645704,sonaID,undefined,5,book,critical,E,75,book65.jpg,book85.jpg,high,memory-nogoals,NULL
1682796714,0313d6a545b7448594890eb446dd7eca,PennController,31,0,experiment,NULL,PennController,30,_Trial_,Start,1682796645704,sonaID,undefined,28,sort,filler,E,50,sort40.jpg,sort60.jpg,GoalB,memory-nogoals,NULL
1682796714,0313d6a545b7448594890eb446dd7eca,PennController,31,0,experiment,NULL,PennController,30,_Header_,Start,1682796645704,sonaID,undefined,28,sort,filler,E,50,sort40.jpg,sort60.jpg,GoalB,memory-nogoals,NULL
1682796714,0313d6a545b7448594890eb446dd7eca,PennController,31,0,experiment,NULL,PennController,30,_Header_,End,1682796645704,sonaID,undefined,28,sort,filler,E,50,sort40.jpg,sort60.jpg,GoalB,memory-nogoals,NULL
1682796714,0313d6a545b7448594890eb446dd7eca,PennController,31,0,experiment,NULL,Canvas,canvas6,Print,NA,1682796651438,sonaID,undefined,28,sort,filler,E,50,sort40.jpg,sort60.jpg,GoalB,memory-nogoals,NULL
1682796714,0313d6a545b7448594890eb446dd7eca,PennController,31,0,experiment,NULL,Video,progression,buffer,0.004518,1682796648223,sonaID,undefined,28,sort,filler,E,50,sort40.jpg,sort60.jpg,GoalB,memory-nogoals,NULL
1682796714,0313d6a545b7448594890eb446dd7eca,PennController,31,0,experiment,NULL,Selector,choice,Selection,option2,1682796652565,sonaID,undefined,28,sort,filler,E,50,sort40.jpg,sort60.jpg,GoalB,memory-nogoals,option2;option1
1682796714,0313d6a545b7448594890eb446dd7eca,PennController,31,0,experiment,NULL,PennController,30,_Trial_,End,1682796652565,sonaID,undefined,28,sort,filler,E,50,sort40.jpg,sort60.jpg,GoalB,memory-nogoals,NULL
1682796714,0313d6a545b7448594890eb446dd7eca,PennController,23,0,experiment,NULL,PennController,22,_Trial_,Start,1682796652567,sonaID,undefined,20,cat,filler,E,75,cat65.jpg,cat85.jpg,GoalB,memory-nogoals,NULL
1682796714,0313d6a545b7448594890eb446dd7eca,PennController,23,0,experiment,NULL,PennController,22,_Header_,Start,1682796652567,sonaID,undefined,20,cat,filler,E,75,cat65.jpg,cat85.jpg,GoalB,memory-nogoals,NULL
1682796714,0313d6a545b7448594890eb446dd7eca,PennController,23,0,experiment,NULL,PennController,22,_Header_,End,1682796652567,sonaID,undefined,20,cat,filler,E,75,cat65.jpg,cat85.jpg,GoalB,memory-nogoals,NULL
1682796714,0313d6a545b7448594890eb446dd7eca,PennController,23,0,experiment,NULL,Canvas,canvas6,Print,NA,1682796659297,sonaID,undefined,20,cat,filler,E,75,cat65.jpg,cat85.jpg,GoalB,memory-nogoals,NULL
1682796714,0313d6a545b7448594890eb446dd7eca,PennController,23,0,experiment,NULL,Video,progression,buffer,0.005028,1682796655090,sonaID,undefined,20,cat,filler,E,75,cat65.jpg,cat85.jpg,GoalB,memory-nogoals,NULL
1682796714,0313d6a545b7448594890eb446dd7eca,PennController,23,0,experiment,NULL,Selector,choice,Selection,option2,1682796660791,sonaID,undefined,20,cat,filler,E,75,cat65.jpg,cat85.jpg,GoalB,memory-nogoals,option1;option2
1682796714,0313d6a545b7448594890eb446dd7eca,PennController,23,0,experiment,NULL,PennController,22,_Trial_,End,1682796660792,sonaID,undefined,20,cat,filler,E,75,cat65.jpg,cat85.jpg,GoalB,memory-nogoals,NULL
1682796714,0313d6a545b7448594890eb446dd7eca,PennController,5,0,experiment,NULL,PennController,4,_Trial_,Start,1682796660793,sonaID,undefined,2,door,critical,E,75,door65.jpg,door85.jpg,low ,memory-nogoals,NULL
1682796714,0313d6a545b7448594890eb446dd7eca,PennController,5,0,experiment,NULL,PennController,4,_Header_,Start,1682796660793,sonaID,undefined,2,door,critical,E,75,door65.jpg,door85.jpg,low ,memory-nogoals,NULL
1682796714,0313d6a545b7448594890eb446dd7eca,PennController,5,0,experiment,NULL,PennController,4,_Header_,End,1682796660793,sonaID,undefined,2,door,critical,E,75,door65.jpg,door85.jpg,low ,memory-nogoals,NULL
1682796714,0313d6a545b7448594890eb446dd7eca,PennController,5,0,experiment,NULL,Canvas,canvas6,Print,NA,1682796667568,sonaID,undefined,2,door,critical,E,75,door65.jpg,door85.jpg,low ,memory-nogoals,NULL
1682796714,0313d6a545b7448594890eb446dd7eca,PennController,5,0,experiment,NULL,Video,progression,buffer,0,1682796663312,sonaID,undefined,2,door,critical,E,75,door65.jpg,door85.jpg,low ,memory-nogoals,NULL
1682796714,0313d6a545b7448594890eb446dd7eca,PennController,5,0,experiment,NULL,Selector,choice,Selection,option2,1682796668644,sonaID,undefined,2,door,critical,E,75,door65.jpg,door85.jpg,low ,memory-nogoals,option2;option1
1682796714,0313d6a545b7448594890eb446dd7eca,PennController,5,0,experiment,NULL,PennController,4,_Trial_,End,1682796668645,sonaID,undefined,2,door,critical,E,75,door65.jpg,door85.jpg,low ,memory-nogoals,NULL
1682796714,0313d6a545b7448594890eb446dd7eca,PennController,15,0,experiment,NULL,PennController,14,_Trial_,Start,1682796668646,sonaID,undefined,12,erase,critical,E,25,erase15.jpg,erase33.jpg,low ,memory-nogoals,NULL
1682796714,0313d6a545b7448594890eb446dd7eca,PennController,15,0,experiment,NULL,PennController,14,_Header_,Start,1682796668646,sonaID,undefined,12,erase,critical,E,25,erase15.jpg,erase33.jpg,low ,memory-nogoals,NULL
1682796714,0313d6a545b7448594890eb446dd7eca,PennController,15,0,experiment,NULL,PennController,14,_Header_,End,1682796668646,sonaID,undefined,12,erase,critical,E,25,erase15.jpg,erase33.jpg,low ,memory-nogoals,NULL
1682796714,0313d6a545b7448594890eb446dd7eca,PennController,15,0,experiment,NULL,Canvas,canvas6,Print,NA,1682796673980,sonaID,undefined,12,erase,critical,E,25,erase15.jpg,erase33.jpg,low ,memory-nogoals,NULL
1682796714,0313d6a545b7448594890eb446dd7eca,PennController,15,0,experiment,NULL,Video,progression,buffer,0.005738,1682796671166,sonaID,undefined,12,erase,critical,E,25,erase15.jpg,erase33.jpg,low ,memory-nogoals,NULL
1682796714,0313d6a545b7448594890eb446dd7eca,PennController,15,0,experiment,NULL,Selector,choice,Selection,option2,1682796675276,sonaID,undefined,12,erase,critical,E,25,erase15.jpg,erase33.jpg,low ,memory-nogoals,option1;option2
1682796714,0313d6a545b7448594890eb446dd7eca,PennController,15,0,experiment,NULL,PennController,14,_Trial_,End,1682796675277,sonaID,undefined,12,erase,critical,E,25,erase15.jpg,erase33.jpg,low ,memory-nogoals,NULL
1682796714,0313d6a545b7448594890eb446dd7eca,PennController,19,0,experiment,NULL,PennController,18,_Trial_,Start,1682796675277,sonaID,undefined,16,blinds,critical,E,50,blinds42.jpg,blinds60.jpg,low ,memory-nogoals,NULL
1682796714,0313d6a545b7448594890eb446dd7eca,PennController,19,0,experiment,NULL,PennController,18,_Header_,Start,1682796675277,sonaID,undefined,16,blinds,critical,E,50,blinds42.jpg,blinds60.jpg,low ,memory-nogoals,NULL
1682796714,0313d6a545b7448594890eb446dd7eca,PennController,19,0,experiment,NULL,PennController,18,_Header_,End,1682796675277,sonaID,undefined,16,blinds,critical,E,50,blinds42.jpg,blinds60.jpg,low ,memory-nogoals,NULL
1682796714,0313d6a545b7448594890eb446dd7eca,PennController,19,0,experiment,NULL,Canvas,canvas6,Print,NA,1682796682414,sonaID,undefined,16,blinds,critical,E,50,blinds42.jpg,blinds60.jpg,low ,memory-nogoals,NULL
1682796714,0313d6a545b7448594890eb446dd7eca,PennController,19,0,experiment,NULL,Video,progression,buffer,0.003937,1682796677798,sonaID,undefined,16,blinds,critical,E,50,blinds42.jpg,blinds60.jpg,low ,memory-nogoals,NULL
1682796714,0313d6a545b7448594890eb446dd7eca,PennController,19,0,experiment,NULL,Selector,choice,Selection,option1,1682796683572,sonaID,undefined,16,blinds,critical,E,50,blinds42.jpg,blinds60.jpg,low ,memory-nogoals,option1;option2
1682796714,0313d6a545b7448594890eb446dd7eca,PennController,19,0,experiment,NULL,PennController,18,_Trial_,End,1682796683572,sonaID,undefined,16,blinds,critical,E,50,blinds42.jpg,blinds60.jpg,low ,memory-nogoals,NULL
1682796714,0313d6a545b7448594890eb446dd7eca,PennController,11,0,experiment,NULL,PennController,10,_Trial_,Start,1682796683573,sonaID,undefined,8,cucumber,critical,E,75,cucumber66.jpg,cucumber84.jpg,low ,memory-nogoals,NULL
1682796714,0313d6a545b7448594890eb446dd7eca,PennController,11,0,experiment,NULL,PennController,10,_Header_,Start,1682796683573,sonaID,undefined,8,cucumber,critical,E,75,cucumber66.jpg,cucumber84.jpg,low ,memory-nogoals,NULL
1682796714,0313d6a545b7448594890eb446dd7eca,PennController,11,0,experiment,NULL,PennController,10,_Header_,End,1682796683573,sonaID,undefined,8,cucumber,critical,E,75,cucumber66.jpg,cucumber84.jpg,low ,memory-nogoals,NULL
1682796714,0313d6a545b7448594890eb446dd7eca,PennController,11,0,experiment,NULL,Canvas,canvas6,Print,NA,1682796692303,sonaID,undefined,8,cucumber,critical,E,75,cucumber66.jpg,cucumber84.jpg,low ,memory-nogoals,NULL
1682796714,0313d6a545b7448594890eb446dd7eca,PennController,11,0,experiment,NULL,Video,progression,buffer,0.00646,1682796686097,sonaID,undefined,8,cucumber,critical,E,75,cucumber66.jpg,cucumber84.jpg,low ,memory-nogoals,NULL
1682796714,0313d6a545b7448594890eb446dd7eca,PennController,11,0,experiment,NULL,Selector,choice,Selection,option1,1682796693575,sonaID,undefined,8,cucumber,critical,E,75,cucumber66.jpg,cucumber84.jpg,low ,memory-nogoals,option1;option2
1682796714,0313d6a545b7448594890eb446dd7eca,PennController,11,0,experiment,NULL,PennController,10,_Trial_,End,1682796693576,sonaID,undefined,8,cucumber,critical,E,75,cucumber66.jpg,cucumber84.jpg,low ,memory-nogoals,NULL
1682796714,0313d6a545b7448594890eb446dd7eca,PennController,13,0,experiment,NULL,PennController,12,_Trial_,Start,1682796693576,sonaID,undefined,10,train,critical,E,50,train40.jpg,train60.jpg,low ,memory-nogoals,NULL
1682796714,0313d6a545b7448594890eb446dd7eca,PennController,13,0,experiment,NULL,PennController,12,_Header_,Start,1682796693576,sonaID,undefined,10,train,critical,E,50,train40.jpg,train60.jpg,low ,memory-nogoals,NULL
1682796714,0313d6a545b7448594890eb446dd7eca,PennController,13,0,experiment,NULL,PennController,12,_Header_,End,1682796693576,sonaID,undefined,10,train,critical,E,50,train40.jpg,train60.jpg,low ,memory-nogoals,NULL
1682796714,0313d6a545b7448594890eb446dd7eca,PennController,13,0,experiment,NULL,Canvas,canvas6,Print,NA,1682796699321,sonaID,undefined,10,train,critical,E,50,train40.jpg,train60.jpg,low ,memory-nogoals,NULL
1682796714,0313d6a545b7448594890eb446dd7eca,PennController,13,0,experiment,NULL,Video,progression,buffer,0.004777,1682796696097,sonaID,undefined,10,train,critical,E,50,train40.jpg,train60.jpg,low ,memory-nogoals,NULL
1682796714,0313d6a545b7448594890eb446dd7eca,PennController,13,0,experiment,NULL,Selector,choice,Selection,option2,1682796700345,sonaID,undefined,10,train,critical,E,50,train40.jpg,train60.jpg,low ,memory-nogoals,option2;option1
1682796714,0313d6a545b7448594890eb446dd7eca,PennController,13,0,experiment,NULL,PennController,12,_Trial_,End,1682796700346,sonaID,undefined,10,train,critical,E,50,train40.jpg,train60.jpg,low ,memory-nogoals,NULL
1682796714,0313d6a545b7448594890eb446dd7eca,PennController,24,0,experiment,NULL,PennController,23,_Trial_,Start,1682796700347,sonaID,undefined,21,visit,filler,E,25,visit15.jpg,visit35.jpg,GoalA,memory-nogoals,NULL
1682796714,0313d6a545b7448594890eb446dd7eca,PennController,24,0,experiment,NULL,PennController,23,_Header_,Start,1682796700347,sonaID,undefined,21,visit,filler,E,25,visit15.jpg,visit35.jpg,GoalA,memory-nogoals,NULL
1682796714,0313d6a545b7448594890eb446dd7eca,PennController,24,0,experiment,NULL,PennController,23,_Header_,End,1682796700347,sonaID,undefined,21,visit,filler,E,25,visit15.jpg,visit35.jpg,GoalA,memory-nogoals,NULL
1682796714,0313d6a545b7448594890eb446dd7eca,PennController,24,0,experiment,NULL,Canvas,canvas6,Print,NA,1682796705085,sonaID,undefined,21,visit,filler,E,25,visit15.jpg,visit35.jpg,GoalA,memory-nogoals,NULL
1682796714,0313d6a545b7448594890eb446dd7eca,PennController,24,0,experiment,NULL,Video,progression,buffer,0.006865,1682796702868,sonaID,undefined,21,visit,filler,E,25,visit15.jpg,visit35.jpg,GoalA,memory-nogoals,NULL
1682796714,0313d6a545b7448594890eb446dd7eca,PennController,24,0,experiment,NULL,Selector,choice,Selection,option2,1682796706337,sonaID,undefined,21,visit,filler,E,25,visit15.jpg,visit35.jpg,GoalA,memory-nogoals,option2;option1
1682796714,0313d6a545b7448594890eb446dd7eca,PennController,24,0,experiment,NULL,PennController,23,_Trial_,End,1682796706337,sonaID,undefined,21,visit,filler,E,25,visit15.jpg,visit35.jpg,GoalA,memory-nogoals,NULL
1682796714,0313d6a545b7448594890eb446dd7eca,PennController,20,0,experiment,NULL,PennController,19,_Trial_,Start,1682796706338,sonaID,undefined,17,roll,critical,E,75,roll65.jpg,roll85.jpg,high,memory-nogoals,NULL
1682796714,0313d6a545b7448594890eb446dd7eca,PennController,20,0,experiment,NULL,PennController,19,_Header_,Start,1682796706338,sonaID,undefined,17,roll,critical,E,75,roll65.jpg,roll85.jpg,high,memory-nogoals,NULL
1682796714,0313d6a545b7448594890eb446dd7eca,PennController,20,0,experiment,NULL,PennController,19,_Header_,End,1682796706338,sonaID,undefined,17,roll,critical,E,75,roll65.jpg,roll85.jpg,high,memory-nogoals,NULL
1682796714,0313d6a545b7448594890eb446dd7eca,PennController,20,0,experiment,NULL,Canvas,canvas6,Print,NA,1682796713067,sonaID,undefined,17,roll,critical,E,75,roll65.jpg,roll85.jpg,high,memory-nogoals,NULL
1682796714,0313d6a545b7448594890eb446dd7eca,PennController,20,0,experiment,NULL,Video,progression,buffer,0.006122,1682796708860,sonaID,undefined,17,roll,critical,E,75,roll65.jpg,roll85.jpg,high,memory-nogoals,NULL
1682796714,0313d6a545b7448594890eb446dd7eca,PennController,20,0,experiment,NULL,Selector,choice,Selection,option2,1682796714280,sonaID,undefined,17,roll,critical,E,75,roll65.jpg,roll85.jpg,high,memory-nogoals,option1;option2
1682796714,0313d6a545b7448594890eb446dd7eca,PennController,20,0,experiment,NULL,PennController,19,_Trial_,End,1682796714281,sonaID,undefined,17,roll,critical,E,75,roll65.jpg,roll85.jpg,high,memory-nogoals,NULL
