#
# Results on Saturday April 29 2023 17:50:54 UTC
# USER AGENT: Mozilla/5.0 (Windows NT 10.0; Win64; x64) AppleWebKit/537.36 (KHTML, like Gecko) Chrome/111.0.0.0 Safari/537.36
# Design number was non-random = 21
#
# Columns below this comment are as follows:
# 1. Results reception time.
# 2. MD5 hash of participant's IP address.
# 3. Controller name.
# 4. Order number of item.
# 5. Inner element number.
# 6. Label.
# 7. Latin Square Group.
# 8. PennElementType.
# 9. PennElementName.
# 10. Parameter.
# 11. Value.
# 12. EventTime.
# 13. sonaID.
# 14. Comments.
1682790654,bc2c26eb9ee872e556d028507e1efcf3,PennController,2,0,consent,NULL,PennController,0,_Trial_,Start,1682790328942,sonaID,NULL
1682790654,bc2c26eb9ee872e556d028507e1efcf3,PennController,2,0,consent,NULL,PennController,0,_Header_,Start,1682790328942,sonaID,NULL
1682790654,bc2c26eb9ee872e556d028507e1efcf3,PennController,2,0,consent,NULL,PennController,0,_Header_,End,1682790328942,sonaID,NULL
1682790654,bc2c26eb9ee872e556d028507e1efcf3,PennController,2,0,consent,NULL,PennController,0,_Trial_,End,1682790332777,sonaID,NULL
# Columns below this comment are as follows:
# 14. ID.
# 15. Comments.
1682790654,bc2c26eb9ee872e556d028507e1efcf3,PennController,3,0,intro,NULL,PennController,1,_Trial_,Start,1682790332779,sonaID,undefined,NULL
1682790654,bc2c26eb9ee872e556d028507e1efcf3,PennController,3,0,intro,NULL,PennController,1,_Header_,Start,1682790332779,sonaID,undefined,NULL
1682790654,bc2c26eb9ee872e556d028507e1efcf3,PennController,3,0,intro,NULL,PennController,1,_Header_,End,1682790332779,sonaID,undefined,NULL
1682790654,bc2c26eb9ee872e556d028507e1efcf3,PennController,3,0,intro,NULL,TextInput,inputID,EnterReturn,32384724,1682790355229,sonaID,undefined,NULL
1682790654,bc2c26eb9ee872e556d028507e1efcf3,PennController,3,0,intro,NULL,TextInput,inputID,Final,32384724,1682790355248,sonaID,undefined,NULL
1682790654,bc2c26eb9ee872e556d028507e1efcf3,PennController,3,0,intro,NULL,TextInput,inputID,First,,1682790351118,sonaID,undefined,3
1682790654,bc2c26eb9ee872e556d028507e1efcf3,PennController,3,0,intro,NULL,PennController,1,_Trial_,End,1682790355248,sonaID,undefined,NULL
# Columns below this comment are as follows:
# 15. item_number.
# 16. item.
# 17. type.
# 18. Group.
# 19. prog.
# 20. prev_image.
# 21. next_image.
# 22. height.
# 23. memory-nogoals.
# 24. Comments.
1682790654,bc2c26eb9ee872e556d028507e1efcf3,PennController,24,0,experiment,NULL,PennController,23,_Trial_,Start,1682790355250,sonaID,undefined,21,visit,filler,D,75,visit65.jpg,visit85.jpg,GoalB,memory-nogoals,NULL
1682790654,bc2c26eb9ee872e556d028507e1efcf3,PennController,24,0,experiment,NULL,PennController,23,_Header_,Start,1682790355250,sonaID,undefined,21,visit,filler,D,75,visit65.jpg,visit85.jpg,GoalB,memory-nogoals,NULL
1682790654,bc2c26eb9ee872e556d028507e1efcf3,PennController,24,0,experiment,NULL,PennController,23,_Header_,End,1682790355250,sonaID,undefined,21,visit,filler,D,75,visit65.jpg,visit85.jpg,GoalB,memory-nogoals,NULL
1682790654,bc2c26eb9ee872e556d028507e1efcf3,PennController,24,0,experiment,NULL,Canvas,canvas6,Print,NA,1682790361972,sonaID,undefined,21,visit,filler,D,75,visit65.jpg,visit85.jpg,GoalB,memory-nogoals,NULL
1682790654,bc2c26eb9ee872e556d028507e1efcf3,PennController,24,0,experiment,NULL,Video,progression,buffer,0.00396,1682790357776,sonaID,undefined,21,visit,filler,D,75,visit65.jpg,visit85.jpg,GoalB,memory-nogoals,NULL
1682790654,bc2c26eb9ee872e556d028507e1efcf3,PennController,24,0,experiment,NULL,Selector,choice,Selection,option2,1682790364534,sonaID,undefined,21,visit,filler,D,75,visit65.jpg,visit85.jpg,GoalB,memory-nogoals,option1;option2
1682790654,bc2c26eb9ee872e556d028507e1efcf3,PennController,24,0,experiment,NULL,PennController,23,_Trial_,End,1682790364537,sonaID,undefined,21,visit,filler,D,75,visit65.jpg,visit85.jpg,GoalB,memory-nogoals,NULL
1682790654,bc2c26eb9ee872e556d028507e1efcf3,PennController,26,0,experiment,NULL,PennController,25,_Trial_,Start,1682790364539,sonaID,undefined,23,color,filler,D,50,color40.jpg,color60.jpg,GoalB,memory-nogoals,NULL
1682790654,bc2c26eb9ee872e556d028507e1efcf3,PennController,26,0,experiment,NULL,PennController,25,_Header_,Start,1682790364540,sonaID,undefined,23,color,filler,D,50,color40.jpg,color60.jpg,GoalB,memory-nogoals,NULL
1682790654,bc2c26eb9ee872e556d028507e1efcf3,PennController,26,0,experiment,NULL,PennController,25,_Header_,End,1682790364540,sonaID,undefined,23,color,filler,D,50,color40.jpg,color60.jpg,GoalB,memory-nogoals,NULL
1682790654,bc2c26eb9ee872e556d028507e1efcf3,PennController,26,0,experiment,NULL,Canvas,canvas6,Print,NA,1682790370248,sonaID,undefined,23,color,filler,D,50,color40.jpg,color60.jpg,GoalB,memory-nogoals,NULL
1682790654,bc2c26eb9ee872e556d028507e1efcf3,PennController,26,0,experiment,NULL,Video,progression,buffer,0.004285,1682790367062,sonaID,undefined,23,color,filler,D,50,color40.jpg,color60.jpg,GoalB,memory-nogoals,NULL
1682790654,bc2c26eb9ee872e556d028507e1efcf3,PennController,26,0,experiment,NULL,Selector,choice,Selection,option2,1682790372419,sonaID,undefined,23,color,filler,D,50,color40.jpg,color60.jpg,GoalB,memory-nogoals,option2;option1
1682790654,bc2c26eb9ee872e556d028507e1efcf3,PennController,26,0,experiment,NULL,PennController,25,_Trial_,End,1682790372421,sonaID,undefined,23,color,filler,D,50,color40.jpg,color60.jpg,GoalB,memory-nogoals,NULL
1682790654,bc2c26eb9ee872e556d028507e1efcf3,PennController,16,0,experiment,NULL,PennController,15,_Trial_,Start,1682790372424,sonaID,undefined,13,mix,critical,D,25,mix15.jpg,mix35.jpg,high,memory-nogoals,NULL
1682790654,bc2c26eb9ee872e556d028507e1efcf3,PennController,16,0,experiment,NULL,PennController,15,_Header_,Start,1682790372424,sonaID,undefined,13,mix,critical,D,25,mix15.jpg,mix35.jpg,high,memory-nogoals,NULL
1682790654,bc2c26eb9ee872e556d028507e1efcf3,PennController,16,0,experiment,NULL,PennController,15,_Header_,End,1682790372424,sonaID,undefined,13,mix,critical,D,25,mix15.jpg,mix35.jpg,high,memory-nogoals,NULL
1682790654,bc2c26eb9ee872e556d028507e1efcf3,PennController,16,0,experiment,NULL,Canvas,canvas6,Print,NA,1682790377148,sonaID,undefined,13,mix,critical,D,25,mix15.jpg,mix35.jpg,high,memory-nogoals,NULL
1682790654,bc2c26eb9ee872e556d028507e1efcf3,PennController,16,0,experiment,NULL,Video,progression,buffer,0.006084,1682790374951,sonaID,undefined,13,mix,critical,D,25,mix15.jpg,mix35.jpg,high,memory-nogoals,NULL
1682790654,bc2c26eb9ee872e556d028507e1efcf3,PennController,16,0,experiment,NULL,Selector,choice,Selection,option1,1682790379988,sonaID,undefined,13,mix,critical,D,25,mix15.jpg,mix35.jpg,high,memory-nogoals,option2;option1
1682790654,bc2c26eb9ee872e556d028507e1efcf3,PennController,16,0,experiment,NULL,PennController,15,_Trial_,End,1682790379989,sonaID,undefined,13,mix,critical,D,25,mix15.jpg,mix35.jpg,high,memory-nogoals,NULL
1682790654,bc2c26eb9ee872e556d028507e1efcf3,PennController,8,0,experiment,NULL,PennController,7,_Trial_,Start,1682790379990,sonaID,undefined,5,book,critical,D,50,book40.jpg,book60.jpg,high,memory-nogoals,NULL
1682790654,bc2c26eb9ee872e556d028507e1efcf3,PennController,8,0,experiment,NULL,PennController,7,_Header_,Start,1682790379990,sonaID,undefined,5,book,critical,D,50,book40.jpg,book60.jpg,high,memory-nogoals,NULL
1682790654,bc2c26eb9ee872e556d028507e1efcf3,PennController,8,0,experiment,NULL,PennController,7,_Header_,End,1682790379990,sonaID,undefined,5,book,critical,D,50,book40.jpg,book60.jpg,high,memory-nogoals,NULL
1682790654,bc2c26eb9ee872e556d028507e1efcf3,PennController,8,0,experiment,NULL,Canvas,canvas6,Print,NA,1682790385696,sonaID,undefined,5,book,critical,D,50,book40.jpg,book60.jpg,high,memory-nogoals,NULL
1682790654,bc2c26eb9ee872e556d028507e1efcf3,PennController,8,0,experiment,NULL,Video,progression,buffer,0.00274,1682790382505,sonaID,undefined,5,book,critical,D,50,book40.jpg,book60.jpg,high,memory-nogoals,NULL
1682790654,bc2c26eb9ee872e556d028507e1efcf3,PennController,8,0,experiment,NULL,Selector,choice,Selection,option2,1682790387749,sonaID,undefined,5,book,critical,D,50,book40.jpg,book60.jpg,high,memory-nogoals,option2;option1
1682790654,bc2c26eb9ee872e556d028507e1efcf3,PennController,8,0,experiment,NULL,PennController,7,_Trial_,End,1682790387750,sonaID,undefined,5,book,critical,D,50,book40.jpg,book60.jpg,high,memory-nogoals,NULL
1682790654,bc2c26eb9ee872e556d028507e1efcf3,PennController,11,0,experiment,NULL,PennController,10,_Trial_,Start,1682790387752,sonaID,undefined,8,cucumber,critical,D,50,cucumber42.jpg,cucumber60.jpg,low ,memory-nogoals,NULL
1682790654,bc2c26eb9ee872e556d028507e1efcf3,PennController,11,0,experiment,NULL,PennController,10,_Header_,Start,1682790387752,sonaID,undefined,8,cucumber,critical,D,50,cucumber42.jpg,cucumber60.jpg,low ,memory-nogoals,NULL
1682790654,bc2c26eb9ee872e556d028507e1efcf3,PennController,11,0,experiment,NULL,PennController,10,_Header_,End,1682790387752,sonaID,undefined,8,cucumber,critical,D,50,cucumber42.jpg,cucumber60.jpg,low ,memory-nogoals,NULL
1682790654,bc2c26eb9ee872e556d028507e1efcf3,PennController,11,0,experiment,NULL,Canvas,canvas6,Print,NA,1682790394863,sonaID,undefined,8,cucumber,critical,D,50,cucumber42.jpg,cucumber60.jpg,low ,memory-nogoals,NULL
1682790654,bc2c26eb9ee872e556d028507e1efcf3,PennController,11,0,experiment,NULL,Video,progression,buffer,0.006348,1682790390270,sonaID,undefined,8,cucumber,critical,D,50,cucumber42.jpg,cucumber60.jpg,low ,memory-nogoals,NULL
1682790654,bc2c26eb9ee872e556d028507e1efcf3,PennController,11,0,experiment,NULL,Selector,choice,Selection,option1,1682790397370,sonaID,undefined,8,cucumber,critical,D,50,cucumber42.jpg,cucumber60.jpg,low ,memory-nogoals,option1;option2
1682790654,bc2c26eb9ee872e556d028507e1efcf3,PennController,11,0,experiment,NULL,PennController,10,_Trial_,End,1682790397371,sonaID,undefined,8,cucumber,critical,D,50,cucumber42.jpg,cucumber60.jpg,low ,memory-nogoals,NULL
1682790654,bc2c26eb9ee872e556d028507e1efcf3,PennController,10,0,experiment,NULL,PennController,9,_Trial_,Start,1682790397373,sonaID,undefined,7,stack,critical,D,25,stack15.jpg,stack35.jpg,high,memory-nogoals,NULL
1682790654,bc2c26eb9ee872e556d028507e1efcf3,PennController,10,0,experiment,NULL,PennController,9,_Header_,Start,1682790397373,sonaID,undefined,7,stack,critical,D,25,stack15.jpg,stack35.jpg,high,memory-nogoals,NULL
1682790654,bc2c26eb9ee872e556d028507e1efcf3,PennController,10,0,experiment,NULL,PennController,9,_Header_,End,1682790397374,sonaID,undefined,7,stack,critical,D,25,stack15.jpg,stack35.jpg,high,memory-nogoals,NULL
1682790654,bc2c26eb9ee872e556d028507e1efcf3,PennController,10,0,experiment,NULL,Canvas,canvas6,Print,NA,1682790402088,sonaID,undefined,7,stack,critical,D,25,stack15.jpg,stack35.jpg,high,memory-nogoals,NULL
1682790654,bc2c26eb9ee872e556d028507e1efcf3,PennController,10,0,experiment,NULL,Video,progression,buffer,0.004662,1682790399896,sonaID,undefined,7,stack,critical,D,25,stack15.jpg,stack35.jpg,high,memory-nogoals,NULL
1682790654,bc2c26eb9ee872e556d028507e1efcf3,PennController,10,0,experiment,NULL,Selector,choice,Selection,option1,1682790404535,sonaID,undefined,7,stack,critical,D,25,stack15.jpg,stack35.jpg,high,memory-nogoals,option1;option2
1682790654,bc2c26eb9ee872e556d028507e1efcf3,PennController,10,0,experiment,NULL,PennController,9,_Trial_,End,1682790404537,sonaID,undefined,7,stack,critical,D,25,stack15.jpg,stack35.jpg,high,memory-nogoals,NULL
1682790654,bc2c26eb9ee872e556d028507e1efcf3,PennController,29,0,experiment,NULL,PennController,28,_Trial_,Start,1682790404539,sonaID,undefined,26,sandwich,filler,D,50,sandwich40.jpg,sandwich60.jpg,GoalA,memory-nogoals,NULL
1682790654,bc2c26eb9ee872e556d028507e1efcf3,PennController,29,0,experiment,NULL,PennController,28,_Header_,Start,1682790404539,sonaID,undefined,26,sandwich,filler,D,50,sandwich40.jpg,sandwich60.jpg,GoalA,memory-nogoals,NULL
1682790654,bc2c26eb9ee872e556d028507e1efcf3,PennController,29,0,experiment,NULL,PennController,28,_Header_,End,1682790404539,sonaID,undefined,26,sandwich,filler,D,50,sandwich40.jpg,sandwich60.jpg,GoalA,memory-nogoals,NULL
1682790654,bc2c26eb9ee872e556d028507e1efcf3,PennController,29,0,experiment,NULL,Canvas,canvas6,Print,NA,1682790410254,sonaID,undefined,26,sandwich,filler,D,50,sandwich40.jpg,sandwich60.jpg,GoalA,memory-nogoals,NULL
1682790654,bc2c26eb9ee872e556d028507e1efcf3,PennController,29,0,experiment,NULL,Video,progression,buffer,0.007187,1682790407063,sonaID,undefined,26,sandwich,filler,D,50,sandwich40.jpg,sandwich60.jpg,GoalA,memory-nogoals,NULL
1682790654,bc2c26eb9ee872e556d028507e1efcf3,PennController,29,0,experiment,NULL,Selector,choice,Selection,option1,1682790411700,sonaID,undefined,26,sandwich,filler,D,50,sandwich40.jpg,sandwich60.jpg,GoalA,memory-nogoals,option1;option2
1682790654,bc2c26eb9ee872e556d028507e1efcf3,PennController,29,0,experiment,NULL,PennController,28,_Trial_,End,1682790411702,sonaID,undefined,26,sandwich,filler,D,50,sandwich40.jpg,sandwich60.jpg,GoalA,memory-nogoals,NULL
1682790654,bc2c26eb9ee872e556d028507e1efcf3,PennController,25,0,experiment,NULL,PennController,24,_Trial_,Start,1682790411704,sonaID,undefined,22,wall,filler,D,25,wall15.jpg,wall35.jpg,GoalA,memory-nogoals,NULL
1682790654,bc2c26eb9ee872e556d028507e1efcf3,PennController,25,0,experiment,NULL,PennController,24,_Header_,Start,1682790411704,sonaID,undefined,22,wall,filler,D,25,wall15.jpg,wall35.jpg,GoalA,memory-nogoals,NULL
1682790654,bc2c26eb9ee872e556d028507e1efcf3,PennController,25,0,experiment,NULL,PennController,24,_Header_,End,1682790411704,sonaID,undefined,22,wall,filler,D,25,wall15.jpg,wall35.jpg,GoalA,memory-nogoals,NULL
1682790654,bc2c26eb9ee872e556d028507e1efcf3,PennController,25,0,experiment,NULL,Canvas,canvas6,Print,NA,1682790416411,sonaID,undefined,22,wall,filler,D,25,wall15.jpg,wall35.jpg,GoalA,memory-nogoals,NULL
1682790654,bc2c26eb9ee872e556d028507e1efcf3,PennController,25,0,experiment,NULL,Video,progression,buffer,0.005784,1682790414225,sonaID,undefined,22,wall,filler,D,25,wall15.jpg,wall35.jpg,GoalA,memory-nogoals,NULL
1682790654,bc2c26eb9ee872e556d028507e1efcf3,PennController,25,0,experiment,NULL,Selector,choice,Selection,option2,1682790419318,sonaID,undefined,22,wall,filler,D,25,wall15.jpg,wall35.jpg,GoalA,memory-nogoals,option1;option2
1682790654,bc2c26eb9ee872e556d028507e1efcf3,PennController,25,0,experiment,NULL,PennController,24,_Trial_,End,1682790419320,sonaID,undefined,22,wall,filler,D,25,wall15.jpg,wall35.jpg,GoalA,memory-nogoals,NULL
1682790654,bc2c26eb9ee872e556d028507e1efcf3,PennController,23,0,experiment,NULL,PennController,22,_Trial_,Start,1682790419323,sonaID,undefined,20,cat,filler,D,50,cat40.jpg,cat60.jpg,GoalA,memory-nogoals,NULL
1682790654,bc2c26eb9ee872e556d028507e1efcf3,PennController,23,0,experiment,NULL,PennController,22,_Header_,Start,1682790419323,sonaID,undefined,20,cat,filler,D,50,cat40.jpg,cat60.jpg,GoalA,memory-nogoals,NULL
1682790654,bc2c26eb9ee872e556d028507e1efcf3,PennController,23,0,experiment,NULL,PennController,22,_Header_,End,1682790419323,sonaID,undefined,20,cat,filler,D,50,cat40.jpg,cat60.jpg,GoalA,memory-nogoals,NULL
1682790654,bc2c26eb9ee872e556d028507e1efcf3,PennController,23,0,experiment,NULL,Canvas,canvas6,Print,NA,1682790425022,sonaID,undefined,20,cat,filler,D,50,cat40.jpg,cat60.jpg,GoalA,memory-nogoals,NULL
1682790654,bc2c26eb9ee872e556d028507e1efcf3,PennController,23,0,experiment,NULL,Video,progression,buffer,0.004006,1682790421839,sonaID,undefined,20,cat,filler,D,50,cat40.jpg,cat60.jpg,GoalA,memory-nogoals,NULL
1682790654,bc2c26eb9ee872e556d028507e1efcf3,PennController,23,0,experiment,NULL,Selector,choice,Selection,option2,1682790426472,sonaID,undefined,20,cat,filler,D,50,cat40.jpg,cat60.jpg,GoalA,memory-nogoals,option2;option1
1682790654,bc2c26eb9ee872e556d028507e1efcf3,PennController,23,0,experiment,NULL,PennController,22,_Trial_,End,1682790426474,sonaID,undefined,20,cat,filler,D,50,cat40.jpg,cat60.jpg,GoalA,memory-nogoals,NULL
1682790654,bc2c26eb9ee872e556d028507e1efcf3,PennController,20,0,experiment,NULL,PennController,19,_Trial_,Start,1682790426477,sonaID,undefined,17,roll,critical,D,50,roll40.jpg,roll60.jpg,high,memory-nogoals,NULL
1682790654,bc2c26eb9ee872e556d028507e1efcf3,PennController,20,0,experiment,NULL,PennController,19,_Header_,Start,1682790426477,sonaID,undefined,17,roll,critical,D,50,roll40.jpg,roll60.jpg,high,memory-nogoals,NULL
1682790654,bc2c26eb9ee872e556d028507e1efcf3,PennController,20,0,experiment,NULL,PennController,19,_Header_,End,1682790426477,sonaID,undefined,17,roll,critical,D,50,roll40.jpg,roll60.jpg,high,memory-nogoals,NULL
1682790654,bc2c26eb9ee872e556d028507e1efcf3,PennController,20,0,experiment,NULL,Canvas,canvas6,Print,NA,1682790432218,sonaID,undefined,17,roll,critical,D,50,roll40.jpg,roll60.jpg,high,memory-nogoals,NULL
1682790654,bc2c26eb9ee872e556d028507e1efcf3,PennController,20,0,experiment,NULL,Video,progression,buffer,0,1682790429000,sonaID,undefined,17,roll,critical,D,50,roll40.jpg,roll60.jpg,high,memory-nogoals,NULL
1682790654,bc2c26eb9ee872e556d028507e1efcf3,PennController,20,0,experiment,NULL,Selector,choice,Selection,option2,1682790434910,sonaID,undefined,17,roll,critical,D,50,roll40.jpg,roll60.jpg,high,memory-nogoals,option2;option1
1682790654,bc2c26eb9ee872e556d028507e1efcf3,PennController,20,0,experiment,NULL,PennController,19,_Trial_,End,1682790434912,sonaID,undefined,17,roll,critical,D,50,roll40.jpg,roll60.jpg,high,memory-nogoals,NULL
1682790654,bc2c26eb9ee872e556d028507e1efcf3,PennController,6,0,experiment,NULL,PennController,5,_Trial_,Start,1682790434915,sonaID,undefined,3,clean,critical,D,75,clean65.jpg,clean85.jpg,high,memory-nogoals,NULL
1682790654,bc2c26eb9ee872e556d028507e1efcf3,PennController,6,0,experiment,NULL,PennController,5,_Header_,Start,1682790434915,sonaID,undefined,3,clean,critical,D,75,clean65.jpg,clean85.jpg,high,memory-nogoals,NULL
1682790654,bc2c26eb9ee872e556d028507e1efcf3,PennController,6,0,experiment,NULL,PennController,5,_Header_,End,1682790434915,sonaID,undefined,3,clean,critical,D,75,clean65.jpg,clean85.jpg,high,memory-nogoals,NULL
1682790654,bc2c26eb9ee872e556d028507e1efcf3,PennController,6,0,experiment,NULL,Canvas,canvas6,Print,NA,1682790441628,sonaID,undefined,3,clean,critical,D,75,clean65.jpg,clean85.jpg,high,memory-nogoals,NULL
1682790654,bc2c26eb9ee872e556d028507e1efcf3,PennController,6,0,experiment,NULL,Video,progression,buffer,0.003599,1682790437437,sonaID,undefined,3,clean,critical,D,75,clean65.jpg,clean85.jpg,high,memory-nogoals,NULL
1682790654,bc2c26eb9ee872e556d028507e1efcf3,PennController,6,0,experiment,NULL,Selector,choice,Selection,option1,1682790443277,sonaID,undefined,3,clean,critical,D,75,clean65.jpg,clean85.jpg,high,memory-nogoals,option1;option2
1682790654,bc2c26eb9ee872e556d028507e1efcf3,PennController,6,0,experiment,NULL,PennController,5,_Trial_,End,1682790443279,sonaID,undefined,3,clean,critical,D,75,clean65.jpg,clean85.jpg,high,memory-nogoals,NULL
1682790654,bc2c26eb9ee872e556d028507e1efcf3,PennController,17,0,experiment,NULL,PennController,16,_Trial_,Start,1682790443280,sonaID,undefined,14,cover,critical,D,50,cover42.jpg,cover60.jpg,low ,memory-nogoals,NULL
1682790654,bc2c26eb9ee872e556d028507e1efcf3,PennController,17,0,experiment,NULL,PennController,16,_Header_,Start,1682790443280,sonaID,undefined,14,cover,critical,D,50,cover42.jpg,cover60.jpg,low ,memory-nogoals,NULL
1682790654,bc2c26eb9ee872e556d028507e1efcf3,PennController,17,0,experiment,NULL,PennController,16,_Header_,End,1682790443280,sonaID,undefined,14,cover,critical,D,50,cover42.jpg,cover60.jpg,low ,memory-nogoals,NULL
1682790654,bc2c26eb9ee872e556d028507e1efcf3,PennController,17,0,experiment,NULL,Canvas,canvas6,Print,NA,1682790450397,sonaID,undefined,14,cover,critical,D,50,cover42.jpg,cover60.jpg,low ,memory-nogoals,NULL
1682790654,bc2c26eb9ee872e556d028507e1efcf3,PennController,17,0,experiment,NULL,Video,progression,buffer,0.006393,1682790445805,sonaID,undefined,14,cover,critical,D,50,cover42.jpg,cover60.jpg,low ,memory-nogoals,NULL
1682790654,bc2c26eb9ee872e556d028507e1efcf3,PennController,17,0,experiment,NULL,Selector,choice,Selection,option2,1682790452369,sonaID,undefined,14,cover,critical,D,50,cover42.jpg,cover60.jpg,low ,memory-nogoals,option2;option1
1682790654,bc2c26eb9ee872e556d028507e1efcf3,PennController,17,0,experiment,NULL,PennController,16,_Trial_,End,1682790452371,sonaID,undefined,14,cover,critical,D,50,cover42.jpg,cover60.jpg,low ,memory-nogoals,NULL
1682790654,bc2c26eb9ee872e556d028507e1efcf3,PennController,30,0,experiment,NULL,PennController,29,_PreloadFailed_,fixation.png,1682790512376,sonaID,undefined,27,rice,filler,D,75,square65.jpg,square85.jpg,GoalB,memory-nogoals,NULL
1682790654,bc2c26eb9ee872e556d028507e1efcf3,PennController,30,0,experiment,NULL,PennController,29,_PreloadFailed_,https://raw.githubusercontent.com/karenwli/rep-momentum/main/rice/rice00.jpg,1682790512376,sonaID,undefined,27,rice,filler,D,75,square65.jpg,square85.jpg,GoalB,memory-nogoals,NULL
1682790654,bc2c26eb9ee872e556d028507e1efcf3,PennController,30,0,experiment,NULL,PennController,29,_PreloadFailed_,https://video.wixstatic.com/video/7cb05b_41aae65ca27d43c3a89b5e46732d18ff/144p/mp4/file.mp4,1682790512376,sonaID,undefined,27,rice,filler,D,75,square65.jpg,square85.jpg,GoalB,memory-nogoals,NULL
1682790654,bc2c26eb9ee872e556d028507e1efcf3,PennController,30,0,experiment,NULL,PennController,29,_Trial_,Start,1682790512376,sonaID,undefined,27,rice,filler,D,75,square65.jpg,square85.jpg,GoalB,memory-nogoals,NULL
1682790654,bc2c26eb9ee872e556d028507e1efcf3,PennController,30,0,experiment,NULL,PennController,29,_Header_,Start,1682790512376,sonaID,undefined,27,rice,filler,D,75,square65.jpg,square85.jpg,GoalB,memory-nogoals,NULL
1682790654,bc2c26eb9ee872e556d028507e1efcf3,PennController,30,0,experiment,NULL,PennController,29,_Header_,End,1682790512377,sonaID,undefined,27,rice,filler,D,75,square65.jpg,square85.jpg,GoalB,memory-nogoals,NULL
1682790654,bc2c26eb9ee872e556d028507e1efcf3,PennController,30,0,experiment,NULL,Canvas,canvas6,Print,NA,1682790519095,sonaID,undefined,27,rice,filler,D,75,square65.jpg,square85.jpg,GoalB,memory-nogoals,NULL
1682790654,bc2c26eb9ee872e556d028507e1efcf3,PennController,30,0,experiment,NULL,Video,progression,buffer,0.00661,1682790514901,sonaID,undefined,27,rice,filler,D,75,square65.jpg,square85.jpg,GoalB,memory-nogoals,NULL
1682790654,bc2c26eb9ee872e556d028507e1efcf3,PennController,30,0,experiment,NULL,Selector,choice,Selection,option1,1682790528238,sonaID,undefined,27,rice,filler,D,75,square65.jpg,square85.jpg,GoalB,memory-nogoals,option2;option1
1682790654,bc2c26eb9ee872e556d028507e1efcf3,PennController,30,0,experiment,NULL,PennController,29,_Trial_,End,1682790528240,sonaID,undefined,27,rice,filler,D,75,square65.jpg,square85.jpg,GoalB,memory-nogoals,NULL
1682790654,bc2c26eb9ee872e556d028507e1efcf3,PennController,22,0,experiment,NULL,PennController,21,_Trial_,Start,1682790528242,sonaID,undefined,19,cup,filler,D,25,cup15.jpg,cup35.jpg,GoalB,memory-nogoals,NULL
1682790654,bc2c26eb9ee872e556d028507e1efcf3,PennController,22,0,experiment,NULL,PennController,21,_Header_,Start,1682790528242,sonaID,undefined,19,cup,filler,D,25,cup15.jpg,cup35.jpg,GoalB,memory-nogoals,NULL
1682790654,bc2c26eb9ee872e556d028507e1efcf3,PennController,22,0,experiment,NULL,PennController,21,_Header_,End,1682790528242,sonaID,undefined,19,cup,filler,D,25,cup15.jpg,cup35.jpg,GoalB,memory-nogoals,NULL
1682790654,bc2c26eb9ee872e556d028507e1efcf3,PennController,22,0,experiment,NULL,Canvas,canvas6,Print,NA,1682790532955,sonaID,undefined,19,cup,filler,D,25,cup15.jpg,cup35.jpg,GoalB,memory-nogoals,NULL
1682790654,bc2c26eb9ee872e556d028507e1efcf3,PennController,22,0,experiment,NULL,Video,progression,buffer,0.004639,1682790530766,sonaID,undefined,19,cup,filler,D,25,cup15.jpg,cup35.jpg,GoalB,memory-nogoals,NULL
1682790654,bc2c26eb9ee872e556d028507e1efcf3,PennController,22,0,experiment,NULL,Selector,choice,Selection,option2,1682790534257,sonaID,undefined,19,cup,filler,D,25,cup15.jpg,cup35.jpg,GoalB,memory-nogoals,option1;option2
1682790654,bc2c26eb9ee872e556d028507e1efcf3,PennController,22,0,experiment,NULL,PennController,21,_Trial_,End,1682790534258,sonaID,undefined,19,cup,filler,D,25,cup15.jpg,cup35.jpg,GoalB,memory-nogoals,NULL
1682790654,bc2c26eb9ee872e556d028507e1efcf3,PennController,18,0,experiment,NULL,PennController,17,_Trial_,Start,1682790534260,sonaID,undefined,15,zip,critical,D,75,zip65.jpg,zip85.jpg,high,memory-nogoals,NULL
1682790654,bc2c26eb9ee872e556d028507e1efcf3,PennController,18,0,experiment,NULL,PennController,17,_Header_,Start,1682790534260,sonaID,undefined,15,zip,critical,D,75,zip65.jpg,zip85.jpg,high,memory-nogoals,NULL
1682790654,bc2c26eb9ee872e556d028507e1efcf3,PennController,18,0,experiment,NULL,PennController,17,_Header_,End,1682790534260,sonaID,undefined,15,zip,critical,D,75,zip65.jpg,zip85.jpg,high,memory-nogoals,NULL
1682790654,bc2c26eb9ee872e556d028507e1efcf3,PennController,18,0,experiment,NULL,Canvas,canvas6,Print,NA,1682790540970,sonaID,undefined,15,zip,critical,D,75,zip65.jpg,zip85.jpg,high,memory-nogoals,NULL
1682790654,bc2c26eb9ee872e556d028507e1efcf3,PennController,18,0,experiment,NULL,Video,progression,buffer,0.004926,1682790536779,sonaID,undefined,15,zip,critical,D,75,zip65.jpg,zip85.jpg,high,memory-nogoals,NULL
1682790654,bc2c26eb9ee872e556d028507e1efcf3,PennController,18,0,experiment,NULL,Selector,choice,Selection,option2,1682790543254,sonaID,undefined,15,zip,critical,D,75,zip65.jpg,zip85.jpg,high,memory-nogoals,option2;option1
1682790654,bc2c26eb9ee872e556d028507e1efcf3,PennController,18,0,experiment,NULL,PennController,17,_Trial_,End,1682790543255,sonaID,undefined,15,zip,critical,D,75,zip65.jpg,zip85.jpg,high,memory-nogoals,NULL
1682790654,bc2c26eb9ee872e556d028507e1efcf3,PennController,5,0,experiment,NULL,PennController,4,_Trial_,Start,1682790543257,sonaID,undefined,2,door,critical,D,50,door40.jpg,door60.jpg,low ,memory-nogoals,NULL
1682790654,bc2c26eb9ee872e556d028507e1efcf3,PennController,5,0,experiment,NULL,PennController,4,_Header_,Start,1682790543257,sonaID,undefined,2,door,critical,D,50,door40.jpg,door60.jpg,low ,memory-nogoals,NULL
1682790654,bc2c26eb9ee872e556d028507e1efcf3,PennController,5,0,experiment,NULL,PennController,4,_Header_,End,1682790543258,sonaID,undefined,2,door,critical,D,50,door40.jpg,door60.jpg,low ,memory-nogoals,NULL
1682790654,bc2c26eb9ee872e556d028507e1efcf3,PennController,5,0,experiment,NULL,Canvas,canvas6,Print,NA,1682790548969,sonaID,undefined,2,door,critical,D,50,door40.jpg,door60.jpg,low ,memory-nogoals,NULL
1682790654,bc2c26eb9ee872e556d028507e1efcf3,PennController,5,0,experiment,NULL,Video,progression,buffer,0.006818,1682790545779,sonaID,undefined,2,door,critical,D,50,door40.jpg,door60.jpg,low ,memory-nogoals,NULL
1682790654,bc2c26eb9ee872e556d028507e1efcf3,PennController,5,0,experiment,NULL,Selector,choice,Selection,option1,1682790550521,sonaID,undefined,2,door,critical,D,50,door40.jpg,door60.jpg,low ,memory-nogoals,option1;option2
1682790654,bc2c26eb9ee872e556d028507e1efcf3,PennController,5,0,experiment,NULL,PennController,4,_Trial_,End,1682790550524,sonaID,undefined,2,door,critical,D,50,door40.jpg,door60.jpg,low ,memory-nogoals,NULL
1682790654,bc2c26eb9ee872e556d028507e1efcf3,PennController,14,0,experiment,NULL,PennController,13,_Trial_,Start,1682790550526,sonaID,undefined,11,beads,critical,D,50,beads40.jpg,beads60.jpg,high,memory-nogoals,NULL
1682790654,bc2c26eb9ee872e556d028507e1efcf3,PennController,14,0,experiment,NULL,PennController,13,_Header_,Start,1682790550526,sonaID,undefined,11,beads,critical,D,50,beads40.jpg,beads60.jpg,high,memory-nogoals,NULL
1682790654,bc2c26eb9ee872e556d028507e1efcf3,PennController,14,0,experiment,NULL,PennController,13,_Header_,End,1682790550526,sonaID,undefined,11,beads,critical,D,50,beads40.jpg,beads60.jpg,high,memory-nogoals,NULL
1682790654,bc2c26eb9ee872e556d028507e1efcf3,PennController,14,0,experiment,NULL,Canvas,canvas6,Print,NA,1682790556238,sonaID,undefined,11,beads,critical,D,50,beads40.jpg,beads60.jpg,high,memory-nogoals,NULL
1682790654,bc2c26eb9ee872e556d028507e1efcf3,PennController,14,0,experiment,NULL,Video,progression,buffer,0.003942,1682790553045,sonaID,undefined,11,beads,critical,D,50,beads40.jpg,beads60.jpg,high,memory-nogoals,NULL
1682790654,bc2c26eb9ee872e556d028507e1efcf3,PennController,14,0,experiment,NULL,Selector,choice,Selection,option2,1682790560162,sonaID,undefined,11,beads,critical,D,50,beads40.jpg,beads60.jpg,high,memory-nogoals,option1;option2
1682790654,bc2c26eb9ee872e556d028507e1efcf3,PennController,14,0,experiment,NULL,PennController,13,_Trial_,End,1682790560164,sonaID,undefined,11,beads,critical,D,50,beads40.jpg,beads60.jpg,high,memory-nogoals,NULL
1682790654,bc2c26eb9ee872e556d028507e1efcf3,PennController,4,0,experiment,NULL,PennController,3,_Trial_,Start,1682790560166,sonaID,undefined,1,vase,critical,D,50,vase10.jpg,vase40.jpg,high,memory-nogoals,NULL
1682790654,bc2c26eb9ee872e556d028507e1efcf3,PennController,4,0,experiment,NULL,PennController,3,_Header_,Start,1682790560166,sonaID,undefined,1,vase,critical,D,50,vase10.jpg,vase40.jpg,high,memory-nogoals,NULL
1682790654,bc2c26eb9ee872e556d028507e1efcf3,PennController,4,0,experiment,NULL,PennController,3,_Header_,End,1682790560166,sonaID,undefined,1,vase,critical,D,50,vase10.jpg,vase40.jpg,high,memory-nogoals,NULL
1682790654,bc2c26eb9ee872e556d028507e1efcf3,PennController,4,0,experiment,NULL,Canvas,canvas6,Print,NA,1682790565881,sonaID,undefined,1,vase,critical,D,50,vase10.jpg,vase40.jpg,high,memory-nogoals,NULL
1682790654,bc2c26eb9ee872e556d028507e1efcf3,PennController,4,0,experiment,NULL,Video,progression,buffer,0.006325,1682790562690,sonaID,undefined,1,vase,critical,D,50,vase10.jpg,vase40.jpg,high,memory-nogoals,NULL
1682790654,bc2c26eb9ee872e556d028507e1efcf3,PennController,4,0,experiment,NULL,Selector,choice,Selection,option2,1682790567306,sonaID,undefined,1,vase,critical,D,50,vase10.jpg,vase40.jpg,high,memory-nogoals,option2;option1
1682790654,bc2c26eb9ee872e556d028507e1efcf3,PennController,4,0,experiment,NULL,PennController,3,_Trial_,End,1682790567308,sonaID,undefined,1,vase,critical,D,50,vase10.jpg,vase40.jpg,high,memory-nogoals,NULL
1682790654,bc2c26eb9ee872e556d028507e1efcf3,PennController,13,0,experiment,NULL,PennController,12,_Trial_,Start,1682790567310,sonaID,undefined,10,train,critical,D,25,train15.jpg,train35.jpg,low ,memory-nogoals,NULL
1682790654,bc2c26eb9ee872e556d028507e1efcf3,PennController,13,0,experiment,NULL,PennController,12,_Header_,Start,1682790567310,sonaID,undefined,10,train,critical,D,25,train15.jpg,train35.jpg,low ,memory-nogoals,NULL
1682790654,bc2c26eb9ee872e556d028507e1efcf3,PennController,13,0,experiment,NULL,PennController,12,_Header_,End,1682790567310,sonaID,undefined,10,train,critical,D,25,train15.jpg,train35.jpg,low ,memory-nogoals,NULL
1682790654,bc2c26eb9ee872e556d028507e1efcf3,PennController,13,0,experiment,NULL,Canvas,canvas6,Print,NA,1682790572032,sonaID,undefined,10,train,critical,D,25,train15.jpg,train35.jpg,low ,memory-nogoals,NULL
1682790654,bc2c26eb9ee872e556d028507e1efcf3,PennController,13,0,experiment,NULL,Video,progression,buffer,0.009212,1682790569836,sonaID,undefined,10,train,critical,D,25,train15.jpg,train35.jpg,low ,memory-nogoals,NULL
1682790654,bc2c26eb9ee872e556d028507e1efcf3,PennController,13,0,experiment,NULL,Selector,choice,Selection,option1,1682790575213,sonaID,undefined,10,train,critical,D,25,train15.jpg,train35.jpg,low ,memory-nogoals,option2;option1
1682790654,bc2c26eb9ee872e556d028507e1efcf3,PennController,13,0,experiment,NULL,PennController,12,_Trial_,End,1682790575216,sonaID,undefined,10,train,critical,D,25,train15.jpg,train35.jpg,low ,memory-nogoals,NULL
1682790654,bc2c26eb9ee872e556d028507e1efcf3,PennController,21,0,experiment,NULL,PennController,20,_Trial_,Start,1682790575219,sonaID,undefined,18,ball,critical,D,75,ball65.jpg,ball85.jpg,low ,memory-nogoals,NULL
1682790654,bc2c26eb9ee872e556d028507e1efcf3,PennController,21,0,experiment,NULL,PennController,20,_Header_,Start,1682790575219,sonaID,undefined,18,ball,critical,D,75,ball65.jpg,ball85.jpg,low ,memory-nogoals,NULL
1682790654,bc2c26eb9ee872e556d028507e1efcf3,PennController,21,0,experiment,NULL,PennController,20,_Header_,End,1682790575219,sonaID,undefined,18,ball,critical,D,75,ball65.jpg,ball85.jpg,low ,memory-nogoals,NULL
1682790654,bc2c26eb9ee872e556d028507e1efcf3,PennController,21,0,experiment,NULL,Canvas,canvas6,Print,NA,1682790581940,sonaID,undefined,18,ball,critical,D,75,ball65.jpg,ball85.jpg,low ,memory-nogoals,NULL
1682790654,bc2c26eb9ee872e556d028507e1efcf3,PennController,21,0,experiment,NULL,Video,progression,buffer,0.008993,1682790577745,sonaID,undefined,18,ball,critical,D,75,ball65.jpg,ball85.jpg,low ,memory-nogoals,NULL
1682790654,bc2c26eb9ee872e556d028507e1efcf3,PennController,21,0,experiment,NULL,Selector,choice,Selection,option2,1682790584781,sonaID,undefined,18,ball,critical,D,75,ball65.jpg,ball85.jpg,low ,memory-nogoals,option1;option2
1682790654,bc2c26eb9ee872e556d028507e1efcf3,PennController,21,0,experiment,NULL,PennController,20,_Trial_,End,1682790584783,sonaID,undefined,18,ball,critical,D,75,ball65.jpg,ball85.jpg,low ,memory-nogoals,NULL
1682790654,bc2c26eb9ee872e556d028507e1efcf3,PennController,31,0,experiment,NULL,PennController,30,_Trial_,Start,1682790584785,sonaID,undefined,28,sort,filler,D,25,sort15.jpg,sort35.jpg,GoalA,memory-nogoals,NULL
1682790654,bc2c26eb9ee872e556d028507e1efcf3,PennController,31,0,experiment,NULL,PennController,30,_Header_,Start,1682790584785,sonaID,undefined,28,sort,filler,D,25,sort15.jpg,sort35.jpg,GoalA,memory-nogoals,NULL
1682790654,bc2c26eb9ee872e556d028507e1efcf3,PennController,31,0,experiment,NULL,PennController,30,_Header_,End,1682790584785,sonaID,undefined,28,sort,filler,D,25,sort15.jpg,sort35.jpg,GoalA,memory-nogoals,NULL
1682790654,bc2c26eb9ee872e556d028507e1efcf3,PennController,31,0,experiment,NULL,Canvas,canvas6,Print,NA,1682790589507,sonaID,undefined,28,sort,filler,D,25,sort15.jpg,sort35.jpg,GoalA,memory-nogoals,NULL
1682790654,bc2c26eb9ee872e556d028507e1efcf3,PennController,31,0,experiment,NULL,Video,progression,buffer,0.007392,1682790587311,sonaID,undefined,28,sort,filler,D,25,sort15.jpg,sort35.jpg,GoalA,memory-nogoals,NULL
1682790654,bc2c26eb9ee872e556d028507e1efcf3,PennController,31,0,experiment,NULL,Selector,choice,Selection,option2,1682790592275,sonaID,undefined,28,sort,filler,D,25,sort15.jpg,sort35.jpg,GoalA,memory-nogoals,option2;option1
1682790654,bc2c26eb9ee872e556d028507e1efcf3,PennController,31,0,experiment,NULL,PennController,30,_Trial_,End,1682790592277,sonaID,undefined,28,sort,filler,D,25,sort15.jpg,sort35.jpg,GoalA,memory-nogoals,NULL
1682790654,bc2c26eb9ee872e556d028507e1efcf3,PennController,12,0,experiment,NULL,PennController,11,_Trial_,Start,1682790592280,sonaID,undefined,9,cake,critical,D,75,cake66.jpg,cake84.jpg,high,memory-nogoals,NULL
1682790654,bc2c26eb9ee872e556d028507e1efcf3,PennController,12,0,experiment,NULL,PennController,11,_Header_,Start,1682790592280,sonaID,undefined,9,cake,critical,D,75,cake66.jpg,cake84.jpg,high,memory-nogoals,NULL
1682790654,bc2c26eb9ee872e556d028507e1efcf3,PennController,12,0,experiment,NULL,PennController,11,_Header_,End,1682790592280,sonaID,undefined,9,cake,critical,D,75,cake66.jpg,cake84.jpg,high,memory-nogoals,NULL
1682790654,bc2c26eb9ee872e556d028507e1efcf3,PennController,12,0,experiment,NULL,Canvas,canvas6,Print,NA,1682790600988,sonaID,undefined,9,cake,critical,D,75,cake66.jpg,cake84.jpg,high,memory-nogoals,NULL
1682790654,bc2c26eb9ee872e556d028507e1efcf3,PennController,12,0,experiment,NULL,Video,progression,buffer,0.003438,1682790594796,sonaID,undefined,9,cake,critical,D,75,cake66.jpg,cake84.jpg,high,memory-nogoals,NULL
1682790654,bc2c26eb9ee872e556d028507e1efcf3,PennController,12,0,experiment,NULL,Selector,choice,Selection,option1,1682790603538,sonaID,undefined,9,cake,critical,D,75,cake66.jpg,cake84.jpg,high,memory-nogoals,option1;option2
1682790654,bc2c26eb9ee872e556d028507e1efcf3,PennController,12,0,experiment,NULL,PennController,11,_Trial_,End,1682790603539,sonaID,undefined,9,cake,critical,D,75,cake66.jpg,cake84.jpg,high,memory-nogoals,NULL
1682790654,bc2c26eb9ee872e556d028507e1efcf3,PennController,9,0,experiment,NULL,PennController,8,_Trial_,Start,1682790603542,sonaID,undefined,6,flower,critical,D,75,flower65.jpg,flower85.jpg,low ,memory-nogoals,NULL
1682790654,bc2c26eb9ee872e556d028507e1efcf3,PennController,9,0,experiment,NULL,PennController,8,_Header_,Start,1682790603542,sonaID,undefined,6,flower,critical,D,75,flower65.jpg,flower85.jpg,low ,memory-nogoals,NULL
1682790654,bc2c26eb9ee872e556d028507e1efcf3,PennController,9,0,experiment,NULL,PennController,8,_Header_,End,1682790603542,sonaID,undefined,6,flower,critical,D,75,flower65.jpg,flower85.jpg,low ,memory-nogoals,NULL
1682790654,bc2c26eb9ee872e556d028507e1efcf3,PennController,9,0,experiment,NULL,Canvas,canvas6,Print,NA,1682790610253,sonaID,undefined,6,flower,critical,D,75,flower65.jpg,flower85.jpg,low ,memory-nogoals,NULL
1682790654,bc2c26eb9ee872e556d028507e1efcf3,PennController,9,0,experiment,NULL,Video,progression,buffer,0.006444,1682790606062,sonaID,undefined,6,flower,critical,D,75,flower65.jpg,flower85.jpg,low ,memory-nogoals,NULL
1682790654,bc2c26eb9ee872e556d028507e1efcf3,PennController,9,0,experiment,NULL,Selector,choice,Selection,option2,1682790611857,sonaID,undefined,6,flower,critical,D,75,flower65.jpg,flower85.jpg,low ,memory-nogoals,option2;option1
1682790654,bc2c26eb9ee872e556d028507e1efcf3,PennController,9,0,experiment,NULL,PennController,8,_Trial_,End,1682790611859,sonaID,undefined,6,flower,critical,D,75,flower65.jpg,flower85.jpg,low ,memory-nogoals,NULL
1682790654,bc2c26eb9ee872e556d028507e1efcf3,PennController,15,0,experiment,NULL,PennController,14,_Trial_,Start,1682790611860,sonaID,undefined,12,erase,critical,D,75,erase66.jpg,erase84.jpg,low ,memory-nogoals,NULL
1682790654,bc2c26eb9ee872e556d028507e1efcf3,PennController,15,0,experiment,NULL,PennController,14,_Header_,Start,1682790611860,sonaID,undefined,12,erase,critical,D,75,erase66.jpg,erase84.jpg,low ,memory-nogoals,NULL
1682790654,bc2c26eb9ee872e556d028507e1efcf3,PennController,15,0,experiment,NULL,PennController,14,_Header_,End,1682790611860,sonaID,undefined,12,erase,critical,D,75,erase66.jpg,erase84.jpg,low ,memory-nogoals,NULL
1682790654,bc2c26eb9ee872e556d028507e1efcf3,PennController,15,0,experiment,NULL,Canvas,canvas6,Print,NA,1682790620573,sonaID,undefined,12,erase,critical,D,75,erase66.jpg,erase84.jpg,low ,memory-nogoals,NULL
1682790654,bc2c26eb9ee872e556d028507e1efcf3,PennController,15,0,experiment,NULL,Video,progression,buffer,0.006078,1682790614378,sonaID,undefined,12,erase,critical,D,75,erase66.jpg,erase84.jpg,low ,memory-nogoals,NULL
1682790654,bc2c26eb9ee872e556d028507e1efcf3,PennController,15,0,experiment,NULL,Selector,choice,Selection,option1,1682790621877,sonaID,undefined,12,erase,critical,D,75,erase66.jpg,erase84.jpg,low ,memory-nogoals,option1;option2
1682790654,bc2c26eb9ee872e556d028507e1efcf3,PennController,15,0,experiment,NULL,PennController,14,_Trial_,End,1682790621879,sonaID,undefined,12,erase,critical,D,75,erase66.jpg,erase84.jpg,low ,memory-nogoals,NULL
1682790654,bc2c26eb9ee872e556d028507e1efcf3,PennController,19,0,experiment,NULL,PennController,18,_Trial_,Start,1682790621881,sonaID,undefined,16,blinds,critical,D,25,blinds15.jpg,blinds33.jpg,low ,memory-nogoals,NULL
1682790654,bc2c26eb9ee872e556d028507e1efcf3,PennController,19,0,experiment,NULL,PennController,18,_Header_,Start,1682790621881,sonaID,undefined,16,blinds,critical,D,25,blinds15.jpg,blinds33.jpg,low ,memory-nogoals,NULL
1682790654,bc2c26eb9ee872e556d028507e1efcf3,PennController,19,0,experiment,NULL,PennController,18,_Header_,End,1682790621881,sonaID,undefined,16,blinds,critical,D,25,blinds15.jpg,blinds33.jpg,low ,memory-nogoals,NULL
1682790654,bc2c26eb9ee872e556d028507e1efcf3,PennController,19,0,experiment,NULL,Canvas,canvas6,Print,NA,1682790627200,sonaID,undefined,16,blinds,critical,D,25,blinds15.jpg,blinds33.jpg,low ,memory-nogoals,NULL
1682790654,bc2c26eb9ee872e556d028507e1efcf3,PennController,19,0,experiment,NULL,Video,progression,buffer,0.008004,1682790624404,sonaID,undefined,16,blinds,critical,D,25,blinds15.jpg,blinds33.jpg,low ,memory-nogoals,NULL
1682790654,bc2c26eb9ee872e556d028507e1efcf3,PennController,19,0,experiment,NULL,Selector,choice,Selection,option1,1682790628871,sonaID,undefined,16,blinds,critical,D,25,blinds15.jpg,blinds33.jpg,low ,memory-nogoals,option1;option2
1682790654,bc2c26eb9ee872e556d028507e1efcf3,PennController,19,0,experiment,NULL,PennController,18,_Trial_,End,1682790628872,sonaID,undefined,16,blinds,critical,D,25,blinds15.jpg,blinds33.jpg,low ,memory-nogoals,NULL
1682790654,bc2c26eb9ee872e556d028507e1efcf3,PennController,27,0,experiment,NULL,PennController,26,_Trial_,Start,1682790628874,sonaID,undefined,24,match,filler,D,75,match65.jpg,match85.jpg,GoalA,memory-nogoals,NULL
1682790654,bc2c26eb9ee872e556d028507e1efcf3,PennController,27,0,experiment,NULL,PennController,26,_Header_,Start,1682790628874,sonaID,undefined,24,match,filler,D,75,match65.jpg,match85.jpg,GoalA,memory-nogoals,NULL
1682790654,bc2c26eb9ee872e556d028507e1efcf3,PennController,27,0,experiment,NULL,PennController,26,_Header_,End,1682790628874,sonaID,undefined,24,match,filler,D,75,match65.jpg,match85.jpg,GoalA,memory-nogoals,NULL
1682790654,bc2c26eb9ee872e556d028507e1efcf3,PennController,27,0,experiment,NULL,Canvas,canvas6,Print,NA,1682790635575,sonaID,undefined,24,match,filler,D,75,match65.jpg,match85.jpg,GoalA,memory-nogoals,NULL
1682790654,bc2c26eb9ee872e556d028507e1efcf3,PennController,27,0,experiment,NULL,Video,progression,buffer,0.001981,1682790631384,sonaID,undefined,24,match,filler,D,75,match65.jpg,match85.jpg,GoalA,memory-nogoals,NULL
1682790654,bc2c26eb9ee872e556d028507e1efcf3,PennController,27,0,experiment,NULL,Selector,choice,Selection,option1,1682790637998,sonaID,undefined,24,match,filler,D,75,match65.jpg,match85.jpg,GoalA,memory-nogoals,option2;option1
1682790654,bc2c26eb9ee872e556d028507e1efcf3,PennController,27,0,experiment,NULL,PennController,26,_Trial_,End,1682790638000,sonaID,undefined,24,match,filler,D,75,match65.jpg,match85.jpg,GoalA,memory-nogoals,NULL
1682790654,bc2c26eb9ee872e556d028507e1efcf3,PennController,7,0,experiment,NULL,PennController,6,_Trial_,Start,1682790638002,sonaID,undefined,4,candy,critical,D,25,candy15.jpg,candy35.jpg,low ,memory-nogoals,NULL
1682790654,bc2c26eb9ee872e556d028507e1efcf3,PennController,7,0,experiment,NULL,PennController,6,_Header_,Start,1682790638002,sonaID,undefined,4,candy,critical,D,25,candy15.jpg,candy35.jpg,low ,memory-nogoals,NULL
1682790654,bc2c26eb9ee872e556d028507e1efcf3,PennController,7,0,experiment,NULL,PennController,6,_Header_,End,1682790638002,sonaID,undefined,4,candy,critical,D,25,candy15.jpg,candy35.jpg,low ,memory-nogoals,NULL
1682790654,bc2c26eb9ee872e556d028507e1efcf3,PennController,7,0,experiment,NULL,Canvas,canvas6,Print,NA,1682790642720,sonaID,undefined,4,candy,critical,D,25,candy15.jpg,candy35.jpg,low ,memory-nogoals,NULL
1682790654,bc2c26eb9ee872e556d028507e1efcf3,PennController,7,0,experiment,NULL,Video,progression,buffer,0.005972,1682790640528,sonaID,undefined,4,candy,critical,D,25,candy15.jpg,candy35.jpg,low ,memory-nogoals,NULL
1682790654,bc2c26eb9ee872e556d028507e1efcf3,PennController,7,0,experiment,NULL,Selector,choice,Selection,option2,1682790644559,sonaID,undefined,4,candy,critical,D,25,candy15.jpg,candy35.jpg,low ,memory-nogoals,option2;option1
1682790654,bc2c26eb9ee872e556d028507e1efcf3,PennController,7,0,experiment,NULL,PennController,6,_Trial_,End,1682790644560,sonaID,undefined,4,candy,critical,D,25,candy15.jpg,candy35.jpg,low ,memory-nogoals,NULL
1682790654,bc2c26eb9ee872e556d028507e1efcf3,PennController,28,0,experiment,NULL,PennController,27,_Trial_,Start,1682790644562,sonaID,undefined,25,house,filler,D,25,house15.jpg,house35.jpg,GoalB,memory-nogoals,NULL
1682790654,bc2c26eb9ee872e556d028507e1efcf3,PennController,28,0,experiment,NULL,PennController,27,_Header_,Start,1682790644562,sonaID,undefined,25,house,filler,D,25,house15.jpg,house35.jpg,GoalB,memory-nogoals,NULL
1682790654,bc2c26eb9ee872e556d028507e1efcf3,PennController,28,0,experiment,NULL,PennController,27,_Header_,End,1682790644562,sonaID,undefined,25,house,filler,D,25,house15.jpg,house35.jpg,GoalB,memory-nogoals,NULL
1682790654,bc2c26eb9ee872e556d028507e1efcf3,PennController,28,0,experiment,NULL,Canvas,canvas6,Print,NA,1682790649280,sonaID,undefined,25,house,filler,D,25,house15.jpg,house35.jpg,GoalB,memory-nogoals,NULL
1682790654,bc2c26eb9ee872e556d028507e1efcf3,PennController,28,0,experiment,NULL,Video,progression,buffer,0.008887,1682790647090,sonaID,undefined,25,house,filler,D,25,house15.jpg,house35.jpg,GoalB,memory-nogoals,NULL
1682790654,bc2c26eb9ee872e556d028507e1efcf3,PennController,28,0,experiment,NULL,Selector,choice,Selection,option1,1682790650256,sonaID,undefined,25,house,filler,D,25,house15.jpg,house35.jpg,GoalB,memory-nogoals,option2;option1
1682790654,bc2c26eb9ee872e556d028507e1efcf3,PennController,28,0,experiment,NULL,PennController,27,_Trial_,End,1682790650257,sonaID,undefined,25,house,filler,D,25,house15.jpg,house35.jpg,GoalB,memory-nogoals,NULL
1682790654,bc2c26eb9ee872e556d028507e1efcf3,PennController,32,0,experiment,NULL,PennController,31,_Trial_,Start,1682790650259,sonaID,undefined,29,frog,filler,D,50,frog40.jpg,frog60.jpg,GoalB,memory-nogoals,NULL
1682790654,bc2c26eb9ee872e556d028507e1efcf3,PennController,32,0,experiment,NULL,PennController,31,_Header_,Start,1682790650259,sonaID,undefined,29,frog,filler,D,50,frog40.jpg,frog60.jpg,GoalB,memory-nogoals,NULL
1682790654,bc2c26eb9ee872e556d028507e1efcf3,PennController,32,0,experiment,NULL,PennController,31,_Header_,End,1682790650260,sonaID,undefined,29,frog,filler,D,50,frog40.jpg,frog60.jpg,GoalB,memory-nogoals,NULL
1682790654,bc2c26eb9ee872e556d028507e1efcf3,PennController,32,0,experiment,NULL,Canvas,canvas6,Print,NA,1682790655970,sonaID,undefined,29,frog,filler,D,50,frog40.jpg,frog60.jpg,GoalB,memory-nogoals,NULL
1682790654,bc2c26eb9ee872e556d028507e1efcf3,PennController,32,0,experiment,NULL,Video,progression,buffer,0.005491,1682790652783,sonaID,undefined,29,frog,filler,D,50,frog40.jpg,frog60.jpg,GoalB,memory-nogoals,NULL
1682790654,bc2c26eb9ee872e556d028507e1efcf3,PennController,32,0,experiment,NULL,Selector,choice,Selection,option2,1682790657044,sonaID,undefined,29,frog,filler,D,50,frog40.jpg,frog60.jpg,GoalB,memory-nogoals,option2;option1
1682790654,bc2c26eb9ee872e556d028507e1efcf3,PennController,32,0,experiment,NULL,PennController,31,_Trial_,End,1682790657045,sonaID,undefined,29,frog,filler,D,50,frog40.jpg,frog60.jpg,GoalB,memory-nogoals,NULL
