#
# Results on Tuesday April 25 2023 02:46:43 UTC
# USER AGENT: Mozilla/5.0 (Macintosh; Intel Mac OS X 10_15_7) AppleWebKit/537.36 (KHTML, like Gecko) Chrome/112.0.0.0 Safari/537.36
# Design number was non-random = 6
#
# Columns below this comment are as follows:
# 1. Results reception time.
# 2. MD5 hash of participant's IP address.
# 3. Controller name.
# 4. Order number of item.
# 5. Inner element number.
# 6. Label.
# 7. Latin Square Group.
# 8. PennElementType.
# 9. PennElementName.
# 10. Parameter.
# 11. Value.
# 12. EventTime.
# 13. sonaID.
# 14. Comments.
1682390803,2bb2ed98b96001e42d260e3cf06d1842,PennController,2,0,consent,NULL,PennController,0,_Trial_,Start,1682390405069,sonaID,NULL
1682390803,2bb2ed98b96001e42d260e3cf06d1842,PennController,2,0,consent,NULL,PennController,0,_Header_,Start,1682390405069,sonaID,NULL
1682390803,2bb2ed98b96001e42d260e3cf06d1842,PennController,2,0,consent,NULL,PennController,0,_Header_,End,1682390405070,sonaID,NULL
1682390803,2bb2ed98b96001e42d260e3cf06d1842,PennController,2,0,consent,NULL,PennController,0,_Trial_,End,1682390420245,sonaID,NULL
# Columns below this comment are as follows:
# 14. ID.
# 15. Comments.
1682390803,2bb2ed98b96001e42d260e3cf06d1842,PennController,3,0,intro,NULL,PennController,1,_Trial_,Start,1682390420248,sonaID,undefined,NULL
1682390803,2bb2ed98b96001e42d260e3cf06d1842,PennController,3,0,intro,NULL,PennController,1,_Header_,Start,1682390420248,sonaID,undefined,NULL
1682390803,2bb2ed98b96001e42d260e3cf06d1842,PennController,3,0,intro,NULL,PennController,1,_Header_,End,1682390420248,sonaID,undefined,NULL
1682390803,2bb2ed98b96001e42d260e3cf06d1842,PennController,3,0,intro,NULL,TextInput,inputID,EnterReturn,14790848,1682390470140,sonaID,undefined,NULL
1682390803,2bb2ed98b96001e42d260e3cf06d1842,PennController,3,0,intro,NULL,TextInput,inputID,Final,14790848,1682390470206,sonaID,undefined,NULL
1682390803,2bb2ed98b96001e42d260e3cf06d1842,PennController,3,0,intro,NULL,TextInput,inputID,First,,1682390443870,sonaID,undefined,1
1682390803,2bb2ed98b96001e42d260e3cf06d1842,PennController,3,0,intro,NULL,PennController,1,_Trial_,End,1682390470206,sonaID,undefined,NULL
# Columns below this comment are as follows:
# 15. item_number.
# 16. item.
# 17. type.
# 18. Group.
# 19. prog.
# 20. prev_image.
# 21. next_image.
# 22. height.
# 23. memory-nogoals.
# 24. Comments.
1682390803,2bb2ed98b96001e42d260e3cf06d1842,PennController,6,0,experiment,NULL,PennController,5,_Trial_,Start,1682390470216,sonaID,undefined,3,clean,critical,A,75,clean65.jpg,clean85.jpg,low ,memory-nogoals,NULL
1682390803,2bb2ed98b96001e42d260e3cf06d1842,PennController,6,0,experiment,NULL,PennController,5,_Header_,Start,1682390470216,sonaID,undefined,3,clean,critical,A,75,clean65.jpg,clean85.jpg,low ,memory-nogoals,NULL
1682390803,2bb2ed98b96001e42d260e3cf06d1842,PennController,6,0,experiment,NULL,PennController,5,_Header_,End,1682390470216,sonaID,undefined,3,clean,critical,A,75,clean65.jpg,clean85.jpg,low ,memory-nogoals,NULL
1682390803,2bb2ed98b96001e42d260e3cf06d1842,PennController,6,0,experiment,NULL,Canvas,canvas6,Print,NA,1682390476939,sonaID,undefined,3,clean,critical,A,75,clean65.jpg,clean85.jpg,low ,memory-nogoals,NULL
1682390803,2bb2ed98b96001e42d260e3cf06d1842,PennController,6,0,experiment,NULL,Video,progression,buffer,0.021038,1682390472803,sonaID,undefined,3,clean,critical,A,75,clean65.jpg,clean85.jpg,low ,memory-nogoals,NULL
1682390803,2bb2ed98b96001e42d260e3cf06d1842,PennController,6,0,experiment,NULL,Selector,choice,Selection,option1,1682390481550,sonaID,undefined,3,clean,critical,A,75,clean65.jpg,clean85.jpg,low ,memory-nogoals,option2;option1
1682390803,2bb2ed98b96001e42d260e3cf06d1842,PennController,6,0,experiment,NULL,PennController,5,_Trial_,End,1682390481554,sonaID,undefined,3,clean,critical,A,75,clean65.jpg,clean85.jpg,low ,memory-nogoals,NULL
1682390803,2bb2ed98b96001e42d260e3cf06d1842,PennController,18,0,experiment,NULL,PennController,17,_Trial_,Start,1682390481555,sonaID,undefined,15,zip,critical,A,75,zip65.jpg,zip85.jpg,low ,memory-nogoals,NULL
1682390803,2bb2ed98b96001e42d260e3cf06d1842,PennController,18,0,experiment,NULL,PennController,17,_Header_,Start,1682390481555,sonaID,undefined,15,zip,critical,A,75,zip65.jpg,zip85.jpg,low ,memory-nogoals,NULL
1682390803,2bb2ed98b96001e42d260e3cf06d1842,PennController,18,0,experiment,NULL,PennController,17,_Header_,End,1682390481555,sonaID,undefined,15,zip,critical,A,75,zip65.jpg,zip85.jpg,low ,memory-nogoals,NULL
1682390803,2bb2ed98b96001e42d260e3cf06d1842,PennController,18,0,experiment,NULL,Canvas,canvas6,Print,NA,1682390488183,sonaID,undefined,15,zip,critical,A,75,zip65.jpg,zip85.jpg,low ,memory-nogoals,NULL
1682390803,2bb2ed98b96001e42d260e3cf06d1842,PennController,18,0,experiment,NULL,Video,progression,buffer,0.003616,1682390484080,sonaID,undefined,15,zip,critical,A,75,zip65.jpg,zip85.jpg,low ,memory-nogoals,NULL
1682390803,2bb2ed98b96001e42d260e3cf06d1842,PennController,18,0,experiment,NULL,Selector,choice,Selection,option2,1682390490065,sonaID,undefined,15,zip,critical,A,75,zip65.jpg,zip85.jpg,low ,memory-nogoals,option1;option2
1682390803,2bb2ed98b96001e42d260e3cf06d1842,PennController,18,0,experiment,NULL,PennController,17,_Trial_,End,1682390490067,sonaID,undefined,15,zip,critical,A,75,zip65.jpg,zip85.jpg,low ,memory-nogoals,NULL
1682390803,2bb2ed98b96001e42d260e3cf06d1842,PennController,19,0,experiment,NULL,PennController,18,_Trial_,Start,1682390490070,sonaID,undefined,16,blinds,critical,A,25,blinds15.jpg,blinds33.jpg,high,memory-nogoals,NULL
1682390803,2bb2ed98b96001e42d260e3cf06d1842,PennController,19,0,experiment,NULL,PennController,18,_Header_,Start,1682390490070,sonaID,undefined,16,blinds,critical,A,25,blinds15.jpg,blinds33.jpg,high,memory-nogoals,NULL
1682390803,2bb2ed98b96001e42d260e3cf06d1842,PennController,19,0,experiment,NULL,PennController,18,_Header_,End,1682390490070,sonaID,undefined,16,blinds,critical,A,25,blinds15.jpg,blinds33.jpg,high,memory-nogoals,NULL
1682390803,2bb2ed98b96001e42d260e3cf06d1842,PennController,19,0,experiment,NULL,Canvas,canvas6,Print,NA,1682390495323,sonaID,undefined,16,blinds,critical,A,25,blinds15.jpg,blinds33.jpg,high,memory-nogoals,NULL
1682390803,2bb2ed98b96001e42d260e3cf06d1842,PennController,19,0,experiment,NULL,Video,progression,buffer,0.002216,1682390492592,sonaID,undefined,16,blinds,critical,A,25,blinds15.jpg,blinds33.jpg,high,memory-nogoals,NULL
1682390803,2bb2ed98b96001e42d260e3cf06d1842,PennController,19,0,experiment,NULL,Selector,choice,Selection,option2,1682390499632,sonaID,undefined,16,blinds,critical,A,25,blinds15.jpg,blinds33.jpg,high,memory-nogoals,option2;option1
1682390803,2bb2ed98b96001e42d260e3cf06d1842,PennController,19,0,experiment,NULL,PennController,18,_Trial_,End,1682390499633,sonaID,undefined,16,blinds,critical,A,25,blinds15.jpg,blinds33.jpg,high,memory-nogoals,NULL
1682390803,2bb2ed98b96001e42d260e3cf06d1842,PennController,24,0,experiment,NULL,PennController,23,_Trial_,Start,1682390499635,sonaID,undefined,21,visit,filler,A,75,visit65.jpg,visit85.jpg,GoalA,memory-nogoals,NULL
1682390803,2bb2ed98b96001e42d260e3cf06d1842,PennController,24,0,experiment,NULL,PennController,23,_Header_,Start,1682390499635,sonaID,undefined,21,visit,filler,A,75,visit65.jpg,visit85.jpg,GoalA,memory-nogoals,NULL
1682390803,2bb2ed98b96001e42d260e3cf06d1842,PennController,24,0,experiment,NULL,PennController,23,_Header_,End,1682390499635,sonaID,undefined,21,visit,filler,A,75,visit65.jpg,visit85.jpg,GoalA,memory-nogoals,NULL
1682390803,2bb2ed98b96001e42d260e3cf06d1842,PennController,24,0,experiment,NULL,Canvas,canvas6,Print,NA,1682390506510,sonaID,undefined,21,visit,filler,A,75,visit65.jpg,visit85.jpg,GoalA,memory-nogoals,NULL
1682390803,2bb2ed98b96001e42d260e3cf06d1842,PennController,24,0,experiment,NULL,Video,progression,buffer,0.003605,1682390502157,sonaID,undefined,21,visit,filler,A,75,visit65.jpg,visit85.jpg,GoalA,memory-nogoals,NULL
1682390803,2bb2ed98b96001e42d260e3cf06d1842,PennController,24,0,experiment,NULL,Selector,choice,Selection,option2,1682390508402,sonaID,undefined,21,visit,filler,A,75,visit65.jpg,visit85.jpg,GoalA,memory-nogoals,option1;option2
1682390803,2bb2ed98b96001e42d260e3cf06d1842,PennController,24,0,experiment,NULL,PennController,23,_Trial_,End,1682390508404,sonaID,undefined,21,visit,filler,A,75,visit65.jpg,visit85.jpg,GoalA,memory-nogoals,NULL
1682390803,2bb2ed98b96001e42d260e3cf06d1842,PennController,29,0,experiment,NULL,PennController,28,_Trial_,Start,1682390508410,sonaID,undefined,26,sandwich,filler,A,50,sandwich40.jpg,sandwich60.jpg,GoalB,memory-nogoals,NULL
1682390803,2bb2ed98b96001e42d260e3cf06d1842,PennController,29,0,experiment,NULL,PennController,28,_Header_,Start,1682390508410,sonaID,undefined,26,sandwich,filler,A,50,sandwich40.jpg,sandwich60.jpg,GoalB,memory-nogoals,NULL
1682390803,2bb2ed98b96001e42d260e3cf06d1842,PennController,29,0,experiment,NULL,PennController,28,_Header_,End,1682390508410,sonaID,undefined,26,sandwich,filler,A,50,sandwich40.jpg,sandwich60.jpg,GoalB,memory-nogoals,NULL
1682390803,2bb2ed98b96001e42d260e3cf06d1842,PennController,29,0,experiment,NULL,Canvas,canvas6,Print,NA,1682390514039,sonaID,undefined,26,sandwich,filler,A,50,sandwich40.jpg,sandwich60.jpg,GoalB,memory-nogoals,NULL
1682390803,2bb2ed98b96001e42d260e3cf06d1842,PennController,29,0,experiment,NULL,Video,progression,buffer,0.002049,1682390510934,sonaID,undefined,26,sandwich,filler,A,50,sandwich40.jpg,sandwich60.jpg,GoalB,memory-nogoals,NULL
1682390803,2bb2ed98b96001e42d260e3cf06d1842,PennController,29,0,experiment,NULL,Selector,choice,Selection,option1,1682390515690,sonaID,undefined,26,sandwich,filler,A,50,sandwich40.jpg,sandwich60.jpg,GoalB,memory-nogoals,option1;option2
1682390803,2bb2ed98b96001e42d260e3cf06d1842,PennController,29,0,experiment,NULL,PennController,28,_Trial_,End,1682390515691,sonaID,undefined,26,sandwich,filler,A,50,sandwich40.jpg,sandwich60.jpg,GoalB,memory-nogoals,NULL
1682390803,2bb2ed98b96001e42d260e3cf06d1842,PennController,10,0,experiment,NULL,PennController,9,_Trial_,Start,1682390515699,sonaID,undefined,7,stack,critical,A,25,stack15.jpg,stack35.jpg,low ,memory-nogoals,NULL
1682390803,2bb2ed98b96001e42d260e3cf06d1842,PennController,10,0,experiment,NULL,PennController,9,_Header_,Start,1682390515699,sonaID,undefined,7,stack,critical,A,25,stack15.jpg,stack35.jpg,low ,memory-nogoals,NULL
1682390803,2bb2ed98b96001e42d260e3cf06d1842,PennController,10,0,experiment,NULL,PennController,9,_Header_,End,1682390515699,sonaID,undefined,7,stack,critical,A,25,stack15.jpg,stack35.jpg,low ,memory-nogoals,NULL
1682390803,2bb2ed98b96001e42d260e3cf06d1842,PennController,10,0,experiment,NULL,Canvas,canvas6,Print,NA,1682390520339,sonaID,undefined,7,stack,critical,A,25,stack15.jpg,stack35.jpg,low ,memory-nogoals,NULL
1682390803,2bb2ed98b96001e42d260e3cf06d1842,PennController,10,0,experiment,NULL,Video,progression,buffer,0.002393,1682390518223,sonaID,undefined,7,stack,critical,A,25,stack15.jpg,stack35.jpg,low ,memory-nogoals,NULL
1682390803,2bb2ed98b96001e42d260e3cf06d1842,PennController,10,0,experiment,NULL,Selector,choice,Selection,option1,1682390526735,sonaID,undefined,7,stack,critical,A,25,stack15.jpg,stack35.jpg,low ,memory-nogoals,option1;option2
1682390803,2bb2ed98b96001e42d260e3cf06d1842,PennController,10,0,experiment,NULL,PennController,9,_Trial_,End,1682390526737,sonaID,undefined,7,stack,critical,A,25,stack15.jpg,stack35.jpg,low ,memory-nogoals,NULL
1682390803,2bb2ed98b96001e42d260e3cf06d1842,PennController,31,0,experiment,NULL,PennController,30,_Trial_,Start,1682390526739,sonaID,undefined,28,sort,filler,A,25,sort15.jpg,sort35.jpg,GoalB,memory-nogoals,NULL
1682390803,2bb2ed98b96001e42d260e3cf06d1842,PennController,31,0,experiment,NULL,PennController,30,_Header_,Start,1682390526739,sonaID,undefined,28,sort,filler,A,25,sort15.jpg,sort35.jpg,GoalB,memory-nogoals,NULL
1682390803,2bb2ed98b96001e42d260e3cf06d1842,PennController,31,0,experiment,NULL,PennController,30,_Header_,End,1682390526739,sonaID,undefined,28,sort,filler,A,25,sort15.jpg,sort35.jpg,GoalB,memory-nogoals,NULL
1682390803,2bb2ed98b96001e42d260e3cf06d1842,PennController,31,0,experiment,NULL,Canvas,canvas6,Print,NA,1682390531386,sonaID,undefined,28,sort,filler,A,25,sort15.jpg,sort35.jpg,GoalB,memory-nogoals,NULL
1682390803,2bb2ed98b96001e42d260e3cf06d1842,PennController,31,0,experiment,NULL,Video,progression,buffer,0.001925,1682390529268,sonaID,undefined,28,sort,filler,A,25,sort15.jpg,sort35.jpg,GoalB,memory-nogoals,NULL
1682390803,2bb2ed98b96001e42d260e3cf06d1842,PennController,31,0,experiment,NULL,Selector,choice,Selection,option1,1682390534469,sonaID,undefined,28,sort,filler,A,25,sort15.jpg,sort35.jpg,GoalB,memory-nogoals,option2;option1
1682390803,2bb2ed98b96001e42d260e3cf06d1842,PennController,31,0,experiment,NULL,PennController,30,_Trial_,End,1682390534470,sonaID,undefined,28,sort,filler,A,25,sort15.jpg,sort35.jpg,GoalB,memory-nogoals,NULL
1682390803,2bb2ed98b96001e42d260e3cf06d1842,PennController,30,0,experiment,NULL,PennController,29,_PreloadFailed_,fixation.png,1682390594493,sonaID,undefined,27,rice,filler,A,75,square65.jpg,square85.jpg,GoalA,memory-nogoals,NULL
1682390803,2bb2ed98b96001e42d260e3cf06d1842,PennController,30,0,experiment,NULL,PennController,29,_PreloadFailed_,https://raw.githubusercontent.com/karenwli/rep-momentum/main/rice/rice00.jpg,1682390594493,sonaID,undefined,27,rice,filler,A,75,square65.jpg,square85.jpg,GoalA,memory-nogoals,NULL
1682390803,2bb2ed98b96001e42d260e3cf06d1842,PennController,30,0,experiment,NULL,PennController,29,_PreloadFailed_,https://video.wixstatic.com/video/7cb05b_41aae65ca27d43c3a89b5e46732d18ff/144p/mp4/file.mp4,1682390594493,sonaID,undefined,27,rice,filler,A,75,square65.jpg,square85.jpg,GoalA,memory-nogoals,NULL
1682390803,2bb2ed98b96001e42d260e3cf06d1842,PennController,30,0,experiment,NULL,PennController,29,_Trial_,Start,1682390594495,sonaID,undefined,27,rice,filler,A,75,square65.jpg,square85.jpg,GoalA,memory-nogoals,NULL
1682390803,2bb2ed98b96001e42d260e3cf06d1842,PennController,30,0,experiment,NULL,PennController,29,_Header_,Start,1682390594495,sonaID,undefined,27,rice,filler,A,75,square65.jpg,square85.jpg,GoalA,memory-nogoals,NULL
1682390803,2bb2ed98b96001e42d260e3cf06d1842,PennController,30,0,experiment,NULL,PennController,29,_Header_,End,1682390594495,sonaID,undefined,27,rice,filler,A,75,square65.jpg,square85.jpg,GoalA,memory-nogoals,NULL
1682390803,2bb2ed98b96001e42d260e3cf06d1842,PennController,30,0,experiment,NULL,Canvas,canvas6,Print,NA,1682390601165,sonaID,undefined,27,rice,filler,A,75,square65.jpg,square85.jpg,GoalA,memory-nogoals,NULL
1682390803,2bb2ed98b96001e42d260e3cf06d1842,PennController,30,0,experiment,NULL,Video,progression,buffer,0.003829,1682390597029,sonaID,undefined,27,rice,filler,A,75,square65.jpg,square85.jpg,GoalA,memory-nogoals,NULL
1682390803,2bb2ed98b96001e42d260e3cf06d1842,PennController,30,0,experiment,NULL,Selector,choice,Selection,option2,1682390618942,sonaID,undefined,27,rice,filler,A,75,square65.jpg,square85.jpg,GoalA,memory-nogoals,option2;option1
1682390803,2bb2ed98b96001e42d260e3cf06d1842,PennController,30,0,experiment,NULL,PennController,29,_Trial_,End,1682390618948,sonaID,undefined,27,rice,filler,A,75,square65.jpg,square85.jpg,GoalA,memory-nogoals,NULL
1682390803,2bb2ed98b96001e42d260e3cf06d1842,PennController,28,0,experiment,NULL,PennController,27,_Trial_,Start,1682390618950,sonaID,undefined,25,house,filler,A,25,house15.jpg,house35.jpg,GoalA,memory-nogoals,NULL
1682390803,2bb2ed98b96001e42d260e3cf06d1842,PennController,28,0,experiment,NULL,PennController,27,_Header_,Start,1682390618950,sonaID,undefined,25,house,filler,A,25,house15.jpg,house35.jpg,GoalA,memory-nogoals,NULL
1682390803,2bb2ed98b96001e42d260e3cf06d1842,PennController,28,0,experiment,NULL,PennController,27,_Header_,End,1682390618950,sonaID,undefined,25,house,filler,A,25,house15.jpg,house35.jpg,GoalA,memory-nogoals,NULL
1682390803,2bb2ed98b96001e42d260e3cf06d1842,PennController,28,0,experiment,NULL,Canvas,canvas6,Print,NA,1682390623617,sonaID,undefined,25,house,filler,A,25,house15.jpg,house35.jpg,GoalA,memory-nogoals,NULL
1682390803,2bb2ed98b96001e42d260e3cf06d1842,PennController,28,0,experiment,NULL,Video,progression,buffer,0.004018,1682390621479,sonaID,undefined,25,house,filler,A,25,house15.jpg,house35.jpg,GoalA,memory-nogoals,NULL
1682390803,2bb2ed98b96001e42d260e3cf06d1842,PennController,28,0,experiment,NULL,Selector,choice,Selection,option2,1682390627340,sonaID,undefined,25,house,filler,A,25,house15.jpg,house35.jpg,GoalA,memory-nogoals,option1;option2
1682390803,2bb2ed98b96001e42d260e3cf06d1842,PennController,28,0,experiment,NULL,PennController,27,_Trial_,End,1682390627347,sonaID,undefined,25,house,filler,A,25,house15.jpg,house35.jpg,GoalA,memory-nogoals,NULL
1682390803,2bb2ed98b96001e42d260e3cf06d1842,PennController,17,0,experiment,NULL,PennController,16,_Trial_,Start,1682390627349,sonaID,undefined,14,cover,critical,A,50,cover42.jpg,cover60.jpg,high,memory-nogoals,NULL
1682390803,2bb2ed98b96001e42d260e3cf06d1842,PennController,17,0,experiment,NULL,PennController,16,_Header_,Start,1682390627349,sonaID,undefined,14,cover,critical,A,50,cover42.jpg,cover60.jpg,high,memory-nogoals,NULL
1682390803,2bb2ed98b96001e42d260e3cf06d1842,PennController,17,0,experiment,NULL,PennController,16,_Header_,End,1682390627349,sonaID,undefined,14,cover,critical,A,50,cover42.jpg,cover60.jpg,high,memory-nogoals,NULL
1682390803,2bb2ed98b96001e42d260e3cf06d1842,PennController,17,0,experiment,NULL,Canvas,canvas6,Print,NA,1682390634380,sonaID,undefined,14,cover,critical,A,50,cover42.jpg,cover60.jpg,high,memory-nogoals,NULL
1682390803,2bb2ed98b96001e42d260e3cf06d1842,PennController,17,0,experiment,NULL,Video,progression,buffer,0.00515,1682390629881,sonaID,undefined,14,cover,critical,A,50,cover42.jpg,cover60.jpg,high,memory-nogoals,NULL
1682390803,2bb2ed98b96001e42d260e3cf06d1842,PennController,17,0,experiment,NULL,Selector,choice,Selection,option2,1682390641543,sonaID,undefined,14,cover,critical,A,50,cover42.jpg,cover60.jpg,high,memory-nogoals,option1;option2
1682390803,2bb2ed98b96001e42d260e3cf06d1842,PennController,17,0,experiment,NULL,PennController,16,_Trial_,End,1682390641548,sonaID,undefined,14,cover,critical,A,50,cover42.jpg,cover60.jpg,high,memory-nogoals,NULL
1682390803,2bb2ed98b96001e42d260e3cf06d1842,PennController,26,0,experiment,NULL,PennController,25,_Trial_,Start,1682390641550,sonaID,undefined,23,color,filler,A,50,color40.jpg,color60.jpg,GoalA,memory-nogoals,NULL
1682390803,2bb2ed98b96001e42d260e3cf06d1842,PennController,26,0,experiment,NULL,PennController,25,_Header_,Start,1682390641550,sonaID,undefined,23,color,filler,A,50,color40.jpg,color60.jpg,GoalA,memory-nogoals,NULL
1682390803,2bb2ed98b96001e42d260e3cf06d1842,PennController,26,0,experiment,NULL,PennController,25,_Header_,End,1682390641550,sonaID,undefined,23,color,filler,A,50,color40.jpg,color60.jpg,GoalA,memory-nogoals,NULL
1682390803,2bb2ed98b96001e42d260e3cf06d1842,PennController,26,0,experiment,NULL,Canvas,canvas6,Print,NA,1682390647186,sonaID,undefined,23,color,filler,A,50,color40.jpg,color60.jpg,GoalA,memory-nogoals,NULL
1682390803,2bb2ed98b96001e42d260e3cf06d1842,PennController,26,0,experiment,NULL,Video,progression,buffer,0.003195,1682390644075,sonaID,undefined,23,color,filler,A,50,color40.jpg,color60.jpg,GoalA,memory-nogoals,NULL
1682390803,2bb2ed98b96001e42d260e3cf06d1842,PennController,26,0,experiment,NULL,Selector,choice,Selection,option2,1682390651939,sonaID,undefined,23,color,filler,A,50,color40.jpg,color60.jpg,GoalA,memory-nogoals,option2;option1
1682390803,2bb2ed98b96001e42d260e3cf06d1842,PennController,26,0,experiment,NULL,PennController,25,_Trial_,End,1682390651940,sonaID,undefined,23,color,filler,A,50,color40.jpg,color60.jpg,GoalA,memory-nogoals,NULL
1682390803,2bb2ed98b96001e42d260e3cf06d1842,PennController,4,0,experiment,NULL,PennController,3,_Trial_,Start,1682390651942,sonaID,undefined,1,vase,critical,A,25,vase15.jpg,vase35.jpg,low ,memory-nogoals,NULL
1682390803,2bb2ed98b96001e42d260e3cf06d1842,PennController,4,0,experiment,NULL,PennController,3,_Header_,Start,1682390651942,sonaID,undefined,1,vase,critical,A,25,vase15.jpg,vase35.jpg,low ,memory-nogoals,NULL
1682390803,2bb2ed98b96001e42d260e3cf06d1842,PennController,4,0,experiment,NULL,PennController,3,_Header_,End,1682390651942,sonaID,undefined,1,vase,critical,A,25,vase15.jpg,vase35.jpg,low ,memory-nogoals,NULL
1682390803,2bb2ed98b96001e42d260e3cf06d1842,PennController,4,0,experiment,NULL,Canvas,canvas6,Print,NA,1682390656577,sonaID,undefined,1,vase,critical,A,25,vase15.jpg,vase35.jpg,low ,memory-nogoals,NULL
1682390803,2bb2ed98b96001e42d260e3cf06d1842,PennController,4,0,experiment,NULL,Video,progression,buffer,0.002581,1682390654459,sonaID,undefined,1,vase,critical,A,25,vase15.jpg,vase35.jpg,low ,memory-nogoals,NULL
1682390803,2bb2ed98b96001e42d260e3cf06d1842,PennController,4,0,experiment,NULL,Selector,choice,Selection,option2,1682390657577,sonaID,undefined,1,vase,critical,A,25,vase15.jpg,vase35.jpg,low ,memory-nogoals,option1;option2
1682390803,2bb2ed98b96001e42d260e3cf06d1842,PennController,4,0,experiment,NULL,PennController,3,_Trial_,End,1682390657579,sonaID,undefined,1,vase,critical,A,25,vase15.jpg,vase35.jpg,low ,memory-nogoals,NULL
1682390803,2bb2ed98b96001e42d260e3cf06d1842,PennController,15,0,experiment,NULL,PennController,14,_Trial_,Start,1682390657580,sonaID,undefined,12,erase,critical,A,75,erase66.jpg,erase84.jpg,high,memory-nogoals,NULL
1682390803,2bb2ed98b96001e42d260e3cf06d1842,PennController,15,0,experiment,NULL,PennController,14,_Header_,Start,1682390657580,sonaID,undefined,12,erase,critical,A,75,erase66.jpg,erase84.jpg,high,memory-nogoals,NULL
1682390803,2bb2ed98b96001e42d260e3cf06d1842,PennController,15,0,experiment,NULL,PennController,14,_Header_,End,1682390657581,sonaID,undefined,12,erase,critical,A,75,erase66.jpg,erase84.jpg,high,memory-nogoals,NULL
1682390803,2bb2ed98b96001e42d260e3cf06d1842,PennController,15,0,experiment,NULL,Canvas,canvas6,Print,NA,1682390666227,sonaID,undefined,12,erase,critical,A,75,erase66.jpg,erase84.jpg,high,memory-nogoals,NULL
1682390803,2bb2ed98b96001e42d260e3cf06d1842,PennController,15,0,experiment,NULL,Video,progression,buffer,0.002952,1682390660096,sonaID,undefined,12,erase,critical,A,75,erase66.jpg,erase84.jpg,high,memory-nogoals,NULL
1682390803,2bb2ed98b96001e42d260e3cf06d1842,PennController,15,0,experiment,NULL,Selector,choice,Selection,option2,1682390667340,sonaID,undefined,12,erase,critical,A,75,erase66.jpg,erase84.jpg,high,memory-nogoals,option1;option2
1682390803,2bb2ed98b96001e42d260e3cf06d1842,PennController,15,0,experiment,NULL,PennController,14,_Trial_,End,1682390667344,sonaID,undefined,12,erase,critical,A,75,erase66.jpg,erase84.jpg,high,memory-nogoals,NULL
1682390803,2bb2ed98b96001e42d260e3cf06d1842,PennController,14,0,experiment,NULL,PennController,13,_Trial_,Start,1682390667346,sonaID,undefined,11,beads,critical,A,50,beads40.jpg,beads60.jpg,low ,memory-nogoals,NULL
1682390803,2bb2ed98b96001e42d260e3cf06d1842,PennController,14,0,experiment,NULL,PennController,13,_Header_,Start,1682390667346,sonaID,undefined,11,beads,critical,A,50,beads40.jpg,beads60.jpg,low ,memory-nogoals,NULL
1682390803,2bb2ed98b96001e42d260e3cf06d1842,PennController,14,0,experiment,NULL,PennController,13,_Header_,End,1682390667346,sonaID,undefined,11,beads,critical,A,50,beads40.jpg,beads60.jpg,low ,memory-nogoals,NULL
1682390803,2bb2ed98b96001e42d260e3cf06d1842,PennController,14,0,experiment,NULL,Canvas,canvas6,Print,NA,1682390672987,sonaID,undefined,11,beads,critical,A,50,beads40.jpg,beads60.jpg,low ,memory-nogoals,NULL
1682390803,2bb2ed98b96001e42d260e3cf06d1842,PennController,14,0,experiment,NULL,Video,progression,buffer,0.002432,1682390669865,sonaID,undefined,11,beads,critical,A,50,beads40.jpg,beads60.jpg,low ,memory-nogoals,NULL
1682390803,2bb2ed98b96001e42d260e3cf06d1842,PennController,14,0,experiment,NULL,Selector,choice,Selection,option2,1682390675722,sonaID,undefined,11,beads,critical,A,50,beads40.jpg,beads60.jpg,low ,memory-nogoals,option2;option1
1682390803,2bb2ed98b96001e42d260e3cf06d1842,PennController,14,0,experiment,NULL,PennController,13,_Trial_,End,1682390675724,sonaID,undefined,11,beads,critical,A,50,beads40.jpg,beads60.jpg,low ,memory-nogoals,NULL
1682390803,2bb2ed98b96001e42d260e3cf06d1842,PennController,27,0,experiment,NULL,PennController,26,_Trial_,Start,1682390675725,sonaID,undefined,24,match,filler,A,75,match65.jpg,match85.jpg,GoalB,memory-nogoals,NULL
1682390803,2bb2ed98b96001e42d260e3cf06d1842,PennController,27,0,experiment,NULL,PennController,26,_Header_,Start,1682390675725,sonaID,undefined,24,match,filler,A,75,match65.jpg,match85.jpg,GoalB,memory-nogoals,NULL
1682390803,2bb2ed98b96001e42d260e3cf06d1842,PennController,27,0,experiment,NULL,PennController,26,_Header_,End,1682390675725,sonaID,undefined,24,match,filler,A,75,match65.jpg,match85.jpg,GoalB,memory-nogoals,NULL
1682390803,2bb2ed98b96001e42d260e3cf06d1842,PennController,27,0,experiment,NULL,Canvas,canvas6,Print,NA,1682390682365,sonaID,undefined,24,match,filler,A,75,match65.jpg,match85.jpg,GoalB,memory-nogoals,NULL
1682390803,2bb2ed98b96001e42d260e3cf06d1842,PennController,27,0,experiment,NULL,Video,progression,buffer,0.003243,1682390678247,sonaID,undefined,24,match,filler,A,75,match65.jpg,match85.jpg,GoalB,memory-nogoals,NULL
1682390803,2bb2ed98b96001e42d260e3cf06d1842,PennController,27,0,experiment,NULL,Selector,choice,Selection,option2,1682390687006,sonaID,undefined,24,match,filler,A,75,match65.jpg,match85.jpg,GoalB,memory-nogoals,option2;option1
1682390803,2bb2ed98b96001e42d260e3cf06d1842,PennController,27,0,experiment,NULL,PennController,26,_Trial_,End,1682390687008,sonaID,undefined,24,match,filler,A,75,match65.jpg,match85.jpg,GoalB,memory-nogoals,NULL
1682390803,2bb2ed98b96001e42d260e3cf06d1842,PennController,11,0,experiment,NULL,PennController,10,_Trial_,Start,1682390687010,sonaID,undefined,8,cucumber,critical,A,50,cucumber42.jpg,cucumber60.jpg,high,memory-nogoals,NULL
1682390803,2bb2ed98b96001e42d260e3cf06d1842,PennController,11,0,experiment,NULL,PennController,10,_Header_,Start,1682390687010,sonaID,undefined,8,cucumber,critical,A,50,cucumber42.jpg,cucumber60.jpg,high,memory-nogoals,NULL
1682390803,2bb2ed98b96001e42d260e3cf06d1842,PennController,11,0,experiment,NULL,PennController,10,_Header_,End,1682390687010,sonaID,undefined,8,cucumber,critical,A,50,cucumber42.jpg,cucumber60.jpg,high,memory-nogoals,NULL
1682390803,2bb2ed98b96001e42d260e3cf06d1842,PennController,11,0,experiment,NULL,Canvas,canvas6,Print,NA,1682390694053,sonaID,undefined,8,cucumber,critical,A,50,cucumber42.jpg,cucumber60.jpg,high,memory-nogoals,NULL
1682390803,2bb2ed98b96001e42d260e3cf06d1842,PennController,11,0,experiment,NULL,Video,progression,buffer,0.002417,1682390689532,sonaID,undefined,8,cucumber,critical,A,50,cucumber42.jpg,cucumber60.jpg,high,memory-nogoals,NULL
1682390803,2bb2ed98b96001e42d260e3cf06d1842,PennController,11,0,experiment,NULL,Selector,choice,Selection,option1,1682390698587,sonaID,undefined,8,cucumber,critical,A,50,cucumber42.jpg,cucumber60.jpg,high,memory-nogoals,option1;option2
1682390803,2bb2ed98b96001e42d260e3cf06d1842,PennController,11,0,experiment,NULL,PennController,10,_Trial_,End,1682390698589,sonaID,undefined,8,cucumber,critical,A,50,cucumber42.jpg,cucumber60.jpg,high,memory-nogoals,NULL
1682390803,2bb2ed98b96001e42d260e3cf06d1842,PennController,22,0,experiment,NULL,PennController,21,_Trial_,Start,1682390698591,sonaID,undefined,19,cup,filler,A,25,cup15.jpg,cup35.jpg,GoalA,memory-nogoals,NULL
1682390803,2bb2ed98b96001e42d260e3cf06d1842,PennController,22,0,experiment,NULL,PennController,21,_Header_,Start,1682390698591,sonaID,undefined,19,cup,filler,A,25,cup15.jpg,cup35.jpg,GoalA,memory-nogoals,NULL
1682390803,2bb2ed98b96001e42d260e3cf06d1842,PennController,22,0,experiment,NULL,PennController,21,_Header_,End,1682390698591,sonaID,undefined,19,cup,filler,A,25,cup15.jpg,cup35.jpg,GoalA,memory-nogoals,NULL
1682390803,2bb2ed98b96001e42d260e3cf06d1842,PennController,22,0,experiment,NULL,Canvas,canvas6,Print,NA,1682390703232,sonaID,undefined,19,cup,filler,A,25,cup15.jpg,cup35.jpg,GoalA,memory-nogoals,NULL
1682390803,2bb2ed98b96001e42d260e3cf06d1842,PennController,22,0,experiment,NULL,Video,progression,buffer,0.002025,1682390701112,sonaID,undefined,19,cup,filler,A,25,cup15.jpg,cup35.jpg,GoalA,memory-nogoals,NULL
1682390803,2bb2ed98b96001e42d260e3cf06d1842,PennController,22,0,experiment,NULL,Selector,choice,Selection,option2,1682390704482,sonaID,undefined,19,cup,filler,A,25,cup15.jpg,cup35.jpg,GoalA,memory-nogoals,option2;option1
1682390803,2bb2ed98b96001e42d260e3cf06d1842,PennController,22,0,experiment,NULL,PennController,21,_Trial_,End,1682390704483,sonaID,undefined,19,cup,filler,A,25,cup15.jpg,cup35.jpg,GoalA,memory-nogoals,NULL
1682390803,2bb2ed98b96001e42d260e3cf06d1842,PennController,13,0,experiment,NULL,PennController,12,_Trial_,Start,1682390704486,sonaID,undefined,10,train,critical,A,25,train15.jpg,train35.jpg,high,memory-nogoals,NULL
1682390803,2bb2ed98b96001e42d260e3cf06d1842,PennController,13,0,experiment,NULL,PennController,12,_Header_,Start,1682390704486,sonaID,undefined,10,train,critical,A,25,train15.jpg,train35.jpg,high,memory-nogoals,NULL
1682390803,2bb2ed98b96001e42d260e3cf06d1842,PennController,13,0,experiment,NULL,PennController,12,_Header_,End,1682390704486,sonaID,undefined,10,train,critical,A,25,train15.jpg,train35.jpg,high,memory-nogoals,NULL
1682390803,2bb2ed98b96001e42d260e3cf06d1842,PennController,13,0,experiment,NULL,Canvas,canvas6,Print,NA,1682390709121,sonaID,undefined,10,train,critical,A,25,train15.jpg,train35.jpg,high,memory-nogoals,NULL
1682390803,2bb2ed98b96001e42d260e3cf06d1842,PennController,13,0,experiment,NULL,Video,progression,buffer,0.001225,1682390706998,sonaID,undefined,10,train,critical,A,25,train15.jpg,train35.jpg,high,memory-nogoals,NULL
1682390803,2bb2ed98b96001e42d260e3cf06d1842,PennController,13,0,experiment,NULL,Selector,choice,Selection,option2,1682390713528,sonaID,undefined,10,train,critical,A,25,train15.jpg,train35.jpg,high,memory-nogoals,option1;option2
1682390803,2bb2ed98b96001e42d260e3cf06d1842,PennController,13,0,experiment,NULL,PennController,12,_Trial_,End,1682390713532,sonaID,undefined,10,train,critical,A,25,train15.jpg,train35.jpg,high,memory-nogoals,NULL
1682390803,2bb2ed98b96001e42d260e3cf06d1842,PennController,20,0,experiment,NULL,PennController,19,_Trial_,Start,1682390713534,sonaID,undefined,17,roll,critical,A,50,roll40.jpg,roll60.jpg,low ,memory-nogoals,NULL
1682390803,2bb2ed98b96001e42d260e3cf06d1842,PennController,20,0,experiment,NULL,PennController,19,_Header_,Start,1682390713534,sonaID,undefined,17,roll,critical,A,50,roll40.jpg,roll60.jpg,low ,memory-nogoals,NULL
1682390803,2bb2ed98b96001e42d260e3cf06d1842,PennController,20,0,experiment,NULL,PennController,19,_Header_,End,1682390713534,sonaID,undefined,17,roll,critical,A,50,roll40.jpg,roll60.jpg,low ,memory-nogoals,NULL
1682390803,2bb2ed98b96001e42d260e3cf06d1842,PennController,20,0,experiment,NULL,Canvas,canvas6,Print,NA,1682390719186,sonaID,undefined,17,roll,critical,A,50,roll40.jpg,roll60.jpg,low ,memory-nogoals,NULL
1682390803,2bb2ed98b96001e42d260e3cf06d1842,PennController,20,0,experiment,NULL,Video,progression,buffer,0.003162,1682390716053,sonaID,undefined,17,roll,critical,A,50,roll40.jpg,roll60.jpg,low ,memory-nogoals,NULL
1682390803,2bb2ed98b96001e42d260e3cf06d1842,PennController,20,0,experiment,NULL,Selector,choice,Selection,option2,1682390720574,sonaID,undefined,17,roll,critical,A,50,roll40.jpg,roll60.jpg,low ,memory-nogoals,option1;option2
1682390803,2bb2ed98b96001e42d260e3cf06d1842,PennController,20,0,experiment,NULL,PennController,19,_Trial_,End,1682390720575,sonaID,undefined,17,roll,critical,A,50,roll40.jpg,roll60.jpg,low ,memory-nogoals,NULL
1682390803,2bb2ed98b96001e42d260e3cf06d1842,PennController,12,0,experiment,NULL,PennController,11,_Trial_,Start,1682390720577,sonaID,undefined,9,cake,critical,A,75,cake66.jpg,cake84.jpg,low ,memory-nogoals,NULL
1682390803,2bb2ed98b96001e42d260e3cf06d1842,PennController,12,0,experiment,NULL,PennController,11,_Header_,Start,1682390720577,sonaID,undefined,9,cake,critical,A,75,cake66.jpg,cake84.jpg,low ,memory-nogoals,NULL
1682390803,2bb2ed98b96001e42d260e3cf06d1842,PennController,12,0,experiment,NULL,PennController,11,_Header_,End,1682390720577,sonaID,undefined,9,cake,critical,A,75,cake66.jpg,cake84.jpg,low ,memory-nogoals,NULL
1682390803,2bb2ed98b96001e42d260e3cf06d1842,PennController,12,0,experiment,NULL,Canvas,canvas6,Print,NA,1682390729219,sonaID,undefined,9,cake,critical,A,75,cake66.jpg,cake84.jpg,low ,memory-nogoals,NULL
1682390803,2bb2ed98b96001e42d260e3cf06d1842,PennController,12,0,experiment,NULL,Video,progression,buffer,0.002536,1682390723097,sonaID,undefined,9,cake,critical,A,75,cake66.jpg,cake84.jpg,low ,memory-nogoals,NULL
1682390803,2bb2ed98b96001e42d260e3cf06d1842,PennController,12,0,experiment,NULL,Selector,choice,Selection,option2,1682390731229,sonaID,undefined,9,cake,critical,A,75,cake66.jpg,cake84.jpg,low ,memory-nogoals,option1;option2
1682390803,2bb2ed98b96001e42d260e3cf06d1842,PennController,12,0,experiment,NULL,PennController,11,_Trial_,End,1682390731230,sonaID,undefined,9,cake,critical,A,75,cake66.jpg,cake84.jpg,low ,memory-nogoals,NULL
1682390803,2bb2ed98b96001e42d260e3cf06d1842,PennController,9,0,experiment,NULL,PennController,8,_Trial_,Start,1682390731231,sonaID,undefined,6,flower,critical,A,75,flower65.jpg,flower85.jpg,high,memory-nogoals,NULL
1682390803,2bb2ed98b96001e42d260e3cf06d1842,PennController,9,0,experiment,NULL,PennController,8,_Header_,Start,1682390731231,sonaID,undefined,6,flower,critical,A,75,flower65.jpg,flower85.jpg,high,memory-nogoals,NULL
1682390803,2bb2ed98b96001e42d260e3cf06d1842,PennController,9,0,experiment,NULL,PennController,8,_Header_,End,1682390731231,sonaID,undefined,6,flower,critical,A,75,flower65.jpg,flower85.jpg,high,memory-nogoals,NULL
1682390803,2bb2ed98b96001e42d260e3cf06d1842,PennController,9,0,experiment,NULL,Canvas,canvas6,Print,NA,1682390737847,sonaID,undefined,6,flower,critical,A,75,flower65.jpg,flower85.jpg,high,memory-nogoals,NULL
1682390803,2bb2ed98b96001e42d260e3cf06d1842,PennController,9,0,experiment,NULL,Video,progression,buffer,0.006045,1682390733751,sonaID,undefined,6,flower,critical,A,75,flower65.jpg,flower85.jpg,high,memory-nogoals,NULL
1682390803,2bb2ed98b96001e42d260e3cf06d1842,PennController,9,0,experiment,NULL,Selector,choice,Selection,option1,1682390739186,sonaID,undefined,6,flower,critical,A,75,flower65.jpg,flower85.jpg,high,memory-nogoals,option1;option2
1682390803,2bb2ed98b96001e42d260e3cf06d1842,PennController,9,0,experiment,NULL,PennController,8,_Trial_,End,1682390739188,sonaID,undefined,6,flower,critical,A,75,flower65.jpg,flower85.jpg,high,memory-nogoals,NULL
1682390803,2bb2ed98b96001e42d260e3cf06d1842,PennController,8,0,experiment,NULL,PennController,7,_Trial_,Start,1682390739190,sonaID,undefined,5,book,critical,A,50,book40.jpg,book60.jpg,low ,memory-nogoals,NULL
1682390803,2bb2ed98b96001e42d260e3cf06d1842,PennController,8,0,experiment,NULL,PennController,7,_Header_,Start,1682390739190,sonaID,undefined,5,book,critical,A,50,book40.jpg,book60.jpg,low ,memory-nogoals,NULL
1682390803,2bb2ed98b96001e42d260e3cf06d1842,PennController,8,0,experiment,NULL,PennController,7,_Header_,End,1682390739190,sonaID,undefined,5,book,critical,A,50,book40.jpg,book60.jpg,low ,memory-nogoals,NULL
1682390803,2bb2ed98b96001e42d260e3cf06d1842,PennController,8,0,experiment,NULL,Canvas,canvas6,Print,NA,1682390744821,sonaID,undefined,5,book,critical,A,50,book40.jpg,book60.jpg,low ,memory-nogoals,NULL
1682390803,2bb2ed98b96001e42d260e3cf06d1842,PennController,8,0,experiment,NULL,Video,progression,buffer,0.003352,1682390741710,sonaID,undefined,5,book,critical,A,50,book40.jpg,book60.jpg,low ,memory-nogoals,NULL
1682390803,2bb2ed98b96001e42d260e3cf06d1842,PennController,8,0,experiment,NULL,Selector,choice,Selection,option2,1682390747642,sonaID,undefined,5,book,critical,A,50,book40.jpg,book60.jpg,low ,memory-nogoals,option2;option1
1682390803,2bb2ed98b96001e42d260e3cf06d1842,PennController,8,0,experiment,NULL,PennController,7,_Trial_,End,1682390747643,sonaID,undefined,5,book,critical,A,50,book40.jpg,book60.jpg,low ,memory-nogoals,NULL
1682390803,2bb2ed98b96001e42d260e3cf06d1842,PennController,7,0,experiment,NULL,PennController,6,_Trial_,Start,1682390747645,sonaID,undefined,4,candy,critical,A,25,candy15.jpg,candy35.jpg,high,memory-nogoals,NULL
1682390803,2bb2ed98b96001e42d260e3cf06d1842,PennController,7,0,experiment,NULL,PennController,6,_Header_,Start,1682390747645,sonaID,undefined,4,candy,critical,A,25,candy15.jpg,candy35.jpg,high,memory-nogoals,NULL
1682390803,2bb2ed98b96001e42d260e3cf06d1842,PennController,7,0,experiment,NULL,PennController,6,_Header_,End,1682390747645,sonaID,undefined,4,candy,critical,A,25,candy15.jpg,candy35.jpg,high,memory-nogoals,NULL
1682390803,2bb2ed98b96001e42d260e3cf06d1842,PennController,7,0,experiment,NULL,Canvas,canvas6,Print,NA,1682390752287,sonaID,undefined,4,candy,critical,A,25,candy15.jpg,candy35.jpg,high,memory-nogoals,NULL
1682390803,2bb2ed98b96001e42d260e3cf06d1842,PennController,7,0,experiment,NULL,Video,progression,buffer,0.002036,1682390750159,sonaID,undefined,4,candy,critical,A,25,candy15.jpg,candy35.jpg,high,memory-nogoals,NULL
1682390803,2bb2ed98b96001e42d260e3cf06d1842,PennController,7,0,experiment,NULL,Selector,choice,Selection,option1,1682390755131,sonaID,undefined,4,candy,critical,A,25,candy15.jpg,candy35.jpg,high,memory-nogoals,option1;option2
1682390803,2bb2ed98b96001e42d260e3cf06d1842,PennController,7,0,experiment,NULL,PennController,6,_Trial_,End,1682390755133,sonaID,undefined,4,candy,critical,A,25,candy15.jpg,candy35.jpg,high,memory-nogoals,NULL
1682390803,2bb2ed98b96001e42d260e3cf06d1842,PennController,32,0,experiment,NULL,PennController,31,_Trial_,Start,1682390755135,sonaID,undefined,29,frog,filler,A,50,frog40.jpg,frog60.jpg,GoalA,memory-nogoals,NULL
1682390803,2bb2ed98b96001e42d260e3cf06d1842,PennController,32,0,experiment,NULL,PennController,31,_Header_,Start,1682390755135,sonaID,undefined,29,frog,filler,A,50,frog40.jpg,frog60.jpg,GoalA,memory-nogoals,NULL
1682390803,2bb2ed98b96001e42d260e3cf06d1842,PennController,32,0,experiment,NULL,PennController,31,_Header_,End,1682390755135,sonaID,undefined,29,frog,filler,A,50,frog40.jpg,frog60.jpg,GoalA,memory-nogoals,NULL
1682390803,2bb2ed98b96001e42d260e3cf06d1842,PennController,32,0,experiment,NULL,Canvas,canvas6,Print,NA,1682390760784,sonaID,undefined,29,frog,filler,A,50,frog40.jpg,frog60.jpg,GoalA,memory-nogoals,NULL
1682390803,2bb2ed98b96001e42d260e3cf06d1842,PennController,32,0,experiment,NULL,Video,progression,buffer,0.004072,1682390757658,sonaID,undefined,29,frog,filler,A,50,frog40.jpg,frog60.jpg,GoalA,memory-nogoals,NULL
1682390803,2bb2ed98b96001e42d260e3cf06d1842,PennController,32,0,experiment,NULL,Selector,choice,Selection,option1,1682390762242,sonaID,undefined,29,frog,filler,A,50,frog40.jpg,frog60.jpg,GoalA,memory-nogoals,option2;option1
1682390803,2bb2ed98b96001e42d260e3cf06d1842,PennController,32,0,experiment,NULL,PennController,31,_Trial_,End,1682390762243,sonaID,undefined,29,frog,filler,A,50,frog40.jpg,frog60.jpg,GoalA,memory-nogoals,NULL
1682390803,2bb2ed98b96001e42d260e3cf06d1842,PennController,25,0,experiment,NULL,PennController,24,_Trial_,Start,1682390762244,sonaID,undefined,22,wall,filler,A,25,wall15.jpg,wall35.jpg,GoalB,memory-nogoals,NULL
1682390803,2bb2ed98b96001e42d260e3cf06d1842,PennController,25,0,experiment,NULL,PennController,24,_Header_,Start,1682390762244,sonaID,undefined,22,wall,filler,A,25,wall15.jpg,wall35.jpg,GoalB,memory-nogoals,NULL
1682390803,2bb2ed98b96001e42d260e3cf06d1842,PennController,25,0,experiment,NULL,PennController,24,_Header_,End,1682390762244,sonaID,undefined,22,wall,filler,A,25,wall15.jpg,wall35.jpg,GoalB,memory-nogoals,NULL
1682390803,2bb2ed98b96001e42d260e3cf06d1842,PennController,25,0,experiment,NULL,Canvas,canvas6,Print,NA,1682390766886,sonaID,undefined,22,wall,filler,A,25,wall15.jpg,wall35.jpg,GoalB,memory-nogoals,NULL
1682390803,2bb2ed98b96001e42d260e3cf06d1842,PennController,25,0,experiment,NULL,Video,progression,buffer,0.002584,1682390764766,sonaID,undefined,22,wall,filler,A,25,wall15.jpg,wall35.jpg,GoalB,memory-nogoals,NULL
1682390803,2bb2ed98b96001e42d260e3cf06d1842,PennController,25,0,experiment,NULL,Selector,choice,Selection,option2,1682390776076,sonaID,undefined,22,wall,filler,A,25,wall15.jpg,wall35.jpg,GoalB,memory-nogoals,option2;option1
1682390803,2bb2ed98b96001e42d260e3cf06d1842,PennController,25,0,experiment,NULL,PennController,24,_Trial_,End,1682390776077,sonaID,undefined,22,wall,filler,A,25,wall15.jpg,wall35.jpg,GoalB,memory-nogoals,NULL
1682390803,2bb2ed98b96001e42d260e3cf06d1842,PennController,16,0,experiment,NULL,PennController,15,_Trial_,Start,1682390776079,sonaID,undefined,13,mix,critical,A,25,mix15.jpg,mix35.jpg,low ,memory-nogoals,NULL
1682390803,2bb2ed98b96001e42d260e3cf06d1842,PennController,16,0,experiment,NULL,PennController,15,_Header_,Start,1682390776079,sonaID,undefined,13,mix,critical,A,25,mix15.jpg,mix35.jpg,low ,memory-nogoals,NULL
1682390803,2bb2ed98b96001e42d260e3cf06d1842,PennController,16,0,experiment,NULL,PennController,15,_Header_,End,1682390776079,sonaID,undefined,13,mix,critical,A,25,mix15.jpg,mix35.jpg,low ,memory-nogoals,NULL
1682390803,2bb2ed98b96001e42d260e3cf06d1842,PennController,16,0,experiment,NULL,Canvas,canvas6,Print,NA,1682390780724,sonaID,undefined,13,mix,critical,A,25,mix15.jpg,mix35.jpg,low ,memory-nogoals,NULL
1682390803,2bb2ed98b96001e42d260e3cf06d1842,PennController,16,0,experiment,NULL,Video,progression,buffer,0.002019,1682390778601,sonaID,undefined,13,mix,critical,A,25,mix15.jpg,mix35.jpg,low ,memory-nogoals,NULL
1682390803,2bb2ed98b96001e42d260e3cf06d1842,PennController,16,0,experiment,NULL,Selector,choice,Selection,option1,1682390781755,sonaID,undefined,13,mix,critical,A,25,mix15.jpg,mix35.jpg,low ,memory-nogoals,option1;option2
1682390803,2bb2ed98b96001e42d260e3cf06d1842,PennController,16,0,experiment,NULL,PennController,15,_Trial_,End,1682390781756,sonaID,undefined,13,mix,critical,A,25,mix15.jpg,mix35.jpg,low ,memory-nogoals,NULL
1682390803,2bb2ed98b96001e42d260e3cf06d1842,PennController,5,0,experiment,NULL,PennController,4,_Trial_,Start,1682390781757,sonaID,undefined,2,door,critical,A,50,door40.jpg,door60.jpg,high,memory-nogoals,NULL
1682390803,2bb2ed98b96001e42d260e3cf06d1842,PennController,5,0,experiment,NULL,PennController,4,_Header_,Start,1682390781757,sonaID,undefined,2,door,critical,A,50,door40.jpg,door60.jpg,high,memory-nogoals,NULL
1682390803,2bb2ed98b96001e42d260e3cf06d1842,PennController,5,0,experiment,NULL,PennController,4,_Header_,End,1682390781757,sonaID,undefined,2,door,critical,A,50,door40.jpg,door60.jpg,high,memory-nogoals,NULL
1682390803,2bb2ed98b96001e42d260e3cf06d1842,PennController,5,0,experiment,NULL,Canvas,canvas6,Print,NA,1682390787385,sonaID,undefined,2,door,critical,A,50,door40.jpg,door60.jpg,high,memory-nogoals,NULL
1682390803,2bb2ed98b96001e42d260e3cf06d1842,PennController,5,0,experiment,NULL,Video,progression,buffer,0.002435,1682390784275,sonaID,undefined,2,door,critical,A,50,door40.jpg,door60.jpg,high,memory-nogoals,NULL
1682390803,2bb2ed98b96001e42d260e3cf06d1842,PennController,5,0,experiment,NULL,Selector,choice,Selection,option2,1682390788696,sonaID,undefined,2,door,critical,A,50,door40.jpg,door60.jpg,high,memory-nogoals,option2;option1
1682390803,2bb2ed98b96001e42d260e3cf06d1842,PennController,5,0,experiment,NULL,PennController,4,_Trial_,End,1682390788698,sonaID,undefined,2,door,critical,A,50,door40.jpg,door60.jpg,high,memory-nogoals,NULL
1682390803,2bb2ed98b96001e42d260e3cf06d1842,PennController,21,0,experiment,NULL,PennController,20,_Trial_,Start,1682390788702,sonaID,undefined,18,ball,critical,A,75,ball65.jpg,ball85.jpg,high,memory-nogoals,NULL
1682390803,2bb2ed98b96001e42d260e3cf06d1842,PennController,21,0,experiment,NULL,PennController,20,_Header_,Start,1682390788702,sonaID,undefined,18,ball,critical,A,75,ball65.jpg,ball85.jpg,high,memory-nogoals,NULL
1682390803,2bb2ed98b96001e42d260e3cf06d1842,PennController,21,0,experiment,NULL,PennController,20,_Header_,End,1682390788702,sonaID,undefined,18,ball,critical,A,75,ball65.jpg,ball85.jpg,high,memory-nogoals,NULL
1682390803,2bb2ed98b96001e42d260e3cf06d1842,PennController,21,0,experiment,NULL,Canvas,canvas6,Print,NA,1682390795356,sonaID,undefined,18,ball,critical,A,75,ball65.jpg,ball85.jpg,high,memory-nogoals,NULL
1682390803,2bb2ed98b96001e42d260e3cf06d1842,PennController,21,0,experiment,NULL,Video,progression,buffer,0.005609,1682390791224,sonaID,undefined,18,ball,critical,A,75,ball65.jpg,ball85.jpg,high,memory-nogoals,NULL
1682390803,2bb2ed98b96001e42d260e3cf06d1842,PennController,21,0,experiment,NULL,Selector,choice,Selection,option2,1682390796983,sonaID,undefined,18,ball,critical,A,75,ball65.jpg,ball85.jpg,high,memory-nogoals,option2;option1
1682390803,2bb2ed98b96001e42d260e3cf06d1842,PennController,21,0,experiment,NULL,PennController,20,_Trial_,End,1682390796985,sonaID,undefined,18,ball,critical,A,75,ball65.jpg,ball85.jpg,high,memory-nogoals,NULL
1682390803,2bb2ed98b96001e42d260e3cf06d1842,PennController,23,0,experiment,NULL,PennController,22,_Trial_,Start,1682390796986,sonaID,undefined,20,cat,filler,A,50,cat40.jpg,cat60.jpg,GoalB,memory-nogoals,NULL
1682390803,2bb2ed98b96001e42d260e3cf06d1842,PennController,23,0,experiment,NULL,PennController,22,_Header_,Start,1682390796986,sonaID,undefined,20,cat,filler,A,50,cat40.jpg,cat60.jpg,GoalB,memory-nogoals,NULL
1682390803,2bb2ed98b96001e42d260e3cf06d1842,PennController,23,0,experiment,NULL,PennController,22,_Header_,End,1682390796986,sonaID,undefined,20,cat,filler,A,50,cat40.jpg,cat60.jpg,GoalB,memory-nogoals,NULL
1682390803,2bb2ed98b96001e42d260e3cf06d1842,PennController,23,0,experiment,NULL,Canvas,canvas6,Print,NA,1682390802618,sonaID,undefined,20,cat,filler,A,50,cat40.jpg,cat60.jpg,GoalB,memory-nogoals,NULL
1682390803,2bb2ed98b96001e42d260e3cf06d1842,PennController,23,0,experiment,NULL,Video,progression,buffer,0.00213,1682390799503,sonaID,undefined,20,cat,filler,A,50,cat40.jpg,cat60.jpg,GoalB,memory-nogoals,NULL
1682390803,2bb2ed98b96001e42d260e3cf06d1842,PennController,23,0,experiment,NULL,Selector,choice,Selection,option2,1682390803731,sonaID,undefined,20,cat,filler,A,50,cat40.jpg,cat60.jpg,GoalB,memory-nogoals,option1;option2
1682390803,2bb2ed98b96001e42d260e3cf06d1842,PennController,23,0,experiment,NULL,PennController,22,_Trial_,End,1682390803733,sonaID,undefined,20,cat,filler,A,50,cat40.jpg,cat60.jpg,GoalB,memory-nogoals,NULL
